time_idx,accelerometerAccelerationX(G),accelerometerAccelerationY(G),accelerometerAccelerationZ(G)
180000,0.2993316650390625,-2.210952758789062,-0.1671905517578125
180001,0.355987548828125,-1.904983520507812,-0.1628265380859375
180002,0.443084716796875,-1.674850463867188,-0.210845947265625
180003,0.5067901611328125,-1.529708862304688,-0.2405242919921875
180004,0.5046234130859375,-1.407150268554688,-0.3171234130859375
180005,0.4440155029296875,-1.327301025390625,-0.35406494140625
180006,0.3401031494140625,-1.305191040039062,-0.29779052734375
180007,0.2229461669921875,-1.339111328125,-0.2422027587890625
180008,0.103179931640625,-1.367111206054688,-0.222625732421875
180009,-0.0066986083984375,-1.36224365234375,-0.215057373046875
180010,-0.0885467529296875,-1.357879638671875,-0.1949462890625
180011,-0.124847412109375,-1.354782104492188,-0.1672210693359375
180012,-0.1265716552734375,-1.340377807617188,-0.1235198974609375
180013,-0.09820556640625,-1.307083129882812,-0.06884765625
180014,-0.0554656982421875,-1.25933837890625,-0.02703857421875
180015,-0.0070343017578125,-1.185440063476562,-0.0244903564453125
180016,0.05682373046875,-1.103424072265625,-0.0576019287109375
180017,0.108612060546875,-1.027557373046875,-0.1104736328125
180018,0.1392822265625,-0.9386138916015624,-0.1332855224609375
180019,0.1480712890625,-0.8268280029296875,-0.1271820068359375
180020,0.143951416015625,-0.705841064453125,-0.1077880859375
180021,0.134429931640625,-0.599517822265625,-0.0939788818359375
180022,0.1181793212890625,-0.5031890869140625,-0.092803955078125
180023,0.111907958984375,-0.42205810546875,-0.0887298583984375
180024,0.11761474609375,-0.3546905517578125,-0.0837860107421875
180025,0.129852294921875,-0.288360595703125,-0.0714874267578125
180026,0.12945556640625,-0.2374725341796875,-0.052215576171875
180027,0.120025634765625,-0.164093017578125,-0.053436279296875
180028,0.11749267578125,-0.0576324462890625,-0.1024627685546875
180029,0.13134765625,0.0544281005859375,-0.2005157470703125
180030,0.1367645263671875,0.1270751953125,-0.2906646728515625
180031,0.11724853515625,0.1536865234375,-0.3272705078125
180032,0.073486328125,0.1479034423828125,-0.343505859375
180033,0.0189666748046875,0.1311798095703125,-0.3263092041015625
180034,-0.0228271484375,0.1174468994140625,-0.2440032958984375
180035,-0.0378570556640625,0.075439453125,-0.1185760498046875
180036,-0.0251617431640625,-0.0102386474609375,-0.008514404296875
180037,0.0063323974609375,-0.123443603515625,0.0400390625
180038,0.041107177734375,-0.2442779541015625,0.0481109619140625
180039,0.0905609130859375,-0.35345458984375,0.055572509765625
180040,0.1361846923828125,-0.4371490478515625,0.0576019287109375
180041,0.167083740234375,-0.5200958251953125,0.0430145263671875
180042,0.1827239990234375,-0.5648345947265625,-0.013153076171875
180043,0.1750030517578125,-0.58062744140625,-0.1025238037109375
180044,0.150238037109375,-0.5899505615234375,-0.18072509765625
180045,0.1157073974609375,-0.5981292724609375,-0.2368011474609375
180046,0.086456298828125,-0.5972747802734375,-0.2689971923828125
180047,0.055999755859375,-0.59735107421875,-0.2813568115234375
180048,0.0155487060546875,-0.619781494140625,-0.2986602783203125
180049,-0.0247650146484375,-0.65142822265625,-0.316680908203125
180050,-0.0665130615234375,-0.6945648193359375,-0.3150634765625
180051,-0.097198486328125,-0.75262451171875,-0.2897491455078125
180052,-0.1001739501953125,-0.8245849609375,-0.2252197265625
180053,-0.064788818359375,-0.9007720947265624,-0.1125946044921875
180054,-0.0063323974609375,-1.03228759765625,-0.0023193359375
180055,0.0455474853515625,-1.25244140625,0.0605926513671875
180056,0.0811767578125,-1.566024780273438,0.0605010986328125
180057,0.1359100341796875,-1.920272827148438,0.0003662109375
180058,0.2307891845703125,-2.282852172851562,-0.109588623046875
180059,0.3585357666015625,-2.597213745117188,-0.196624755859375
180060,0.488525390625,-2.883316040039062,-0.07049560546875
180061,0.688995361328125,-3.168563842773438,0.0211029052734375
180062,0.9828643798828124,-2.901840209960938,-0.149139404296875
180063,1.132949829101562,-2.562423706054688,-0.28802490234375
180064,1.010269165039062,-2.331619262695312,-0.2626800537109375
180065,0.7292938232421875,-2.0914306640625,-0.23260498046875
180066,0.512420654296875,-1.8487548828125,-0.256103515625
180067,0.39300537109375,-1.642684936523438,-0.2811126708984375
180068,0.329620361328125,-1.476699829101562,-0.3259124755859375
180069,0.297607421875,-1.330093383789062,-0.327301025390625
180070,0.2424163818359375,-1.25201416015625,-0.3379364013671875
180071,0.1677093505859375,-1.247894287109375,-0.353515625
180072,0.0836639404296875,-1.273635864257812,-0.3440704345703125
180073,0.0169525146484375,-1.302276611328125,-0.321685791015625
180074,-0.0328369140625,-1.31884765625,-0.274658203125
180075,-0.0733184814453125,-1.311447143554688,-0.2525177001953125
180076,-0.108154296875,-1.293624877929688,-0.223541259765625
180077,-0.1118011474609375,-1.259002685546875,-0.1590728759765625
180078,-0.0793914794921875,-1.196578979492188,-0.1200103759765625
180079,-0.025634765625,-1.126693725585938,-0.1082000732421875
180080,0.0450286865234375,-1.037445068359375,-0.140594482421875
180081,0.0915374755859375,-0.966796875,-0.198211669921875
180082,0.092437744140625,-0.9072418212890624,-0.2202911376953125
180083,0.081756591796875,-0.8199920654296875,-0.2079010009765625
180084,0.0837860107421875,-0.7136383056640625,-0.206268310546875
180085,0.090972900390625,-0.6153411865234375,-0.197601318359375
180086,0.1085205078125,-0.5355682373046875,-0.1771087646484375
180087,0.1480255126953125,-0.4669342041015625,-0.1642303466796875
180088,0.197113037109375,-0.40911865234375,-0.170013427734375
180089,0.2329559326171875,-0.3560333251953125,-0.177581787109375
180090,0.2418212890625,-0.305511474609375,-0.15679931640625
180091,0.222198486328125,-0.2671356201171875,-0.112335205078125
180092,0.1769561767578125,-0.22210693359375,-0.101593017578125
180093,0.135498046875,-0.145355224609375,-0.1127777099609375
180094,0.11614990234375,-0.05206298828125,-0.1495513916015625
180095,0.0884857177734375,0.0081329345703125,-0.20684814453125
180096,0.040283203125,0.01397705078125,-0.2410888671875
180097,-0.010040283203125,-0.014556884765625,-0.2407989501953125
180098,-0.043060302734375,-0.0468597412109375,-0.2218170166015625
180099,-0.06622314453125,-0.0792236328125,-0.1885223388671875
180100,-0.084625244140625,-0.11529541015625,-0.1428985595703125
180101,-0.10321044921875,-0.1537933349609375,-0.096405029296875
180102,-0.122039794921875,-0.18634033203125,-0.05242919921875
180103,-0.13018798828125,-0.21649169921875,-0.014190673828125
180104,-0.1237945556640625,-0.24786376953125,0.007965087890625
180105,-0.09674072265625,-0.2932586669921875,-0.003509521484375
180106,-0.0468292236328125,-0.3659820556640625,-0.044464111328125
180107,0.0074310302734375,-0.45513916015625,-0.0894927978515625
180108,0.045654296875,-0.542694091796875,-0.121826171875
180109,0.0768280029296875,-0.6281890869140625,-0.1533660888671875
180110,0.10260009765625,-0.7054901123046875,-0.1811370849609375
180111,0.11956787109375,-0.7542572021484375,-0.2135162353515625
180112,0.1197967529296875,-0.7852630615234375,-0.26214599609375
180113,0.1109466552734375,-0.7994232177734375,-0.295928955078125
180114,0.0962371826171875,-0.8123779296875,-0.307586669921875
180115,0.08001708984375,-0.8478546142578125,-0.3090667724609375
180116,0.0719146728515625,-0.9102935791015624,-0.301300048828125
180117,0.080413818359375,-0.993438720703125,-0.269287109375
180118,0.098052978515625,-1.081329345703125,-0.2299346923828125
180119,0.1085052490234375,-1.187423706054688,-0.1974945068359375
180120,0.1105194091796875,-1.368637084960938,-0.192779541015625
180121,0.1181488037109375,-1.610122680664062,-0.2492218017578125
180122,0.1533203125,-1.890609741210938,-0.3257598876953125
180123,0.214324951171875,-2.259963989257812,-0.4406890869140625
180124,0.270263671875,-2.702194213867188,-0.41925048828125
180125,0.420379638671875,-3.169418334960938,-0.1207427978515625
180126,0.676025390625,-3.261566162109375,0.150604248046875
180127,0.7520294189453125,-2.76806640625,0.0977020263671875
180128,0.59075927734375,-2.38238525390625,-0.0322723388671875
180129,0.3943939208984375,-2.086288452148438,-0.0069580078125
180130,0.3361053466796875,-1.826156616210938,-0.1207733154296875
180131,0.37249755859375,-1.608657836914062,-0.241363525390625
180132,0.4203948974609375,-1.406753540039062,-0.3185272216796875
180133,0.3964385986328125,-1.255783081054688,-0.349151611328125
180134,0.3175048828125,-1.19293212890625,-0.3552093505859375
180135,0.2246551513671875,-1.227890014648438,-0.2906494140625
180136,0.1509246826171875,-1.305633544921875,-0.2234039306640625
180137,0.094757080078125,-1.404403686523438,-0.175048828125
180138,0.0385589599609375,-1.5045166015625,-0.118377685546875
180139,0.0081939697265625,-1.5267333984375,-0.050445556640625
180140,0.011260986328125,-1.44683837890625,-0.01641845703125
180141,0.030059814453125,-1.32586669921875,0.030670166015625
180142,0.042083740234375,-1.233184814453125,0.0309600830078125
180143,0.0279693603515625,-1.153091430664062,-0.0517425537109375
180144,0.0015106201171875,-1.074783325195312,-0.1337738037109375
180145,-0.0244293212890625,-0.9824066162109376,-0.1766510009765625
180146,-0.040985107421875,-0.88165283203125,-0.189178466796875
180147,-0.0507354736328125,-0.7962799072265625,-0.1810760498046875
180148,-0.05255126953125,-0.7100067138671875,-0.1558837890625
180149,-0.0415496826171875,-0.6248016357421875,-0.1329803466796875
180150,-0.027130126953125,-0.5424346923828125,-0.110137939453125
180151,-0.01239013671875,-0.46624755859375,-0.09661865234375
180152,0.005035400390625,-0.40185546875,-0.0919036865234375
180153,0.0268096923828125,-0.3410186767578125,-0.0972137451171875
180154,0.0516815185546875,-0.269500732421875,-0.0995025634765625
180155,0.079864501953125,-0.187042236328125,-0.1039581298828125
180156,0.09564208984375,-0.1169586181640625,-0.1190948486328125
180157,0.098846435546875,-0.0664215087890625,-0.141448974609375
180158,0.1085968017578125,-0.019287109375,-0.151947021484375
180159,0.1231536865234375,0.0067138671875,-0.180023193359375
180160,0.1252288818359375,-0.001007080078125,-0.2001800537109375
180161,0.098968505859375,-0.0323638916015625,-0.189361572265625
180162,0.042816162109375,-0.05828857421875,-0.1540985107421875
180163,-0.0054473876953125,-0.0891876220703125,-0.0986175537109375
180164,-0.042999267578125,-0.1273040771484375,-0.07183837890625
180165,-0.071441650390625,-0.16741943359375,-0.06158447265625
180166,-0.0820159912109375,-0.21856689453125,-0.047088623046875
180167,-0.0777740478515625,-0.2749481201171875,-0.043731689453125
180168,-0.0592041015625,-0.3372650146484375,-0.0552520751953125
180169,-0.02911376953125,-0.40069580078125,-0.07421875
180170,0.0135650634765625,-0.46588134765625,-0.0995025634765625
180171,0.054229736328125,-0.5315093994140625,-0.1252288818359375
180172,0.0848236083984375,-0.5897674560546875,-0.13836669921875
180173,0.1090087890625,-0.646759033203125,-0.140625
180174,0.1226654052734375,-0.7003021240234375,-0.1338348388671875
180175,0.1258544921875,-0.732513427734375,-0.143035888671875
180176,0.1241455078125,-0.724853515625,-0.168853759765625
180177,0.1193389892578125,-0.698028564453125,-0.1832122802734375
180178,0.1009063720703125,-0.6950531005859375,-0.1583709716796875
180179,0.07275390625,-0.7120208740234375,-0.1180419921875
180180,0.0535736083984375,-0.758636474609375,-0.08819580078125
180181,0.0523834228515625,-0.8251800537109375,-0.058837890625
180182,0.0587921142578125,-0.9209442138671876,-0.0355072021484375
180183,0.0618438720703125,-1.077163696289062,-0.043853759765625
180184,0.066131591796875,-1.304580688476562,-0.0827178955078125
180185,0.0819091796875,-1.59332275390625,-0.14453125
180186,0.136810302734375,-1.92755126953125,-0.2147064208984375
180187,0.24713134765625,-2.371307373046875,-0.3180999755859375
180188,0.3864898681640625,-2.9071044921875,-0.287628173828125
180189,0.519927978515625,-3.39935302734375,0.04083251953125
180190,0.6302642822265625,-3.370681762695312,0.0832061767578125
180191,0.6619415283203125,-2.764312744140625,-0.1145172119140625
180192,0.644287109375,-2.272048950195312,-0.144866943359375
180193,0.54473876953125,-1.935379028320312,-0.0360107421875
180194,0.4273834228515625,-1.690017700195312,-0.0258331298828125
180195,0.37298583984375,-1.520523071289062,-0.113800048828125
180196,0.343658447265625,-1.37396240234375,-0.1510009765625
180197,0.304901123046875,-1.258544921875,-0.1794281005859375
180198,0.2700958251953125,-1.159088134765625,-0.184539794921875
180199,0.2191619873046875,-1.098770141601562,-0.210662841796875
180200,0.14056396484375,-1.076141357421875,-0.2682037353515625
180201,0.0511932373046875,-1.069168090820312,-0.3194122314453125
180202,-0.0258026123046875,-1.072189331054688,-0.355438232421875
180203,-0.0864715576171875,-1.089874267578125,-0.3839569091796875
180204,-0.12396240234375,-1.108688354492188,-0.4027099609375
180205,-0.1333770751953125,-1.119186401367188,-0.39776611328125
180206,-0.1204376220703125,-1.097793579101562,-0.3900146484375
180207,-0.084625244140625,-1.051101684570312,-0.379241943359375
180208,-0.0474700927734375,-1.013519287109375,-0.330596923828125
180209,-0.0150604248046875,-0.98822021484375,-0.2623443603515625
180210,0.0106048583984375,-0.9700164794921876,-0.217041015625
180211,0.03076171875,-0.940277099609375,-0.19940185546875
180212,0.0405120849609375,-0.8939208984375,-0.2020721435546875
180213,0.0441741943359375,-0.834808349609375,-0.1831207275390625
180214,0.051849365234375,-0.75262451171875,-0.1622161865234375
180215,0.070159912109375,-0.6614837646484375,-0.1454315185546875
180216,0.0946197509765625,-0.58477783203125,-0.1353759765625
180217,0.1243438720703125,-0.519256591796875,-0.1355438232421875
180218,0.1585845947265625,-0.4548187255859375,-0.1395721435546875
180219,0.1921539306640625,-0.382080078125,-0.1464080810546875
180220,0.2256927490234375,-0.3252105712890625,-0.14471435546875
180221,0.24664306640625,-0.283538818359375,-0.132843017578125
180222,0.24334716796875,-0.2405242919921875,-0.09637451171875
180223,0.2108612060546875,-0.184234619140625,-0.064697265625
180224,0.159332275390625,-0.0943450927734375,-0.102203369140625
180225,0.116363525390625,-0.0106964111328125,-0.1882171630859375
180226,0.0505218505859375,0.01904296875,-0.2343597412109375
180227,-0.00848388671875,0.0200653076171875,-0.219482421875
180228,-0.042022705078125,0.010528564453125,-0.1882476806640625
180229,-0.0621490478515625,-0.03472900390625,-0.152557373046875
180230,-0.0753173828125,-0.1114349365234375,-0.12060546875
180231,-0.0783843994140625,-0.1913909912109375,-0.094268798828125
180232,-0.0670013427734375,-0.2622222900390625,-0.069427490234375
180233,-0.0507659912109375,-0.3304595947265625,-0.0665283203125
180234,-0.026336669921875,-0.4125823974609375,-0.0821990966796875
180235,0.025543212890625,-0.4966278076171875,-0.101959228515625
180236,0.09637451171875,-0.55963134765625,-0.1196441650390625
180237,0.1470489501953125,-0.600372314453125,-0.1380157470703125
180238,0.1722564697265625,-0.626068115234375,-0.1572418212890625
180239,0.1798095703125,-0.643218994140625,-0.1942901611328125
180240,0.1702728271484375,-0.6719207763671875,-0.2459564208984375
180241,0.1413116455078125,-0.7255401611328125,-0.299072265625
180242,0.1138763427734375,-0.7828369140625,-0.3292388916015625
180243,0.1065521240234375,-0.8415069580078125,-0.328216552734375
180244,0.1090240478515625,-0.9227142333984376,-0.3172454833984375
180245,0.1198883056640625,-1.0277099609375,-0.29754638671875
180246,0.136566162109375,-1.158157348632812,-0.264129638671875
180247,0.150054931640625,-1.32781982421875,-0.2163848876953125
180248,0.1654205322265625,-1.513107299804688,-0.1747894287109375
180249,0.1859588623046875,-1.705825805664062,-0.1522979736328125
180250,0.221099853515625,-1.910125732421875,-0.1793975830078125
180251,0.2813873291015625,-2.147445678710938,-0.28826904296875
180252,0.35235595703125,-2.421005249023438,-0.44757080078125
180253,0.3914794921875,-2.728363037109375,-0.503143310546875
180254,0.4704742431640625,-2.963027954101562,-0.306121826171875
180255,0.5899810791015625,-2.810470581054688,-0.050323486328125
180256,0.5311431884765625,-2.46246337890625,-0.1561737060546875
180257,0.357635498046875,-2.163070678710938,-0.2794952392578125
180258,0.2074127197265625,-1.833160400390625,-0.3218536376953125
180259,0.1501312255859375,-1.533035278320312,-0.4221954345703125
180260,0.1901702880859375,-1.38177490234375,-0.4955902099609375
180261,0.301300048828125,-1.332473754882812,-0.5482177734375
180262,0.411468505859375,-1.339065551757812,-0.565643310546875
180263,0.44970703125,-1.382217407226562,-0.5696563720703125
180264,0.3847198486328125,-1.502288818359375,-0.5107879638671875
180265,0.26580810546875,-1.659835815429688,-0.36865234375
180266,0.1734619140625,-1.784591674804688,-0.23016357421875
180267,0.108306884765625,-1.840438842773438,-0.110595703125
180268,0.073272705078125,-1.809158325195312,0.03302001953125
180269,0.0694580078125,-1.723358154296875,0.1376953125
180270,0.0915374755859375,-1.606796264648438,0.1534271240234375
180271,0.1395416259765625,-1.439956665039062,0.1115264892578125
180272,0.1549530029296875,-1.239181518554688,-0.0369720458984375
180273,0.1496124267578125,-1.07720947265625,-0.1889495849609375
180274,0.130889892578125,-0.935150146484375,-0.221099853515625
180275,0.108917236328125,-0.7995147705078125,-0.223785400390625
180276,0.0878143310546875,-0.668304443359375,-0.2236480712890625
180277,0.0663299560546875,-0.5467529296875,-0.207061767578125
180278,0.048980712890625,-0.4420166015625,-0.170684814453125
180279,0.0386962890625,-0.352386474609375,-0.1461944580078125
180280,0.035491943359375,-0.2715301513671875,-0.147918701171875
180281,0.027496337890625,-0.204559326171875,-0.1508331298828125
180282,0.0138702392578125,-0.15142822265625,-0.1137542724609375
180283,-0.0130462646484375,-0.072784423828125,-0.0668182373046875
180284,-0.047882080078125,0.0301971435546875,-0.0509796142578125
180285,-0.0568084716796875,0.1501007080078125,-0.104949951171875
180286,-0.033935546875,0.2102203369140625,-0.2004547119140625
180287,-0.0008087158203125,0.18194580078125,-0.27178955078125
180288,0.024261474609375,0.0958099365234375,-0.264190673828125
180289,-0.0009918212890625,0.0278167724609375,-0.235809326171875
180290,-0.04327392578125,-0.01300048828125,-0.2021484375
180291,-0.067626953125,-0.0347137451171875,-0.16021728515625
180292,-0.08355712890625,-0.0504913330078125,-0.1169281005859375
180293,-0.100341796875,-0.0785064697265625,-0.0765380859375
180294,-0.1113739013671875,-0.1041107177734375,-0.0532073974609375
180295,-0.1160430908203125,-0.13702392578125,-0.0469818115234375
180296,-0.110076904296875,-0.1647186279296875,-0.0590667724609375
180297,-0.09161376953125,-0.194671630859375,-0.0822906494140625
180298,-0.0509796142578125,-0.2334136962890625,-0.11090087890625
180299,-0.00048828125,-0.2756500244140625,-0.13983154296875
180300,0.0378875732421875,-0.3155517578125,-0.1578369140625
180301,0.059539794921875,-0.3608856201171875,-0.168426513671875
180302,0.076202392578125,-0.4115753173828125,-0.1765899658203125
180303,0.0859222412109375,-0.4672393798828125,-0.1972198486328125
180304,0.08935546875,-0.5332183837890625,-0.2343902587890625
180305,0.0891876220703125,-0.5989532470703125,-0.2628631591796875
180306,0.082733154296875,-0.6591339111328125,-0.2834320068359375
180307,0.0659027099609375,-0.72216796875,-0.2900543212890625
180308,0.04742431640625,-0.791534423828125,-0.2772979736328125
180309,0.0420684814453125,-0.883575439453125,-0.241302490234375
180310,0.053070068359375,-1.0181884765625,-0.1817626953125
180311,0.090576171875,-1.249267578125,-0.114410400390625
180312,0.1627044677734375,-1.574325561523438,-0.0477752685546875
180313,0.2803955078125,-1.988555908203125,0.0263671875
180314,0.42474365234375,-2.37738037109375,0.0276031494140625
180315,0.522552490234375,-2.661834716796875,-0.0363616943359375
180316,0.6168365478515625,-2.833938598632812,-0.1552886962890625
180317,0.659454345703125,-2.949264526367188,-0.2192535400390625
180318,0.5404510498046875,-2.83624267578125,-0.1901397705078125
180319,0.3208770751953125,-2.621963500976562,-0.2395172119140625
180320,0.195037841796875,-2.44256591796875,-0.2542724609375
180321,0.1944732666015625,-2.265396118164062,-0.334747314453125
180322,0.2540740966796875,-2.062942504882812,-0.4335784912109375
180323,0.3090057373046875,-1.83721923828125,-0.4809112548828125
180324,0.358306884765625,-1.632293701171875,-0.536285400390625
180325,0.394134521484375,-1.452423095703125,-0.5435028076171875
180326,0.42138671875,-1.32513427734375,-0.55731201171875
180327,0.4267425537109375,-1.231521606445312,-0.508453369140625
180328,0.3653411865234375,-1.2022705078125,-0.368927001953125
180329,0.2281341552734375,-1.204116821289062,-0.260955810546875
180330,0.09613037109375,-1.159439086914062,-0.1768798828125
180331,-0.000732421875,-1.112457275390625,-0.0911102294921875
180332,-0.068695068359375,-1.107101440429688,-0.0270538330078125
180333,-0.0972137451171875,-1.10888671875,-0.0004730224609375
180334,-0.0718841552734375,-1.101913452148438,-0.001495361328125
180335,-0.0087432861328125,-1.087432861328125,-0.033355712890625
180336,0.057861328125,-1.033004760742188,-0.091796875
180337,0.114501953125,-0.9627685546875,-0.1499481201171875
180338,0.15313720703125,-0.9120330810546876,-0.2049102783203125
180339,0.1790313720703125,-0.860870361328125,-0.2425384521484375
180340,0.1887664794921875,-0.8018951416015625,-0.26043701171875
180341,0.177032470703125,-0.72589111328125,-0.2535400390625
180342,0.153106689453125,-0.641754150390625,-0.2285308837890625
180343,0.12786865234375,-0.562103271484375,-0.20330810546875
180344,0.1098175048828125,-0.4906768798828125,-0.1759796142578125
180345,0.1020355224609375,-0.4268646240234375,-0.156402587890625
180346,0.09619140625,-0.378326416015625,-0.142974853515625
180347,0.08837890625,-0.33746337890625,-0.1259765625
180348,0.075836181640625,-0.285797119140625,-0.0978851318359375
180349,0.0550537109375,-0.1995697021484375,-0.0767822265625
180350,0.0299072265625,-0.0951690673828125,-0.083770751953125
180351,0.0061492919921875,0.010009765625,-0.13287353515625
180352,0.0032958984375,0.0966644287109375,-0.1947784423828125
180353,0.0164794921875,0.119903564453125,-0.2175445556640625
180354,0.0288848876953125,0.07373046875,-0.190673828125
180355,0.0458984375,-0.0377197265625,-0.1240692138671875
180356,0.05804443359375,-0.1429290771484375,-0.0752410888671875
180357,0.0558624267578125,-0.2120208740234375,-0.0485992431640625
180358,0.0448760986328125,-0.2619171142578125,-0.037506103515625
180359,0.0291900634765625,-0.303558349609375,-0.0284271240234375
180360,0.0203094482421875,-0.3497314453125,-0.0149078369140625
180361,0.019989013671875,-0.389129638671875,-0.0324859619140625
180362,0.0240631103515625,-0.4139251708984375,-0.082061767578125
180363,0.0319366455078125,-0.441497802734375,-0.1385040283203125
180364,0.0506591796875,-0.4483489990234375,-0.191619873046875
180365,0.0787200927734375,-0.452667236328125,-0.24383544921875
180366,0.1023712158203125,-0.4869384765625,-0.28204345703125
180367,0.1144256591796875,-0.525482177734375,-0.2992706298828125
180368,0.117218017578125,-0.579833984375,-0.2895355224609375
180369,0.13323974609375,-0.6458740234375,-0.2934112548828125
180370,0.16558837890625,-0.716827392578125,-0.2796173095703125
180371,0.200714111328125,-0.79107666015625,-0.2430572509765625
180372,0.237640380859375,-0.8702545166015625,-0.1981658935546875
180373,0.2649993896484375,-0.948822021484375,-0.1592254638671875
180374,0.2788848876953125,-1.049774169921875,-0.1504364013671875
180375,0.2804412841796875,-1.17254638671875,-0.1793212890625
180376,0.2612152099609375,-1.334381103515625,-0.236724853515625
180377,0.2394561767578125,-1.52752685546875,-0.3195037841796875
180378,0.23516845703125,-1.798736572265625,-0.396514892578125
180379,0.279052734375,-2.152069091796875,-0.4258575439453125
180380,0.36407470703125,-2.54888916015625,-0.4343414306640625
180381,0.4550933837890625,-2.890335083007812,-0.4049224853515625
180382,0.5068206787109375,-3.048629760742188,-0.3018035888671875
180383,0.508148193359375,-2.985931396484375,-0.2241668701171875
180384,0.47406005859375,-2.691497802734375,-0.2200164794921875
180385,0.3754119873046875,-2.383987426757812,-0.28240966796875
180386,0.3264923095703125,-2.140594482421875,-0.3105621337890625
180387,0.344512939453125,-1.900527954101562,-0.4080352783203125
180388,0.4015655517578125,-1.684555053710938,-0.5173187255859375
180389,0.492950439453125,-1.520599365234375,-0.588531494140625
180390,0.603759765625,-1.418701171875,-0.60894775390625
180391,0.69635009765625,-1.389633178710938,-0.574310302734375
180392,0.7108154296875,-1.412612915039062,-0.51519775390625
180393,0.586456298828125,-1.427474975585938,-0.437835693359375
180394,0.419891357421875,-1.35015869140625,-0.323455810546875
180395,0.2867584228515625,-1.281387329101562,-0.239227294921875
180396,0.15802001953125,-1.265701293945312,-0.1955718994140625
180397,0.0477142333984375,-1.263992309570312,-0.1267547607421875
180398,-0.0281982421875,-1.227203369140625,-0.067779541015625
180399,-0.0429534912109375,-1.149505615234375,-0.0496368408203125
180400,-0.00213623046875,-1.050735473632812,-0.058746337890625
180401,0.05401611328125,-0.947662353515625,-0.0975189208984375
180402,0.0937652587890625,-0.84228515625,-0.1384124755859375
180403,0.1139373779296875,-0.7473297119140625,-0.1544952392578125
180404,0.1212921142578125,-0.6630401611328125,-0.1433258056640625
180405,0.1185455322265625,-0.5801544189453125,-0.11053466796875
180406,0.113372802734375,-0.513641357421875,-0.067474365234375
180407,0.1116943359375,-0.456573486328125,-0.0123443603515625
180408,0.116363525390625,-0.3932342529296875,0.0413818359375
180409,0.1223297119140625,-0.3435516357421875,0.05548095703125
180410,0.1300201416015625,-0.298431396484375,0.029052734375
180411,0.127716064453125,-0.2282257080078125,0.0004730224609375
180412,0.09716796875,-0.1289520263671875,-0.0452423095703125
180413,0.0427703857421875,-0.009979248046875,-0.17095947265625
180414,0.0147857666015625,0.0956878662109375,-0.3290557861328125
180415,0.0199127197265625,0.1477203369140625,-0.410797119140625
180416,0.04840087890625,0.1451416015625,-0.3896484375
180417,0.086212158203125,0.0826568603515625,-0.3411865234375
180418,0.1050567626953125,-0.0076751708984375,-0.290283203125
180419,0.0948944091796875,-0.0797271728515625,-0.2331390380859375
180420,0.0708465576171875,-0.1365203857421875,-0.1810760498046875
180421,0.0487213134765625,-0.19268798828125,-0.134185791015625
180422,0.03094482421875,-0.25445556640625,-0.1076812744140625
180423,0.021728515625,-0.3115081787109375,-0.0793914794921875
180424,0.0215911865234375,-0.361541748046875,-0.036102294921875
180425,0.02880859375,-0.40838623046875,0.008880615234375
180426,0.0433349609375,-0.461273193359375,0.0231781005859375
180427,0.07489013671875,-0.520965576171875,0.004730224609375
180428,0.1018218994140625,-0.560760498046875,-0.031219482421875
180429,0.1133270263671875,-0.6058807373046875,-0.0719451904296875
180430,0.101898193359375,-0.649261474609375,-0.116241455078125
180431,0.0771636962890625,-0.678375244140625,-0.1595611572265625
180432,0.0474700927734375,-0.702178955078125,-0.19415283203125
180433,0.013031005859375,-0.7191314697265625,-0.2097015380859375
180434,-0.0143585205078125,-0.7369842529296875,-0.2191925048828125
180435,-0.0219879150390625,-0.7750396728515625,-0.23297119140625
180436,-0.00689697265625,-0.817657470703125,-0.2488555908203125
180437,0.0241546630859375,-0.877410888671875,-0.256744384765625
180438,0.0606842041015625,-0.95794677734375,-0.2392425537109375
180439,0.107208251953125,-1.105194091796875,-0.235076904296875
180440,0.17486572265625,-1.31805419921875,-0.24993896484375
180441,0.2704620361328125,-1.583755493164062,-0.310272216796875
180442,0.4421539306640625,-1.938735961914062,-0.383819580078125
180443,0.65423583984375,-2.405258178710938,-0.3680877685546875
180444,0.823333740234375,-2.901565551757812,-0.310943603515625
180445,0.947418212890625,-3.222457885742188,-0.3837127685546875
180446,0.8432464599609375,-3.007171630859375,-0.3724822998046875
180447,0.6294708251953125,-2.604019165039062,-0.24041748046875
180448,0.470855712890625,-2.309310913085938,-0.1932220458984375
180449,0.4168853759765625,-2.053085327148438,-0.165313720703125
180450,0.44781494140625,-1.859176635742188,-0.20587158203125
180451,0.4490814208984375,-1.71075439453125,-0.294189453125
180452,0.409881591796875,-1.572769165039062,-0.379547119140625
180453,0.352996826171875,-1.44610595703125,-0.4708404541015625
180454,0.275421142578125,-1.34600830078125,-0.5194091796875
180455,0.173614501953125,-1.268096923828125,-0.5076904296875
180456,0.06475830078125,-1.200271606445312,-0.4637603759765625
180457,-0.008026123046875,-1.148757934570312,-0.4316558837890625
180458,-0.039276123046875,-1.14251708984375,-0.38360595703125
180459,-0.0196685791015625,-1.130813598632812,-0.2993011474609375
180460,0.02862548828125,-1.119384765625,-0.2132568359375
180461,0.0905303955078125,-1.102218627929688,-0.154754638671875
180462,0.1519012451171875,-1.070526123046875,-0.145660400390625
180463,0.194305419921875,-1.023208618164062,-0.1762847900390625
180464,0.2200164794921875,-0.964202880859375,-0.19805908203125
180465,0.2448272705078125,-0.8946685791015625,-0.1991729736328125
180466,0.260009765625,-0.828521728515625,-0.1950836181640625
180467,0.2656402587890625,-0.767333984375,-0.1937408447265625
180468,0.2697906494140625,-0.6891937255859375,-0.184844970703125
180469,0.27008056640625,-0.6146392822265625,-0.1672515869140625
180470,0.27752685546875,-0.5476226806640625,-0.160980224609375
180471,0.2983245849609375,-0.481292724609375,-0.150115966796875
180472,0.322967529296875,-0.4245452880859375,-0.1333465576171875
180473,0.3309478759765625,-0.3802490234375,-0.1096649169921875
180474,0.3184661865234375,-0.3268280029296875,-0.08587646484375
180475,0.28192138671875,-0.2651519775390625,-0.080230712890625
180476,0.2322540283203125,-0.1939697265625,-0.093414306640625
180477,0.166259765625,-0.1221160888671875,-0.1270904541015625
180478,0.080322265625,-0.077178955078125,-0.1769561767578125
180479,0.0025177001953125,-0.04730224609375,-0.224822998046875
180480,-0.0517425537109375,-0.022735595703125,-0.2365570068359375
180481,-0.0959930419921875,-0.009918212890625,-0.21356201171875
180482,-0.1303863525390625,-0.01519775390625,-0.1710205078125
180483,-0.1519775390625,-0.0508575439453125,-0.11480712890625
180484,-0.1598358154296875,-0.12493896484375,-0.0430755615234375
180485,-0.1482086181640625,-0.2235565185546875,0.0171966552734375
180486,-0.121734619140625,-0.314727783203125,0.0411224365234375
180487,-0.0809173583984375,-0.3913726806640625,0.051910400390625
180488,-0.0215301513671875,-0.4536285400390625,0.0692291259765625
180489,0.0419464111328125,-0.53125,0.05487060546875
180490,0.1045074462890625,-0.61492919921875,0.0258941650390625
180491,0.169891357421875,-0.6594390869140625,-0.0403289794921875
180492,0.207275390625,-0.6922607421875,-0.116943359375
180493,0.2179107666015625,-0.7128143310546875,-0.1933746337890625
180494,0.218597412109375,-0.701904296875,-0.2575225830078125
180495,0.2063751220703125,-0.674285888671875,-0.28448486328125
180496,0.1893157958984375,-0.6508331298828125,-0.292999267578125
180497,0.1788482666015625,-0.6550140380859375,-0.302459716796875
180498,0.172149658203125,-0.696807861328125,-0.301300048828125
180499,0.174163818359375,-0.75836181640625,-0.282806396484375
180500,0.182830810546875,-0.825927734375,-0.2725982666015625
180501,0.19781494140625,-0.8975372314453125,-0.2509918212890625
180502,0.2198028564453125,-1.020553588867188,-0.186920166015625
180503,0.2310791015625,-1.227249145507812,-0.134429931640625
180504,0.2397003173828125,-1.529144287109375,-0.1295928955078125
180505,0.2636260986328125,-1.877838134765625,-0.1302642822265625
180506,0.302337646484375,-2.212432861328125,-0.1586151123046875
180507,0.3610382080078125,-2.529556274414062,-0.2399139404296875
180508,0.427734375,-2.829620361328125,-0.2650604248046875
180509,0.5201416015625,-2.969879150390625,-0.093719482421875
180510,0.571014404296875,-2.931976318359375,-0.0104522705078125
180511,0.5609130859375,-2.701583862304688,-0.057373046875
180512,0.536773681640625,-2.370269775390625,-0.116119384765625
180513,0.506134033203125,-2.05084228515625,-0.174957275390625
180514,0.498321533203125,-1.752182006835938,-0.2460784912109375
180515,0.512603759765625,-1.509185791015625,-0.352264404296875
180516,0.543975830078125,-1.296478271484375,-0.4983062744140625
180517,0.56768798828125,-1.154953002929688,-0.6254119873046875
180518,0.5158843994140625,-1.14935302734375,-0.657562255859375
180519,0.39764404296875,-1.229019165039062,-0.4740447998046875
180520,0.2558746337890625,-1.279190063476562,-0.2278289794921875
180521,0.1218719482421875,-1.31585693359375,-0.1048431396484375
180522,0.0174560546875,-1.36138916015625,-0.05718994140625
180523,-0.0411376953125,-1.340530395507812,-0.0234375
180524,-0.0734405517578125,-1.247711181640625,-0.0424346923828125
180525,-0.0882415771484375,-1.154403686523438,-0.0946807861328125
180526,-0.11895751953125,-1.125274658203125,-0.1391754150390625
180527,-0.1289215087890625,-1.08892822265625,-0.217132568359375
180528,-0.061553955078125,-0.97796630859375,-0.239013671875
180529,0.0232086181640625,-0.8489837646484375,-0.215118408203125
180530,0.0841064453125,-0.758880615234375,-0.2221832275390625
180531,0.1236572265625,-0.6862335205078125,-0.22357177734375
180532,0.14501953125,-0.618988037109375,-0.2154083251953125
180533,0.162933349609375,-0.550018310546875,-0.2134857177734375
180534,0.17742919921875,-0.481719970703125,-0.2134857177734375
180535,0.1864471435546875,-0.4195404052734375,-0.1973419189453125
180536,0.177886962890625,-0.3691864013671875,-0.1619110107421875
180537,0.1591644287109375,-0.3120269775390625,-0.10906982421875
180538,0.14453125,-0.2403717041015625,-0.0339508056640625
180539,0.1479949951171875,-0.154388427734375,0.01922607421875
180540,0.1837005615234375,-0.072357177734375,-0.0075836181640625
180541,0.2264556884765625,-0.0295562744140625,-0.0873260498046875
180542,0.238555908203125,-0.0411529541015625,-0.1260833740234375
180543,0.2244415283203125,-0.083892822265625,-0.116668701171875
180544,0.1866607666015625,-0.123626708984375,-0.10986328125
180545,0.1214447021484375,-0.1497650146484375,-0.113433837890625
180546,0.05364990234375,-0.164306640625,-0.1031494140625
180547,0.0022430419921875,-0.1854095458984375,-0.0937042236328125
180548,-0.03131103515625,-0.2176055908203125,-0.1051177978515625
180549,-0.045257568359375,-0.2583160400390625,-0.1169891357421875
180550,-0.0460052490234375,-0.316436767578125,-0.1183929443359375
180551,-0.042022705078125,-0.377227783203125,-0.1240234375
180552,-0.03277587890625,-0.427764892578125,-0.1438751220703125
180553,-0.00408935546875,-0.46734619140625,-0.186279296875
180554,0.0378265380859375,-0.5088348388671875,-0.237335205078125
180555,0.06951904296875,-0.572906494140625,-0.277587890625
180556,0.0908966064453125,-0.6235504150390625,-0.315948486328125
180557,0.1005096435546875,-0.64215087890625,-0.3226776123046875
180558,0.09197998046875,-0.6735687255859375,-0.2974853515625
180559,0.080963134765625,-0.7293853759765625,-0.2554168701171875
180560,0.0758514404296875,-0.7906951904296875,-0.2123870849609375
180561,0.090972900390625,-0.857940673828125,-0.158538818359375
180562,0.1244049072265625,-0.9368438720703124,-0.120758056640625
180563,0.164947509765625,-1.033493041992188,-0.11871337890625
180564,0.21209716796875,-1.120697021484375,-0.1349639892578125
180565,0.2546234130859375,-1.19256591796875,-0.1714630126953125
180566,0.275848388671875,-1.274307250976562,-0.2423248291015625
180567,0.2925262451171875,-1.407943725585938,-0.30596923828125
180568,0.3135528564453125,-1.611770629882812,-0.3361358642578125
180569,0.35687255859375,-1.847564697265625,-0.3801727294921875
180570,0.4295501708984375,-2.105148315429688,-0.4449310302734375
180571,0.5328826904296875,-2.366317749023438,-0.51287841796875
180572,0.6143035888671875,-2.578277587890625,-0.52557373046875
180573,0.6086273193359375,-2.658706665039062,-0.458953857421875
180574,0.5513916015625,-2.577102661132812,-0.42120361328125
180575,0.4606475830078125,-2.350540161132812,-0.40716552734375
180576,0.3878173828125,-2.094802856445312,-0.328125
180577,0.3569793701171875,-1.830551147460938,-0.2769317626953125
180578,0.3628997802734375,-1.559524536132812,-0.26861572265625
180579,0.4175872802734375,-1.37359619140625,-0.300567626953125
180580,0.5064697265625,-1.3123779296875,-0.332122802734375
180581,0.555145263671875,-1.348556518554688,-0.35504150390625
180582,0.516815185546875,-1.43817138671875,-0.37860107421875
180583,0.4148406982421875,-1.525726318359375,-0.319671630859375
180584,0.3209686279296875,-1.587493896484375,-0.138824462890625
180585,0.239044189453125,-1.581893920898438,0.0124359130859375
180586,0.168975830078125,-1.5206298828125,0.0636444091796875
180587,0.1209869384765625,-1.386520385742188,0.0821990966796875
180588,0.116119384765625,-1.230133056640625,0.08447265625
180589,0.176666259765625,-1.087020874023438,0.0230865478515625
180590,0.236053466796875,-0.959320068359375,-0.0729522705078125
180591,0.2352752685546875,-0.849395751953125,-0.1617431640625
180592,0.22393798828125,-0.75201416015625,-0.20867919921875
180593,0.2112884521484375,-0.6748046875,-0.22357177734375
180594,0.1939697265625,-0.6098175048828125,-0.2090606689453125
180595,0.1851654052734375,-0.5465850830078125,-0.181640625
180596,0.186614990234375,-0.49066162109375,-0.1566619873046875
180597,0.1882781982421875,-0.444091796875,-0.1566925048828125
180598,0.1848907470703125,-0.4092559814453125,-0.168731689453125
180599,0.1963653564453125,-0.3597564697265625,-0.17816162109375
180600,0.2228851318359375,-0.310791015625,-0.1879119873046875
180601,0.2407073974609375,-0.2841796875,-0.1988677978515625
180602,0.2358245849609375,-0.2667999267578125,-0.1988067626953125
180603,0.2189178466796875,-0.239349365234375,-0.1866607666015625
180604,0.19940185546875,-0.1964874267578125,-0.17218017578125
180605,0.1781158447265625,-0.174072265625,-0.1595916748046875
180606,0.147705078125,-0.1876373291015625,-0.1669464111328125
180607,0.10382080078125,-0.1974639892578125,-0.1834716796875
180608,0.068634033203125,-0.202972412109375,-0.1974029541015625
180609,0.056884765625,-0.2120513916015625,-0.1875457763671875
180610,0.0517578125,-0.224029541015625,-0.1745758056640625
180611,0.0587615966796875,-0.243865966796875,-0.14825439453125
180612,0.0751495361328125,-0.2650909423828125,-0.1204681396484375
180613,0.0885467529296875,-0.289337158203125,-0.08282470703125
180614,0.0937347412109375,-0.3251495361328125,-0.033203125
180615,0.09674072265625,-0.3430328369140625,0.011505126953125
180616,0.1093902587890625,-0.34674072265625,0.0351715087890625
180617,0.1293792724609375,-0.3395233154296875,-0.0114288330078125
180618,0.154022216796875,-0.361358642578125,-0.0755462646484375
180619,0.1813201904296875,-0.3878021240234375,-0.121185302734375
180620,0.1948699951171875,-0.4322052001953125,-0.1517181396484375
180621,0.1705169677734375,-0.50048828125,-0.180084228515625
180622,0.100921630859375,-0.551055908203125,-0.218414306640625
180623,0.0250701904296875,-0.5873565673828125,-0.2335662841796875
180624,-0.0201416015625,-0.5928955078125,-0.2275390625
180625,-0.0398406982421875,-0.5995330810546875,-0.24066162109375
180626,-0.031646728515625,-0.654998779296875,-0.2785491943359375
180627,-0.0012359619140625,-0.750244140625,-0.2693023681640625
180628,0.029998779296875,-0.859130859375,-0.2440643310546875
180629,0.056365966796875,-1.011337280273438,-0.2194976806640625
180630,0.085235595703125,-1.23406982421875,-0.2078704833984375
180631,0.1202392578125,-1.533737182617188,-0.2389373779296875
180632,0.1860504150390625,-1.89752197265625,-0.348358154296875
180633,0.3362274169921875,-2.341583251953125,-0.4781341552734375
180634,0.4484710693359375,-2.849365234375,-0.4018096923828125
180635,0.63751220703125,-3.35406494140625,-0.1729583740234375
180636,0.836395263671875,-3.319198608398438,-0.032806396484375
180637,0.7803802490234375,-2.790908813476562,-0.038177490234375
180638,0.65252685546875,-2.444900512695312,-0.025238037109375
180639,0.533203125,-2.135894775390625,-0.0606842041015625
180640,0.5092926025390625,-1.797866821289062,-0.1214141845703125
180641,0.482818603515625,-1.578323364257812,-0.1631927490234375
180642,0.374847412109375,-1.384979248046875,-0.1816558837890625
180643,0.2674102783203125,-1.239501953125,-0.1841888427734375
180644,0.1903076171875,-1.155197143554688,-0.2233734130859375
180645,0.114105224609375,-1.129776000976562,-0.320892333984375
180646,0.0077972412109375,-1.172500610351562,-0.4045562744140625
180647,-0.1040802001953125,-1.223236083984375,-0.4437255859375
180648,-0.1615447998046875,-1.3065185546875,-0.436553955078125
180649,-0.1744384765625,-1.414962768554688,-0.410491943359375
180650,-0.1565704345703125,-1.516098022460938,-0.37042236328125
180651,-0.1201171875,-1.591567993164062,-0.303985595703125
180652,-0.0565185546875,-1.60595703125,-0.1859893798828125
180653,0.0344390869140625,-1.577484130859375,-0.047698974609375
180654,0.124267578125,-1.56549072265625,0.01953125
180655,0.1859283447265625,-1.545745849609375,-0.0303955078125
180656,0.23077392578125,-1.448822021484375,-0.1249237060546875
180657,0.25921630859375,-1.285079956054688,-0.17425537109375
180658,0.253173828125,-1.104248046875,-0.18829345703125
180659,0.2408599853515625,-0.91790771484375,-0.177001953125
180660,0.236114501953125,-0.75152587890625,-0.1328125
180661,0.2425384521484375,-0.60888671875,-0.06341552734375
180662,0.256317138671875,-0.49102783203125,-0.027130126953125
180663,0.269287109375,-0.4064178466796875,-0.0268096923828125
180664,0.26019287109375,-0.32757568359375,0.016571044921875
180665,0.2112579345703125,-0.19696044921875,0.0024871826171875
180666,0.14453125,-0.02044677734375,-0.126708984375
180667,0.104034423828125,0.1359100341796875,-0.269866943359375
180668,0.0641326904296875,0.2314605712890625,-0.3544921875
180669,0.0125885009765625,0.276123046875,-0.3552398681640625
180670,-0.0233917236328125,0.2785186767578125,-0.278045654296875
180671,-0.042266845703125,0.2468109130859375,-0.1832427978515625
180672,-0.048614501953125,0.1819305419921875,-0.0792999267578125
180673,-0.0524749755859375,0.0749053955078125,0.023040771484375
180674,-0.0418701171875,-0.0478363037109375,0.09637451171875
180675,-0.0251007080078125,-0.1642913818359375,0.1628570556640625
180676,-0.007293701171875,-0.2770538330078125,0.1999053955078125
180677,0.013763427734375,-0.3740692138671875,0.15716552734375
180678,0.028289794921875,-0.4324951171875,0.044708251953125
180679,0.02587890625,-0.4594573974609375,-0.08843994140625
180680,0.0141448974609375,-0.4618072509765625,-0.1789703369140625
180681,0.0107269287109375,-0.44000244140625,-0.23944091796875
180682,0.03387451171875,-0.38763427734375,-0.2717742919921875
180683,0.0650177001953125,-0.3277435302734375,-0.25067138671875
180684,0.0855255126953125,-0.3196258544921875,-0.2325439453125
180685,0.1018218994140625,-0.35150146484375,-0.25469970703125
180686,0.1134490966796875,-0.4091796875,-0.2808074951171875
180687,0.104888916015625,-0.4873046875,-0.2919158935546875
180688,0.0908966064453125,-0.5840606689453125,-0.270233154296875
180689,0.0872650146484375,-0.6859130859375,-0.2240753173828125
180690,0.0938873291015625,-0.7875823974609375,-0.1678466796875
180691,0.1114501953125,-0.9026947021484376,-0.108734130859375
180692,0.1446990966796875,-1.044647216796875,-0.052886962890625
180693,0.1876220703125,-1.22247314453125,-0.0133209228515625
180694,0.23602294921875,-1.460433959960938,0.0079803466796875
180695,0.2916107177734375,-1.746826171875,-0.0082244873046875
180696,0.3382720947265625,-2.078094482421875,-0.041473388671875
180697,0.3164825439453125,-2.53936767578125,-0.127471923828125
180698,0.28173828125,-3.189361572265625,-0.2479705810546875
180699,0.616729736328125,-3.795516967773438,-0.135650634765625
180700,0.7683868408203125,-3.408050537109375,0.029449462890625
180701,0.5781402587890625,-2.655914306640625,0.0713348388671875
180702,0.38140869140625,-2.381988525390625,0.0193634033203125
180703,0.3521270751953125,-2.2623291015625,0.072479248046875
180704,0.40936279296875,-2.042129516601562,0.0074462890625
180705,0.4326171875,-1.8353271484375,-0.125152587890625
180706,0.44903564453125,-1.632186889648438,-0.241363525390625
180707,0.4784698486328125,-1.39312744140625,-0.3195648193359375
180708,0.502227783203125,-1.1976318359375,-0.3832244873046875
180709,0.467559814453125,-1.1092529296875,-0.424591064453125
180710,0.3564300537109375,-1.137039184570312,-0.454864501953125
180711,0.1844635009765625,-1.231048583984375,-0.3787078857421875
180712,0.0725250244140625,-1.285415649414062,-0.2133941650390625
180713,0.036376953125,-1.32354736328125,-0.1163330078125
180714,0.0193634033203125,-1.361953735351562,-0.0557403564453125
180715,-0.0064544677734375,-1.371780395507812,-0.0390167236328125
180716,-0.029296875,-1.330581665039062,-0.048553466796875
180717,-0.031402587890625,-1.255172729492188,-0.0497894287109375
180718,-0.0112152099609375,-1.168411254882812,-0.059478759765625
180719,0.0033721923828125,-1.079330444335938,-0.10601806640625
180720,-0.0009613037109375,-0.982086181640625,-0.18170166015625
180721,0.003387451171875,-0.8750762939453125,-0.210052490234375
180722,0.0207061767578125,-0.7567901611328125,-0.2097930908203125
180723,0.0420989990234375,-0.642730712890625,-0.2147979736328125
180724,0.0604095458984375,-0.54248046875,-0.204864501953125
180725,0.077667236328125,-0.45648193359375,-0.1806793212890625
180726,0.0996856689453125,-0.378753662109375,-0.1628875732421875
180727,0.133697509765625,-0.3117218017578125,-0.1709136962890625
180728,0.1901397705078125,-0.252044677734375,-0.178314208984375
180729,0.234710693359375,-0.20703125,-0.17889404296875
180730,0.2278900146484375,-0.15484619140625,-0.148895263671875
180731,0.1988372802734375,-0.08160400390625,-0.1212158203125
180732,0.165802001953125,0.0122222900390625,-0.134674072265625
180733,0.1607666015625,0.0888671875,-0.1857757568359375
180734,0.166229248046875,0.1158905029296875,-0.22802734375
180735,0.15533447265625,0.09783935546875,-0.2217559814453125
180736,0.1243743896484375,0.0225677490234375,-0.1465911865234375
180737,0.0951995849609375,-0.0612030029296875,-0.0628662109375
180738,0.0813751220703125,-0.1288604736328125,-0.0111541748046875
180739,0.073211669921875,-0.1826934814453125,0.0388641357421875
180740,0.0687408447265625,-0.224365234375,0.0999755859375
180741,0.057159423828125,-0.2544708251953125,0.14886474609375
180742,0.0378570556640625,-0.277862548828125,0.1298065185546875
180743,0.0223236083984375,-0.3248291015625,0.0276641845703125
180744,0.0062103271484375,-0.3755340576171875,-0.09716796875
180745,-0.0139923095703125,-0.3959808349609375,-0.1790618896484375
180746,-0.0293121337890625,-0.400390625,-0.215606689453125
180747,-0.034881591796875,-0.404998779296875,-0.2289886474609375
180748,-0.01898193359375,-0.42083740234375,-0.2443084716796875
180749,0.0077667236328125,-0.469329833984375,-0.2709808349609375
180750,0.0378265380859375,-0.53472900390625,-0.30548095703125
180751,0.0599517822265625,-0.5970611572265625,-0.3359832763671875
180752,0.06829833984375,-0.651123046875,-0.3340301513671875
180753,0.0738372802734375,-0.7116241455078125,-0.294830322265625
180754,0.078826904296875,-0.7810516357421875,-0.2523040771484375
180755,0.0907745361328125,-0.87017822265625,-0.2167510986328125
180756,0.1133575439453125,-0.9886627197265624,-0.18719482421875
180757,0.137542724609375,-1.150253295898438,-0.1704254150390625
180758,0.160858154296875,-1.367019653320312,-0.165374755859375
180759,0.1829833984375,-1.632598876953125,-0.1996612548828125
180760,0.2063140869140625,-1.923294067382812,-0.285888671875
180761,0.2500762939453125,-2.280364990234375,-0.3879241943359375
180762,0.2830810546875,-2.777374267578125,-0.5448150634765625
180763,0.45574951171875,-3.36199951171875,-0.4658966064453125
180764,0.7558441162109375,-3.549972534179688,-0.1313934326171875
180765,0.750213623046875,-2.996231079101562,0.075164794921875
180766,0.5940704345703125,-2.504531860351562,-0.00030517578125
180767,0.5463714599609375,-2.3011474609375,-0.076873779296875
180768,0.6071624755859375,-2.095169067382812,-0.0865020751953125
180769,0.677490234375,-1.861434936523438,-0.18450927734375
180770,0.684539794921875,-1.63409423828125,-0.3071441650390625
180771,0.63720703125,-1.416412353515625,-0.3995819091796875
180772,0.5485992431640625,-1.25762939453125,-0.46954345703125
180773,0.42620849609375,-1.197845458984375,-0.4495849609375
180774,0.2786407470703125,-1.250900268554688,-0.3649139404296875
180775,0.14361572265625,-1.28277587890625,-0.3290863037109375
180776,0.029205322265625,-1.26123046875,-0.3079681396484375
180777,-0.0540924072265625,-1.229095458984375,-0.2728424072265625
180778,-0.0961456298828125,-1.214126586914062,-0.254852294921875
180779,-0.10992431640625,-1.203567504882812,-0.255126953125
180780,-0.0854034423828125,-1.1763916015625,-0.2499847412109375
180781,-0.0152587890625,-1.1107177734375,-0.2416229248046875
180782,0.0728607177734375,-1.04620361328125,-0.2466278076171875
180783,0.144378662109375,-0.999603271484375,-0.2635498046875
180784,0.17816162109375,-0.942840576171875,-0.273406982421875
180785,0.1898040771484375,-0.872711181640625,-0.259552001953125
180786,0.1901092529296875,-0.801422119140625,-0.2518310546875
180787,0.184295654296875,-0.7213897705078125,-0.2135162353515625
180788,0.1883392333984375,-0.63525390625,-0.16015625
180789,0.2080535888671875,-0.5640869140625,-0.1457672119140625
180790,0.22314453125,-0.5104827880859375,-0.1645965576171875
180791,0.221435546875,-0.4612274169921875,-0.1850433349609375
180792,0.2023468017578125,-0.4124603271484375,-0.17626953125
180793,0.17169189453125,-0.36669921875,-0.13494873046875
180794,0.129913330078125,-0.31280517578125,-0.078094482421875
180795,0.0944976806640625,-0.2161712646484375,-0.0485076904296875
180796,0.078338623046875,-0.0814361572265625,-0.066680908203125
180797,0.059844970703125,0.0086517333984375,-0.1111907958984375
180798,0.0363616943359375,0.047393798828125,-0.1413421630859375
180799,0.0012969970703125,0.0606231689453125,-0.1448822021484375
180800,-0.0351409912109375,0.0614471435546875,-0.1266632080078125
180801,-0.0618438720703125,0.05657958984375,-0.1081085205078125
180802,-0.0877227783203125,0.03448486328125,-0.089263916015625
180803,-0.1187744140625,-0.001983642578125,-0.0637969970703125
180804,-0.149444580078125,-0.0424957275390625,-0.04119873046875
180805,-0.163726806640625,-0.071044921875,-0.027496337890625
180806,-0.15625,-0.1116790771484375,-0.016845703125
180807,-0.122772216796875,-0.18426513671875,-0.031829833984375
180808,-0.063720703125,-0.26654052734375,-0.0543670654296875
180809,0.0023651123046875,-0.356597900390625,-0.0734710693359375
180810,0.0583343505859375,-0.4571075439453125,-0.091339111328125
180811,0.1104278564453125,-0.5553436279296875,-0.1066436767578125
180812,0.15545654296875,-0.66302490234375,-0.115203857421875
180813,0.1907806396484375,-0.7717742919921875,-0.137481689453125
180814,0.1976776123046875,-0.84332275390625,-0.1909942626953125
180815,0.181243896484375,-0.868316650390625,-0.24847412109375
180816,0.151763916015625,-0.8645477294921875,-0.2821807861328125
180817,0.1213836669921875,-0.864776611328125,-0.3027191162109375
180818,0.0905914306640625,-0.899322509765625,-0.3042144775390625
180819,0.0733642578125,-0.9615936279296876,-0.293365478515625
180820,0.0626373291015625,-1.076370239257812,-0.265655517578125
180821,0.05291748046875,-1.255447387695312,-0.259124755859375
180822,0.0443267822265625,-1.4932861328125,-0.2533416748046875
180823,0.054046630859375,-1.752853393554688,-0.257781982421875
180824,0.108489990234375,-2.021133422851562,-0.2994384765625
180825,0.188934326171875,-2.369491577148438,-0.3681488037109375
180826,0.2470550537109375,-2.925689697265625,-0.3148040771484375
180827,0.4226837158203125,-3.5709228515625,0.007843017578125
180828,0.554779052734375,-3.4071044921875,0.2896728515625
180829,0.48480224609375,-2.758560180664062,0.2170562744140625
180830,0.391632080078125,-2.437515258789062,0.1056671142578125
180831,0.439300537109375,-2.145751953125,0.129180908203125
180832,0.58294677734375,-1.879074096679688,0.023834228515625
180833,0.6803741455078125,-1.619155883789062,-0.103912353515625
180834,0.68609619140625,-1.36767578125,-0.2180633544921875
180835,0.6352081298828125,-1.159759521484375,-0.312042236328125
180836,0.525115966796875,-1.00897216796875,-0.4105072021484375
180837,0.3664398193359375,-0.95086669921875,-0.5319061279296875
180838,0.1415252685546875,-1.006698608398438,-0.5605621337890625
180839,-0.052276611328125,-1.087448120117188,-0.42816162109375
180840,-0.11322021484375,-1.14617919921875,-0.3158721923828125
180841,-0.109405517578125,-1.201522827148438,-0.30853271484375
180842,-0.1424713134765625,-1.224990844726562,-0.337127685546875
180843,-0.1857757568359375,-1.237472534179688,-0.3241729736328125
180844,-0.190032958984375,-1.25628662109375,-0.2796783447265625
180845,-0.1573028564453125,-1.286453247070312,-0.236663818359375
180846,-0.0987091064453125,-1.34283447265625,-0.2017974853515625
180847,-0.0204925537109375,-1.380477905273438,-0.1994476318359375
180848,0.051849365234375,-1.365646362304688,-0.221282958984375
180849,0.0983428955078125,-1.273681640625,-0.23333740234375
180850,0.111236572265625,-1.116607666015625,-0.2734832763671875
180851,0.1139068603515625,-0.943450927734375,-0.2833099365234375
180852,0.127105712890625,-0.75787353515625,-0.2546844482421875
180853,0.1427001953125,-0.5983734130859375,-0.216644287109375
180854,0.156280517578125,-0.47845458984375,-0.1825714111328125
180855,0.1711273193359375,-0.38946533203125,-0.1690826416015625
180856,0.18536376953125,-0.3169708251953125,-0.1317138671875
180857,0.1830596923828125,-0.2572479248046875,-0.013885498046875
180858,0.1202545166015625,-0.1792755126953125,0.06121826171875
180859,0.074737548828125,-0.04669189453125,0.0461273193359375
180860,0.1124114990234375,0.1026458740234375,-0.0768280029296875
180861,0.156036376953125,0.189544677734375,-0.1893463134765625
180862,0.14117431640625,0.2084808349609375,-0.173431396484375
180863,0.077056884765625,0.1624908447265625,-0.0803985595703125
180864,0.028900146484375,0.0681304931640625,0.00836181640625
180865,0.013824462890625,-0.0169525146484375,0.0355682373046875
180866,0.020111083984375,-0.076324462890625,0.040252685546875
180867,0.0312652587890625,-0.150970458984375,0.0457763671875
180868,0.034698486328125,-0.244049072265625,0.037811279296875
180869,0.0332489013671875,-0.337799072265625,0.0017547607421875
180870,0.0337677001953125,-0.410980224609375,-0.05633544921875
180871,0.03240966796875,-0.4562835693359375,-0.1205902099609375
180872,0.0261383056640625,-0.462554931640625,-0.1763153076171875
180873,0.0127716064453125,-0.440704345703125,-0.2088470458984375
180874,-0.0028839111328125,-0.425872802734375,-0.2360382080078125
180875,-0.0030517578125,-0.4276580810546875,-0.2584381103515625
180876,0.012420654296875,-0.447906494140625,-0.283721923828125
180877,0.0304412841796875,-0.492340087890625,-0.3187103271484375
180878,0.04815673828125,-0.55133056640625,-0.3625946044921875
180879,0.0641326904296875,-0.6175537109375,-0.3825225830078125
180880,0.0848236083984375,-0.6695098876953125,-0.357421875
180881,0.10693359375,-0.709259033203125,-0.2954254150390625
180882,0.131134033203125,-0.7432098388671875,-0.2207489013671875
180883,0.152252197265625,-0.793548583984375,-0.1751708984375
180884,0.1670989990234375,-0.8757171630859375,-0.1509857177734375
180885,0.1807861328125,-0.99493408203125,-0.124237060546875
180886,0.1923370361328125,-1.170166015625,-0.10205078125
180887,0.1965789794921875,-1.406356811523438,-0.1068572998046875
180888,0.228912353515625,-1.711410522460938,-0.136444091796875
180889,0.2982177734375,-2.128005981445312,-0.2238922119140625
180890,0.37579345703125,-2.664352416992188,-0.364349365234375
180891,0.5535125732421875,-3.205780029296875,-0.1660308837890625
180892,0.8938751220703125,-3.658035278320312,0.168426513671875
180893,0.823944091796875,-3.300949096679688,0.114013671875
180894,0.4072113037109375,-2.70355224609375,0.0238494873046875
180895,0.1977996826171875,-2.391189575195312,-0.0226593017578125
180896,0.18896484375,-2.05157470703125,-0.2295989990234375
180897,0.2763671875,-1.737808227539062,-0.42218017578125
180898,0.3861846923828125,-1.490753173828125,-0.4456024169921875
180899,0.468536376953125,-1.285614013671875,-0.4015655517578125
180900,0.4971923828125,-1.109512329101562,-0.37811279296875
180901,0.473663330078125,-1.016891479492188,-0.408355712890625
180902,0.413299560546875,-1.012802124023438,-0.426666259765625
180903,0.3246612548828125,-1.07745361328125,-0.337371826171875
180904,0.2135162353515625,-1.208099365234375,-0.237213134765625
180905,0.09893798828125,-1.322402954101562,-0.1837921142578125
180906,-0.015869140625,-1.418075561523438,-0.1244049072265625
180907,-0.0995025634765625,-1.464126586914062,-0.0870819091796875
180908,-0.1439666748046875,-1.477996826171875,-0.070892333984375
180909,-0.1493682861328125,-1.469161987304688,-0.027984619140625
180910,-0.12750244140625,-1.441635131835938,0.0234527587890625
180911,-0.09234619140625,-1.392135620117188,0.075225830078125
180912,-0.0411224365234375,-1.277755737304688,0.0615997314453125
180913,0.015594482421875,-1.104446411132812,-0.0830230712890625
180914,0.07550048828125,-0.9218292236328124,-0.1682891845703125
180915,0.11688232421875,-0.7480010986328125,-0.201812744140625
180916,0.1412353515625,-0.5997467041015625,-0.21759033203125
180917,0.152923583984375,-0.4735260009765625,-0.224029541015625
180918,0.1666717529296875,-0.36529541015625,-0.2155914306640625
180919,0.1869964599609375,-0.29901123046875,-0.2157440185546875
180920,0.209014892578125,-0.2645416259765625,-0.2293701171875
180921,0.22119140625,-0.2516021728515625,-0.2186126708984375
180922,0.2366180419921875,-0.22601318359375,-0.174530029296875
180923,0.222930908203125,-0.14837646484375,-0.1428375244140625
180924,0.1688690185546875,-0.0315704345703125,-0.1662445068359375
180925,0.114593505859375,0.0760650634765625,-0.2256927490234375
180926,0.086181640625,0.1548614501953125,-0.287506103515625
180927,0.072174072265625,0.1675567626953125,-0.332061767578125
180928,0.049346923828125,0.10858154296875,-0.3180999755859375
180929,0.0348358154296875,-0.0009918212890625,-0.240631103515625
180930,0.0316162109375,-0.091339111328125,-0.1285247802734375
180931,0.0277862548828125,-0.1502838134765625,-0.0156097412109375
180932,0.021728515625,-0.1915435791015625,0.1023712158203125
180933,0.01214599609375,-0.2364349365234375,0.22186279296875
180934,0.0042877197265625,-0.2968597412109375,0.329559326171875
180935,-0.003692626953125,-0.3752288818359375,0.337310791015625
180936,-0.015380859375,-0.4636383056640625,0.2707061767578125
180937,-0.02276611328125,-0.5298004150390625,0.1397247314453125
180938,-0.0099639892578125,-0.57940673828125,-0.0001220703125
180939,0.01995849609375,-0.596588134765625,-0.1057281494140625
180940,0.0457611083984375,-0.6014251708984375,-0.19512939453125
180941,0.0585784912109375,-0.6044769287109375,-0.28497314453125
180942,0.0576934814453125,-0.6130218505859375,-0.34075927734375
180943,0.0485382080078125,-0.62969970703125,-0.3802337646484375
180944,0.0476226806640625,-0.640625,-0.417144775390625
180945,0.0643463134765625,-0.6675262451171875,-0.4050140380859375
180946,0.0898895263671875,-0.700164794921875,-0.33447265625
180947,0.1113739013671875,-0.743011474609375,-0.251617431640625
180948,0.1345367431640625,-0.7953033447265625,-0.1881561279296875
180949,0.1680908203125,-0.8794708251953125,-0.132476806640625
180950,0.2080230712890625,-1.035171508789062,-0.064910888671875
180951,0.245025634765625,-1.261489868164062,-0.0207672119140625
180952,0.27447509765625,-1.551025390625,-0.02197265625
180953,0.323486328125,-1.8875732421875,-0.06951904296875
180954,0.389892578125,-2.37646484375,-0.17608642578125
180955,0.4674072265625,-2.923171997070312,-0.26885986328125
180956,0.683349609375,-3.347885131835938,-0.249237060546875
180957,0.6722564697265625,-3.074737548828125,-0.0391082763671875
180958,0.4540252685546875,-2.481735229492188,0.10345458984375
180959,0.3800048828125,-2.248077392578125,0.0008697509765625
180960,0.4734039306640625,-2.043472290039062,0.0279998779296875
180961,0.6013946533203125,-1.821487426757812,-0.045623779296875
180962,0.6866912841796875,-1.649307250976562,-0.204864501953125
180963,0.720489501953125,-1.467666625976562,-0.3198394775390625
180964,0.67669677734375,-1.287673950195312,-0.3584747314453125
180965,0.5654296875,-1.177749633789062,-0.384796142578125
180966,0.4072723388671875,-1.162399291992188,-0.3609466552734375
180967,0.266937255859375,-1.189651489257812,-0.262451171875
180968,0.1689605712890625,-1.228713989257812,-0.2225799560546875
180969,0.1060638427734375,-1.26495361328125,-0.2075347900390625
180970,0.0614013671875,-1.299026489257812,-0.194305419921875
180971,0.0255584716796875,-1.322311401367188,-0.202880859375
180972,0.013336181640625,-1.313995361328125,-0.20330810546875
180973,0.0230865478515625,-1.310745239257812,-0.191802978515625
180974,0.04071044921875,-1.320236206054688,-0.214630126953125
180975,0.0659942626953125,-1.341278076171875,-0.264556884765625
180976,0.1072540283203125,-1.353851318359375,-0.3130340576171875
180977,0.136993408203125,-1.311172485351562,-0.3192291259765625
180978,0.174591064453125,-1.182373046875,-0.2539520263671875
180979,0.208251953125,-1.027862548828125,-0.19793701171875
180980,0.2088775634765625,-0.8876800537109375,-0.1950531005859375
180981,0.1929779052734375,-0.76611328125,-0.1905364990234375
180982,0.177642822265625,-0.648101806640625,-0.1480712890625
180983,0.1667327880859375,-0.53814697265625,-0.0818634033203125
180984,0.16571044921875,-0.426788330078125,-0.0185699462890625
180985,0.172210693359375,-0.3236541748046875,0.035919189453125
180986,0.181549072265625,-0.236602783203125,0.0758056640625
180987,0.1886138916015625,-0.1576080322265625,0.083740234375
180988,0.1814727783203125,-0.089141845703125,0.0538787841796875
180989,0.1397552490234375,-0.018096923828125,-0.0214080810546875
180990,0.064971923828125,0.0623016357421875,-0.1145172119140625
180991,0.001220703125,0.128753662109375,-0.205596923828125
180992,-0.0306854248046875,0.16375732421875,-0.311676025390625
180993,-0.04486083984375,0.159332275390625,-0.4098052978515625
180994,-0.0549774169921875,0.0715789794921875,-0.4176025390625
180995,-0.065948486328125,-0.064544677734375,-0.3253631591796875
180996,-0.065887451171875,-0.1840057373046875,-0.2098541259765625
180997,-0.0560302734375,-0.2760009765625,-0.121368408203125
180998,-0.0414886474609375,-0.34375,-0.054962158203125
180999,-0.0299224853515625,-0.3960723876953125,0.0166015625
181000,-0.0232391357421875,-0.429534912109375,0.083526611328125
181001,-0.01385498046875,-0.4555816650390625,0.1157379150390625
181002,0.006561279296875,-0.480499267578125,0.0922698974609375
181003,0.042877197265625,-0.501678466796875,0.0095062255859375
181004,0.0789947509765625,-0.5111846923828125,-0.1022796630859375
181005,0.100341796875,-0.535888671875,-0.2052764892578125
181006,0.125244140625,-0.5682220458984375,-0.2674102783203125
181007,0.1404876708984375,-0.58624267578125,-0.3009185791015625
181008,0.1474609375,-0.6266632080078125,-0.3221282958984375
181009,0.1440887451171875,-0.6807708740234375,-0.3428192138671875
181010,0.13946533203125,-0.751739501953125,-0.342498779296875
181011,0.136260986328125,-0.8417816162109375,-0.3147430419921875
181012,0.141998291015625,-0.927734375,-0.2710723876953125
181013,0.1577301025390625,-1.014556884765625,-0.23223876953125
181014,0.1859893798828125,-1.142166137695312,-0.2029266357421875
181015,0.2274627685546875,-1.346786499023438,-0.1918182373046875
181016,0.2911376953125,-1.637252807617188,-0.228668212890625
181017,0.375885009765625,-2.057403564453125,-0.3270111083984375
181018,0.4792938232421875,-2.55670166015625,-0.279266357421875
181019,0.74005126953125,-3.076614379882812,-0.0374298095703125
181020,0.96783447265625,-3.261337280273438,0.1072235107421875
181021,0.731536865234375,-2.840164184570312,0.033294677734375
181022,0.4418182373046875,-2.465530395507812,-0.0092010498046875
181023,0.3310546875,-2.192535400390625,-0.00323486328125
181024,0.3488311767578125,-1.922576904296875,-0.0242462158203125
181025,0.435028076171875,-1.694015502929688,-0.1185455322265625
181026,0.49700927734375,-1.525787353515625,-0.233367919921875
181027,0.4953765869140625,-1.380203247070312,-0.3077392578125
181028,0.4404449462890625,-1.276077270507812,-0.3347320556640625
181029,0.3925018310546875,-1.224685668945312,-0.3048248291015625
181030,0.3505859375,-1.229415893554688,-0.2719573974609375
181031,0.2959136962890625,-1.304824829101562,-0.2587432861328125
181032,0.2456512451171875,-1.39361572265625,-0.224578857421875
181033,0.2098236083984375,-1.466995239257812,-0.1912078857421875
181034,0.17047119140625,-1.5242919921875,-0.1733856201171875
181035,0.13458251953125,-1.536727905273438,-0.1705780029296875
181036,0.118194580078125,-1.503173828125,-0.15863037109375
181037,0.1183319091796875,-1.45977783203125,-0.14105224609375
181038,0.1231842041015625,-1.420791625976562,-0.158843994140625
181039,0.143035888671875,-1.360794067382812,-0.1732177734375
181040,0.139984130859375,-1.272247314453125,-0.2064971923828125
181041,0.1256866455078125,-1.16241455078125,-0.204132080078125
181042,0.1070404052734375,-1.03704833984375,-0.18280029296875
181043,0.0797271728515625,-0.9038848876953124,-0.16607666015625
181044,0.0529022216796875,-0.7689971923828125,-0.1387481689453125
181045,0.033599853515625,-0.6418914794921875,-0.0986175537109375
181046,0.0286407470703125,-0.5306549072265625,-0.04510498046875
181047,0.03271484375,-0.44012451171875,0.01971435546875
181048,0.0371551513671875,-0.3624114990234375,0.07928466796875
181049,0.0418548583984375,-0.286651611328125,0.1231842041015625
181050,0.04986572265625,-0.2030792236328125,0.1280364990234375
181051,0.0576171875,-0.1291656494140625,0.085845947265625
181052,0.059722900390625,-0.0598297119140625,0.01568603515625
181053,0.04888916015625,0.007232666015625,-0.0834503173828125
181054,0.0243988037109375,0.0629425048828125,-0.1591949462890625
181055,-0.0115814208984375,0.120452880859375,-0.22314453125
181056,-0.042572021484375,0.1643218994140625,-0.2822723388671875
181057,-0.04888916015625,0.1796417236328125,-0.329254150390625
181058,-0.0266265869140625,0.121490478515625,-0.3352508544921875
181059,-0.0031280517578125,-0.0065765380859375,-0.28564453125
181060,0.0139007568359375,-0.120819091796875,-0.2439727783203125
181061,0.03240966796875,-0.2032928466796875,-0.231109619140625
181062,0.053680419921875,-0.2883148193359375,-0.2100982666015625
181063,0.067962646484375,-0.3555755615234375,-0.193878173828125
181064,0.0696563720703125,-0.3974609375,-0.1724853515625
181065,0.0635223388671875,-0.41888427734375,-0.1256256103515625
181066,0.0519561767578125,-0.44207763671875,-0.0612335205078125
181067,0.048095703125,-0.4796295166015625,-0.0205078125
181068,0.055694580078125,-0.517608642578125,-0.0076446533203125
181069,0.0595245361328125,-0.5623626708984375,-0.024932861328125
181070,0.05450439453125,-0.62738037109375,-0.0762786865234375
181071,0.0561981201171875,-0.6899871826171875,-0.151519775390625
181072,0.063568115234375,-0.7462921142578125,-0.18780517578125
181073,0.0646209716796875,-0.79962158203125,-0.174560546875
181074,0.067657470703125,-0.8451080322265625,-0.1381988525390625
181075,0.0805816650390625,-0.8938140869140625,-0.1068878173828125
181076,0.105804443359375,-0.9632568359375,-0.05389404296875
181077,0.1367340087890625,-1.051773071289062,-0.0167694091796875
181078,0.1508331298828125,-1.186569213867188,-0.022705078125
181079,0.1569366455078125,-1.387054443359375,-0.064178466796875
181080,0.1819610595703125,-1.634063720703125,-0.1190643310546875
181081,0.24981689453125,-1.925445556640625,-0.159088134765625
181082,0.37530517578125,-2.305511474609375,-0.1688995361328125
181083,0.615570068359375,-2.690902709960938,-0.066131591796875
181084,0.970550537109375,-3.07177734375,0.0010223388671875
181085,0.975677490234375,-3.004135131835938,-0.0961151123046875
181086,0.6475830078125,-2.573867797851562,-0.119659423828125
181087,0.438720703125,-2.355453491210938,-0.07635498046875
181088,0.40386962890625,-2.118423461914062,-0.0219879150390625
181089,0.445831298828125,-1.865982055664062,-0.052642822265625
181090,0.4741668701171875,-1.672561645507812,-0.1632080078125
181091,0.4546356201171875,-1.5225830078125,-0.21246337890625
181092,0.3920745849609375,-1.36199951171875,-0.2126922607421875
181093,0.3244171142578125,-1.216537475585938,-0.2201385498046875
181094,0.249542236328125,-1.140228271484375,-0.225311279296875
181095,0.1675262451171875,-1.15887451171875,-0.2014617919921875
181096,0.1029052734375,-1.239974975585938,-0.1731719970703125
181097,0.070556640625,-1.28863525390625,-0.1632537841796875
181098,0.0339508056640625,-1.304046630859375,-0.165557861328125
181099,-0.0130157470703125,-1.2716064453125,-0.1590728759765625
181100,-0.051544189453125,-1.196060180664062,-0.1535491943359375
181101,-0.0702362060546875,-1.099822998046875,-0.1437225341796875
181102,-0.067657470703125,-1.016983032226562,-0.143585205078125
181103,-0.0400238037109375,-0.9515533447265624,-0.177947998046875
181104,0.010162353515625,-0.89727783203125,-0.1963653564453125
181105,0.0598907470703125,-0.8532257080078125,-0.1939239501953125
181106,0.092315673828125,-0.817535400390625,-0.19586181640625
181107,0.103607177734375,-0.7652435302734375,-0.1842193603515625
181108,0.0989837646484375,-0.68060302734375,-0.15582275390625
181109,0.101837158203125,-0.585357666015625,-0.1247406005859375
181110,0.1180572509765625,-0.5062255859375,-0.0943450927734375
181111,0.143951416015625,-0.4381103515625,-0.0589141845703125
181112,0.1809539794921875,-0.3802032470703125,-0.0159759521484375
181113,0.21539306640625,-0.3320465087890625,0.011444091796875
181114,0.2270965576171875,-0.2847900390625,0.010223388671875
181115,0.2147369384765625,-0.2275848388671875,-0.0147705078125
181116,0.166290283203125,-0.1724395751953125,-0.0702667236328125
181117,0.096099853515625,-0.1086273193359375,-0.1368255615234375
181118,0.03387451171875,-0.0530548095703125,-0.2162628173828125
181119,-0.0080718994140625,-0.0375823974609375,-0.26812744140625
181120,-0.03271484375,-0.0535430908203125,-0.2934417724609375
181121,-0.04632568359375,-0.0809173583984375,-0.2805023193359375
181122,-0.0653533935546875,-0.102386474609375,-0.2575836181640625
181123,-0.0893707275390625,-0.1298675537109375,-0.2157440185546875
181124,-0.1088714599609375,-0.17266845703125,-0.1441802978515625
181125,-0.11712646484375,-0.2236328125,-0.080474853515625
181126,-0.106964111328125,-0.271331787109375,-0.0450439453125
181127,-0.082916259765625,-0.3172454833984375,-0.0284881591796875
181128,-0.05438232421875,-0.3730621337890625,-0.0316009521484375
181129,-0.0220184326171875,-0.454681396484375,-0.0525360107421875
181130,0.01837158203125,-0.5350799560546875,-0.062225341796875
181131,0.061004638671875,-0.5955352783203125,-0.068878173828125
181132,0.090240478515625,-0.6551971435546875,-0.081878662109375
181133,0.1041107177734375,-0.7283935546875,-0.1032257080078125
181134,0.106903076171875,-0.80609130859375,-0.132354736328125
181135,0.102935791015625,-0.8717041015625,-0.158294677734375
181136,0.0960235595703125,-0.921173095703125,-0.1605377197265625
181137,0.0932464599609375,-0.9552001953125,-0.1284942626953125
181138,0.096435546875,-0.98748779296875,-0.1156768798828125
181139,0.099578857421875,-0.9970703125,-0.1347503662109375
181140,0.1034393310546875,-1.019821166992188,-0.1619873046875
181141,0.1137237548828125,-1.094284057617188,-0.1845550537109375
181142,0.132720947265625,-1.229476928710938,-0.2059173583984375
181143,0.16729736328125,-1.422531127929688,-0.2364959716796875
181144,0.2367095947265625,-1.693771362304688,-0.286773681640625
181145,0.3973236083984375,-2.056411743164062,-0.3642425537109375
181146,0.62567138671875,-2.460494995117188,-0.3704071044921875
181147,0.827423095703125,-2.880081176757812,-0.3007354736328125
181148,0.9163665771484376,-3.131973266601562,-0.26873779296875
181149,0.8530120849609375,-2.942825317382812,-0.1751251220703125
181150,0.768280029296875,-2.628570556640625,-0.1493072509765625
181151,0.63909912109375,-2.363311767578125,-0.2069854736328125
181152,0.4662322998046875,-2.06231689453125,-0.20672607421875
181153,0.361541748046875,-1.73748779296875,-0.190216064453125
181154,0.352081298828125,-1.475662231445312,-0.1908721923828125
181155,0.31817626953125,-1.2537841796875,-0.2469940185546875
181156,0.2847137451171875,-1.05712890625,-0.319000244140625
181157,0.198577880859375,-0.990234375,-0.306793212890625
181158,0.097015380859375,-1.02130126953125,-0.2786712646484375
181159,0.0458831787109375,-1.084793090820312,-0.26629638671875
181160,0.020538330078125,-1.172698974609375,-0.29107666015625
181161,-0.006683349609375,-1.25164794921875,-0.294464111328125
181162,-0.03314208984375,-1.306411743164062,-0.287750244140625
181163,-0.0599517822265625,-1.356521606445312,-0.285369873046875
181164,-0.079620361328125,-1.37841796875,-0.2584991455078125
181165,-0.084991455078125,-1.377578735351562,-0.2061767578125
181166,-0.06219482421875,-1.357421875,-0.158355712890625
181167,-0.003662109375,-1.304519653320312,-0.1258697509765625
181168,0.0673675537109375,-1.2364501953125,-0.1093902587890625
181169,0.1427154541015625,-1.143661499023438,-0.125152587890625
181170,0.2083587646484375,-1.0208740234375,-0.151824951171875
181171,0.251251220703125,-0.8900299072265625,-0.15087890625
181172,0.2816925048828125,-0.7487945556640625,-0.1311798095703125
181173,0.299652099609375,-0.612579345703125,-0.09893798828125
181174,0.313690185546875,-0.4880828857421875,-0.076873779296875
181175,0.3277435302734375,-0.375,-0.0803375244140625
181176,0.321563720703125,-0.27276611328125,-0.092620849609375
181177,0.2947998046875,-0.2020721435546875,-0.03558349609375
181178,0.23956298828125,-0.1208648681640625,0.057525634765625
181179,0.1659393310546875,0.0190582275390625,0.0226898193359375
181180,0.1414031982421875,0.17364501953125,-0.1463470458984375
181181,0.1427154541015625,0.2664947509765625,-0.319183349609375
181182,0.11175537109375,0.283203125,-0.39141845703125
181183,0.058013916015625,0.225738525390625,-0.3858184814453125
181184,0.01641845703125,0.1343536376953125,-0.2950897216796875
181185,-0.007110595703125,0.0323944091796875,-0.1475982666015625
181186,-0.017425537109375,-0.08062744140625,-0.042388916015625
181187,-0.0087890625,-0.173095703125,0.0026092529296875
181188,0.005523681640625,-0.26904296875,0.0258331298828125
181189,0.0279693603515625,-0.3731842041015625,0.0352935791015625
181190,0.057373046875,-0.4666290283203125,0.0270538330078125
181191,0.0837860107421875,-0.532958984375,0.004852294921875
181192,0.1024169921875,-0.5595855712890625,-0.025482177734375
181193,0.11175537109375,-0.5654754638671875,-0.078521728515625
181194,0.113525390625,-0.5604095458984375,-0.1560821533203125
181195,0.1080322265625,-0.540679931640625,-0.2213897705078125
181196,0.091888427734375,-0.5266876220703125,-0.260040283203125
181197,0.07977294921875,-0.5274505615234375,-0.28082275390625
181198,0.0657806396484375,-0.54669189453125,-0.3121795654296875
181199,0.0594329833984375,-0.572509765625,-0.319580078125
181200,0.0711822509765625,-0.613372802734375,-0.3073272705078125
181201,0.091217041015625,-0.6597442626953125,-0.294097900390625
181202,0.1046295166015625,-0.711212158203125,-0.2521514892578125
181203,0.1121978759765625,-0.7682342529296875,-0.1884002685546875
181204,0.1198883056640625,-0.83465576171875,-0.120697021484375
181205,0.1284332275390625,-0.9253082275390624,-0.0693817138671875
181206,0.1385040283203125,-1.065933227539062,-0.06024169921875
181207,0.16204833984375,-1.287399291992188,-0.082061767578125
181208,0.18792724609375,-1.599700927734375,-0.1171112060546875
181209,0.22442626953125,-1.939620971679688,-0.1519622802734375
181210,0.3095550537109375,-2.323379516601562,-0.1617889404296875
181211,0.381927490234375,-2.784912109375,-0.13702392578125
181212,0.5084075927734375,-3.275772094726562,0.087432861328125
181213,0.8370361328125,-3.557586669921875,0.1988525390625
181214,0.964935302734375,-2.972198486328125,0.15283203125
181215,0.9210052490234376,-2.455047607421875,0.0982666015625
181216,0.741790771484375,-2.259445190429688,-0.0573577880859375
181217,0.612518310546875,-1.957321166992188,-0.135101318359375
181218,0.5503082275390625,-1.646560668945312,-0.1847686767578125
181219,0.507598876953125,-1.35015869140625,-0.285736083984375
181220,0.4461669921875,-1.115097045898438,-0.390411376953125
181221,0.3491363525390625,-0.9564208984375,-0.4364471435546875
181222,0.2613372802734375,-0.88360595703125,-0.5055999755859375
181223,0.1547698974609375,-0.918182373046875,-0.4965667724609375
181224,0.06475830078125,-0.9661865234375,-0.3882904052734375
181225,0.007781982421875,-1.038177490234375,-0.260345458984375
181226,-0.0103607177734375,-1.123016357421875,-0.1666412353515625
181227,-0.0262908935546875,-1.192230224609375,-0.1247100830078125
181228,-0.0244598388671875,-1.217742919921875,-0.07110595703125
181229,-0.0107574462890625,-1.215362548828125,0.006591796875
181230,-0.009490966796875,-1.233291625976562,0.070404052734375
181231,0.00213623046875,-1.256820678710938,0.09326171875
181232,0.035614013671875,-1.2335205078125,0.020599365234375
181233,0.0731658935546875,-1.15948486328125,-0.113555908203125
181234,0.116668701171875,-1.067138671875,-0.1792449951171875
181235,0.139007568359375,-0.9482574462890624,-0.197998046875
181236,0.13092041015625,-0.808013916015625,-0.2057952880859375
181237,0.1024627685546875,-0.6711273193359375,-0.1981964111328125
181238,0.0742950439453125,-0.54437255859375,-0.17401123046875
181239,0.0697174072265625,-0.4381561279296875,-0.125579833984375
181240,0.0923919677734375,-0.3598480224609375,-0.0994720458984375
181241,0.1221771240234375,-0.2819671630859375,-0.0991973876953125
181242,0.13262939453125,-0.1805877685546875,-0.118194580078125
181243,0.107177734375,-0.06573486328125,-0.1618194580078125
181244,0.08270263671875,0.0481719970703125,-0.216949462890625
181245,0.0751800537109375,0.132232666015625,-0.2415313720703125
181246,0.0717926025390625,0.174896240234375,-0.2318267822265625
181247,0.05126953125,0.1468353271484375,-0.2095794677734375
181248,0.017364501953125,0.064727783203125,-0.1677703857421875
181249,-0.0059356689453125,0.0008087158203125,-0.1293182373046875
181250,-0.0138397216796875,-0.031768798828125,-0.098724365234375
181251,-0.019500732421875,-0.0686492919921875,-0.0681915283203125
181252,-0.026611328125,-0.1253814697265625,-0.0302734375
181253,-0.031494140625,-0.199615478515625,0.0072479248046875
181254,-0.0267181396484375,-0.274810791015625,0.02703857421875
181255,-0.0174102783203125,-0.337860107421875,0.017425537109375
181256,0.000152587890625,-0.388885498046875,-0.0284423828125
181257,0.023162841796875,-0.4414215087890625,-0.093017578125
181258,0.0478057861328125,-0.4915924072265625,-0.142333984375
181259,0.0710296630859375,-0.533538818359375,-0.1728057861328125
181260,0.085784912109375,-0.5753021240234375,-0.1795654296875
181261,0.1012420654296875,-0.6192169189453125,-0.201019287109375
181262,0.114959716796875,-0.641265869140625,-0.23724365234375
181263,0.1047210693359375,-0.670166015625,-0.2727508544921875
181264,0.082489013671875,-0.71380615234375,-0.269744873046875
181265,0.080322265625,-0.779266357421875,-0.2749176025390625
181266,0.097503662109375,-0.837432861328125,-0.250244140625
181267,0.0965576171875,-0.8934478759765625,-0.1951904296875
181268,0.0956268310546875,-0.9703826904296876,-0.1569976806640625
181269,0.1136627197265625,-1.075607299804688,-0.15753173828125
181270,0.143402099609375,-1.235671997070312,-0.1886749267578125
181271,0.18499755859375,-1.463546752929688,-0.2321624755859375
181272,0.2763671875,-1.813323974609375,-0.2897491455078125
181273,0.4190673828125,-2.268692016601562,-0.4078521728515625
181274,0.536224365234375,-2.705169677734375,-0.4244537353515625
181275,0.6794281005859375,-3.214553833007812,-0.3382415771484375
181276,0.79876708984375,-3.484283447265625,-0.2347259521484375
181277,0.7213287353515625,-3.116546630859375,-0.184295654296875
181278,0.5783538818359375,-2.6361083984375,-0.1373443603515625
181279,0.434906005859375,-2.24542236328125,-0.0795135498046875
181280,0.3314666748046875,-1.956283569335938,-0.128082275390625
181281,0.314697265625,-1.721755981445312,-0.261627197265625
181282,0.3123931884765625,-1.508438110351562,-0.3189849853515625
181283,0.3003387451171875,-1.332992553710938,-0.362640380859375
181284,0.2792816162109375,-1.197418212890625,-0.4153289794921875
181285,0.2054901123046875,-1.110000610351562,-0.413299560546875
181286,0.127777099609375,-1.077728271484375,-0.3692474365234375
181287,0.058441162109375,-1.099700927734375,-0.3242034912109375
181288,-0.0030059814453125,-1.135299682617188,-0.3068695068359375
181289,-0.043182373046875,-1.185073852539062,-0.3163299560546875
181290,-0.0474090576171875,-1.240036010742188,-0.2967529296875
181291,-0.0294952392578125,-1.2845458984375,-0.2738189697265625
181292,0.0047149658203125,-1.3028564453125,-0.25244140625
181293,0.0391693115234375,-1.290496826171875,-0.2257232666015625
181294,0.073333740234375,-1.250762939453125,-0.1984100341796875
181295,0.1061859130859375,-1.179046630859375,-0.1825103759765625
181296,0.1300506591796875,-1.088180541992188,-0.2067413330078125
181297,0.1521148681640625,-0.9979248046875,-0.2454986572265625
181298,0.1723480224609375,-0.9182281494140624,-0.2660980224609375
181299,0.1910247802734375,-0.835601806640625,-0.2602691650390625
181300,0.20782470703125,-0.7521820068359375,-0.231292724609375
181301,0.226470947265625,-0.674560546875,-0.1978912353515625
181302,0.2523956298828125,-0.60540771484375,-0.1749114990234375
181303,0.2776336669921875,-0.5348052978515625,-0.1572113037109375
181304,0.28887939453125,-0.4604339599609375,-0.131591796875
181305,0.279998779296875,-0.4055328369140625,-0.080322265625
181306,0.2599945068359375,-0.331451416015625,-0.0301361083984375
181307,0.2488555908203125,-0.198638916015625,-0.018341064453125
181308,0.2381591796875,-0.0462799072265625,-0.0536651611328125
181309,0.212860107421875,0.06317138671875,-0.15093994140625
181310,0.1683197021484375,0.110504150390625,-0.2287750244140625
181311,0.100799560546875,0.1210479736328125,-0.260528564453125
181312,0.025787353515625,0.12530517578125,-0.2374725341796875
181313,-0.03369140625,0.1077117919921875,-0.179656982421875
181314,-0.0692291259765625,0.065216064453125,-0.121063232421875
181315,-0.0867767333984375,-0.01190185546875,-0.073394775390625
181316,-0.090057373046875,-0.107330322265625,-0.0318145751953125
181317,-0.0859375,-0.200897216796875,0.0054931640625
181318,-0.0829315185546875,-0.297088623046875,0.0128326416015625
181319,-0.073944091796875,-0.4008941650390625,-0.0297393798828125
181320,-0.0553436279296875,-0.4882965087890625,-0.085296630859375
181321,-0.02911376953125,-0.5559234619140625,-0.124176025390625
181322,0.0005035400390625,-0.6095428466796875,-0.1583709716796875
181323,0.0353240966796875,-0.6458587646484375,-0.1832122802734375
181324,0.0673675537109375,-0.659454345703125,-0.1891937255859375
181325,0.081695556640625,-0.655364990234375,-0.18817138671875
181326,0.089202880859375,-0.6538238525390625,-0.21270751953125
181327,0.0980987548828125,-0.66217041015625,-0.248443603515625
181328,0.101318359375,-0.6798553466796875,-0.2701416015625
181329,0.0952911376953125,-0.7072906494140625,-0.274871826171875
181330,0.0862579345703125,-0.74774169921875,-0.2541961669921875
181331,0.0764923095703125,-0.7994232177734375,-0.2005767822265625
181332,0.06927490234375,-0.8519287109375,-0.1233978271484375
181333,0.06756591796875,-0.9432373046875,-0.0653076171875
181334,0.0631561279296875,-1.114212036132812,-0.0470428466796875
181335,0.0708770751953125,-1.384231567382812,-0.0785369873046875
181336,0.0773773193359375,-1.751815795898438,-0.1548004150390625
181337,0.1148223876953125,-2.172714233398438,-0.241912841796875
181338,0.2459869384765625,-2.566024780273438,-0.3160552978515625
181339,0.4476318359375,-2.944244384765625,-0.227752685546875
181340,0.69354248046875,-3.226043701171875,0.103424072265625
181341,1.014266967773438,-3.217376708984375,0.3076324462890625
181342,1.273696899414062,-2.814849853515625,0.3542938232421875
181343,1.152801513671875,-2.305450439453125,0.2601318359375
181344,0.8716888427734375,-1.9129638671875,0.049957275390625
181345,0.6897125244140625,-1.633956909179688,-0.1261444091796875
181346,0.546600341796875,-1.404129028320312,-0.1832275390625
181347,0.4366455078125,-1.185317993164062,-0.232513427734375
181348,0.3747100830078125,-1.042098999023438,-0.3491668701171875
181349,0.3123016357421875,-1.014022827148438,-0.4337005615234375
181350,0.2216033935546875,-1.103866577148438,-0.3916015625
181351,0.1314239501953125,-1.217880249023438,-0.3796234130859375
181352,0.06756591796875,-1.282180786132812,-0.3619842529296875
181353,0.0245819091796875,-1.298019409179688,-0.3341827392578125
181354,-0.017822265625,-1.280654907226562,-0.307952880859375
181355,-0.06512451171875,-1.227951049804688,-0.24176025390625
181356,-0.0878753662109375,-1.18218994140625,-0.1451263427734375
181357,-0.0742950439453125,-1.160919189453125,-0.041412353515625
181358,-0.0406036376953125,-1.175140380859375,0.0539703369140625
181359,0.003204345703125,-1.174545288085938,0.054962158203125
181360,0.0847625732421875,-1.095779418945312,-0.0437469482421875
181361,0.1768798828125,-0.9474945068359376,-0.1134033203125
181362,0.2338104248046875,-0.7960662841796875,-0.1378021240234375
181363,0.2634429931640625,-0.6764984130859375,-0.1598663330078125
181364,0.2861175537109375,-0.58856201171875,-0.18133544921875
181365,0.3102264404296875,-0.5223846435546875,-0.190093994140625
181366,0.337921142578125,-0.4684600830078125,-0.1800689697265625
181367,0.348724365234375,-0.422119140625,-0.177520751953125
181368,0.3287200927734375,-0.3571624755859375,-0.162567138671875
181369,0.267852783203125,-0.253204345703125,-0.1493988037109375
181370,0.197052001953125,-0.129974365234375,-0.157623291015625
181371,0.157958984375,-0.0126953125,-0.1920623779296875
181372,0.132720947265625,0.04742431640625,-0.240020751953125
181373,0.100616455078125,0.0459442138671875,-0.2440185546875
181374,0.0699310302734375,0.0188140869140625,-0.1953277587890625
181375,0.0409698486328125,-0.0048065185546875,-0.1484222412109375
181376,0.0189056396484375,-0.024200439453125,-0.105255126953125
181377,0.0025482177734375,-0.0390777587890625,-0.0614471435546875
181378,-0.0173187255859375,-0.0672149658203125,-0.0153656005859375
181379,-0.040679931640625,-0.108917236328125,0.0321502685546875
181380,-0.05938720703125,-0.1613616943359375,0.061065673828125
181381,-0.073333740234375,-0.2292633056640625,0.059051513671875
181382,-0.07635498046875,-0.30877685546875,0.0169830322265625
181383,-0.070709228515625,-0.387847900390625,-0.0388641357421875
181384,-0.0605316162109375,-0.4613189697265625,-0.0869598388671875
181385,-0.034820556640625,-0.5191192626953125,-0.13104248046875
181386,-0.0108795166015625,-0.570556640625,-0.1772003173828125
181387,0.0060272216796875,-0.6114349365234375,-0.21759033203125
181388,0.021484375,-0.6517181396484375,-0.3061065673828125
181389,0.05499267578125,-0.6700286865234375,-0.4110870361328125
181390,0.07489013671875,-0.676361083984375,-0.424041748046875
181391,0.0712127685546875,-0.702850341796875,-0.350189208984375
181392,0.067352294921875,-0.7276153564453125,-0.2852325439453125
181393,0.0769195556640625,-0.779510498046875,-0.243896484375
181394,0.1065673828125,-0.8467864990234375,-0.2143096923828125
181395,0.1392364501953125,-0.9196624755859376,-0.1794586181640625
181396,0.1655120849609375,-1.029220581054688,-0.15765380859375
181397,0.1972808837890625,-1.208084106445312,-0.155792236328125
181398,0.2336883544921875,-1.463882446289062,-0.17742919921875
181399,0.28009033203125,-1.791244506835938,-0.23583984375
181400,0.3751373291015625,-2.173416137695312,-0.3667755126953125
181401,0.50030517578125,-2.581436157226562,-0.5551605224609375
181402,0.59747314453125,-3.074020385742188,-0.573394775390625
181403,0.7571563720703125,-3.510940551757812,-0.4207305908203125
181404,0.712066650390625,-3.265548706054688,-0.111602783203125
181405,0.5212860107421875,-2.6595458984375,-0.028167724609375
181406,0.42633056640625,-2.305862426757812,-0.076019287109375
181407,0.3905792236328125,-2.100082397460938,-0.0325775146484375
181408,0.3995819091796875,-1.8184814453125,-0.003387451171875
181409,0.4120941162109375,-1.514938354492188,-0.0119171142578125
181410,0.3963775634765625,-1.268661499023438,-0.06744384765625
181411,0.37322998046875,-1.110794067382812,-0.0943450927734375
181412,0.3576202392578125,-1.04296875,-0.111846923828125
181413,0.3209075927734375,-1.047927856445312,-0.1593475341796875
181414,0.2216949462890625,-1.090927124023438,-0.2440032958984375
181415,0.1103668212890625,-1.138107299804688,-0.2602081298828125
181416,0.0529937744140625,-1.170730590820312,-0.228179931640625
181417,0.042572021484375,-1.210159301757812,-0.187225341796875
181418,0.0610504150390625,-1.24615478515625,-0.149627685546875
181419,0.08734130859375,-1.258148193359375,-0.10662841796875
181420,0.10595703125,-1.250335693359375,-0.0928497314453125
181421,0.1155853271484375,-1.237991333007812,-0.119720458984375
181422,0.1292877197265625,-1.227340698242188,-0.17095947265625
181423,0.15380859375,-1.20184326171875,-0.2216796875
181424,0.199737548828125,-1.120864868164062,-0.2189178466796875
181425,0.2361297607421875,-1.004898071289062,-0.2035369873046875
181426,0.2385711669921875,-0.86688232421875,-0.18243408203125
181427,0.2324981689453125,-0.7298583984375,-0.135345458984375
181428,0.2271881103515625,-0.6157989501953125,-0.1223602294921875
181429,0.2217559814453125,-0.50885009765625,-0.14874267578125
181430,0.2081298828125,-0.4212646484375,-0.1633453369140625
181431,0.181243896484375,-0.359100341796875,-0.1226043701171875
181432,0.1363372802734375,-0.305999755859375,-0.0315093994140625
181433,0.067474365234375,-0.21856689453125,0.0289459228515625
181434,0.0156707763671875,-0.0620574951171875,-0.01092529296875
181435,-0.00164794921875,0.098388671875,-0.0916900634765625
181436,-0.0063629150390625,0.194671630859375,-0.1763458251953125
181437,-0.0163116455078125,0.2106475830078125,-0.21380615234375
181438,-0.021820068359375,0.1529083251953125,-0.1810302734375
181439,-0.0033111572265625,0.0440826416015625,-0.0890045166015625
181440,0.018341064453125,-0.052581787109375,-0.0180816650390625
181441,0.0298309326171875,-0.1228179931640625,0.009124755859375
181442,0.0391693115234375,-0.19073486328125,0.0103607177734375
181443,0.0492401123046875,-0.265533447265625,0.004180908203125
181444,0.0675811767578125,-0.3380279541015625,-0.005859375
181445,0.0923309326171875,-0.398040771484375,-0.032745361328125
181446,0.1087493896484375,-0.44818115234375,-0.07757568359375
181447,0.1114349365234375,-0.474761962890625,-0.129669189453125
181448,0.0999755859375,-0.47735595703125,-0.1749725341796875
181449,0.086151123046875,-0.4810028076171875,-0.2071990966796875
181450,0.07965087890625,-0.497344970703125,-0.2202911376953125
181451,0.0738677978515625,-0.52972412109375,-0.2258758544921875
181452,0.0610809326171875,-0.559539794921875,-0.2147979736328125
181453,0.0489654541015625,-0.5866546630859375,-0.2090301513671875
181454,0.0329742431640625,-0.60601806640625,-0.21807861328125
181455,0.026519775390625,-0.6572418212890625,-0.2491912841796875
181456,0.0377044677734375,-0.7366790771484375,-0.2393341064453125
181457,0.051300048828125,-0.807373046875,-0.1865234375
181458,0.067657470703125,-0.864044189453125,-0.106292724609375
181459,0.0930633544921875,-0.9279937744140624,-0.0250396728515625
181460,0.1271514892578125,-1.05242919921875,0.0577545166015625
181461,0.15118408203125,-1.258392333984375,0.1129302978515625
181462,0.16632080078125,-1.535003662109375,0.070526123046875
181463,0.1808624267578125,-1.878646850585938,-0.05615234375
181464,0.2220001220703125,-2.2740478515625,-0.2162628173828125
181465,0.3154449462890625,-2.692947387695312,-0.38031005859375
181466,0.497161865234375,-3.151687622070312,-0.316497802734375
181467,0.857086181640625,-3.5836181640625,0.099761962890625
181468,1.218490600585938,-3.481582641601562,0.3970947265625
181469,1.152114868164062,-2.773910522460938,0.2684783935546875
181470,0.7767333984375,-2.24810791015625,0.1180877685546875
181471,0.5595703125,-1.922958374023438,-0.0280303955078125
181472,0.5281982421875,-1.610992431640625,-0.147216796875
181473,0.5267486572265625,-1.354278564453125,-0.104156494140625
181474,0.494781494140625,-1.108245849609375,-0.1161041259765625
181475,0.4394989013671875,-0.9150238037109376,-0.18994140625
181476,0.358428955078125,-0.88934326171875,-0.2433013916015625
181477,0.2676544189453125,-1.035324096679688,-0.2244873046875
181478,0.22216796875,-1.1944580078125,-0.1600494384765625
181479,0.2182159423828125,-1.286895751953125,-0.11810302734375
181480,0.2000274658203125,-1.337814331054688,-0.087921142578125
181481,0.1444854736328125,-1.338775634765625,-0.08245849609375
181482,0.076080322265625,-1.300567626953125,-0.0785980224609375
181483,0.0289459228515625,-1.25054931640625,-0.039764404296875
181484,0.028167724609375,-1.1959228515625,0.0037841796875
181485,0.0593414306640625,-1.139053344726562,-0.0227813720703125
181486,0.1027069091796875,-1.062759399414062,-0.119171142578125
181487,0.1412200927734375,-0.976348876953125,-0.1876068115234375
181488,0.1528778076171875,-0.874267578125,-0.2094268798828125
181489,0.146484375,-0.751922607421875,-0.20263671875
181490,0.1381988525390625,-0.6274871826171875,-0.1867523193359375
181491,0.1266937255859375,-0.53070068359375,-0.17877197265625
181492,0.1224365234375,-0.4574432373046875,-0.1616973876953125
181493,0.1263580322265625,-0.39837646484375,-0.1460723876953125
181494,0.1310272216796875,-0.345794677734375,-0.13397216796875
181495,0.122894287109375,-0.2756195068359375,-0.12567138671875
181496,0.093963623046875,-0.1863555908203125,-0.1347198486328125
181497,0.044464111328125,-0.08941650390625,-0.164306640625
181498,-0.0022735595703125,0.0051727294921875,-0.190673828125
181499,-0.0320281982421875,0.069915771484375,-0.191070556640625
181500,-0.0400390625,0.0974884033203125,-0.18463134765625
181501,-0.031890869140625,0.0763092041015625,-0.1667022705078125
181502,-0.014892578125,0.0288238525390625,-0.120758056640625
181503,0.00689697265625,-0.02886962890625,-0.0602569580078125
181504,0.028350830078125,-0.1025390625,0.0001678466796875
181505,0.03765869140625,-0.167510986328125,0.0450592041015625
181506,0.040771484375,-0.22857666015625,0.053863525390625
181507,0.0453338623046875,-0.282470703125,0.0190277099609375
181508,0.0528106689453125,-0.326080322265625,-0.03985595703125
181509,0.0608062744140625,-0.3783721923828125,-0.1124725341796875
181510,0.0686798095703125,-0.4443359375,-0.177215576171875
181511,0.0757904052734375,-0.515899658203125,-0.2196044921875
181512,0.0814208984375,-0.573638916015625,-0.23223876953125
181513,0.087890625,-0.6090240478515625,-0.2269287109375
181514,0.0937347412109375,-0.635528564453125,-0.2219390869140625
181515,0.093902587890625,-0.6324920654296875,-0.22650146484375
181516,0.079620361328125,-0.6457061767578125,-0.22882080078125
181517,0.0504608154296875,-0.7042236328125,-0.2283935546875
181518,0.01654052734375,-0.760986328125,-0.2158050537109375
181519,-0.01690673828125,-0.80224609375,-0.183837890625
181520,-0.033721923828125,-0.8224945068359375,-0.135467529296875
181521,-0.02423095703125,-0.839447021484375,-0.082000732421875
181522,0.00921630859375,-0.887237548828125,-0.0348358154296875
181523,0.06182861328125,-0.992645263671875,0.0174560546875
181524,0.1108245849609375,-1.17047119140625,0.017608642578125
181525,0.1556243896484375,-1.422607421875,0.0032806396484375
181526,0.2110595703125,-1.7073974609375,-0.0304412841796875
181527,0.3066558837890625,-2.00140380859375,-0.080413818359375
181528,0.4267730712890625,-2.29296875,-0.1416778564453125
181529,0.56292724609375,-2.689544677734375,-0.158050537109375
181530,0.83050537109375,-3.137374877929688,-0.0074310302734375
181531,1.044448852539062,-3.10321044921875,0.04583740234375
181532,0.9273681640625,-2.469131469726562,0.044891357421875
181533,0.692230224609375,-2.098403930664062,-0.01611328125
181534,0.5070037841796875,-1.888870239257812,-0.1302032470703125
181535,0.42376708984375,-1.662261962890625,-0.2387237548828125
181536,0.396331787109375,-1.475326538085938,-0.2938995361328125
181537,0.4245452880859375,-1.318267822265625,-0.3607177734375
181538,0.485992431640625,-1.228042602539062,-0.3946533203125
181539,0.4701385498046875,-1.214309692382812,-0.366302490234375
181540,0.38311767578125,-1.276626586914062,-0.36529541015625
181541,0.2820892333984375,-1.407928466796875,-0.2873077392578125
181542,0.2208404541015625,-1.529052734375,-0.157867431640625
181543,0.190826416015625,-1.615890502929688,0.0275115966796875
181544,0.144866943359375,-1.646331787109375,0.1893310546875
181545,0.070037841796875,-1.612197875976562,0.2544097900390625
181546,0.0099029541015625,-1.514251708984375,0.2608795166015625
181547,0.0192108154296875,-1.380935668945312,0.2059173583984375
181548,0.1200103759765625,-1.247421264648438,0.040313720703125
181549,0.215362548828125,-1.134033203125,-0.1298065185546875
181550,0.2536468505859375,-1.021041870117188,-0.1701202392578125
181551,0.2449798583984375,-0.9118499755859376,-0.2023468017578125
181552,0.2193756103515625,-0.80499267578125,-0.22119140625
181553,0.19085693359375,-0.681243896484375,-0.2059783935546875
181554,0.17315673828125,-0.5594635009765625,-0.178497314453125
181555,0.172607421875,-0.4547271728515625,-0.1523284912109375
181556,0.1803436279296875,-0.3582611083984375,-0.132171630859375
181557,0.193267822265625,-0.274322509765625,-0.1212310791015625
181558,0.2088470458984375,-0.211517333984375,-0.0992889404296875
181559,0.2073516845703125,-0.1576080322265625,-0.07794189453125
181560,0.167022705078125,-0.09857177734375,-0.06402587890625
181561,0.09625244140625,-0.0307769775390625,-0.0688629150390625
181562,0.030609130859375,0.047698974609375,-0.1011199951171875
181563,-0.008819580078125,0.1036834716796875,-0.1512451171875
181564,-0.02569580078125,0.1219329833984375,-0.18682861328125
181565,-0.0223541259765625,0.08612060546875,-0.199493408203125
181566,-0.0072174072265625,0.023162841796875,-0.1757354736328125
181567,0.000335693359375,-0.0452728271484375,-0.1380767822265625
181568,0.0015869140625,-0.117034912109375,-0.0904998779296875
181569,0.004058837890625,-0.1707000732421875,-0.0454559326171875
181570,0.0080718994140625,-0.2119598388671875,-0.015838623046875
181571,0.021820068359375,-0.2531585693359375,0.007110595703125
181572,0.047515869140625,-0.296783447265625,0.0083160400390625
181573,0.07611083984375,-0.334442138671875,-0.00079345703125
181574,0.09423828125,-0.386199951171875,-0.0177764892578125
181575,0.096832275390625,-0.447052001953125,-0.046234130859375
181576,0.0927734375,-0.5054168701171875,-0.085174560546875
181577,0.0869140625,-0.5624542236328125,-0.1276397705078125
181578,0.08636474609375,-0.6151275634765625,-0.1683807373046875
181579,0.082244873046875,-0.6511077880859375,-0.232818603515625
181580,0.0731964111328125,-0.6971893310546875,-0.3287353515625
181581,0.073883056640625,-0.7546234130859375,-0.378143310546875
181582,0.076324462890625,-0.8040618896484375,-0.3266143798828125
181583,0.08624267578125,-0.8461151123046875,-0.2437286376953125
181584,0.1039276123046875,-0.8812713623046875,-0.179718017578125
181585,0.1301116943359375,-0.9276580810546876,-0.12554931640625
181586,0.1617889404296875,-1.017074584960938,-0.0978240966796875
181587,0.1934967041015625,-1.171463012695312,-0.076507568359375
181588,0.22686767578125,-1.393310546875,-0.054412841796875
181589,0.2626800537109375,-1.681838989257812,-0.0449371337890625
181590,0.3222808837890625,-2.019943237304688,-0.074188232421875
181591,0.397216796875,-2.41021728515625,-0.1473846435546875
181592,0.6452789306640625,-2.870407104492188,-0.140167236328125
181593,1.076675415039062,-3.190826416015625,-0.011016845703125
181594,1.19671630859375,-3.011322021484375,0.150665283203125
181595,1.030136108398438,-2.602157592773438,0.1944732666015625
181596,0.86614990234375,-2.352813720703125,0.049346923828125
181597,0.722625732421875,-2.081863403320312,-0.186187744140625
181598,0.561614990234375,-1.755081176757812,-0.3057098388671875
181599,0.43359375,-1.446014404296875,-0.321685791015625
181600,0.35882568359375,-1.185317993164062,-0.3695068359375
181601,0.2868194580078125,-1.03363037109375,-0.45062255859375
181602,0.233154296875,-0.9886627197265624,-0.5319366455078125
181603,0.1760711669921875,-1.030181884765625,-0.5024261474609375
181604,0.101959228515625,-1.1505126953125,-0.4044342041015625
181605,0.0682525634765625,-1.30194091796875,-0.3274993896484375
181606,0.08349609375,-1.442657470703125,-0.250457763671875
181607,0.0833892822265625,-1.530792236328125,-0.184539794921875
181608,0.063201904296875,-1.550247192382812,-0.10076904296875
181609,0.037841796875,-1.518341064453125,0.0058746337890625
181610,0.0079498291015625,-1.507614135742188,0.09423828125
181611,-0.009124755859375,-1.479537963867188,0.109954833984375
181612,0.034393310546875,-1.345840454101562,0.030517578125
181613,0.1135406494140625,-1.170486450195312,-0.14410400390625
181614,0.1573333740234375,-1.026718139648438,-0.2331390380859375
181615,0.1728515625,-0.8817138671875,-0.26251220703125
181616,0.178741455078125,-0.740814208984375,-0.2760467529296875
181617,0.170318603515625,-0.6137847900390625,-0.2578582763671875
181618,0.1502532958984375,-0.50823974609375,-0.2260284423828125
181619,0.1362457275390625,-0.4248199462890625,-0.1779327392578125
181620,0.13018798828125,-0.3550262451171875,-0.1213531494140625
181621,0.13458251953125,-0.2716522216796875,-0.083160400390625
181622,0.1535797119140625,-0.175048828125,-0.0529632568359375
181623,0.174468994140625,-0.0967254638671875,-0.032318115234375
181624,0.18524169921875,-0.0358123779296875,-0.0471343994140625
181625,0.18536376953125,0.0074920654296875,-0.068359375
181626,0.1719207763671875,0.0307769775390625,-0.061614990234375
181627,0.148956298828125,0.02593994140625,-0.0239410400390625
181628,0.1269989013671875,-0.0016632080078125,0.015533447265625
181629,0.11602783203125,-0.0485687255859375,0.04998779296875
181630,0.1074676513671875,-0.0867919921875,0.063995361328125
181631,0.0931396484375,-0.1145172119140625,0.0396270751953125
181632,0.0755615234375,-0.1414337158203125,-0.016143798828125
181633,0.051025390625,-0.1760101318359375,-0.0928497314453125
181634,0.0229644775390625,-0.212493896484375,-0.154876708984375
181635,-0.0115966796875,-0.2559967041015625,-0.2071075439453125
181636,-0.040985107421875,-0.305206298828125,-0.228271484375
181637,-0.051849365234375,-0.354278564453125,-0.2307586669921875
181638,-0.0464019775390625,-0.397064208984375,-0.2218780517578125
181639,-0.026336669921875,-0.4358673095703125,-0.1895904541015625
181640,0.00823974609375,-0.47283935546875,-0.1614227294921875
181641,0.0427093505859375,-0.5064849853515625,-0.1523284912109375
181642,0.0702056884765625,-0.5321807861328125,-0.1571502685546875
181643,0.0828094482421875,-0.5524139404296875,-0.1678466796875
181644,0.0838775634765625,-0.5651702880859375,-0.17572021484375
181645,0.083404541015625,-0.5735626220703125,-0.1815948486328125
181646,0.1022186279296875,-0.6019134521484375,-0.1713409423828125
181647,0.125762939453125,-0.6515960693359375,-0.1586456298828125
181648,0.145538330078125,-0.72589111328125,-0.134765625
181649,0.1568145751953125,-0.8115997314453125,-0.1112213134765625
181650,0.1598968505859375,-0.92681884765625,-0.1054840087890625
181651,0.1554107666015625,-1.109695434570312,-0.1281890869140625
181652,0.145660400390625,-1.343490600585938,-0.180145263671875
181653,0.1471710205078125,-1.576370239257812,-0.2301483154296875
181654,0.1891326904296875,-1.897079467773438,-0.3104248046875
181655,0.275360107421875,-2.385299682617188,-0.4546356201171875
181656,0.321868896484375,-3.129638671875,-0.302276611328125
181657,0.645172119140625,-4.109619140625,-0.0428314208984375
181658,0.9668731689453124,-3.971588134765625,0.09796142578125
181659,0.9284820556640624,-2.990081787109375,0.3574981689453125
181660,0.7068634033203125,-2.461868286132812,-0.010406494140625
181661,0.52069091796875,-2.109359741210938,-0.2566986083984375
181662,0.471405029296875,-1.728988647460938,-0.3256988525390625
181663,0.4713897705078125,-1.433624267578125,-0.3754730224609375
181664,0.470916748046875,-1.226898193359375,-0.4772491455078125
181665,0.42718505859375,-1.105239868164062,-0.612060546875
181666,0.3253631591796875,-1.019638061523438,-0.65283203125
181667,0.2161102294921875,-0.96142578125,-0.5666961669921875
181668,0.150115966796875,-0.9509735107421876,-0.4499359130859375
181669,0.0995025634765625,-0.99810791015625,-0.39483642578125
181670,0.0651702880859375,-1.018951416015625,-0.3894805908203125
181671,0.0366058349609375,-1.026046752929688,-0.34967041015625
181672,0.0152130126953125,-1.0262451171875,-0.260162353515625
181673,0.00921630859375,-0.9984893798828124,-0.1912841796875
181674,0.00848388671875,-0.944061279296875,-0.17388916015625
181675,0.018798828125,-0.87518310546875,-0.2357635498046875
181676,0.031402587890625,-0.8191375732421875,-0.3104705810546875
181677,0.0491180419921875,-0.78863525390625,-0.3381500244140625
181678,0.0479736328125,-0.7508087158203125,-0.3266448974609375
181679,0.0232696533203125,-0.684234619140625,-0.320281982421875
181680,-0.0178375244140625,-0.6203765869140625,-0.32257080078125
181681,-0.0556488037109375,-0.5436553955078125,-0.3240966796875
181682,-0.07598876953125,-0.4719390869140625,-0.3137664794921875
181683,-0.079925537109375,-0.422698974609375,-0.2915802001953125
181684,-0.070770263671875,-0.3888397216796875,-0.2756195068359375
181685,-0.057861328125,-0.353546142578125,-0.273590087890625
181686,-0.0479888916015625,-0.3162384033203125,-0.2747955322265625
181687,-0.0518341064453125,-0.281219482421875,-0.2734527587890625
181688,-0.0715179443359375,-0.246673583984375,-0.2391815185546875
181689,-0.0909271240234375,-0.2015228271484375,-0.1798553466796875
181690,-0.0928802490234375,-0.1544647216796875,-0.1111602783203125
181691,-0.0694732666015625,-0.096221923828125,-0.0533294677734375
181692,-0.0274200439453125,-0.060638427734375,-0.0434417724609375
181693,0.0026397705078125,-0.06396484375,-0.059295654296875
181694,0.0155487060546875,-0.073272705078125,-0.063079833984375
181695,0.012481689453125,-0.0979766845703125,-0.0694732666015625
181696,0.0062408447265625,-0.1230316162109375,-0.07550048828125
181697,0.0045013427734375,-0.13665771484375,-0.0727996826171875
181698,-0.007049560546875,-0.1584320068359375,-0.0820159912109375
181699,-0.0214691162109375,-0.192474365234375,-0.106719970703125
181700,-0.0334320068359375,-0.25732421875,-0.14422607421875
181701,-0.0283050537109375,-0.346893310546875,-0.19549560546875
181702,-0.011566162109375,-0.4294891357421875,-0.2662811279296875
181703,-0.0088043212890625,-0.515625,-0.3522796630859375
181704,-0.0157012939453125,-0.6255950927734375,-0.435089111328125
181705,-0.011627197265625,-0.7317047119140625,-0.50762939453125
181706,-0.000335693359375,-0.8211822509765625,-0.5687713623046875
181707,0.0180511474609375,-0.9026641845703124,-0.5817718505859375
181708,0.0462799072265625,-0.9799346923828124,-0.55804443359375
181709,0.098541259765625,-1.034820556640625,-0.4593658447265625
181710,0.162811279296875,-1.067794799804688,-0.342315673828125
181711,0.2081451416015625,-1.082733154296875,-0.2645111083984375
181712,0.256256103515625,-1.107757568359375,-0.241119384765625
181713,0.2930755615234375,-1.127365112304688,-0.2560272216796875
181714,0.2887420654296875,-1.136260986328125,-0.33258056640625
181715,0.2550048828125,-1.171524047851562,-0.518707275390625
181716,0.2022247314453125,-1.331634521484375,-0.76654052734375
181717,0.1375274658203125,-1.598159790039062,-0.983489990234375
181718,0.0567474365234375,-1.887786865234375,-1.14080810546875
181719,-0.045318603515625,-2.148406982421875,-1.252227783203125
181720,-0.1864013671875,-2.335540771484375,-1.36712646484375
181721,-0.337158203125,-2.4908447265625,-1.500274658203125
181722,-0.4653472900390625,-2.668426513671875,-1.564498901367188
181723,-0.513031005859375,-2.64300537109375,-1.4713134765625
181724,-0.44317626953125,-2.394302368164062,-1.279815673828125
181725,-0.27215576171875,-2.137344360351562,-1.060989379882812
181726,-0.100006103515625,-1.94635009765625,-0.9070587158203124
181727,0.0191497802734375,-1.801681518554688,-0.85430908203125
181728,0.1229248046875,-1.682220458984375,-0.8351898193359375
181729,0.17999267578125,-1.5460205078125,-0.8241119384765625
181730,0.1681060791015625,-1.394271850585938,-0.780517578125
181731,0.101226806640625,-1.238723754882812,-0.7307586669921875
181732,-0.0117645263671875,-1.0765380859375,-0.70184326171875
181733,-0.1414794921875,-0.9331817626953124,-0.6880340576171875
181734,-0.247894287109375,-0.8278656005859375,-0.661712646484375
181735,-0.29595947265625,-0.7561492919921875,-0.5795440673828125
181736,-0.2541351318359375,-0.7067108154296875,-0.4779510498046875
181737,-0.16552734375,-0.666656494140625,-0.460784912109375
181738,-0.112823486328125,-0.6265411376953125,-0.487548828125
181739,-0.0873565673828125,-0.569000244140625,-0.5098724365234375
181740,-0.0699615478515625,-0.5026397705078125,-0.5211334228515625
181741,-0.048065185546875,-0.436065673828125,-0.5104217529296875
181742,-0.0360565185546875,-0.375091552734375,-0.4666595458984375
181743,-0.0343780517578125,-0.32086181640625,-0.4096527099609375
181744,-0.0195465087890625,-0.2830963134765625,-0.3763275146484375
181745,0.0103759765625,-0.2688140869140625,-0.333099365234375
181746,0.0415191650390625,-0.2676849365234375,-0.288970947265625
181747,0.0789794921875,-0.2646484375,-0.2371368408203125
181748,0.11126708984375,-0.2736358642578125,-0.1901397705078125
181749,0.13201904296875,-0.300445556640625,-0.1355743408203125
181750,0.1495361328125,-0.3433990478515625,-0.0851287841796875
181751,0.17425537109375,-0.351470947265625,-0.05450439453125
181752,0.1969146728515625,-0.333648681640625,-0.0352630615234375
181753,0.2059783935546875,-0.3040313720703125,-0.0380859375
181754,0.209136962890625,-0.282440185546875,-0.069427490234375
181755,0.1697845458984375,-0.2692413330078125,-0.1060638427734375
181756,0.0767669677734375,-0.230377197265625,-0.1533203125
181757,0.001953125,-0.1929779052734375,-0.20941162109375
181758,-0.050750732421875,-0.1654052734375,-0.2671966552734375
181759,-0.0991363525390625,-0.154571533203125,-0.3349151611328125
181760,-0.145050048828125,-0.1724853515625,-0.4062652587890625
181761,-0.1905059814453125,-0.209136962890625,-0.446929931640625
181762,-0.229217529296875,-0.2498779296875,-0.45526123046875
181763,-0.260345458984375,-0.3009490966796875,-0.4467926025390625
181764,-0.27728271484375,-0.3527374267578125,-0.42242431640625
181765,-0.2840423583984375,-0.400390625,-0.4066162109375
181766,-0.281341552734375,-0.446533203125,-0.3785552978515625
181767,-0.2666168212890625,-0.4924774169921875,-0.33245849609375
181768,-0.235198974609375,-0.53839111328125,-0.27392578125
181769,-0.1904754638671875,-0.582122802734375,-0.2523193359375
181770,-0.1299896240234375,-0.606658935546875,-0.255828857421875
181771,-0.065704345703125,-0.6367950439453125,-0.2564239501953125
181772,-0.010009765625,-0.6853485107421875,-0.268096923828125
181773,0.038787841796875,-0.74853515625,-0.2902679443359375
181774,0.06744384765625,-0.799163818359375,-0.2992401123046875
181775,0.08154296875,-0.8248443603515625,-0.2928009033203125
181776,0.0865020751953125,-0.8535003662109375,-0.2767486572265625
181777,0.089141845703125,-0.89739990234375,-0.236358642578125
181778,0.095062255859375,-0.982330322265625,-0.2162628173828125
181779,0.1018218994140625,-1.125350952148438,-0.2423858642578125
181780,0.0974273681640625,-1.335556030273438,-0.30712890625
181781,0.095733642578125,-1.607742309570312,-0.38934326171875
181782,0.125091552734375,-1.95751953125,-0.5281829833984375
181783,0.180999755859375,-2.337203979492188,-0.6255035400390625
181784,0.2770233154296875,-2.651153564453125,-0.447845458984375
181785,0.5100860595703125,-2.925384521484375,-0.29931640625
181786,0.676055908203125,-2.889633178710938,-0.14715576171875
181787,0.5362091064453125,-2.493728637695312,-0.0462493896484375
181788,0.2734832763671875,-2.162933349609375,-0.2450408935546875
181789,0.123809814453125,-1.89385986328125,-0.334716796875
181790,0.07330322265625,-1.62078857421875,-0.36578369140625
181791,0.0986328125,-1.382049560546875,-0.395843505859375
181792,0.1694793701171875,-1.197982788085938,-0.4149017333984375
181793,0.2586212158203125,-1.101486206054688,-0.4331207275390625
181794,0.3586578369140625,-1.107574462890625,-0.4469757080078125
181795,0.4560089111328125,-1.181015014648438,-0.4011383056640625
181796,0.5094757080078125,-1.313919067382812,-0.3158721923828125
181797,0.450775146484375,-1.444442749023438,-0.189239501953125
181798,0.33001708984375,-1.459335327148438,-0.07867431640625
181799,0.1973724365234375,-1.396575927734375,-0.0135498046875
181800,0.112274169921875,-1.375350952148438,0.04107666015625
181801,0.100860595703125,-1.358749389648438,0.049407958984375
181802,0.1657257080078125,-1.307144165039062,-0.0796966552734375
181803,0.1985626220703125,-1.237533569335938,-0.13470458984375
181804,0.186767578125,-1.146286010742188,-0.211334228515625
181805,0.1575164794921875,-1.071441650390625,-0.3320159912109375
181806,0.12640380859375,-0.989959716796875,-0.3709564208984375
181807,0.0986480712890625,-0.87322998046875,-0.361907958984375
181808,0.0756072998046875,-0.7342987060546875,-0.32952880859375
181809,0.0517425537109375,-0.615997314453125,-0.284759521484375
181810,0.03411865234375,-0.515106201171875,-0.2412567138671875
181811,0.018951416015625,-0.41583251953125,-0.2177734375
181812,0.008148193359375,-0.322845458984375,-0.205810546875
181813,0.000213623046875,-0.2540130615234375,-0.1872100830078125
181814,-0.0008087158203125,-0.202911376953125,-0.159271240234375
181815,-0.0037384033203125,-0.1534881591796875,-0.1415863037109375
181816,-0.0206146240234375,-0.0977325439453125,-0.1205291748046875
181817,-0.0364990234375,-0.0359344482421875,-0.0823211669921875
181818,-0.02935791015625,0.0236053466796875,-0.1005096435546875
181819,0.0088958740234375,0.051971435546875,-0.1507568359375
181820,0.061920166015625,0.01641845703125,-0.17816162109375
181821,0.097198486328125,-0.0450439453125,-0.1780853271484375
181822,0.0962982177734375,-0.0839691162109375,-0.1824951171875
181823,0.0603790283203125,-0.1048126220703125,-0.173583984375
181824,0.0172119140625,-0.129791259765625,-0.1419219970703125
181825,-0.00634765625,-0.1691131591796875,-0.1118316650390625
181826,-0.0174713134765625,-0.2275238037109375,-0.1154937744140625
181827,-0.013458251953125,-0.290802001953125,-0.142364501953125
181828,-0.0003662109375,-0.3564453125,-0.1761322021484375
181829,0.01666259765625,-0.414581298828125,-0.2170257568359375
181830,0.03033447265625,-0.47430419921875,-0.2523193359375
181831,0.0391693115234375,-0.52874755859375,-0.277923583984375
181832,0.045745849609375,-0.55963134765625,-0.2863922119140625
181833,0.0447235107421875,-0.576446533203125,-0.2839202880859375
181834,0.0387420654296875,-0.586517333984375,-0.278778076171875
181835,0.023834228515625,-0.6113739013671875,-0.29083251953125
181836,0.0117950439453125,-0.66204833984375,-0.306854248046875
181837,0.0081329345703125,-0.7365570068359375,-0.329345703125
181838,0.0159454345703125,-0.8353729248046875,-0.3449859619140625
181839,0.03277587890625,-0.96234130859375,-0.3543701171875
181840,0.07373046875,-1.080184936523438,-0.35137939453125
181841,0.141021728515625,-1.196517944335938,-0.28839111328125
181842,0.2073516845703125,-1.302444458007812,-0.2189483642578125
181843,0.2420501708984375,-1.45703125,-0.2511138916015625
181844,0.25958251953125,-1.685714721679688,-0.386322021484375
181845,0.2887725830078125,-2.027328491210938,-0.565582275390625
181846,0.31884765625,-2.475982666015625,-0.642730712890625
181847,0.38934326171875,-2.985092163085938,-0.41827392578125
181848,0.50347900390625,-3.39703369140625,9.1552734375e-05
181849,0.5763702392578125,-3.339950561523438,0.365325927734375
181850,0.524200439453125,-2.9095458984375,0.429656982421875
181851,0.4818115234375,-2.476943969726562,0.2663116455078125
181852,0.5503692626953125,-2.071487426757812,0.136138916015625
181853,0.659698486328125,-1.680587768554688,-0.0423431396484375
181854,0.75750732421875,-1.33660888671875,-0.252960205078125
181855,0.78167724609375,-1.088653564453125,-0.4282379150390625
181856,0.728851318359375,-0.8895263671875,-0.6275787353515625
181857,0.572265625,-0.855499267578125,-0.7012176513671875
181858,0.3937530517578125,-0.9415130615234376,-0.5915679931640625
181859,0.263427734375,-1.109115600585938,-0.4341278076171875
181860,0.1818084716796875,-1.233810424804688,-0.3011627197265625
181861,0.1224212646484375,-1.259033203125,-0.2037811279296875
181862,0.0606842041015625,-1.2265625,-0.1096649169921875
181863,0.01934814453125,-1.175735473632812,-0.0398712158203125
181864,0.0197601318359375,-1.118515014648438,-0.0122222900390625
181865,0.0304412841796875,-1.07440185546875,-0.0473480224609375
181866,0.0332489013671875,-1.058456420898438,-0.1076507568359375
181867,0.027679443359375,-1.043228149414062,-0.1755218505859375
181868,0.0286865234375,-0.9915924072265624,-0.2141571044921875
181869,0.0204925537109375,-0.9258575439453124,-0.2380523681640625
181870,0.0126495361328125,-0.85589599609375,-0.252105712890625
181871,0.0084381103515625,-0.7829132080078125,-0.2528076171875
181872,0.0048980712890625,-0.7001190185546875,-0.243743896484375
181873,-0.0023956298828125,-0.6207122802734375,-0.2275390625
181874,-0.0154571533203125,-0.5494232177734375,-0.1938629150390625
181875,-0.0249786376953125,-0.486358642578125,-0.14398193359375
181876,-0.018096923828125,-0.4287567138671875,-0.086090087890625
181877,0.0026397705078125,-0.361419677734375,-0.0330047607421875
181878,0.0343017578125,-0.2867584228515625,-0.012359619140625
181879,0.0589752197265625,-0.220123291015625,-0.0205078125
181880,0.0619964599609375,-0.16217041015625,-0.031890869140625
181881,0.0512847900390625,-0.0925140380859375,-0.0449066162109375
181882,0.0399627685546875,-0.0159454345703125,-0.084625244140625
181883,0.0428466796875,0.0515594482421875,-0.141693115234375
181884,0.0568389892578125,0.061309814453125,-0.1634368896484375
181885,0.0703277587890625,0.0123443603515625,-0.13372802734375
181886,0.08270263671875,-0.0591888427734375,-0.1005401611328125
181887,0.09375,-0.124267578125,-0.0744171142578125
181888,0.096832275390625,-0.187469482421875,-0.0624237060546875
181889,0.0956878662109375,-0.2460479736328125,-0.06591796875
181890,0.103363037109375,-0.3053131103515625,-0.06707763671875
181891,0.116851806640625,-0.3665924072265625,-0.0816497802734375
181892,0.13580322265625,-0.4212799072265625,-0.1032257080078125
181893,0.1526947021484375,-0.477874755859375,-0.1347198486328125
181894,0.16357421875,-0.5333709716796875,-0.1661834716796875
181895,0.16558837890625,-0.6072998046875,-0.18695068359375
181896,0.1626739501953125,-0.6893768310546875,-0.1896820068359375
181897,0.1587982177734375,-0.7531890869140625,-0.1787261962890625
181898,0.1485443115234375,-0.8011932373046875,-0.1627960205078125
181899,0.1315765380859375,-0.835357666015625,-0.1434326171875
181900,0.1149749755859375,-0.8555145263671875,-0.1318511962890625
181901,0.1011810302734375,-0.8748016357421875,-0.1328582763671875
181902,0.090545654296875,-0.8950347900390625,-0.1358795166015625
181903,0.084716796875,-0.93316650390625,-0.11474609375
181904,0.095672607421875,-0.9809417724609376,-0.0889434814453125
181905,0.1240692138671875,-1.054779052734375,-0.079620361328125
181906,0.155548095703125,-1.196548461914062,-0.090118408203125
181907,0.173919677734375,-1.425643920898438,-0.1176605224609375
181908,0.1959075927734375,-1.704025268554688,-0.142578125
