time_idx,accelerometerAccelerationX(G),accelerometerAccelerationY(G),accelerometerAccelerationZ(G)
140000,-0.22906494140625,0.4850921630859375,0.9219818115234376
140001,-0.141815185546875,0.5540924072265625,0.866180419921875
140002,-0.081512451171875,0.6218719482421875,0.8283538818359375
140003,-0.056396484375,0.673858642578125,0.8137969970703125
140004,-0.0513916015625,0.7068634033203125,0.8097381591796875
140005,-0.046783447265625,0.714569091796875,0.78802490234375
140006,-0.0361328125,0.705047607421875,0.75286865234375
140007,-0.0209503173828125,0.6747283935546875,0.717132568359375
140008,-0.0019989013671875,0.6273956298828125,0.6803436279296875
140009,0.005218505859375,0.5787506103515625,0.63299560546875
140010,-0.017822265625,0.535064697265625,0.5917816162109375
140011,-0.05859375,0.4998626708984375,0.5845489501953125
140012,-0.1135406494140625,0.478302001953125,0.6218719482421875
140013,-0.176727294921875,0.4680328369140625,0.6854095458984375
140014,-0.2209320068359375,0.472564697265625,0.736236572265625
140015,-0.2474517822265625,0.4737701416015625,0.7721405029296875
140016,-0.2703704833984375,0.464111328125,0.78997802734375
140017,-0.288665771484375,0.468536376953125,0.7846832275390625
140018,-0.3003387451171875,0.4896697998046875,0.7922210693359375
140019,-0.307037353515625,0.5249481201171875,0.837890625
140020,-0.2992095947265625,0.5601043701171875,0.90411376953125
140021,-0.2531585693359375,0.5836944580078125,0.9779052734375
140022,-0.1589508056640625,0.6066436767578125,1.015579223632812
140023,-0.0225830078125,0.6406097412109375,1.007431030273438
140024,0.131439208984375,0.69427490234375,0.9540863037109376
140025,0.22991943359375,0.780548095703125,0.9163970947265624
140026,0.2555694580078125,0.8829345703125,0.933013916015625
140027,0.2633056640625,0.9693603515625,0.977294921875
140028,0.3023529052734375,0.9792327880859376,1.002944946289062
140029,0.3828582763671875,0.8980255126953125,0.9134521484375
140030,0.415771484375,0.786895751953125,0.7750244140625
140031,0.344635009765625,0.6975555419921875,0.7397918701171875
140032,0.2361602783203125,0.625030517578125,0.732269287109375
140033,0.126983642578125,0.5561065673828125,0.6823577880859375
140034,0.0279998779296875,0.4980316162109375,0.65350341796875
140035,-0.0491485595703125,0.45758056640625,0.6745147705078125
140036,-0.1078643798828125,0.4481201171875,0.7196044921875
140037,-0.1649627685546875,0.449371337890625,0.74981689453125
140038,-0.2147064208984375,0.4449615478515625,0.7613983154296875
140039,-0.2436676025390625,0.4288177490234375,0.7559661865234375
140040,-0.246612548828125,0.419891357421875,0.7509002685546875
140041,-0.2247467041015625,0.41510009765625,0.7473297119140625
140042,-0.210968017578125,0.4113922119140625,0.7513275146484375
140043,-0.2427825927734375,0.418212890625,0.7640533447265625
140044,-0.311798095703125,0.4179534912109375,0.77593994140625
140045,-0.3907623291015625,0.392181396484375,0.7784271240234375
140046,-0.4757537841796875,0.35540771484375,0.754486083984375
140047,-0.5454559326171875,0.33367919921875,0.7312774658203125
140048,-0.5775909423828125,0.3375396728515625,0.7239227294921875
140049,-0.5766754150390625,0.3883209228515625,0.7403564453125
140050,-0.537109375,0.4697723388671875,0.7815704345703125
140051,-0.4549407958984375,0.545379638671875,0.82281494140625
140052,-0.3607940673828125,0.6097412109375,0.8390655517578125
140053,-0.282989501953125,0.659759521484375,0.84149169921875
140054,-0.239013671875,0.6815643310546875,0.857269287109375
140055,-0.211334228515625,0.69171142578125,0.87457275390625
140056,-0.18426513671875,0.7051849365234375,0.8838958740234375
140057,-0.1665802001953125,0.7102813720703125,0.8950347900390625
140058,-0.159454345703125,0.7183990478515625,0.9070892333984376
140059,-0.156982421875,0.7299346923828125,0.9107513427734376
140060,-0.1649169921875,0.74163818359375,0.911590576171875
140061,-0.175872802734375,0.7461700439453125,0.9126434326171876
140062,-0.171417236328125,0.7306671142578125,0.89434814453125
140063,-0.1335906982421875,0.6960906982421875,0.838226318359375
140064,-0.0944061279296875,0.635894775390625,0.783721923828125
140065,-0.0958404541015625,0.5806121826171875,0.7518157958984375
140066,-0.1277008056640625,0.55279541015625,0.7332916259765625
140067,-0.1825714111328125,0.54486083984375,0.7295989990234375
140068,-0.2603759765625,0.5357513427734375,0.7237548828125
140069,-0.353546142578125,0.5160980224609375,0.7122955322265625
140070,-0.4407806396484375,0.4862213134765625,0.706817626953125
140071,-0.4835357666015625,0.4347686767578125,0.717803955078125
140072,-0.47265625,0.40631103515625,0.7236785888671875
140073,-0.420562744140625,0.4565887451171875,0.7197723388671875
140074,-0.3382720947265625,0.596099853515625,0.700042724609375
140075,-0.2386016845703125,0.720306396484375,0.6119384765625
140076,-0.1685791015625,0.7275848388671875,0.49053955078125
140077,-0.1376495361328125,0.72869873046875,0.44244384765625
140078,-0.122528076171875,0.8134918212890625,0.4764862060546875
140079,-0.0865478515625,0.970001220703125,0.5901947021484375
140080,0.000396728515625,1.147613525390625,0.750335693359375
140081,0.1895294189453125,1.269989013671875,0.8823699951171875
140082,0.4581451416015625,1.275527954101562,0.89801025390625
140083,0.65887451171875,1.201614379882812,0.821075439453125
140084,0.6663818359375,1.099472045898438,0.7295379638671875
140085,0.51019287109375,0.98193359375,0.6612396240234375
140086,0.3393707275390625,0.8367919921875,0.59716796875
140087,0.244659423828125,0.731292724609375,0.540191650390625
140088,0.226226806640625,0.688262939453125,0.5016937255859375
140089,0.2446441650390625,0.672698974609375,0.490386962890625
140090,0.2472381591796875,0.6431121826171875,0.522003173828125
140091,0.200714111328125,0.6156158447265625,0.5826873779296875
140092,0.1193084716796875,0.576446533203125,0.639984130859375
140093,0.0275421142578125,0.5703582763671875,0.6990509033203125
140094,-0.0700225830078125,0.6115875244140625,0.7373809814453125
140095,-0.149078369140625,0.5989227294921875,0.7630767822265625
140096,-0.1959228515625,0.54046630859375,0.7543487548828125
140097,-0.203826904296875,0.5110626220703125,0.7281646728515625
140098,-0.1640167236328125,0.50897216796875,0.7133026123046875
140099,-0.12908935546875,0.5142822265625,0.68017578125
140100,-0.1402740478515625,0.4969635009765625,0.6396331787109375
140101,-0.19561767578125,0.45721435546875,0.611419677734375
140102,-0.2675933837890625,0.4306488037109375,0.6206512451171875
140103,-0.3313751220703125,0.42962646484375,0.6550445556640625
140104,-0.3853302001953125,0.4376983642578125,0.6974945068359375
140105,-0.4409942626953125,0.446044921875,0.7602996826171875
140106,-0.5274505615234375,0.442718505859375,0.8525848388671875
140107,-0.634002685546875,0.4503326416015625,0.9529266357421876
140108,-0.7510223388671875,0.4577178955078125,1.048934936523438
140109,-0.8212738037109375,0.463897705078125,1.047683715820312
140110,-0.83319091796875,0.4320831298828125,1.005523681640625
140111,-0.773040771484375,0.3686676025390625,0.9461822509765624
140112,-0.710418701171875,0.3121490478515625,0.8723602294921875
140113,-0.67620849609375,0.3014984130859375,0.839385986328125
140114,-0.6435394287109375,0.3450469970703125,0.826141357421875
140115,-0.6016998291015625,0.424224853515625,0.8162078857421875
140116,-0.558380126953125,0.5308380126953125,0.808502197265625
140117,-0.512298583984375,0.6411285400390625,0.7959442138671875
140118,-0.47161865234375,0.695037841796875,0.7549285888671875
140119,-0.418548583984375,0.688873291015625,0.700042724609375
140120,-0.349609375,0.6608428955078125,0.6332550048828125
140121,-0.2895660400390625,0.6410980224609375,0.58563232421875
140122,-0.2568511962890625,0.642791748046875,0.592498779296875
140123,-0.258544921875,0.6634979248046875,0.6280517578125
140124,-0.2581024169921875,0.6837310791015625,0.6808624267578125
140125,-0.2253265380859375,0.69134521484375,0.728668212890625
140126,-0.1800079345703125,0.6943511962890625,0.7324676513671875
140127,-0.143035888671875,0.6922149658203125,0.7228851318359375
140128,-0.133392333984375,0.6808319091796875,0.7263031005859375
140129,-0.14312744140625,0.6817626953125,0.7656097412109375
140130,-0.128448486328125,0.70343017578125,0.8672332763671875
140131,-0.0436859130859375,0.7341461181640625,1.002822875976562
140132,0.104400634765625,0.7662811279296875,1.054916381835938
140133,0.2658538818359375,0.7736053466796875,0.9903564453125
140134,0.4023284912109375,0.7331695556640625,0.893585205078125
140135,0.4624786376953125,0.6958465576171875,0.868621826171875
140136,0.4820556640625,0.719390869140625,0.88165283203125
140137,0.554046630859375,0.7852020263671875,0.8708038330078125
140138,0.63873291015625,0.8290252685546875,0.853759765625
140139,0.6963653564453125,0.79803466796875,0.8240966796875
140140,0.6902008056640625,0.7473602294921875,0.8004150390625
140141,0.63262939453125,0.7241973876953125,0.7878875732421875
140142,0.53948974609375,0.6906280517578125,0.8032989501953125
140143,0.4581146240234375,0.6536102294921875,0.79180908203125
140144,0.40447998046875,0.603851318359375,0.75408935546875
140145,0.3560638427734375,0.538909912109375,0.720428466796875
140146,0.30511474609375,0.485198974609375,0.6794891357421875
140147,0.2469024658203125,0.45184326171875,0.6536865234375
140148,0.1675567626953125,0.427703857421875,0.6811676025390625
140149,0.065277099609375,0.4324798583984375,0.6919403076171875
140150,-0.0542755126953125,0.4500274658203125,0.693389892578125
140151,-0.177947998046875,0.4569244384765625,0.6834259033203125
140152,-0.2914581298828125,0.448974609375,0.650482177734375
140153,-0.38848876953125,0.41473388671875,0.630279541015625
140154,-0.4732818603515625,0.3785400390625,0.6214141845703125
140155,-0.524749755859375,0.3683929443359375,0.6158905029296875
140156,-0.549468994140625,0.3776702880859375,0.6146240234375
140157,-0.5435638427734375,0.384979248046875,0.642333984375
140158,-0.5093841552734375,0.37811279296875,0.673492431640625
140159,-0.4697265625,0.3748931884765625,0.7034149169921875
140160,-0.4356689453125,0.380126953125,0.7185821533203125
140161,-0.39739990234375,0.379058837890625,0.7205047607421875
140162,-0.351654052734375,0.3643951416015625,0.7266082763671875
140163,-0.3011627197265625,0.3536529541015625,0.725494384765625
140164,-0.28131103515625,0.36334228515625,0.7335357666015625
140165,-0.313720703125,0.4120941162109375,0.7578277587890625
140166,-0.357666015625,0.49029541015625,0.7830352783203125
140167,-0.4027862548828125,0.57147216796875,0.8242950439453125
140168,-0.4806976318359375,0.6628570556640625,0.9022216796875
140169,-0.5787200927734375,0.7612457275390625,0.973480224609375
140170,-0.6354522705078125,0.82403564453125,1.064315795898438
140171,-0.6212921142578125,0.87744140625,1.101654052734375
140172,-0.5487823486328125,0.86944580078125,1.074050903320312
140173,-0.42791748046875,0.8180999755859375,1.059555053710938
140174,-0.304656982421875,0.7781524658203125,1.044235229492188
140175,-0.220123291015625,0.7481689453125,1.011123657226562
140176,-0.16156005859375,0.71453857421875,0.95233154296875
140177,-0.100982666015625,0.68670654296875,0.8795318603515625
140178,-0.034149169921875,0.64422607421875,0.8130035400390625
140179,0.0088348388671875,0.592315673828125,0.7618408203125
140180,0.015167236328125,0.5518798828125,0.7311859130859375
140181,-0.0202789306640625,0.518463134765625,0.70538330078125
140182,-0.09197998046875,0.454376220703125,0.6772918701171875
140183,-0.18377685546875,0.3673858642578125,0.636627197265625
140184,-0.268798828125,0.28936767578125,0.629669189453125
140185,-0.31591796875,0.238525390625,0.646575927734375
140186,-0.309478759765625,0.2225189208984375,0.662811279296875
140187,-0.2157440185546875,0.291900634765625,0.68060302734375
140188,-0.0839691162109375,0.5001678466796875,0.6711883544921875
140189,0.024566650390625,0.678192138671875,0.617462158203125
140190,0.088104248046875,0.70404052734375,0.5521697998046875
140191,0.0892791748046875,0.714691162109375,0.578765869140625
140192,0.0794677734375,0.7964019775390625,0.676239013671875
140193,0.1456298828125,0.9718780517578124,0.7679901123046875
140194,0.3118438720703125,1.170501708984375,0.8441619873046875
140195,0.5217132568359375,1.274810791015625,0.8620452880859375
140196,0.670562744140625,1.231246948242188,0.7480316162109375
140197,0.6857147216796875,1.140121459960938,0.616851806640625
140198,0.5699920654296875,1.062973022460938,0.5861968994140625
140199,0.42431640625,1.022628784179688,0.614105224609375
140200,0.3314971923828125,1.047027587890625,0.6485595703125
140201,0.3423004150390625,1.07586669921875,0.687835693359375
140202,0.4410247802734375,1.048782348632812,0.7307891845703125
140203,0.5287017822265625,0.9834747314453124,0.747222900390625
140204,0.508209228515625,0.9063873291015624,0.7843170166015625
140205,0.3874969482421875,0.91741943359375,0.8437042236328125
140206,0.27691650390625,0.996185302734375,0.8371124267578125
140207,0.220184326171875,0.904510498046875,0.7963104248046875
140208,0.091156005859375,0.841033935546875,0.8301849365234375
140209,-0.100921630859375,0.8487091064453125,0.938201904296875
140210,-0.1620025634765625,0.78192138671875,0.954315185546875
140211,-0.1457977294921875,0.7020263671875,0.8396148681640625
140212,-0.1843109130859375,0.63702392578125,0.712921142578125
140213,-0.296966552734375,0.5875244140625,0.6078948974609375
140214,-0.4202880859375,0.55755615234375,0.58135986328125
140215,-0.49725341796875,0.5320587158203125,0.605987548828125
140216,-0.519378662109375,0.5059356689453125,0.619720458984375
140217,-0.5123138427734375,0.4694061279296875,0.5739288330078125
140218,-0.5185394287109375,0.4226837158203125,0.49176025390625
140219,-0.570068359375,0.3704833984375,0.43878173828125
140220,-0.678558349609375,0.34527587890625,0.4632568359375
140221,-0.8250274658203125,0.3644561767578125,0.5782928466796875
140222,-0.9525299072265624,0.4114837646484375,0.730010986328125
140223,-0.9744415283203124,0.4547119140625,0.876220703125
140224,-0.873046875,0.4869232177734375,0.9521942138671876
140225,-0.7412872314453125,0.502960205078125,0.933837890625
140226,-0.6998291015625,0.50872802734375,0.8759002685546875
140227,-0.673797607421875,0.504302978515625,0.91357421875
140228,-0.56463623046875,0.5455322265625,0.925689697265625
140229,-0.440673828125,0.53448486328125,0.840057373046875
140230,-0.31585693359375,0.4545135498046875,0.731903076171875
140231,-0.1588897705078125,0.380615234375,0.6211700439453125
140232,-0.0025787353515625,0.3363189697265625,0.526153564453125
140233,0.150421142578125,0.3611602783203125,0.4707794189453125
140234,0.2799224853515625,0.4281158447265625,0.4389495849609375
140235,0.334930419921875,0.541412353515625,0.4499053955078125
140236,0.2766265869140625,0.653045654296875,0.574493408203125
140237,0.16607666015625,0.66961669921875,0.7245941162109375
140238,0.0662384033203125,0.651336669921875,0.7198028564453125
140239,-0.052764892578125,0.6358642578125,0.6477813720703125
140240,-0.15423583984375,0.59173583984375,0.6610565185546875
140241,-0.21710205078125,0.564910888671875,0.69427490234375
140242,-0.2466888427734375,0.5836334228515625,0.680877685546875
140243,-0.228546142578125,0.6187286376953125,0.670257568359375
140244,-0.1911163330078125,0.6456146240234375,0.711517333984375
140245,-0.149749755859375,0.66436767578125,0.7970123291015625
140246,-0.09478759765625,0.684661865234375,0.910247802734375
140247,0.00115966796875,0.7555084228515625,1.002883911132812
140248,0.03857421875,0.8587493896484375,1.027328491210938
140249,-0.066619873046875,0.8939666748046875,1.028564453125
140250,-0.240447998046875,0.8094024658203125,0.9731903076171876
140251,-0.4383544921875,0.6962127685546875,0.8873138427734375
140252,-0.537750244140625,0.6576385498046875,0.9447784423828124
140253,-0.590362548828125,0.629180908203125,1.018081665039062
140254,-0.623687744140625,0.5511627197265625,0.9950103759765624
140255,-0.64508056640625,0.5040283203125,0.91461181640625
140256,-0.65045166015625,0.4348602294921875,0.8575592041015625
140257,-0.650146484375,0.37994384765625,0.8502655029296875
140258,-0.6539306640625,0.485565185546875,0.8845367431640625
140259,-0.572021484375,0.6029815673828125,0.9549560546875
140260,-0.43170166015625,0.667755126953125,0.994873046875
140261,-0.3148956298828125,0.710357666015625,0.94537353515625
140262,-0.205413818359375,0.6893310546875,0.8336334228515625
140263,-0.137603759765625,0.5838623046875,0.6845703125
140264,-0.1817779541015625,0.4549713134765625,0.571197509765625
140265,-0.291717529296875,0.349700927734375,0.538604736328125
140266,-0.3681488037109375,0.2696685791015625,0.5493011474609375
140267,-0.3949432373046875,0.2097320556640625,0.5291290283203125
140268,-0.360931396484375,0.1771392822265625,0.4809722900390625
140269,-0.258697509765625,0.168609619140625,0.46405029296875
140270,-0.1380615234375,0.15606689453125,0.508514404296875
140271,-0.02337646484375,0.14544677734375,0.5673675537109375
140272,0.0959625244140625,0.13116455078125,0.6319732666015625
140273,0.2192230224609375,0.145294189453125,0.6684112548828125
140274,0.3014678955078125,0.2119140625,0.6688232421875
140275,0.269439697265625,0.3138885498046875,0.6951751708984375
140276,0.1149749755859375,0.4412689208984375,0.7311859130859375
140277,-0.110443115234375,0.5351715087890625,0.7519378662109375
140278,-0.3368377685546875,0.54376220703125,0.8050384521484375
140279,-0.55316162109375,0.4677886962890625,0.88226318359375
140280,-0.7593536376953125,0.385345458984375,0.952117919921875
140281,-0.9147491455078124,0.332855224609375,0.99310302734375
140282,-1.01568603515625,0.31329345703125,0.9365997314453124
140283,-1.017898559570312,0.2045440673828125,0.838775634765625
140284,-0.99261474609375,0.1067352294921875,0.7239532470703125
140285,-1.035003662109375,0.0918121337890625,0.675872802734375
140286,-1.087371826171875,0.145538330078125,0.7566070556640625
140287,-1.04095458984375,0.2577972412109375,0.8799896240234375
140288,-0.86444091796875,0.4240570068359375,0.9487152099609376
140289,-0.60943603515625,0.573944091796875,1.007888793945312
140290,-0.3950653076171875,0.6723175048828125,1.092086791992188
140291,-0.268768310546875,0.7183990478515625,1.151641845703125
140292,-0.1969146728515625,0.695098876953125,1.176132202148438
140293,-0.11309814453125,0.590423583984375,1.176284790039062
140294,0.0600738525390625,0.4799346923828125,1.060791015625
140295,0.255523681640625,0.450653076171875,0.907806396484375
140296,0.25201416015625,0.49102783203125,0.8484039306640625
140297,0.06744384765625,0.5569610595703125,0.91168212890625
140298,-0.099884033203125,0.63751220703125,0.96240234375
140299,-0.1229248046875,0.665802001953125,0.9368133544921876
140300,-0.0410003662109375,0.6757965087890625,0.8813934326171875
140301,0.04608154296875,0.739166259765625,0.820281982421875
140302,0.06475830078125,0.832855224609375,0.7764129638671875
140303,-0.0086822509765625,0.8619537353515625,0.7246551513671875
140304,-0.077972412109375,0.8454132080078125,0.632904052734375
140305,-0.1187896728515625,0.822967529296875,0.5703277587890625
140306,-0.14453125,0.823272705078125,0.6105499267578125
140307,-0.1268768310546875,0.88079833984375,0.6841278076171875
140308,-0.041290283203125,0.9785308837890624,0.7717437744140625
140309,0.1294403076171875,1.080413818359375,0.805511474609375
140310,0.3244171142578125,1.177001953125,0.780670166015625
140311,0.4838714599609375,1.228958129882812,0.744537353515625
140312,0.560211181640625,1.212875366210938,0.7021636962890625
140313,0.5331268310546875,1.19415283203125,0.673736572265625
140314,0.4408416748046875,1.186660766601562,0.6667022705078125
140315,0.3797760009765625,1.165298461914062,0.634796142578125
140316,0.371124267578125,1.116317749023438,0.5970306396484375
140317,0.3915557861328125,1.009979248046875,0.5883636474609375
140318,0.3961334228515625,0.8701171875,0.5906982421875
140319,0.375579833984375,0.7462921142578125,0.6008453369140625
140320,0.3078460693359375,0.6785125732421875,0.5959320068359375
140321,0.2074737548828125,0.6045684814453125,0.618560791015625
140322,0.05816650390625,0.4937744140625,0.6286468505859375
140323,-0.1090545654296875,0.3719940185546875,0.600830078125
140324,-0.249114990234375,0.274200439453125,0.56646728515625
140325,-0.35614013671875,0.2520751953125,0.567535400390625
140326,-0.4096832275390625,0.23980712890625,0.554443359375
140327,-0.42694091796875,0.218414306640625,0.521697998046875
140328,-0.42193603515625,0.21820068359375,0.49951171875
140329,-0.4176483154296875,0.2254180908203125,0.5108642578125
140330,-0.4125518798828125,0.21380615234375,0.55316162109375
140331,-0.413818359375,0.1915435791015625,0.5890350341796875
140332,-0.418792724609375,0.1844329833984375,0.6454620361328125
140333,-0.4422149658203125,0.200714111328125,0.7031097412109375
140334,-0.4995574951171875,0.2183074951171875,0.767974853515625
140335,-0.574737548828125,0.2256317138671875,0.8287811279296875
140336,-0.64569091796875,0.226318359375,0.901031494140625
140337,-0.6764984130859375,0.23651123046875,0.9671173095703124
140338,-0.673309326171875,0.261260986328125,0.997222900390625
140339,-0.6454010009765625,0.3339385986328125,0.9946136474609376
140340,-0.601470947265625,0.4278717041015625,0.939605712890625
140341,-0.5755615234375,0.5518646240234375,0.900634765625
140342,-0.5444793701171875,0.6623077392578125,0.8839111328125
140343,-0.487579345703125,0.7337646484375,0.8769989013671875
140344,-0.4313812255859375,0.7661285400390625,0.8797149658203125
140345,-0.3806304931640625,0.7800750732421875,0.8898162841796875
140346,-0.334564208984375,0.7924652099609375,0.8635101318359375
140347,-0.31109619140625,0.770599365234375,0.7958221435546875
140348,-0.2977447509765625,0.6991424560546875,0.7094879150390625
140349,-0.2881011962890625,0.625213623046875,0.658233642578125
140350,-0.312713623046875,0.58209228515625,0.6629638671875
140351,-0.3703155517578125,0.5934906005859375,0.70648193359375
140352,-0.40692138671875,0.622589111328125,0.77117919921875
140353,-0.4004058837890625,0.6439666748046875,0.8179168701171875
140354,-0.358306884765625,0.6434173583984375,0.8183441162109375
140355,-0.2971954345703125,0.62225341796875,0.7630462646484375
140356,-0.2593841552734375,0.5845947265625,0.6745452880859375
140357,-0.264495849609375,0.5516357421875,0.6291961669921875
140358,-0.289703369140625,0.5514678955078125,0.66876220703125
140359,-0.2890167236328125,0.60357666015625,0.79595947265625
140360,-0.2115325927734375,0.69775390625,0.96563720703125
140361,-0.0367584228515625,0.8063507080078125,1.068038940429688
140362,0.2093658447265625,0.85638427734375,1.056716918945312
140363,0.44287109375,0.8355712890625,0.935638427734375
140364,0.5543365478515625,0.8176116943359375,0.8411407470703125
140365,0.52142333984375,0.8401947021484375,0.889892578125
140366,0.458221435546875,0.893218994140625,1.025054931640625
140367,0.481414794921875,0.9272613525390624,1.064559936523438
140368,0.60504150390625,0.885406494140625,0.9160003662109376
140369,0.6763458251953125,0.7921295166015625,0.8163909912109375
140370,0.6255645751953125,0.71246337890625,0.8720855712890625
140371,0.5254058837890625,0.6867523193359375,0.911590576171875
140372,0.448272705078125,0.69793701171875,0.9176025390625
140373,0.4108123779296875,0.693145751953125,0.8750457763671875
140374,0.3634033203125,0.6474609375,0.738067626953125
140375,0.2688446044921875,0.5612640380859375,0.652130126953125
140376,0.1224822998046875,0.5021820068359375,0.6279144287109375
140377,-0.048004150390625,0.4733734130859375,0.5868377685546875
140378,-0.2050323486328125,0.4179534912109375,0.59002685546875
140379,-0.329681396484375,0.3916015625,0.6261749267578125
140380,-0.451751708984375,0.3809661865234375,0.638031005859375
140381,-0.56475830078125,0.3646240234375,0.616790771484375
140382,-0.6604461669921875,0.326263427734375,0.594635009765625
140383,-0.733428955078125,0.266632080078125,0.5944061279296875
140384,-0.76739501953125,0.1736907958984375,0.6164398193359375
140385,-0.7598876953125,0.0687408447265625,0.6491851806640625
140386,-0.727386474609375,-0.0072784423828125,0.6673431396484375
140387,-0.705963134765625,-0.0435791015625,0.6690673828125
140388,-0.723968505859375,-0.0412445068359375,0.67413330078125
140389,-0.7775726318359375,0.0005645751953125,0.6746978759765625
140390,-0.827362060546875,0.0613861083984375,0.6735076904296875
140391,-0.833648681640625,0.13604736328125,0.7013397216796875
140392,-0.79705810546875,0.2317962646484375,0.76385498046875
140393,-0.7489013671875,0.3377685546875,0.8814239501953125
140394,-0.67071533203125,0.4649810791015625,0.92120361328125
140395,-0.5563507080078125,0.573211669921875,0.949310302734375
140396,-0.4578094482421875,0.685821533203125,1.047348022460938
140397,-0.4200897216796875,0.829345703125,1.055831909179688
140398,-0.4107208251953125,0.91485595703125,0.9913177490234376
140399,-0.355133056640625,0.9264984130859376,0.9925537109375
140400,-0.2735443115234375,0.9189453125,0.9970855712890624
140401,-0.1891632080078125,0.905487060546875,0.95599365234375
140402,-0.072906494140625,0.8733062744140625,0.8901824951171875
140403,0.059417724609375,0.82354736328125,0.8022003173828125
140404,0.142303466796875,0.7519989013671875,0.730560302734375
140405,0.15277099609375,0.668670654296875,0.717926025390625
140406,0.1137542724609375,0.607879638671875,0.7493133544921875
140407,0.0324859619140625,0.596527099609375,0.766448974609375
140408,-0.0654754638671875,0.61761474609375,0.7666473388671875
140409,-0.1597900390625,0.6374664306640625,0.7635345458984375
140410,-0.209930419921875,0.6341552734375,0.74993896484375
140411,-0.2286834716796875,0.638580322265625,0.7617034912109375
140412,-0.23516845703125,0.68280029296875,0.778076171875
140413,-0.2150421142578125,0.7794647216796875,0.73089599609375
140414,-0.173858642578125,0.8597869873046875,0.6253814697265625
140415,-0.1179351806640625,0.8714599609375,0.5394439697265625
140416,-0.063446044921875,0.88421630859375,0.5207061767578125
140417,-0.000732421875,0.9433746337890624,0.62872314453125
140418,0.089508056640625,1.044509887695312,0.8003387451171875
140419,0.24688720703125,1.141616821289062,0.929351806640625
140420,0.4804840087890625,1.177734375,0.915496826171875
140421,0.68988037109375,1.140960693359375,0.7842254638671875
140422,0.7679290771484375,1.047454833984375,0.6767578125
140423,0.7031097412109375,0.957366943359375,0.652191162109375
140424,0.56976318359375,0.90948486328125,0.6447296142578125
140425,0.4566192626953125,0.8671875,0.6127777099609375
140426,0.3832550048828125,0.8097076416015625,0.5833282470703125
140427,0.326751708984375,0.7878265380859375,0.59332275390625
140428,0.2659759521484375,0.762237548828125,0.6586151123046875
140429,0.1771697998046875,0.6887359619140625,0.694854736328125
140430,0.0565338134765625,0.6127166748046875,0.6831512451171875
140431,-0.086822509765625,0.5360107421875,0.6514892578125
140432,-0.230072021484375,0.473236083984375,0.622283935546875
140433,-0.3638153076171875,0.4195098876953125,0.6292266845703125
140434,-0.451751708984375,0.4056854248046875,0.63922119140625
140435,-0.4765777587890625,0.3990631103515625,0.634429931640625
140436,-0.4582366943359375,0.3708343505859375,0.6248321533203125
140437,-0.441986083984375,0.323333740234375,0.6251678466796875
140438,-0.453582763671875,0.27349853515625,0.632354736328125
140439,-0.492767333984375,0.2360382080078125,0.6575775146484375
140440,-0.57330322265625,0.217315673828125,0.67742919921875
140441,-0.6763916015625,0.20880126953125,0.6689910888671875
140442,-0.7824249267578125,0.207305908203125,0.68157958984375
140443,-0.888031005859375,0.221221923828125,0.73046875
140444,-0.98876953125,0.2521820068359375,0.82281494140625
140445,-1.044601440429688,0.2959442138671875,0.9369354248046876
140446,-1.01226806640625,0.333709716796875,1.011184692382812
140447,-0.90704345703125,0.3513946533203125,1.019668579101562
140448,-0.7584991455078125,0.360748291015625,1.006423950195312
140449,-0.60302734375,0.3578338623046875,0.96612548828125
140450,-0.4709930419921875,0.35723876953125,0.9246978759765624
140451,-0.3636932373046875,0.4033355712890625,0.9121551513671876
140452,-0.2868194580078125,0.460723876953125,0.9265899658203124
140453,-0.231658935546875,0.5016937255859375,0.94720458984375
140454,-0.1804046630859375,0.5485687255859375,0.919097900390625
140455,-0.131256103515625,0.5952911376953125,0.8309173583984375
140456,-0.1079254150390625,0.6116485595703125,0.769989013671875
140457,-0.12420654296875,0.6201324462890625,0.7420196533203125
140458,-0.149932861328125,0.6212615966796875,0.720458984375
140459,-0.1619720458984375,0.6217803955078125,0.6979522705078125
140460,-0.166900634765625,0.6198272705078125,0.683074951171875
140461,-0.1695098876953125,0.6088714599609375,0.6629486083984375
140462,-0.158935546875,0.5988616943359375,0.6356658935546875
140463,-0.1226043701171875,0.589752197265625,0.6309051513671875
140464,-0.0783233642578125,0.577789306640625,0.6495513916015625
140465,-0.0510406494140625,0.58953857421875,0.6757659912109375
140466,-0.0462646484375,0.6082611083984375,0.6994476318359375
140467,-0.0562286376953125,0.6125946044921875,0.710845947265625
140468,-0.0638275146484375,0.5868072509765625,0.715972900390625
140469,-0.0866851806640625,0.5563812255859375,0.7287750244140625
140470,-0.125823974609375,0.553680419921875,0.786407470703125
140471,-0.1515045166015625,0.58648681640625,0.898529052734375
140472,-0.12615966796875,0.623016357421875,1.045364379882812
140473,-0.0324554443359375,0.662139892578125,1.127487182617188
140474,0.113067626953125,0.6932373046875,1.085739135742188
140475,0.2465667724609375,0.6939697265625,0.9752197265625
140476,0.310699462890625,0.6830902099609375,0.887054443359375
140477,0.3155670166015625,0.7263336181640625,0.8684844970703125
140478,0.3264007568359375,0.7817230224609375,0.8942413330078125
140479,0.3807373046875,0.80621337890625,0.88427734375
140480,0.452056884765625,0.787200927734375,0.8267059326171875
140481,0.4644927978515625,0.7114715576171875,0.77740478515625
140482,0.4332122802734375,0.6685333251953125,0.745819091796875
140483,0.401031494140625,0.65960693359375,0.734375
140484,0.398345947265625,0.6517333984375,0.730621337890625
140485,0.4155731201171875,0.632049560546875,0.7086029052734375
140486,0.391876220703125,0.597625732421875,0.6721954345703125
140487,0.3139495849609375,0.5717315673828125,0.630767822265625
140488,0.1827850341796875,0.5612945556640625,0.6423187255859375
140489,-0.006439208984375,0.5656585693359375,0.6672821044921875
140490,-0.193359375,0.56964111328125,0.6693267822265625
140491,-0.34063720703125,0.54461669921875,0.6521759033203125
140492,-0.468353271484375,0.4895782470703125,0.6309661865234375
140493,-0.5811920166015625,0.439697265625,0.6028900146484375
140494,-0.6807861328125,0.4065399169921875,0.6018218994140625
140495,-0.74871826171875,0.3983306884765625,0.623870849609375
140496,-0.775970458984375,0.3887786865234375,0.6500396728515625
140497,-0.766448974609375,0.372467041015625,0.663330078125
140498,-0.72674560546875,0.3442840576171875,0.6775665283203125
140499,-0.6945037841796875,0.3144073486328125,0.70245361328125
140500,-0.67315673828125,0.3038787841796875,0.7447052001953125
140501,-0.6573028564453125,0.305450439453125,0.8039398193359375
140502,-0.6891937255859375,0.321380615234375,0.874359130859375
140503,-0.7253265380859375,0.343475341796875,0.933624267578125
140504,-0.7259521484375,0.396881103515625,0.9619598388671876
140505,-0.688720703125,0.47265625,0.97052001953125
140506,-0.6429290771484375,0.5589752197265625,0.972930908203125
140507,-0.5927886962890625,0.6221771240234375,0.987518310546875
140508,-0.5276031494140625,0.64996337890625,1.006484985351562
140509,-0.461151123046875,0.65289306640625,1.0360107421875
140510,-0.413848876953125,0.6272125244140625,1.039077758789062
140511,-0.3791961669921875,0.6106109619140625,1.017242431640625
140512,-0.3533172607421875,0.6205902099609375,0.998321533203125
140513,-0.3247528076171875,0.6423492431640625,0.975433349609375
140514,-0.2683563232421875,0.6528778076171875,0.949188232421875
140515,-0.1834564208984375,0.6356201171875,0.9130706787109376
140516,-0.0936431884765625,0.58624267578125,0.856903076171875
140517,-0.0353851318359375,0.53118896484375,0.806396484375
140518,-0.0264739990234375,0.4894866943359375,0.7812347412109375
140519,-0.05316162109375,0.484771728515625,0.76641845703125
140520,-0.0886383056640625,0.51055908203125,0.7541046142578125
140521,-0.1153717041015625,0.53045654296875,0.7239532470703125
140522,-0.1338653564453125,0.5273590087890625,0.6796417236328125
140523,-0.1348724365234375,0.51361083984375,0.636474609375
140524,-0.131439208984375,0.498199462890625,0.5982513427734375
140525,-0.1282806396484375,0.483428955078125,0.580322265625
140526,-0.1175689697265625,0.5074310302734375,0.585968017578125
140527,-0.1032257080078125,0.6374969482421875,0.602813720703125
140528,-0.0743408203125,0.7833709716796875,0.6315765380859375
140529,-0.0327301025390625,0.8049163818359375,0.6237640380859375
140530,0.0085906982421875,0.799896240234375,0.598541259765625
140531,0.0528717041015625,0.856536865234375,0.6418304443359375
140532,0.092681884765625,0.995941162109375,0.777008056640625
140533,0.174957275390625,1.148040771484375,0.917022705078125
140534,0.331878662109375,1.219924926757812,0.947601318359375
140535,0.520263671875,1.169891357421875,0.8277740478515625
140536,0.6414794921875,1.040176391601562,0.6932525634765625
140537,0.6300048828125,0.9230499267578124,0.65887451171875
140538,0.539276123046875,0.86981201171875,0.677093505859375
140539,0.4497222900390625,0.8579254150390625,0.6504974365234375
140540,0.4245452880859375,0.823516845703125,0.58148193359375
140541,0.4202728271484375,0.75933837890625,0.5199432373046875
140542,0.3739471435546875,0.6960296630859375,0.52728271484375
140543,0.2818145751953125,0.66259765625,0.5893402099609375
140544,0.1700897216796875,0.6324920654296875,0.660919189453125
140545,0.0482025146484375,0.5797576904296875,0.703643798828125
140546,-0.0850830078125,0.542236328125,0.6906890869140625
140547,-0.212799072265625,0.50628662109375,0.6722564697265625
140548,-0.336517333984375,0.461181640625,0.6494140625
140549,-0.4481353759765625,0.412384033203125,0.6576690673828125
140550,-0.52191162109375,0.405517578125,0.680267333984375
140551,-0.5461883544921875,0.417938232421875,0.6844482421875
140552,-0.5432586669921875,0.3947906494140625,0.6717071533203125
140553,-0.5382232666015625,0.36175537109375,0.656768798828125
140554,-0.5373077392578125,0.3385772705078125,0.65771484375
140555,-0.5785675048828125,0.33551025390625,0.6683807373046875
140556,-0.6830291748046875,0.3438262939453125,0.7154388427734375
140557,-0.81640625,0.3748016357421875,0.78582763671875
140558,-0.9205169677734376,0.4216766357421875,0.874908447265625
140559,-0.962127685546875,0.4602508544921875,0.96197509765625
140560,-0.92559814453125,0.4640655517578125,1.012420654296875
140561,-0.844940185546875,0.428497314453125,1.016677856445312
140562,-0.7473602294921875,0.4013214111328125,0.992095947265625
140563,-0.635711669921875,0.3950347900390625,0.970733642578125
140564,-0.5216522216796875,0.4162445068359375,0.9529266357421876
140565,-0.4182891845703125,0.45123291015625,0.9429473876953124
140566,-0.3350982666015625,0.491851806640625,0.940399169921875
140567,-0.3028411865234375,0.5513916015625,0.917572021484375
140568,-0.29107666015625,0.613983154296875,0.89813232421875
140569,-0.26800537109375,0.665771484375,0.8748016357421875
140570,-0.2204742431640625,0.685028076171875,0.8113555908203125
140571,-0.1586151123046875,0.6804656982421875,0.7432708740234375
140572,-0.0864715576171875,0.6692657470703125,0.674163818359375
140573,-0.016937255859375,0.664031982421875,0.5999298095703125
140574,0.00164794921875,0.6363525390625,0.5360870361328125
140575,-0.0353851318359375,0.5957489013671875,0.51605224609375
140576,-0.077301025390625,0.574615478515625,0.549957275390625
140577,-0.0920867919921875,0.555755615234375,0.603179931640625
140578,-0.0995635986328125,0.5454559326171875,0.622802734375
140579,-0.111358642578125,0.53289794921875,0.615570068359375
140580,-0.1482696533203125,0.5210723876953125,0.5858306884765625
140581,-0.222869873046875,0.513916015625,0.576263427734375
140582,-0.32757568359375,0.490966796875,0.596832275390625
140583,-0.417388916015625,0.495086669921875,0.6486053466796875
140584,-0.4613800048828125,0.525146484375,0.7553558349609375
140585,-0.43524169921875,0.5598602294921875,0.9115142822265624
140586,-0.32244873046875,0.6157989501953125,1.046127319335938
140587,-0.157379150390625,0.6945648193359375,1.083724975585938
140588,0.038482666015625,0.7255096435546875,1.034332275390625
140589,0.197021484375,0.7221221923828125,0.93475341796875
140590,0.2718658447265625,0.7393341064453125,0.8807220458984375
140591,0.3137359619140625,0.8273162841796875,0.921478271484375
140592,0.360321044921875,0.94952392578125,0.9745941162109376
140593,0.4355316162109375,1.021804809570312,0.9804534912109376
140594,0.5192413330078125,1.02081298828125,0.91021728515625
140595,0.5498046875,0.9682769775390624,0.8346710205078125
140596,0.5100250244140625,0.85467529296875,0.80926513671875
140597,0.4646453857421875,0.7753448486328125,0.7995147705078125
140598,0.4111480712890625,0.7386474609375,0.7913665771484375
140599,0.3796844482421875,0.7004241943359375,0.7517242431640625
140600,0.357177734375,0.6534271240234375,0.7144012451171875
140601,0.3007965087890625,0.5998992919921875,0.6904296875
140602,0.2010498046875,0.5649261474609375,0.675811767578125
140603,0.055755615234375,0.5441131591796875,0.6630096435546875
140604,-0.1012115478515625,0.523406982421875,0.6514129638671875
140605,-0.2432861328125,0.4810638427734375,0.6399993896484375
140606,-0.3731231689453125,0.4451751708984375,0.6195526123046875
140607,-0.4842071533203125,0.419921875,0.581817626953125
140608,-0.56951904296875,0.396270751953125,0.5445098876953125
140609,-0.61590576171875,0.390380859375,0.530731201171875
140610,-0.6198577880859375,0.391357421875,0.5430908203125
140611,-0.625,0.3899383544921875,0.5786285400390625
140612,-0.6403045654296875,0.3661651611328125,0.6288299560546875
140613,-0.68536376953125,0.345062255859375,0.6745147705078125
140614,-0.745758056640625,0.3206787109375,0.7186431884765625
140615,-0.82830810546875,0.29534912109375,0.764068603515625
140616,-0.9130706787109376,0.2745819091796875,0.7782135009765625
140617,-0.998504638671875,0.292724609375,0.79559326171875
140618,-1.03631591796875,0.3456573486328125,0.8404388427734375
140619,-1.003494262695312,0.431884765625,0.88543701171875
140620,-0.9087677001953124,0.5033416748046875,0.91595458984375
140621,-0.764312744140625,0.5627593994140625,0.929443359375
140622,-0.6005859375,0.619873046875,0.95452880859375
140623,-0.460235595703125,0.6694183349609375,0.9998321533203124
140624,-0.3570098876953125,0.714752197265625,1.042633056640625
140625,-0.286346435546875,0.7347869873046875,1.056427001953125
140626,-0.227020263671875,0.72418212890625,1.031723022460938
140627,-0.1605072021484375,0.70916748046875,0.9732208251953124
140628,-0.07745361328125,0.7133941650390625,0.902862548828125
140629,0.033905029296875,0.7098541259765625,0.8560791015625
140630,0.14044189453125,0.6981964111328125,0.8244781494140625
140631,0.2098236083984375,0.6822967529296875,0.7851715087890625
140632,0.2007598876953125,0.660919189453125,0.7444915771484375
140633,0.113525390625,0.6329193115234375,0.73785400390625
140634,0.0004425048828125,0.601348876953125,0.749481201171875
140635,-0.0964508056640625,0.5831756591796875,0.7446746826171875
140636,-0.18035888671875,0.5814971923828125,0.7133026123046875
140637,-0.2223663330078125,0.60247802734375,0.68060302734375
140638,-0.2276763916015625,0.6137847900390625,0.6502532958984375
140639,-0.210784912109375,0.5871124267578125,0.6374053955078125
140640,-0.1867828369140625,0.5454559326171875,0.62530517578125
140641,-0.1706390380859375,0.52496337890625,0.631988525390625
140642,-0.1784210205078125,0.5858917236328125,0.630615234375
140643,-0.1891937255859375,0.715301513671875,0.6276702880859375
140644,-0.1795806884765625,0.764923095703125,0.6235198974609375
140645,-0.1864166259765625,0.77459716796875,0.6512603759765625
140646,-0.1785430908203125,0.8210601806640625,0.7242279052734375
140647,-0.1292877197265625,0.91424560546875,0.818450927734375
140648,-0.04779052734375,1.023239135742188,0.8898773193359375
140649,0.06463623046875,1.08233642578125,0.8914794921875
140650,0.18218994140625,1.04052734375,0.8207244873046875
140651,0.2953338623046875,0.929840087890625,0.7361297607421875
140652,0.3609771728515625,0.8362884521484375,0.6862945556640625
140653,0.37091064453125,0.801483154296875,0.6527557373046875
140654,0.360992431640625,0.8157958984375,0.6105804443359375
140655,0.3571624755859375,0.813568115234375,0.555206298828125
140656,0.361541748046875,0.7760162353515625,0.535980224609375
140657,0.33709716796875,0.7265777587890625,0.5725860595703125
140658,0.2747650146484375,0.6845550537109375,0.6365966796875
140659,0.1978302001953125,0.6551361083984375,0.67340087890625
140660,0.1019287109375,0.6116180419921875,0.6752471923828125
140661,-0.0290069580078125,0.569000244140625,0.6793212890625
140662,-0.1722412109375,0.5328826904296875,0.6771697998046875
140663,-0.2855224609375,0.4931793212890625,0.666473388671875
140664,-0.3575592041015625,0.450897216796875,0.6559295654296875
140665,-0.4210205078125,0.4356842041015625,0.659759521484375
140666,-0.4780731201171875,0.4397125244140625,0.6603240966796875
140667,-0.50274658203125,0.432464599609375,0.660308837890625
140668,-0.511749267578125,0.438262939453125,0.6539154052734375
140669,-0.5318603515625,0.454376220703125,0.652557373046875
140670,-0.562469482421875,0.4716796875,0.669952392578125
140671,-0.606170654296875,0.463653564453125,0.6947784423828125
140672,-0.6595611572265625,0.4298095703125,0.7301483154296875
140673,-0.7191162109375,0.38812255859375,0.769317626953125
140674,-0.7912750244140625,0.3670501708984375,0.7978515625
140675,-0.86407470703125,0.3643341064453125,0.830596923828125
140676,-0.917022705078125,0.3688201904296875,0.8744354248046875
140677,-0.906707763671875,0.3582000732421875,0.9227294921875
140678,-0.8348541259765625,0.343597412109375,0.945281982421875
140679,-0.7132720947265625,0.3296966552734375,0.954742431640625
140680,-0.5622406005859375,0.3284912109375,0.9494171142578124
140681,-0.40802001953125,0.3651885986328125,0.9408721923828124
140682,-0.28497314453125,0.437042236328125,0.9391632080078124
140683,-0.2013397216796875,0.510894775390625,0.936065673828125
140684,-0.1457061767578125,0.5791473388671875,0.8867340087890625
140685,-0.105072021484375,0.6308135986328125,0.785247802734375
140686,-0.0810394287109375,0.6530914306640625,0.68743896484375
140687,-0.09002685546875,0.65814208984375,0.6233367919921875
140688,-0.123016357421875,0.6567230224609375,0.599456787109375
140689,-0.1519927978515625,0.6494140625,0.59466552734375
140690,-0.1643218994140625,0.658050537109375,0.5982208251953125
140691,-0.169097900390625,0.685028076171875,0.62255859375
140692,-0.173614501953125,0.7024078369140625,0.65673828125
140693,-0.1746978759765625,0.7013702392578125,0.6750946044921875
140694,-0.1750640869140625,0.6976776123046875,0.6806640625
140695,-0.169830322265625,0.6778411865234375,0.68511962890625
140696,-0.17340087890625,0.65093994140625,0.6724090576171875
140697,-0.20648193359375,0.62353515625,0.6751861572265625
140698,-0.2690887451171875,0.61376953125,0.6914520263671875
140699,-0.340667724609375,0.638275146484375,0.744598388671875
140700,-0.3599090576171875,0.6771697998046875,0.8517608642578125
140701,-0.2938232421875,0.7109222412109375,0.9804840087890624
140702,-0.14813232421875,0.735626220703125,1.031723022460938
140703,0.01947021484375,0.7628326416015625,0.9864044189453124
140704,0.134429931640625,0.783203125,0.9022674560546876
140705,0.17431640625,0.7905426025390625,0.8507537841796875
140706,0.189666748046875,0.8164520263671875,0.8489532470703125
140707,0.22894287109375,0.861114501953125,0.852447509765625
140708,0.2951202392578125,0.86212158203125,0.8321075439453125
140709,0.3496246337890625,0.801971435546875,0.773681640625
140710,0.3730316162109375,0.7130584716796875,0.753204345703125
140711,0.3437347412109375,0.6969146728515625,0.79840087890625
140712,0.298583984375,0.7174224853515625,0.830291748046875
140713,0.2659912109375,0.72552490234375,0.820892333984375
140714,0.24493408203125,0.7218780517578125,0.8024444580078125
140715,0.2177886962890625,0.7018280029296875,0.7852630615234375
140716,0.1780853271484375,0.6989898681640625,0.7722015380859375
140717,0.096710205078125,0.705780029296875,0.7592926025390625
140718,-0.0108489990234375,0.6878662109375,0.72698974609375
140719,-0.11639404296875,0.6336212158203125,0.67559814453125
140720,-0.2223663330078125,0.5790863037109375,0.61492919921875
140721,-0.3375091552734375,0.5397796630859375,0.552032470703125
140722,-0.4377899169921875,0.5038299560546875,0.53094482421875
140723,-0.513092041015625,0.4719085693359375,0.531402587890625
140724,-0.55059814453125,0.460601806640625,0.5677947998046875
140725,-0.540496826171875,0.462310791015625,0.60791015625
140726,-0.5027923583984375,0.4783477783203125,0.6442718505859375
140727,-0.4718017578125,0.4954376220703125,0.68359375
140728,-0.47955322265625,0.4765625,0.7500152587890625
140729,-0.5214080810546875,0.4221343994140625,0.8001251220703125
140730,-0.5571441650390625,0.3729248046875,0.792633056640625
140731,-0.5692138671875,0.36492919921875,0.7450408935546875
140732,-0.5723419189453125,0.3847198486328125,0.7042694091796875
140733,-0.57354736328125,0.410491943359375,0.694671630859375
140734,-0.5660400390625,0.4385833740234375,0.7033233642578125
140735,-0.5492706298828125,0.476165771484375,0.7191162109375
140736,-0.5158843994140625,0.516510009765625,0.7557220458984375
140737,-0.4647064208984375,0.5545806884765625,0.79541015625
140738,-0.405731201171875,0.5898590087890625,0.8246612548828125
140739,-0.350189208984375,0.62261962890625,0.8577117919921875
140740,-0.308807373046875,0.660858154296875,0.8839111328125
140741,-0.2799835205078125,0.6987762451171875,0.9056549072265624
140742,-0.245941162109375,0.727874755859375,0.917266845703125
140743,-0.1949462890625,0.7434539794921875,0.9150238037109376
140744,-0.1243896484375,0.74505615234375,0.8957672119140625
140745,-0.0466156005859375,0.7311859130859375,0.857177734375
140746,0.0263519287109375,0.6806488037109375,0.8275299072265625
140747,0.06634521484375,0.6301422119140625,0.802154541015625
140748,0.0860443115234375,0.5946502685546875,0.8162078857421875
140749,0.073974609375,0.5754852294921875,0.8159332275390625
140750,0.03424072265625,0.550140380859375,0.81707763671875
140751,-0.0136260986328125,0.529754638671875,0.782440185546875
140752,-0.0812530517578125,0.5128631591796875,0.7481536865234375
140753,-0.1796722412109375,0.49041748046875,0.7194366455078125
140754,-0.268768310546875,0.4708251953125,0.70098876953125
140755,-0.320068359375,0.4590911865234375,0.6907958984375
140756,-0.344482421875,0.4416961669921875,0.6886749267578125
140757,-0.352294921875,0.4423980712890625,0.669830322265625
140758,-0.34698486328125,0.4727020263671875,0.655914306640625
140759,-0.345367431640625,0.5562896728515625,0.645751953125
140760,-0.3083953857421875,0.6927032470703125,0.64031982421875
140761,-0.2426605224609375,0.7639007568359375,0.60711669921875
140762,-0.168487548828125,0.809356689453125,0.598052978515625
140763,-0.0927581787109375,0.8890380859375,0.6248931884765625
140764,-0.0100860595703125,1.003509521484375,0.7262725830078125
140765,0.092010498046875,1.11053466796875,0.8424530029296875
140766,0.2198333740234375,1.1644287109375,0.8993072509765625
140767,0.3465423583984375,1.157989501953125,0.840423583984375
140768,0.4349365234375,1.104476928710938,0.7465972900390625
140769,0.4556121826171875,1.034515380859375,0.67510986328125
140770,0.4232025146484375,0.986785888671875,0.6410064697265625
140771,0.3718414306640625,0.9549407958984376,0.59564208984375
140772,0.3417816162109375,0.9205780029296876,0.5653076171875
140773,0.3427276611328125,0.887664794921875,0.5450592041015625
140774,0.3416900634765625,0.8851776123046875,0.5752105712890625
140775,0.319244384765625,0.8885498046875,0.638916015625
140776,0.27545166015625,0.8637542724609375,0.677886962890625
140777,0.1936187744140625,0.7830047607421875,0.6875762939453125
140778,0.067901611328125,0.6785888671875,0.6873016357421875
140779,-0.073974609375,0.613616943359375,0.6890869140625
140780,-0.1953277587890625,0.573486328125,0.68902587890625
140781,-0.274078369140625,0.5253143310546875,0.708099365234375
140782,-0.301177978515625,0.478546142578125,0.71429443359375
140783,-0.3044281005859375,0.43804931640625,0.690826416015625
140784,-0.3114166259765625,0.4029541015625,0.6568145751953125
140785,-0.3485107421875,0.3760223388671875,0.61724853515625
140786,-0.4127349853515625,0.350311279296875,0.60595703125
140787,-0.48553466796875,0.329742431640625,0.6336822509765625
140788,-0.5660858154296875,0.3234100341796875,0.6798248291015625
140789,-0.6417236328125,0.3317413330078125,0.7406158447265625
140790,-0.70013427734375,0.3469696044921875,0.809234619140625
140791,-0.74151611328125,0.37530517578125,0.8820037841796875
140792,-0.76849365234375,0.4044647216796875,0.94366455078125
140793,-0.76068115234375,0.4166717529296875,0.9809417724609376
140794,-0.7246246337890625,0.4146728515625,0.9694061279296876
140795,-0.6628875732421875,0.3985595703125,0.9407958984375
140796,-0.59197998046875,0.38726806640625,0.9048614501953124
140797,-0.5159759521484375,0.4006500244140625,0.8690185546875
140798,-0.430938720703125,0.4420623779296875,0.8253021240234375
140799,-0.354217529296875,0.50494384765625,0.7711639404296875
140800,-0.2967529296875,0.572845458984375,0.73626708984375
140801,-0.2622528076171875,0.6244964599609375,0.714263916015625
140802,-0.2354888916015625,0.660919189453125,0.7097320556640625
140803,-0.213287353515625,0.6876373291015625,0.709228515625
140804,-0.1824493408203125,0.701751708984375,0.7032470703125
140805,-0.143096923828125,0.7024078369140625,0.6933135986328125
140806,-0.116607666015625,0.69189453125,0.6874542236328125
140807,-0.11114501953125,0.67645263671875,0.6826629638671875
140808,-0.1103363037109375,0.654144287109375,0.6837921142578125
140809,-0.1073455810546875,0.6345672607421875,0.6933746337890625
140810,-0.1065826416015625,0.6168975830078125,0.702423095703125
140811,-0.1043548583984375,0.5972747802734375,0.698638916015625
140812,-0.11907958984375,0.5693511962890625,0.674591064453125
140813,-0.1551666259765625,0.5395965576171875,0.6405029296875
140814,-0.2024993896484375,0.52081298828125,0.6326446533203125
140815,-0.238525390625,0.5353546142578125,0.6957855224609375
140816,-0.2500152587890625,0.5827789306640625,0.8026885986328125
140817,-0.21527099609375,0.639007568359375,0.950103759765625
140818,-0.11505126953125,0.6953125,1.03875732421875
140819,0.018310546875,0.739349365234375,1.049224853515625
140820,0.1457366943359375,0.7569427490234375,0.988677978515625
140821,0.21795654296875,0.7785186767578125,0.9139251708984376
140822,0.2265777587890625,0.80841064453125,0.9041748046875
140823,0.2338104248046875,0.863739013671875,0.9292144775390624
140824,0.262451171875,0.91680908203125,0.965911865234375
140825,0.31158447265625,0.9360198974609376,0.93609619140625
140826,0.3670654296875,0.8752593994140625,0.85540771484375
140827,0.3873138427734375,0.7866973876953125,0.77978515625
140828,0.3757781982421875,0.75323486328125,0.7658843994140625
140829,0.34918212890625,0.7359161376953125,0.780029296875
140830,0.3333282470703125,0.70098876953125,0.8019561767578125
140831,0.314361572265625,0.6530914306640625,0.79327392578125
140832,0.28570556640625,0.6060943603515625,0.7476959228515625
140833,0.239105224609375,0.5637969970703125,0.7032928466796875
140834,0.15850830078125,0.5262908935546875,0.68817138671875
140835,0.0291290283203125,0.4947357177734375,0.6868743896484375
140836,-0.1184844970703125,0.4703216552734375,0.673065185546875
140837,-0.252716064453125,0.4508819580078125,0.6508636474609375
140838,-0.3672637939453125,0.4213714599609375,0.65869140625
140839,-0.4729156494140625,0.3924560546875,0.660369873046875
140840,-0.5596160888671875,0.3685302734375,0.658050537109375
140841,-0.6283721923828125,0.349456787109375,0.6548919677734375
140842,-0.690277099609375,0.3344879150390625,0.649810791015625
140843,-0.7470245361328125,0.3174591064453125,0.6479034423828125
140844,-0.7658843994140625,0.29803466796875,0.66143798828125
140845,-0.7328643798828125,0.291961669921875,0.6752777099609375
140846,-0.6815185546875,0.295684814453125,0.6817779541015625
140847,-0.6453857421875,0.3027801513671875,0.6795501708984375
140848,-0.6426544189453125,0.329925537109375,0.6812896728515625
140849,-0.645111083984375,0.3785552978515625,0.721435546875
140850,-0.6584014892578125,0.4467010498046875,0.7999114990234375
140851,-0.65557861328125,0.5337677001953125,0.8909149169921875
140852,-0.61578369140625,0.6270294189453125,0.9631805419921876
140853,-0.5567626953125,0.695526123046875,1.00128173828125
140854,-0.4842681884765625,0.727813720703125,1.001632690429688
140855,-0.4033355712890625,0.7546844482421875,0.9765167236328124
140856,-0.311737060546875,0.7811431884765625,0.94329833984375
140857,-0.2329254150390625,0.782745361328125,0.9358367919921876
140858,-0.1791534423828125,0.7691802978515625,0.94671630859375
140859,-0.1382904052734375,0.773681640625,0.9551239013671876
140860,-0.0954742431640625,0.7916259765625,0.9725494384765624
140861,-0.04290771484375,0.79229736328125,0.965087890625
140862,0.0245819091796875,0.745208740234375,0.9204864501953124
140863,0.057525634765625,0.66925048828125,0.84326171875
140864,0.0413818359375,0.59051513671875,0.7666015625
140865,-0.013092041015625,0.54217529296875,0.703948974609375
140866,-0.0911865234375,0.51654052734375,0.7037353515625
140867,-0.1529998779296875,0.480560302734375,0.719940185546875
140868,-0.1803436279296875,0.4524993896484375,0.7107696533203125
140869,-0.190673828125,0.4357147216796875,0.6884002685546875
140870,-0.1881561279296875,0.4405517578125,0.671142578125
140871,-0.1747283935546875,0.44366455078125,0.69342041015625
140872,-0.159515380859375,0.4656219482421875,0.7340240478515625
140873,-0.1331634521484375,0.5501708984375,0.7827606201171875
140874,-0.0792083740234375,0.697601318359375,0.796630859375
140875,-0.020843505859375,0.7796630859375,0.7561798095703125
140876,0.024566650390625,0.7724151611328125,0.7017822265625
140877,0.0379486083984375,0.7596435546875,0.6944580078125
140878,0.01885986328125,0.7907867431640625,0.757568359375
140879,-0.00616455078125,0.874542236328125,0.8346710205078125
140880,0.0015106201171875,0.9676666259765624,0.87799072265625
140881,0.0675048828125,1.030227661132812,0.8570098876953125
140882,0.1764984130859375,1.025833129882812,0.7917022705078125
140883,0.2731170654296875,0.958709716796875,0.72406005859375
140884,0.31121826171875,0.8799896240234375,0.68804931640625
140885,0.280120849609375,0.8398284912109375,0.6764373779296875
140886,0.22650146484375,0.8240814208984375,0.656036376953125
140887,0.2110443115234375,0.8036956787109375,0.5860595703125
140888,0.2411346435546875,0.7718658447265625,0.510650634765625
140889,0.2840118408203125,0.726715087890625,0.4737091064453125
140890,0.295928955078125,0.68743896484375,0.4949188232421875
140891,0.261505126953125,0.6534881591796875,0.6067962646484375
140892,0.1797943115234375,0.6222686767578125,0.6880950927734375
140893,0.108367919921875,0.595001220703125,0.7207489013671875
140894,0.046630859375,0.5840301513671875,0.7445526123046875
140895,-0.018310546875,0.5440521240234375,0.7454376220703125
140896,-0.0563812255859375,0.4920196533203125,0.741943359375
140897,-0.09832763671875,0.4152679443359375,0.75384521484375
140898,-0.181182861328125,0.363037109375,0.7655487060546875
140899,-0.2880096435546875,0.33642578125,0.76983642578125
140900,-0.3831329345703125,0.306732177734375,0.759185791015625
140901,-0.46038818359375,0.28692626953125,0.7693328857421875
140902,-0.528533935546875,0.2845916748046875,0.784210205078125
140903,-0.5825042724609375,0.288421630859375,0.7935028076171875
140904,-0.6310882568359375,0.297698974609375,0.7851409912109375
140905,-0.672821044921875,0.29925537109375,0.768951416015625
140906,-0.696014404296875,0.2989044189453125,0.7593231201171875
140907,-0.693450927734375,0.313720703125,0.787322998046875
140908,-0.67120361328125,0.34234619140625,0.8322296142578125
140909,-0.6393890380859375,0.35565185546875,0.868438720703125
140910,-0.5877227783203125,0.354461669921875,0.909942626953125
140911,-0.5187530517578125,0.3292694091796875,0.937530517578125
140912,-0.4412994384765625,0.30560302734375,0.9412841796875
140913,-0.373016357421875,0.3050537109375,0.922515869140625
140914,-0.323486328125,0.3560943603515625,0.895599365234375
140915,-0.2956695556640625,0.4371795654296875,0.8544921875
140916,-0.287445068359375,0.5301513671875,0.7971649169921875
140917,-0.295166015625,0.617645263671875,0.7587432861328125
140918,-0.322174072265625,0.6777801513671875,0.7637786865234375
140919,-0.3504180908203125,0.7137298583984375,0.776458740234375
140920,-0.3480987548828125,0.725433349609375,0.789276123046875
140921,-0.308135986328125,0.7180328369140625,0.759033203125
140922,-0.253631591796875,0.7097320556640625,0.7052001953125
140923,-0.223541259765625,0.693359375,0.68377685546875
140924,-0.2362823486328125,0.6935272216796875,0.697723388671875
140925,-0.2633514404296875,0.7037200927734375,0.7325439453125
140926,-0.27099609375,0.7173309326171875,0.7720184326171875
140927,-0.2462615966796875,0.719818115234375,0.7902069091796875
140928,-0.2032928466796875,0.71044921875,0.7744598388671875
140929,-0.162994384765625,0.6842193603515625,0.73358154296875
140930,-0.133026123046875,0.6602020263671875,0.6797027587890625
140931,-0.143096923828125,0.6572418212890625,0.6493377685546875
140932,-0.168731689453125,0.6706390380859375,0.6898193359375
140933,-0.1801605224609375,0.696319580078125,0.78594970703125
140934,-0.13275146484375,0.7254180908203125,0.921112060546875
140935,0.0028076171875,0.7689971923828125,1.002548217773438
140936,0.203155517578125,0.8151092529296875,1.02105712890625
140937,0.4099578857421875,0.84844970703125,0.954742431640625
140938,0.53240966796875,0.8663177490234375,0.8428802490234375
140939,0.55023193359375,0.8582611083984375,0.7787017822265625
140940,0.527557373046875,0.8563995361328125,0.800201416015625
140941,0.5406341552734375,0.866546630859375,0.833160400390625
140942,0.572601318359375,0.87408447265625,0.8245391845703125
140943,0.5983734130859375,0.85626220703125,0.775238037109375
140944,0.595458984375,0.8129730224609375,0.738128662109375
140945,0.581024169921875,0.7501678466796875,0.718048095703125
140946,0.5698089599609375,0.69677734375,0.6929473876953125
140947,0.544219970703125,0.648590087890625,0.6626129150390625
140948,0.492584228515625,0.60699462890625,0.6371917724609375
140949,0.4036102294921875,0.5821075439453125,0.625244140625
140950,0.2635498046875,0.541778564453125,0.64337158203125
140951,0.086456298828125,0.4970550537109375,0.6822662353515625
140952,-0.09991455078125,0.474334716796875,0.72442626953125
140953,-0.2783203125,0.4707489013671875,0.76702880859375
140954,-0.4486083984375,0.460906982421875,0.7928466796875
140955,-0.6174163818359375,0.4200592041015625,0.7641143798828125
140956,-0.78387451171875,0.33612060546875,0.713714599609375
140957,-0.906219482421875,0.26904296875,0.66778564453125
140958,-0.9664306640625,0.2543792724609375,0.627349853515625
140959,-0.963165283203125,0.2588043212890625,0.621337890625
140960,-0.861785888671875,0.2373504638671875,0.6286468505859375
140961,-0.7135162353515625,0.2059478759765625,0.6212310791015625
140962,-0.5977783203125,0.1940460205078125,0.6484832763671875
140963,-0.5259857177734375,0.20233154296875,0.7050628662109375
140964,-0.5079193115234375,0.243377685546875,0.766357421875
140965,-0.5518035888671875,0.3153839111328125,0.8082427978515625
140966,-0.620880126953125,0.4041900634765625,0.8220672607421875
140967,-0.6335906982421875,0.48492431640625,0.82342529296875
140968,-0.580169677734375,0.5556182861328125,0.8123931884765625
140969,-0.5159454345703125,0.638031005859375,0.8032073974609375
140970,-0.473602294921875,0.736114501953125,0.8099517822265625
140971,-0.4458160400390625,0.8236236572265625,0.834747314453125
140972,-0.412567138671875,0.8853759765625,0.862396240234375
140973,-0.365020751953125,0.9243011474609376,0.8788299560546875
140974,-0.305206298828125,0.9420013427734376,0.9112396240234376
140975,-0.242462158203125,0.9321441650390624,0.9376220703125
140976,-0.1838531494140625,0.90228271484375,0.9380950927734376
140977,-0.114471435546875,0.841827392578125,0.919342041015625
140978,-0.05230712890625,0.7686920166015625,0.8786468505859375
140979,-0.02716064453125,0.712890625,0.840728759765625
140980,-0.06146240234375,0.688446044921875,0.8365936279296875
140981,-0.1136016845703125,0.657073974609375,0.862945556640625
140982,-0.1542816162109375,0.6267242431640625,0.8770904541015625
140983,-0.1799774169921875,0.595733642578125,0.8734588623046875
140984,-0.195404052734375,0.6050872802734375,0.8665618896484375
140985,-0.2168731689453125,0.630126953125,0.867431640625
140986,-0.2292633056640625,0.630096435546875,0.8656768798828125
140987,-0.2044525146484375,0.628204345703125,0.8316192626953125
140988,-0.152069091796875,0.6687774658203125,0.7585296630859375
140989,-0.085357666015625,0.7333984375,0.6617889404296875
140990,-0.024993896484375,0.7643280029296875,0.560760498046875
140991,-0.0127105712890625,0.7556915283203125,0.519683837890625
140992,-0.042999267578125,0.7611083984375,0.549163818359375
140993,-0.0677032470703125,0.807525634765625,0.58807373046875
140994,-0.064849853515625,0.8872528076171875,0.6221160888671875
140995,-0.0013580322265625,0.9682464599609376,0.64263916015625
140996,0.1166229248046875,1.038864135742188,0.652099609375
140997,0.2368621826171875,1.07733154296875,0.6703948974609375
140998,0.3104095458984375,1.0546875,0.6953125
140999,0.3349151611328125,1.011688232421875,0.6909942626953125
141000,0.3288726806640625,0.9478759765625,0.6461944580078125
141001,0.3329010009765625,0.884307861328125,0.584197998046875
141002,0.35015869140625,0.8402099609375,0.5172576904296875
141003,0.3638916015625,0.8046875,0.4891815185546875
141004,0.3623504638671875,0.7707672119140625,0.5038909912109375
141005,0.322418212890625,0.7506561279296875,0.555267333984375
141006,0.2497406005859375,0.7172088623046875,0.615936279296875
141007,0.1589508056640625,0.6497802734375,0.64306640625
141008,0.0600738525390625,0.5948028564453125,0.6239013671875
141009,-0.031280517578125,0.591156005859375,0.612152099609375
141010,-0.1332244873046875,0.5500640869140625,0.6478271484375
141011,-0.222259521484375,0.4866485595703125,0.6867218017578125
141012,-0.2765350341796875,0.46063232421875,0.70770263671875
141013,-0.3067626953125,0.42645263671875,0.716278076171875
141014,-0.3129119873046875,0.359283447265625,0.718109130859375
141015,-0.2996978759765625,0.2950897216796875,0.7299652099609375
141016,-0.2864227294921875,0.2595977783203125,0.7275848388671875
141017,-0.2834625244140625,0.248016357421875,0.7428741455078125
141018,-0.3162994384765625,0.23553466796875,0.757110595703125
141019,-0.3816070556640625,0.2444305419921875,0.764892578125
141020,-0.46142578125,0.2595672607421875,0.77178955078125
141021,-0.5493621826171875,0.270233154296875,0.77740478515625
141022,-0.6501007080078125,0.2764129638671875,0.79412841796875
141023,-0.737091064453125,0.280792236328125,0.81976318359375
141024,-0.7840728759765625,0.29730224609375,0.8428192138671875
141025,-0.779083251953125,0.321807861328125,0.8449249267578125
141026,-0.733428955078125,0.3420257568359375,0.8505096435546875
141027,-0.67132568359375,0.3656463623046875,0.8554229736328125
141028,-0.590179443359375,0.407806396484375,0.8622894287109375
141029,-0.511138916015625,0.4725494384765625,0.8780975341796875
141030,-0.438995361328125,0.56304931640625,0.8858184814453125
141031,-0.36749267578125,0.649322509765625,0.86956787109375
141032,-0.3125152587890625,0.7069549560546875,0.8357086181640625
141033,-0.2932891845703125,0.747650146484375,0.7912750244140625
141034,-0.294342041015625,0.7787933349609375,0.735076904296875
141035,-0.2885284423828125,0.7733306884765625,0.6815032958984375
141036,-0.28216552734375,0.7351226806640625,0.650909423828125
141037,-0.257568359375,0.699249267578125,0.65185546875
141038,-0.205078125,0.682403564453125,0.6483154296875
141039,-0.1611175537109375,0.6932220458984375,0.633148193359375
141040,-0.1503143310546875,0.709625244140625,0.6448974609375
141041,-0.1724700927734375,0.7152557373046875,0.68145751953125
141042,-0.192779541015625,0.717559814453125,0.7208404541015625
141043,-0.1945648193359375,0.7078399658203125,0.7335052490234375
141044,-0.1919403076171875,0.6859588623046875,0.703155517578125
141045,-0.2057952880859375,0.6577606201171875,0.6480865478515625
141046,-0.246124267578125,0.650177001953125,0.616058349609375
141047,-0.311614990234375,0.67974853515625,0.6496429443359375
141048,-0.37188720703125,0.7405548095703125,0.7540740966796875
141049,-0.3582305908203125,0.773223876953125,0.8798675537109375
141050,-0.2479705810546875,0.816650390625,0.9785919189453124
141051,-0.0864105224609375,0.8713836669921875,0.991912841796875
141052,0.06103515625,0.8924713134765625,0.9377593994140624
141053,0.1423187255859375,0.8878631591796875,0.8867034912109375
141054,0.1527862548828125,0.8823394775390625,0.869171142578125
141055,0.14990234375,0.90887451171875,0.8848114013671875
141056,0.1620635986328125,0.949188232421875,0.8972930908203125
141057,0.2132415771484375,0.9508819580078124,0.8815765380859375
141058,0.2979278564453125,0.912322998046875,0.83929443359375
141059,0.3586578369140625,0.8438873291015625,0.7825469970703125
141060,0.3819580078125,0.77496337890625,0.7552337646484375
141061,0.3988800048828125,0.719451904296875,0.746429443359375
141062,0.4052734375,0.6728363037109375,0.710479736328125
141063,0.400054931640625,0.6280517578125,0.6669464111328125
141064,0.37066650390625,0.5815887451171875,0.6533966064453125
141065,0.3243560791015625,0.5316925048828125,0.646392822265625
141066,0.2805633544921875,0.4809112548828125,0.6253814697265625
141067,0.215118408203125,0.454132080078125,0.608612060546875
141068,0.1071319580078125,0.435638427734375,0.621856689453125
141069,-0.0197296142578125,0.4039154052734375,0.63018798828125
141070,-0.1330718994140625,0.3766937255859375,0.64520263671875
141071,-0.239410400390625,0.3662261962890625,0.6738128662109375
141072,-0.3350677490234375,0.373748779296875,0.712066650390625
141073,-0.41082763671875,0.3876800537109375,0.734130859375
141074,-0.4470062255859375,0.39532470703125,0.735626220703125
141075,-0.4605712890625,0.38336181640625,0.7151336669921875
141076,-0.460174560546875,0.345672607421875,0.68182373046875
141077,-0.443328857421875,0.309234619140625,0.6463470458984375
141078,-0.4038543701171875,0.296356201171875,0.6384429931640625
141079,-0.3599853515625,0.2886810302734375,0.643157958984375
141080,-0.3298797607421875,0.298675537109375,0.64495849609375
141081,-0.311279296875,0.335235595703125,0.6603851318359375
141082,-0.297882080078125,0.3969879150390625,0.6993560791015625
141083,-0.2842559814453125,0.469573974609375,0.7429046630859375
141084,-0.2963104248046875,0.55340576171875,0.78106689453125
141085,-0.33966064453125,0.6440277099609375,0.8278961181640625
141086,-0.39617919921875,0.7177886962890625,0.84844970703125
141087,-0.4705657958984375,0.7889556884765625,0.8534698486328125
141088,-0.542083740234375,0.87615966796875,0.8607330322265625
141089,-0.575958251953125,0.9925689697265624,0.8791351318359375
141090,-0.5609893798828125,1.075485229492188,0.897369384765625
141091,-0.483154296875,1.101165771484375,0.886993408203125
141092,-0.386688232421875,1.075714111328125,0.856964111328125
141093,-0.3057098388671875,0.99981689453125,0.837982177734375
141094,-0.218505859375,0.8798828125,0.7962188720703125
141095,-0.1523284912109375,0.788665771484375,0.73126220703125
141096,-0.1309967041015625,0.75103759765625,0.689056396484375
141097,-0.1520843505859375,0.7292938232421875,0.6760406494140625
141098,-0.202178955078125,0.7157745361328125,0.6729583740234375
141099,-0.2633514404296875,0.7060394287109375,0.66375732421875
141100,-0.3115234375,0.687713623046875,0.6399383544921875
141101,-0.3321685791015625,0.6729583740234375,0.607421875
141102,-0.36187744140625,0.6909637451171875,0.606414794921875
141103,-0.3941192626953125,0.7798309326171875,0.640594482421875
141104,-0.3916015625,0.9162139892578124,0.6802825927734375
141105,-0.35418701171875,0.988372802734375,0.6815032958984375
141106,-0.2584686279296875,1.016204833984375,0.638580322265625
141107,-0.1438446044921875,1.059249877929688,0.62237548828125
141108,-0.03314208984375,1.127212524414062,0.661651611328125
141109,0.0937347412109375,1.178802490234375,0.699188232421875
141110,0.2406768798828125,1.1773681640625,0.6911468505859375
141111,0.356048583984375,1.12347412109375,0.635589599609375
141112,0.4077911376953125,1.079437255859375,0.6356201171875
141113,0.3878631591796875,1.061813354492188,0.689544677734375
141114,0.3352203369140625,1.03094482421875,0.7071685791015625
141115,0.29998779296875,0.95404052734375,0.6576080322265625
141116,0.2586669921875,0.8680572509765625,0.5721893310546875
141117,0.20208740234375,0.824859619140625,0.5153961181640625
141118,0.1363372802734375,0.808624267578125,0.501129150390625
141119,0.0905914306640625,0.7615509033203125,0.4976959228515625
141120,0.0258636474609375,0.73016357421875,0.4993743896484375
141121,-0.04876708984375,0.684478759765625,0.4909515380859375
141122,-0.1223297119140625,0.6101837158203125,0.4984893798828125
141123,-0.1800537109375,0.5179290771484375,0.565948486328125
141124,-0.192962646484375,0.489593505859375,0.6584014892578125
141125,-0.1903076171875,0.4761505126953125,0.732818603515625
141126,-0.1912994384765625,0.4342498779296875,0.7657470703125
141127,-0.189117431640625,0.407623291015625,0.7548675537109375
141128,-0.2076263427734375,0.38079833984375,0.7636566162109375
141129,-0.228363037109375,0.3675994873046875,0.80035400390625
141130,-0.233673095703125,0.3589935302734375,0.8275909423828125
141131,-0.2560272216796875,0.3329315185546875,0.818939208984375
141132,-0.2800445556640625,0.2981719970703125,0.7726287841796875
141133,-0.3073883056640625,0.2709197998046875,0.7352142333984375
141134,-0.3451995849609375,0.2837066650390625,0.72332763671875
141135,-0.3856658935546875,0.2965240478515625,0.7107696533203125
141136,-0.4166259765625,0.2863616943359375,0.71649169921875
141137,-0.453216552734375,0.2853546142578125,0.742523193359375
141138,-0.526397705078125,0.2971954345703125,0.7696533203125
141139,-0.6118316650390625,0.2948760986328125,0.7877349853515625
141140,-0.6551513671875,0.2930450439453125,0.8158111572265625
141141,-0.6608734130859375,0.2992706298828125,0.835968017578125
141142,-0.6500701904296875,0.311370849609375,0.8297119140625
141143,-0.62078857421875,0.34051513671875,0.825531005859375
141144,-0.56732177734375,0.38623046875,0.803863525390625
141145,-0.5244293212890625,0.429351806640625,0.7458343505859375
141146,-0.493377685546875,0.48468017578125,0.701507568359375
141147,-0.45379638671875,0.5702362060546875,0.68035888671875
141148,-0.387115478515625,0.64996337890625,0.6764068603515625
141149,-0.3175201416015625,0.7142181396484375,0.669097900390625
141150,-0.265533447265625,0.7609405517578125,0.6666412353515625
141151,-0.2157135009765625,0.7867889404296875,0.662261962890625
141152,-0.177581787109375,0.786529541015625,0.6602325439453125
141153,-0.1518096923828125,0.7745513916015625,0.6604461669921875
141154,-0.1307373046875,0.755615234375,0.669708251953125
141155,-0.133026123046875,0.7411041259765625,0.6746063232421875
141156,-0.16656494140625,0.7234649658203125,0.6780242919921875
141157,-0.20697021484375,0.6983489990234375,0.6772613525390625
141158,-0.2467193603515625,0.6822357177734375,0.6770172119140625
141159,-0.291778564453125,0.663299560546875,0.6821441650390625
141160,-0.355438232421875,0.64190673828125,0.707183837890625
141161,-0.4092559814453125,0.6474761962890625,0.789703369140625
141162,-0.4070281982421875,0.669525146484375,0.9204864501953124
141163,-0.3450164794921875,0.71063232421875,1.019149780273438
141164,-0.2355804443359375,0.743621826171875,1.067703247070312
141165,-0.0952911376953125,0.733642578125,1.06890869140625
141166,0.0441741943359375,0.6854095458984375,1.024322509765625
141167,0.1425323486328125,0.6522369384765625,0.9897003173828124
141168,0.1920166015625,0.6615447998046875,0.9583587646484376
141169,0.215576171875,0.6868133544921875,0.902618408203125
141170,0.23101806640625,0.7162628173828125,0.8408203125
141171,0.2357177734375,0.747955322265625,0.803375244140625
141172,0.2319488525390625,0.7724761962890625,0.789337158203125
141173,0.222015380859375,0.7599334716796875,0.7902374267578125
141174,0.1992340087890625,0.732757568359375,0.7944793701171875
141175,0.163116455078125,0.7100067138671875,0.8213348388671875
141176,0.1261138916015625,0.69488525390625,0.856536865234375
141177,0.0884857177734375,0.677581787109375,0.887420654296875
141178,0.056243896484375,0.6466522216796875,0.9000396728515625
141179,0.04547119140625,0.6118011474609375,0.86383056640625
141180,0.0529632568359375,0.5809783935546875,0.7966461181640625
141181,0.047149658203125,0.562713623046875,0.7425537109375
141182,0.0304107666015625,0.563629150390625,0.72064208984375
141183,0.0162353515625,0.56939697265625,0.6977081298828125
141184,-0.00238037109375,0.58599853515625,0.677703857421875
141185,-0.0370330810546875,0.5908660888671875,0.655426025390625
141186,-0.093536376953125,0.5722503662109375,0.64599609375
141187,-0.1715850830078125,0.542083740234375,0.6392364501953125
141188,-0.248077392578125,0.5122833251953125,0.6236572265625
141189,-0.30828857421875,0.4718475341796875,0.611724853515625
141190,-0.3538360595703125,0.4341278076171875,0.614288330078125
141191,-0.3970184326171875,0.394561767578125,0.63812255859375
141192,-0.4313812255859375,0.3553619384765625,0.6732635498046875
141193,-0.4346771240234375,0.3335723876953125,0.6897735595703125
141194,-0.436431884765625,0.306854248046875,0.6928253173828125
141195,-0.4630584716796875,0.2821197509765625,0.678924560546875
141196,-0.49005126953125,0.2405548095703125,0.6750335693359375
141197,-0.49609375,0.2086029052734375,0.68414306640625
141198,-0.4892425537109375,0.19720458984375,0.7011566162109375
141199,-0.4666748046875,0.202178955078125,0.73809814453125
141200,-0.42840576171875,0.2448577880859375,0.79315185546875
141201,-0.3953399658203125,0.3287506103515625,0.855621337890625
141202,-0.3912506103515625,0.4305572509765625,0.9283599853515624
141203,-0.4191436767578125,0.5354766845703125,0.979827880859375
141204,-0.4530029296875,0.6163330078125,1.008651733398438
141205,-0.4631195068359375,0.6482391357421875,1.036102294921875
141206,-0.4558868408203125,0.668548583984375,1.030685424804688
141207,-0.4366455078125,0.6780853271484375,0.994354248046875
141208,-0.392852783203125,0.6615142822265625,0.9547576904296876
141209,-0.316131591796875,0.6143646240234375,0.9102020263671876
141210,-0.24749755859375,0.5617218017578125,0.856536865234375
141211,-0.2028350830078125,0.534332275390625,0.81622314453125
141212,-0.1816864013671875,0.5103302001953125,0.77862548828125
141213,-0.1907806396484375,0.48553466796875,0.762939453125
141214,-0.23028564453125,0.4702911376953125,0.787261962890625
141215,-0.2829132080078125,0.4744720458984375,0.8307037353515625
141216,-0.3274078369140625,0.5047760009765625,0.881622314453125
141217,-0.360382080078125,0.5601654052734375,0.93023681640625
141218,-0.35955810546875,0.6437225341796875,0.96685791015625
141219,-0.3167877197265625,0.72412109375,0.9674072265625
141220,-0.261749267578125,0.8143157958984375,0.9370269775390624
141221,-0.2025299072265625,0.860870361328125,0.891357421875
141222,-0.1502532958984375,0.8699493408203125,0.836517333984375
141223,-0.1141815185546875,0.878509521484375,0.7956085205078125
141224,-0.097747802734375,0.897705078125,0.794464111328125
141225,-0.0863189697265625,0.9076385498046876,0.8098297119140625
141226,-0.04974365234375,0.918121337890625,0.829925537109375
141227,0.0291900634765625,0.933685302734375,0.8660888671875
141228,0.13311767578125,0.968475341796875,0.90252685546875
141229,0.2439727783203125,0.9960784912109376,0.9039459228515624
141230,0.3363800048828125,0.991546630859375,0.8682098388671875
141231,0.3717803955078125,0.938232421875,0.7998504638671875
141232,0.3364410400390625,0.83935546875,0.7087249755859375
141233,0.2446441650390625,0.7570648193359375,0.63397216796875
141234,0.1461029052734375,0.7158050537109375,0.5881805419921875
141235,0.081207275390625,0.710845947265625,0.55865478515625
141236,0.050140380859375,0.714385986328125,0.508636474609375
141237,0.0467987060546875,0.70770263671875,0.4712371826171875
141238,0.044708251953125,0.703277587890625,0.4684906005859375
141239,0.0255126953125,0.7023468017578125,0.498748779296875
141240,-0.0034027099609375,0.694915771484375,0.5750885009765625
141241,-0.0157928466796875,0.6506805419921875,0.6920623779296875
141242,0.0008697509765625,0.6312255859375,0.76275634765625
141243,0.0294952392578125,0.61962890625,0.7673187255859375
141244,0.0371246337890625,0.5696258544921875,0.7282562255859375
141245,0.02215576171875,0.5016021728515625,0.687347412109375
141246,0.000335693359375,0.458831787109375,0.65618896484375
141247,-0.0270843505859375,0.4420013427734375,0.63287353515625
141248,-0.06231689453125,0.438690185546875,0.6129302978515625
141249,-0.1050262451171875,0.4141845703125,0.5998992919921875
141250,-0.13037109375,0.3678131103515625,0.5836029052734375
141251,-0.156951904296875,0.3249053955078125,0.5654754638671875
141252,-0.21917724609375,0.2904815673828125,0.5544891357421875
141253,-0.3079071044921875,0.2634124755859375,0.5703582763671875
141254,-0.3957366943359375,0.237762451171875,0.6085357666015625
141255,-0.4646148681640625,0.2105712890625,0.6705169677734375
141256,-0.527740478515625,0.1945343017578125,0.765350341796875
141257,-0.5823211669921875,0.2119293212890625,0.858673095703125
141258,-0.605224609375,0.24456787109375,0.9499053955078124
141259,-0.6153106689453125,0.2813720703125,1.015823364257812
141260,-0.6299896240234375,0.3360137939453125,1.0753173828125
141261,-0.6267242431640625,0.349761962890625,1.106842041015625
141262,-0.581268310546875,0.3539276123046875,1.082595825195312
141263,-0.4815673828125,0.347137451171875,1.02813720703125
141264,-0.3529052734375,0.3294219970703125,0.9682769775390624
141265,-0.2254638671875,0.3258514404296875,0.9170684814453124
141266,-0.1242828369140625,0.349334716796875,0.86663818359375
141267,-0.054290771484375,0.40533447265625,0.8123016357421875
141268,-0.0210113525390625,0.4712982177734375,0.769256591796875
141269,-0.0350189208984375,0.5340576171875,0.72528076171875
141270,-0.0781707763671875,0.5888519287109375,0.69354248046875
141271,-0.140045166015625,0.625030517578125,0.7120208740234375
141272,-0.2176666259765625,0.667816162109375,0.738037109375
141273,-0.306793212890625,0.71148681640625,0.771636962890625
141274,-0.39105224609375,0.7361602783203125,0.8012542724609375
141275,-0.4483489990234375,0.7481231689453125,0.7805938720703125
141276,-0.4737701416015625,0.7343292236328125,0.72467041015625
141277,-0.474029541015625,0.707672119140625,0.678131103515625
141278,-0.4532928466796875,0.6737213134765625,0.6643524169921875
141279,-0.4150543212890625,0.6471405029296875,0.67724609375
141280,-0.37628173828125,0.63861083984375,0.7159881591796875
141281,-0.3599395751953125,0.655181884765625,0.794189453125
141282,-0.3500823974609375,0.703765869140625,0.902069091796875
141283,-0.3000030517578125,0.7566680908203125,0.9986419677734376
141284,-0.1709136962890625,0.780364990234375,1.05413818359375
141285,0.006591796875,0.7685394287109375,1.014678955078125
141286,0.1616363525390625,0.7291259765625,0.9535064697265624
141287,0.244354248046875,0.6801910400390625,0.9239501953125
141288,0.251190185546875,0.6562042236328125,0.914520263671875
141289,0.2281646728515625,0.66058349609375,0.8942108154296875
141290,0.2131805419921875,0.6655426025390625,0.865325927734375
141291,0.2163543701171875,0.657928466796875,0.8503265380859375
141292,0.2318572998046875,0.6321868896484375,0.8568115234375
141293,0.252777099609375,0.612640380859375,0.8618927001953125
141294,0.262115478515625,0.604217529296875,0.8624725341796875
141295,0.258941650390625,0.59246826171875,0.841888427734375
141296,0.242645263671875,0.5672760009765625,0.8194732666015625
141297,0.2099609375,0.5432891845703125,0.81640625
141298,0.17205810546875,0.525146484375,0.8092498779296875
141299,0.1473846435546875,0.5195465087890625,0.768157958984375
141300,0.1204986572265625,0.49566650390625,0.7076873779296875
141301,0.0917205810546875,0.4537353515625,0.663604736328125
141302,0.0711669921875,0.42889404296875,0.645843505859375
141303,0.0500335693359375,0.438079833984375,0.651336669921875
141304,-0.003021240234375,0.454864501953125,0.67364501953125
141305,-0.07281494140625,0.4522552490234375,0.6856689453125
141306,-0.1520233154296875,0.44964599609375,0.6804046630859375
141307,-0.2508697509765625,0.4415740966796875,0.6856536865234375
141308,-0.372039794921875,0.4364013671875,0.7100830078125
141309,-0.501861572265625,0.42626953125,0.73455810546875
141310,-0.604278564453125,0.4014129638671875,0.7532196044921875
141311,-0.6478118896484375,0.360931396484375,0.7519378662109375
141312,-0.642669677734375,0.32464599609375,0.7402496337890625
141313,-0.5982666015625,0.3108367919921875,0.7247161865234375
141314,-0.54052734375,0.3146514892578125,0.716583251953125
141315,-0.482513427734375,0.35162353515625,0.7326812744140625
141316,-0.4372406005859375,0.4250640869140625,0.7682037353515625
141317,-0.41998291015625,0.525787353515625,0.8089599609375
141318,-0.4487152099609375,0.655303955078125,0.8514556884765625
141319,-0.4970855712890625,0.755950927734375,0.907989501953125
141320,-0.529144287109375,0.7982330322265625,0.9554290771484376
141321,-0.5335235595703125,0.837188720703125,0.954345703125
141322,-0.497772216796875,0.875579833984375,0.920440673828125
141323,-0.4509124755859375,0.8889617919921875,0.8741302490234375
141324,-0.423736572265625,0.8640594482421875,0.8415069580078125
141325,-0.395660400390625,0.8061065673828125,0.8490142822265625
141326,-0.3330841064453125,0.7506866455078125,0.8784637451171875
141327,-0.23492431640625,0.7261962890625,0.8662567138671875
141328,-0.133331298828125,0.7001495361328125,0.8185577392578125
141329,-0.05322265625,0.639739990234375,0.7567596435546875
141330,-0.0271759033203125,0.577423095703125,0.7248992919921875
141331,-0.05706787109375,0.53277587890625,0.7366180419921875
141332,-0.1349639892578125,0.519866943359375,0.774078369140625
141333,-0.2243194580078125,0.5474700927734375,0.825958251953125
141334,-0.280120849609375,0.59222412109375,0.8567352294921875
141335,-0.296173095703125,0.61224365234375,0.8498687744140625
141336,-0.304595947265625,0.60833740234375,0.8140411376953125
141337,-0.3140411376953125,0.5952606201171875,0.78985595703125
141338,-0.32147216796875,0.5969696044921875,0.79132080078125
141339,-0.318572998046875,0.631072998046875,0.803009033203125
141340,-0.2845001220703125,0.6830902099609375,0.79315185546875
141341,-0.2114105224609375,0.727874755859375,0.7642364501953125
141342,-0.1268157958984375,0.768402099609375,0.7466278076171875
141343,-0.039306640625,0.790313720703125,0.74884033203125
141344,0.02813720703125,0.8288421630859375,0.7732696533203125
141345,0.064697265625,0.891021728515625,0.8305206298828125
141346,0.10443115234375,0.944305419921875,0.893646240234375
141347,0.169677734375,0.9775543212890624,0.92169189453125
141348,0.2519378662109375,0.96514892578125,0.8954010009765625
141349,0.3278045654296875,0.9075927734375,0.8287506103515625
141350,0.3516693115234375,0.827301025390625,0.7493438720703125
141351,0.290191650390625,0.77716064453125,0.6985015869140625
141352,0.2078399658203125,0.7364501953125,0.6749725341796875
141353,0.172882080078125,0.698760986328125,0.6388397216796875
141354,0.1778106689453125,0.6821441650390625,0.5882110595703125
141355,0.202972412109375,0.671356201171875,0.54632568359375
141356,0.2262115478515625,0.6625518798828125,0.541259765625
141357,0.21142578125,0.6487884521484375,0.60504150390625
141358,0.1549072265625,0.6287078857421875,0.71917724609375
141359,0.084442138671875,0.6083221435546875,0.80487060546875
141360,0.0264129638671875,0.5927276611328125,0.81298828125
141361,-0.0299072265625,0.5801544189453125,0.7795562744140625
141362,-0.1066131591796875,0.5486907958984375,0.7642822265625
141363,-0.18975830078125,0.5125732421875,0.76953125
141364,-0.250946044921875,0.4805145263671875,0.7720947265625
141365,-0.27685546875,0.4514923095703125,0.7532958984375
141366,-0.2822418212890625,0.4114532470703125,0.7120361328125
141367,-0.290771484375,0.3750457763671875,0.6681976318359375
141368,-0.307891845703125,0.346588134765625,0.6349639892578125
141369,-0.3453369140625,0.320465087890625,0.6121826171875
141370,-0.3963470458984375,0.2934417724609375,0.5948028564453125
141371,-0.441131591796875,0.266876220703125,0.5928192138671875
141372,-0.484649658203125,0.2447052001953125,0.61151123046875
141373,-0.5354461669921875,0.219940185546875,0.651580810546875
141374,-0.59576416015625,0.2006378173828125,0.713623046875
141375,-0.661590576171875,0.201507568359375,0.79412841796875
141376,-0.71490478515625,0.21649169921875,0.8856048583984375
141377,-0.7272186279296875,0.243133544921875,0.962066650390625
141378,-0.691497802734375,0.251007080078125,0.990234375
141379,-0.6091766357421875,0.2255401611328125,0.966552734375
141380,-0.4841461181640625,0.2084503173828125,0.92559814453125
141381,-0.3493499755859375,0.2178955078125,0.897979736328125
141382,-0.226837158203125,0.2683563232421875,0.87078857421875
141383,-0.132537841796875,0.349609375,0.8386993408203125
141384,-0.078887939453125,0.44854736328125,0.8006591796875
141385,-0.07257080078125,0.5431365966796875,0.763641357421875
141386,-0.1029510498046875,0.583160400390625,0.7432403564453125
141387,-0.1480255126953125,0.5789337158203125,0.727783203125
141388,-0.1874847412109375,0.5792388916015625,0.70941162109375
141389,-0.218475341796875,0.5987548828125,0.714599609375
141390,-0.2445068359375,0.6306304931640625,0.7455596923828125
141391,-0.2603302001953125,0.66961669921875,0.772705078125
141392,-0.2642974853515625,0.7208099365234375,0.7853240966796875
141393,-0.250335693359375,0.7484893798828125,0.78717041015625
141394,-0.2336273193359375,0.738739013671875,0.7718048095703125
141395,-0.2431793212890625,0.7317657470703125,0.757354736328125
141396,-0.280548095703125,0.7439727783203125,0.77508544921875
141397,-0.31036376953125,0.7528228759765625,0.82025146484375
141398,-0.3044891357421875,0.76446533203125,0.885528564453125
141399,-0.2460174560546875,0.76904296875,0.958648681640625
141400,-0.1245574951171875,0.750335693359375,0.9996795654296876
141401,0.022216796875,0.7299041748046875,0.998016357421875
141402,0.150238037109375,0.7295074462890625,0.9824676513671876
141403,0.2316436767578125,0.7472991943359375,0.9859161376953124
141404,0.2630615234375,0.7550201416015625,0.98797607421875
141405,0.269134521484375,0.746185302734375,0.9671173095703124
141406,0.2600860595703125,0.7398681640625,0.9142608642578124
141407,0.2445220947265625,0.72015380859375,0.841522216796875
141408,0.2233428955078125,0.6798095703125,0.7971343994140625
141409,0.1929473876953125,0.625701904296875,0.7965850830078125
141410,0.1830902099609375,0.58953857421875,0.83282470703125
141411,0.2130889892578125,0.5583038330078125,0.8831787109375
141412,0.2588653564453125,0.5518341064453125,0.89923095703125
141413,0.2968902587890625,0.572174072265625,0.883087158203125
141414,0.330810546875,0.560302734375,0.87109375
141415,0.3399658203125,0.5213623046875,0.854583740234375
141416,0.3100738525390625,0.4828948974609375,0.8328857421875
141417,0.2531890869140625,0.450775146484375,0.7826385498046875
141418,0.1656646728515625,0.4407958984375,0.7194366455078125
141419,0.03631591796875,0.4352874755859375,0.6945037841796875
141420,-0.10906982421875,0.4427642822265625,0.7028656005859375
141421,-0.234130859375,0.44390869140625,0.714691162109375
141422,-0.344207763671875,0.4373016357421875,0.708526611328125
141423,-0.4507293701171875,0.4358367919921875,0.688690185546875
141424,-0.5554351806640625,0.4133453369140625,0.665985107421875
141425,-0.6302947998046875,0.366424560546875,0.644805908203125
141426,-0.6597137451171875,0.3106231689453125,0.6165313720703125
141427,-0.6536712646484375,0.2667999267578125,0.60247802734375
141428,-0.6522369384765625,0.2501373291015625,0.6140289306640625
141429,-0.6586761474609375,0.264495849609375,0.6546478271484375
141430,-0.66815185546875,0.3044586181640625,0.7284088134765625
141431,-0.7071990966796875,0.366363525390625,0.7907867431640625
141432,-0.7692413330078125,0.4289703369140625,0.85906982421875
141433,-0.806854248046875,0.480560302734375,0.9246673583984376
141434,-0.7855987548828125,0.529266357421875,0.9740447998046876
141435,-0.703216552734375,0.590423583984375,1.006118774414062
141436,-0.583221435546875,0.6287689208984375,1.010757446289062
141437,-0.43243408203125,0.64453125,1.036819458007812
141438,-0.293426513671875,0.6448974609375,1.068450927734375
141439,-0.20074462890625,0.6367034912109375,1.077484130859375
141440,-0.1275787353515625,0.613311767578125,1.01251220703125
141441,-0.061798095703125,0.584197998046875,0.9254302978515624
141442,-0.00372314453125,0.5556793212890625,0.859588623046875
141443,0.0408172607421875,0.5203399658203125,0.813629150390625
141444,0.066009521484375,0.4946746826171875,0.7873077392578125
141445,0.0726470947265625,0.47357177734375,0.7711639404296875
141446,0.05694580078125,0.43780517578125,0.759002685546875
141447,0.0167236328125,0.424407958984375,0.7496185302734375
141448,-0.042236328125,0.457275390625,0.73065185546875
141449,-0.1010589599609375,0.5120086669921875,0.7036285400390625
141450,-0.142425537109375,0.5701141357421875,0.69329833984375
141451,-0.16082763671875,0.5980682373046875,0.7108001708984375
141452,-0.161651611328125,0.586883544921875,0.733001708984375
141453,-0.1538543701171875,0.586090087890625,0.7513427734375
141454,-0.1393585205078125,0.651519775390625,0.7671966552734375
141455,-0.1180419921875,0.7666473388671875,0.7703094482421875
141456,-0.0864715576171875,0.7832794189453125,0.74737548828125
141457,-0.072509765625,0.754608154296875,0.6758575439453125
141458,-0.0584716796875,0.7676544189453125,0.6334991455078125
141459,-0.040069580078125,0.8315887451171875,0.68206787109375
141460,-0.0413665771484375,0.92376708984375,0.83148193359375
141461,-0.028228759765625,1.020126342773438,0.970703125
141462,0.0535430908203125,1.06842041015625,1.019882202148438
141463,0.186767578125,1.031936645507812,0.9598846435546876
141464,0.2719268798828125,0.921112060546875,0.8505401611328125
141465,0.2467803955078125,0.7900390625,0.7995758056640625
141466,0.1542816162109375,0.7064208984375,0.8088531494140625
141467,0.0571441650390625,0.68145751953125,0.8053436279296875
141468,-0.0012359619140625,0.696258544921875,0.7620391845703125
141469,-0.04632568359375,0.7137603759765625,0.72369384765625
141470,-0.0872344970703125,0.7236480712890625,0.739593505859375
141471,-0.084381103515625,0.7076263427734375,0.7691650390625
141472,-0.055694580078125,0.6793060302734375,0.8352203369140625
141473,-0.035369873046875,0.666717529296875,0.8903656005859375
141474,-0.02520751953125,0.6171722412109375,0.8854522705078125
141475,-0.012054443359375,0.542236328125,0.821685791015625
141476,-0.01849365234375,0.4910736083984375,0.7316131591796875
141477,-0.0417938232421875,0.4671478271484375,0.664459228515625
141478,-0.0613250732421875,0.445709228515625,0.6372833251953125
141479,-0.0768585205078125,0.4183502197265625,0.6350860595703125
141480,-0.10430908203125,0.392486572265625,0.6336669921875
141481,-0.14599609375,0.3735504150390625,0.624755859375
141482,-0.1955413818359375,0.3664398193359375,0.62396240234375
141483,-0.2549591064453125,0.3640594482421875,0.642547607421875
141484,-0.3330841064453125,0.3579864501953125,0.67572021484375
141485,-0.425262451171875,0.35015869140625,0.72088623046875
141486,-0.5184326171875,0.3468017578125,0.78302001953125
141487,-0.6042938232421875,0.342987060546875,0.8416900634765625
141488,-0.655120849609375,0.3285064697265625,0.897705078125
141489,-0.6667938232421875,0.3051300048828125,0.9397735595703124
141490,-0.650299072265625,0.28466796875,0.969482421875
141491,-0.6038360595703125,0.260589599609375,0.981597900390625
141492,-0.5208587646484375,0.2375946044921875,0.968994140625
141493,-0.4208984375,0.2231292724609375,0.93963623046875
141494,-0.3309478759765625,0.22564697265625,0.90216064453125
141495,-0.2699737548828125,0.251953125,0.8706817626953125
141496,-0.2377471923828125,0.2977294921875,0.8534088134765625
141497,-0.2303314208984375,0.352294921875,0.857330322265625
141498,-0.221832275390625,0.414398193359375,0.858154296875
141499,-0.20367431640625,0.4642181396484375,0.8308868408203125
141500,-0.1888580322265625,0.4876251220703125,0.79718017578125
141501,-0.1852874755859375,0.5067901611328125,0.765655517578125
141502,-0.189727783203125,0.52923583984375,0.7443695068359375
141503,-0.2019805908203125,0.545928955078125,0.7355499267578125
141504,-0.2096710205078125,0.552734375,0.7270965576171875
141505,-0.1962890625,0.5527191162109375,0.6959075927734375
141506,-0.1764678955078125,0.5576171875,0.66021728515625
141507,-0.1613311767578125,0.5657196044921875,0.63226318359375
141508,-0.155120849609375,0.579376220703125,0.619873046875
141509,-0.1557769775390625,0.5917205810546875,0.6454315185546875
141510,-0.1524658203125,0.595489501953125,0.6788482666015625
141511,-0.1568145751953125,0.6055145263671875,0.71820068359375
141512,-0.1719818115234375,0.61456298828125,0.779937744140625
141513,-0.1812896728515625,0.60723876953125,0.8623504638671875
141514,-0.1578216552734375,0.621551513671875,0.946502685546875
141515,-0.084716796875,0.6674957275390625,1.02294921875
141516,0.0338287353515625,0.69757080078125,1.048583984375
141517,0.161102294921875,0.683929443359375,1.0242919921875
141518,0.26226806640625,0.6556549072265625,0.992919921875
141519,0.3092041015625,0.6624755859375,0.9712677001953124
141520,0.3030548095703125,0.7120819091796875,0.96453857421875
141521,0.2807159423828125,0.76873779296875,0.9659881591796876
141522,0.2787017822265625,0.793243408203125,0.9561920166015624
141523,0.298095703125,0.758941650390625,0.9331817626953124
141524,0.302337646484375,0.697845458984375,0.9093017578125
141525,0.293731689453125,0.663909912109375,0.9090118408203124
141526,0.3069305419921875,0.6405792236328125,0.91375732421875
141527,0.3313140869140625,0.600311279296875,0.882080078125
141528,0.31805419921875,0.53448486328125,0.8558502197265625
141529,0.2584075927734375,0.4600677490234375,0.857879638671875
141530,0.1717376708984375,0.4069671630859375,0.856048583984375
141531,0.0809326171875,0.390289306640625,0.8286590576171875
141532,-0.0081787109375,0.3787689208984375,0.7981719970703125
141533,-0.102569580078125,0.36737060546875,0.783203125
141534,-0.2039794921875,0.355865478515625,0.7777862548828125
141535,-0.310150146484375,0.36053466796875,0.7693023681640625
141536,-0.416168212890625,0.3765716552734375,0.7850494384765625
141537,-0.5146636962890625,0.4095916748046875,0.810302734375
141538,-0.597747802734375,0.4354400634765625,0.8232421875
141539,-0.6612548828125,0.4295196533203125,0.81201171875
141540,-0.680908203125,0.38641357421875,0.7916717529296875
141541,-0.6741485595703125,0.3283233642578125,0.766845703125
141542,-0.65228271484375,0.279266357421875,0.750335693359375
141543,-0.6290435791015625,0.2514190673828125,0.74127197265625
141544,-0.6046905517578125,0.2464141845703125,0.73797607421875
141545,-0.57470703125,0.2665557861328125,0.7400054931640625
141546,-0.5558929443359375,0.3155517578125,0.750335693359375
141547,-0.5561676025390625,0.3880462646484375,0.7757110595703125
141548,-0.5544891357421875,0.4585723876953125,0.8025360107421875
141549,-0.5390625,0.520355224609375,0.833282470703125
141550,-0.5047607421875,0.582061767578125,0.8540802001953125
141551,-0.446807861328125,0.643096923828125,0.8682861328125
141552,-0.3719635009765625,0.6974639892578125,0.8719329833984375
141553,-0.2840118408203125,0.7370452880859375,0.8773193359375
141554,-0.2076416015625,0.748565673828125,0.8972320556640625
141555,-0.1450042724609375,0.756072998046875,0.925689697265625
141556,-0.0735931396484375,0.742919921875,0.906524658203125
141557,0.012664794921875,0.707611083984375,0.8585357666015625
141558,0.0965118408203125,0.6474456787109375,0.7883758544921875
141559,0.14794921875,0.5843505859375,0.7102813720703125
141560,0.1562652587890625,0.522705078125,0.6551666259765625
141561,0.1172027587890625,0.5023651123046875,0.632415771484375
141562,0.0489349365234375,0.4901580810546875,0.668212890625
141563,-0.033599853515625,0.486419677734375,0.7172698974609375
141564,-0.100799560546875,0.5049591064453125,0.74163818359375
141565,-0.138427734375,0.587249755859375,0.7579498291015625
141566,-0.1623687744140625,0.63348388671875,0.784210205078125
141567,-0.193145751953125,0.63397216796875,0.812042236328125
141568,-0.2244110107421875,0.631927490234375,0.8399810791015625
141569,-0.2537689208984375,0.6608428955078125,0.842437744140625
141570,-0.2466583251953125,0.7098846435546875,0.8452606201171875
141571,-0.1843109130859375,0.7703857421875,0.8083648681640625
141572,-0.11224365234375,0.8256683349609375,0.7489013671875
141573,-0.066986083984375,0.8753662109375,0.723236083984375
141574,-0.0512542724609375,0.9342803955078124,0.7601318359375
141575,-0.0522613525390625,1.014190673828125,0.8623809814453125
141576,-0.033447265625,1.082382202148438,0.9633941650390624
141577,0.0390625,1.091262817382812,0.99176025390625
141578,0.140106201171875,1.012176513671875,0.9100799560546876
141579,0.210235595703125,0.878173828125,0.770782470703125
141580,0.2124481201171875,0.7492218017578125,0.6878204345703125
141581,0.15460205078125,0.6978912353515625,0.6873779296875
141582,0.09100341796875,0.7140045166015625,0.7039031982421875
141583,0.0665435791015625,0.7254791259765625,0.6761932373046875
141584,0.1001739501953125,0.7239990234375,0.6339263916015625
141585,0.138397216796875,0.7436065673828125,0.637451171875
141586,0.137115478515625,0.7458038330078125,0.712188720703125
141587,0.0947723388671875,0.72540283203125,0.825042724609375
141588,0.0157012939453125,0.66058349609375,0.8907318115234375
141589,-0.0680084228515625,0.574249267578125,0.873382568359375
141590,-0.1287384033203125,0.5382080078125,0.81439208984375
141591,-0.16851806640625,0.5323333740234375,0.7587127685546875
141592,-0.178466796875,0.509735107421875,0.7318267822265625
141593,-0.1667327880859375,0.4676971435546875,0.7169036865234375
141594,-0.136199951171875,0.3923187255859375,0.713104248046875
141595,-0.10198974609375,0.3271026611328125,0.7044677734375
141596,-0.114349365234375,0.2886810302734375,0.676300048828125
141597,-0.1817474365234375,0.26007080078125,0.6683197021484375
141598,-0.2772216796875,0.2365875244140625,0.6898193359375
141599,-0.3839569091796875,0.217620849609375,0.71484375
141600,-0.4988250732421875,0.2155609130859375,0.744537353515625
141601,-0.6203460693359375,0.2173309326171875,0.7869720458984375
141602,-0.7133941650390625,0.21795654296875,0.8352813720703125
141603,-0.746856689453125,0.2115020751953125,0.875640869140625
141604,-0.7397918701171875,0.2052764892578125,0.9145355224609376
141605,-0.6998291015625,0.1936798095703125,0.9396209716796876
141606,-0.625946044921875,0.18505859375,0.947479248046875
141607,-0.515625,0.1793060302734375,0.9384613037109376
141608,-0.400390625,0.1829833984375,0.9146270751953124
141609,-0.305511474609375,0.2118988037109375,0.8856048583984375
141610,-0.237701416015625,0.269317626953125,0.8590850830078125
141611,-0.2010345458984375,0.350830078125,0.8277435302734375
141612,-0.1845855712890625,0.4390106201171875,0.80596923828125
141613,-0.1652984619140625,0.5180511474609375,0.7852325439453125
141614,-0.14276123046875,0.567535400390625,0.74346923828125
141615,-0.1260986328125,0.572784423828125,0.7032470703125
141616,-0.1221771240234375,0.55389404296875,0.6676788330078125
141617,-0.1306915283203125,0.54901123046875,0.639923095703125
141618,-0.1514434814453125,0.56695556640625,0.6240692138671875
141619,-0.1817169189453125,0.5838165283203125,0.6188507080078125
141620,-0.2169189453125,0.5928192138671875,0.6420440673828125
141621,-0.2484130859375,0.606048583984375,0.693359375
141622,-0.2734527587890625,0.6328125,0.7460784912109375
141623,-0.2888031005859375,0.6721343994140625,0.7906036376953125
141624,-0.292816162109375,0.7141876220703125,0.8401336669921875
141625,-0.2833709716796875,0.752777099609375,0.889923095703125
141626,-0.2392730712890625,0.7849578857421875,0.95123291015625
141627,-0.1552581787109375,0.796417236328125,1.017745971679688
141628,-0.0389862060546875,0.75689697265625,1.088958740234375
141629,0.09375,0.680633544921875,1.069122314453125
141630,0.2140350341796875,0.6397247314453125,1.022994995117188
141631,0.30718994140625,0.6409149169921875,0.9756317138671876
141632,0.3591461181640625,0.6783447265625,0.943450927734375
141633,0.3675994873046875,0.7474517822265625,0.93310546875
141634,0.37249755859375,0.820770263671875,0.929107666015625
141635,0.3802947998046875,0.854400634765625,0.92156982421875
141636,0.37060546875,0.82440185546875,0.89349365234375
141637,0.338470458984375,0.7590789794921875,0.8513641357421875
141638,0.312774658203125,0.738372802734375,0.8363189697265625
141639,0.2808074951171875,0.734466552734375,0.8345184326171875
141640,0.2397003173828125,0.6639862060546875,0.8425140380859375
141641,0.234375,0.5783843994140625,0.8087615966796875
141642,0.2272186279296875,0.5196380615234375,0.7719268798828125
141643,0.1865997314453125,0.473663330078125,0.7410888671875
141644,0.1100311279296875,0.45709228515625,0.709259033203125
141645,-0.016571044921875,0.464263916015625,0.7200927734375
141646,-0.169036865234375,0.462005615234375,0.7298126220703125
141647,-0.3219757080078125,0.4321746826171875,0.7194366455078125
141648,-0.46929931640625,0.3899993896484375,0.71820068359375
141649,-0.6030731201171875,0.3594207763671875,0.7297210693359375
141650,-0.7121734619140625,0.3538360595703125,0.7458953857421875
141651,-0.790802001953125,0.3519744873046875,0.7511749267578125
141652,-0.819793701171875,0.3277740478515625,0.750823974609375
141653,-0.80218505859375,0.280670166015625,0.73712158203125
141654,-0.7645721435546875,0.237335205078125,0.7223968505859375
141655,-0.721710205078125,0.231414794921875,0.719329833984375
141656,-0.6738739013671875,0.24267578125,0.7346954345703125
141657,-0.6175689697265625,0.2584991455078125,0.7644500732421875
141658,-0.5710296630859375,0.2852935791015625,0.783935546875
141659,-0.5453338623046875,0.3265838623046875,0.790496826171875
141660,-0.5274658203125,0.3858184814453125,0.7985076904296875
141661,-0.4926605224609375,0.44921875,0.8189849853515625
141662,-0.446746826171875,0.5150146484375,0.8391265869140625
141663,-0.3933563232421875,0.5850372314453125,0.8534393310546875
141664,-0.3358001708984375,0.6403961181640625,0.8495330810546875
141665,-0.290313720703125,0.670562744140625,0.85272216796875
141666,-0.2676239013671875,0.6799468994140625,0.862823486328125
141667,-0.25054931640625,0.6772003173828125,0.8894195556640625
141668,-0.22369384765625,0.6729278564453125,0.9111175537109376
141669,-0.1819000244140625,0.6738433837890625,0.9130706787109376
141670,-0.1199493408203125,0.6884307861328125,0.879669189453125
141671,-0.05462646484375,0.673828125,0.829071044921875
141672,0.000885009765625,0.6096649169921875,0.771514892578125
141673,0.0284271240234375,0.532501220703125,0.71795654296875
141674,0.0034027099609375,0.471343994140625,0.691925048828125
141675,-0.06414794921875,0.4379119873046875,0.6967010498046875
141676,-0.1504058837890625,0.4272613525390625,0.7045440673828125
141677,-0.2277679443359375,0.41937255859375,0.70172119140625
141678,-0.2786865234375,0.46514892578125,0.701416015625
141679,-0.28826904296875,0.549285888671875,0.713836669921875
141680,-0.281097412109375,0.6198272705078125,0.75323486328125
141681,-0.2765045166015625,0.654876708984375,0.8099212646484375
141682,-0.2606048583984375,0.689178466796875,0.84088134765625
141683,-0.2161407470703125,0.7507781982421875,0.8366546630859375
141684,-0.1453704833984375,0.808074951171875,0.7970733642578125
141685,-0.0758056640625,0.8384246826171875,0.743011474609375
141686,-0.01544189453125,0.8634185791015625,0.73046875
141687,0.0331573486328125,0.90093994140625,0.7720794677734375
141688,0.074981689453125,0.9587860107421876,0.8586273193359375
141689,0.12066650390625,1.014389038085938,0.975921630859375
141690,0.217926025390625,1.029983520507812,1.008316040039062
141691,0.34765625,1.00396728515625,0.9108428955078124
141692,0.427764892578125,0.9618377685546876,0.7793731689453125
141693,0.407989501953125,0.9112548828125,0.7167205810546875
141694,0.313446044921875,0.88714599609375,0.712493896484375
141695,0.21490478515625,0.90069580078125,0.66082763671875
141696,0.13238525390625,0.888153076171875,0.5775299072265625
141697,0.074554443359375,0.854461669921875,0.5532379150390625
141698,0.0489501953125,0.828887939453125,0.608917236328125
141699,0.0543060302734375,0.79766845703125,0.6850128173828125
141700,0.0860137939453125,0.736572265625,0.7260284423828125
141701,0.110992431640625,0.64813232421875,0.72979736328125
141702,0.0953521728515625,0.573638916015625,0.7114410400390625
141703,0.047821044921875,0.5423431396484375,0.7113189697265625
141704,-0.0150909423828125,0.5257110595703125,0.7204132080078125
141705,-0.0799102783203125,0.4865570068359375,0.71917724609375
141706,-0.144439697265625,0.447113037109375,0.7195587158203125
141707,-0.202606201171875,0.4300994873046875,0.7211456298828125
141708,-0.2519989013671875,0.416839599609375,0.70697021484375
141709,-0.31329345703125,0.3899993896484375,0.6729278564453125
141710,-0.3740997314453125,0.34033203125,0.650909423828125
141711,-0.433563232421875,0.28216552734375,0.6446990966796875
141712,-0.515411376953125,0.24005126953125,0.670074462890625
141713,-0.6262054443359375,0.22210693359375,0.705169677734375
141714,-0.729583740234375,0.2088470458984375,0.7563323974609375
141715,-0.7997589111328125,0.19769287109375,0.8171844482421875
141716,-0.8309783935546875,0.2076416015625,0.8719635009765625
141717,-0.805938720703125,0.2431182861328125,0.922760009765625
141718,-0.725189208984375,0.2724151611328125,0.9620208740234376
141719,-0.625701904296875,0.2775115966796875,0.9658966064453124
141720,-0.52386474609375,0.2717132568359375,0.9471588134765624
141721,-0.4461669921875,0.280517578125,0.915069580078125
141722,-0.399505615234375,0.319610595703125,0.89556884765625
141723,-0.3830108642578125,0.389862060546875,0.8628692626953125
141724,-0.3719024658203125,0.47027587890625,0.8232269287109375
141725,-0.3541412353515625,0.542327880859375,0.7841949462890625
141726,-0.3330078125,0.5782012939453125,0.751068115234375
141727,-0.313079833984375,0.58441162109375,0.72344970703125
141728,-0.2993316650390625,0.594329833984375,0.6857147216796875
141729,-0.278228759765625,0.603363037109375,0.65472412109375
141730,-0.2504730224609375,0.6038818359375,0.6396636962890625
141731,-0.2261962890625,0.607818603515625,0.638671875
141732,-0.212310791015625,0.6108856201171875,0.6633453369140625
141733,-0.1929779052734375,0.6161346435546875,0.7059478759765625
141734,-0.15374755859375,0.6297454833984375,0.723876953125
141735,-0.115142822265625,0.623077392578125,0.7100067138671875
141736,-0.109405517578125,0.6049652099609375,0.713043212890625
141737,-0.1300811767578125,0.598541259765625,0.7764434814453125
141738,-0.1250457763671875,0.604522705078125,0.891937255859375
141739,-0.06500244140625,0.632568359375,1.0107421875
141740,0.033477783203125,0.6782684326171875,1.094161987304688
141741,0.1775360107421875,0.6957244873046875,1.093658447265625
141742,0.3285064697265625,0.6694793701171875,1.019088745117188
141743,0.4241943359375,0.640869140625,0.9610443115234376
141744,0.4463958740234375,0.6447906494140625,0.9417572021484376
141745,0.454559326171875,0.69012451171875,0.9573516845703124
141746,0.470703125,0.7523345947265625,0.957489013671875
141747,0.50286865234375,0.7675018310546875,0.92071533203125
141748,0.5386962890625,0.7320556640625,0.876983642578125
141749,0.5455169677734375,0.6807403564453125,0.8711395263671875
141750,0.5298919677734375,0.637420654296875,0.8928375244140625
141751,0.50128173828125,0.6043853759765625,0.9064788818359376
141752,0.4730987548828125,0.586090087890625,0.916412353515625
141753,0.4392547607421875,0.5783843994140625,0.919342041015625
141754,0.3860015869140625,0.5633087158203125,0.8662567138671875
141755,0.305267333984375,0.5378265380859375,0.8044281005859375
141756,0.17822265625,0.5044708251953125,0.78692626953125
141757,0.0089569091796875,0.4633331298828125,0.7837677001953125
141758,-0.1819305419921875,0.4423828125,0.7642364501953125
141759,-0.3639678955078125,0.4290618896484375,0.749969482421875
141760,-0.535614013671875,0.4197845458984375,0.7211151123046875
141761,-0.6821136474609375,0.423187255859375,0.6962738037109375
141762,-0.7718353271484375,0.4330596923828125,0.66473388671875
141763,-0.7959442138671875,0.4302520751953125,0.6392822265625
141764,-0.7842864990234375,0.4194183349609375,0.63140869140625
141765,-0.76116943359375,0.4119415283203125,0.6380157470703125
141766,-0.7158660888671875,0.4007720947265625,0.6500244140625
141767,-0.6620330810546875,0.3937225341796875,0.6832733154296875
141768,-0.6302337646484375,0.3991851806640625,0.737396240234375
141769,-0.63739013671875,0.4253387451171875,0.786285400390625
141770,-0.683074951171875,0.4655303955078125,0.8411865234375
141771,-0.733428955078125,0.5121612548828125,0.8843994140625
141772,-0.7297210693359375,0.55841064453125,0.8988494873046875
141773,-0.6597442626953125,0.5813140869140625,0.911376953125
141774,-0.562957763671875,0.58319091796875,0.9078826904296876
141775,-0.474151611328125,0.57879638671875,0.898223876953125
141776,-0.40338134765625,0.5644683837890625,0.909637451171875
141777,-0.3549346923828125,0.5480804443359375,0.949249267578125
141778,-0.31683349609375,0.5404510498046875,0.984283447265625
141779,-0.2693023681640625,0.544158935546875,0.9890594482421876
141780,-0.2015838623046875,0.5507049560546875,0.9676361083984376
141781,-0.112518310546875,0.5440673828125,0.9252166748046876
141782,-0.0197296142578125,0.5146636962890625,0.86968994140625
141783,0.0551910400390625,0.4720458984375,0.7968902587890625
141784,0.09930419921875,0.419342041015625,0.73736572265625
141785,0.1106719970703125,0.384368896484375,0.7259674072265625
141786,0.0842437744140625,0.3831634521484375,0.748138427734375
141787,0.0251007080078125,0.41986083984375,0.7752532958984375
141788,-0.0517425537109375,0.480926513671875,0.7763519287109375
141789,-0.112945556640625,0.5326690673828125,0.755950927734375
141790,-0.149566650390625,0.5639495849609375,0.7385711669921875
141791,-0.1799468994140625,0.5748291015625,0.740814208984375
141792,-0.2122955322265625,0.55816650390625,0.7649688720703125
141793,-0.2371826171875,0.5595245361328125,0.7917022705078125
141794,-0.2412261962890625,0.6379241943359375,0.80059814453125
141795,-0.189208984375,0.7296295166015625,0.791168212890625
141796,-0.10870361328125,0.76544189453125,0.7530670166015625
141797,-0.027557373046875,0.7840576171875,0.7128143310546875
141798,0.0491485595703125,0.823394775390625,0.711944580078125
141799,0.098907470703125,0.88189697265625,0.7760009765625
141800,0.11761474609375,0.954803466796875,0.8676300048828125
141801,0.1592254638671875,1.027603149414062,0.9519500732421876
141802,0.2659759521484375,1.051895141601562,0.9453125
141803,0.37115478515625,0.9723968505859376,0.8205108642578125
141804,0.4010772705078125,0.812835693359375,0.6817169189453125
141805,0.34857177734375,0.7110595703125,0.625732421875
141806,0.2553558349609375,0.7017974853515625,0.631072998046875
141807,0.1924285888671875,0.70050048828125,0.6401519775390625
141808,0.1828460693359375,0.6763153076171875,0.6185455322265625
141809,0.1990966796875,0.650177001953125,0.60601806640625
141810,0.184356689453125,0.6141204833984375,0.6330108642578125
141811,0.134979248046875,0.5865020751953125,0.6702728271484375
141812,0.0860595703125,0.5605621337890625,0.70849609375
141813,0.0416717529296875,0.5248565673828125,0.730804443359375
141814,-0.0114898681640625,0.49664306640625,0.72882080078125
141815,-0.072235107421875,0.485931396484375,0.7172393798828125
141816,-0.14764404296875,0.461090087890625,0.715667724609375
141817,-0.2178802490234375,0.4218902587890625,0.7040863037109375
141818,-0.2841949462890625,0.3910369873046875,0.6873321533203125
141819,-0.335784912109375,0.3552398681640625,0.6810150146484375
141820,-0.380523681640625,0.3311920166015625,0.66607666015625
141821,-0.4348907470703125,0.3305511474609375,0.6681671142578125
141822,-0.4917449951171875,0.31512451171875,0.6895904541015625
141823,-0.539703369140625,0.29840087890625,0.7234039306640625
141824,-0.5778350830078125,0.29931640625,0.76458740234375
141825,-0.6168975830078125,0.330596923828125,0.816436767578125
141826,-0.6427154541015625,0.373687744140625,0.88226318359375
141827,-0.64154052734375,0.4007568359375,0.9465789794921876
141828,-0.621368408203125,0.410064697265625,0.99072265625
141829,-0.58929443359375,0.3955535888671875,1.021499633789062
141830,-0.55908203125,0.361053466796875,1.01800537109375
141831,-0.5296478271484375,0.3282470703125,1.00408935546875
141832,-0.502532958984375,0.3140411376953125,0.98126220703125
141833,-0.473968505859375,0.31182861328125,0.9691619873046876
141834,-0.4487457275390625,0.339019775390625,0.9502410888671876
141835,-0.4185638427734375,0.4193115234375,0.91839599609375
141836,-0.3777923583984375,0.52392578125,0.8894805908203125
141837,-0.328826904296875,0.615142822265625,0.8590087890625
141838,-0.2802276611328125,0.6519622802734375,0.82440185546875
141839,-0.244659423828125,0.6269989013671875,0.7796478271484375
141840,-0.2218780517578125,0.5841522216796875,0.7141571044921875
141841,-0.2203521728515625,0.5528106689453125,0.6647491455078125
141842,-0.2448883056640625,0.54559326171875,0.6535797119140625
141843,-0.2871856689453125,0.5577545166015625,0.6645965576171875
141844,-0.31451416015625,0.5643463134765625,0.685638427734375
141845,-0.329193115234375,0.5644073486328125,0.685791015625
141846,-0.34002685546875,0.5701141357421875,0.68658447265625
141847,-0.3464813232421875,0.596527099609375,0.712249755859375
141848,-0.34027099609375,0.6342010498046875,0.7874298095703125
141849,-0.2887420654296875,0.6831512451171875,0.9279632568359376
141850,-0.16693115234375,0.741943359375,1.056747436523438
141851,0.03485107421875,0.7927703857421875,1.089279174804688
141852,0.2678070068359375,0.8076019287109375,0.9718170166015624
141853,0.43084716796875,0.793609619140625,0.8083953857421875
141854,0.47406005859375,0.8039398193359375,0.7778778076171875
141855,0.4867401123046875,0.86785888671875,0.844146728515625
141856,0.5504913330078125,0.95648193359375,0.8978424072265625
141857,0.634033203125,1.005722045898438,0.8951416015625
141858,0.6895904541015625,1.004287719726562,0.871185302734375
141859,0.6826019287109375,0.9425506591796876,0.8616180419921875
141860,0.6307373046875,0.8614044189453125,0.841888427734375
141861,0.566864013671875,0.81170654296875,0.8033905029296875
141862,0.49652099609375,0.7765045166015625,0.7514190673828125
141863,0.4347991943359375,0.7349853515625,0.70587158203125
141864,0.3679351806640625,0.671142578125,0.6651458740234375
141865,0.28106689453125,0.612274169921875,0.624359130859375
141866,0.177490234375,0.5780181884765625,0.6133270263671875
141867,0.0621795654296875,0.56329345703125,0.6383209228515625
141868,-0.04718017578125,0.5414581298828125,0.65264892578125
141869,-0.141845703125,0.49273681640625,0.6555633544921875
141870,-0.2282562255859375,0.43798828125,0.6580047607421875
141871,-0.3268890380859375,0.3980712890625,0.672698974609375
141872,-0.45147705078125,0.3738555908203125,0.6689453125
141873,-0.5884552001953125,0.35498046875,0.6483154296875
141874,-0.707489013671875,0.33489990234375,0.6229400634765625
141875,-0.7880706787109375,0.317779541015625,0.61785888671875
141876,-0.812591552734375,0.3180389404296875,0.658905029296875
141877,-0.783233642578125,0.33209228515625,0.725250244140625
141878,-0.719879150390625,0.356964111328125,0.76446533203125
141879,-0.6475982666015625,0.366973876953125,0.7800140380859375
141880,-0.6003570556640625,0.3770294189453125,0.7744293212890625
141881,-0.59515380859375,0.421844482421875,0.7681732177734375
141882,-0.6163177490234375,0.491546630859375,0.7928009033203125
141883,-0.6055908203125,0.56884765625,0.8323822021484375
141884,-0.53155517578125,0.6288909912109375,0.8576812744140625
141885,-0.4059295654296875,0.65960693359375,0.8713531494140625
141886,-0.2775421142578125,0.6723480224609375,0.87078857421875
141887,-0.183441162109375,0.6680755615234375,0.8736724853515625
141888,-0.11700439453125,0.6476287841796875,0.8869781494140625
141889,-0.0671844482421875,0.6397247314453125,0.911651611328125
141890,-0.0137939453125,0.66583251953125,0.9381561279296876
141891,0.038848876953125,0.69244384765625,0.9430694580078124
141892,0.067962646484375,0.694488525390625,0.933624267578125
141893,0.0757598876953125,0.6876373291015625,0.906463623046875
141894,0.0652313232421875,0.64520263671875,0.8570404052734375
141895,0.037109375,0.566070556640625,0.7881622314453125
141896,-0.000732421875,0.4992828369140625,0.725067138671875
141897,-0.0484161376953125,0.457916259765625,0.697479248046875
141898,-0.1053924560546875,0.4181365966796875,0.703460693359375
141899,-0.159820556640625,0.39727783203125,0.7228546142578125
141900,-0.2072601318359375,0.418487548828125,0.7606048583984375
141901,-0.2289886474609375,0.4692230224609375,0.7983245849609375
141902,-0.2107086181640625,0.5401611328125,0.834503173828125
141903,-0.1691436767578125,0.6026763916015625,0.8652801513671875
141904,-0.133148193359375,0.6450653076171875,0.8684844970703125
141905,-0.1353912353515625,0.6864776611328125,0.847137451171875
141906,-0.1804046630859375,0.741851806640625,0.7837066650390625
141907,-0.2236175537109375,0.7432098388671875,0.71240234375
141908,-0.2140655517578125,0.7323150634765625,0.6493072509765625
141909,-0.174407958984375,0.76348876953125,0.6237945556640625
141910,-0.1387939453125,0.848541259765625,0.6757965087890625
141911,-0.0842132568359375,0.9734954833984376,0.7729339599609375
141912,0.012542724609375,1.1009521484375,0.8719024658203125
141913,0.13665771484375,1.18682861328125,0.8947906494140625
141914,0.2548828125,1.181198120117188,0.840911865234375
141915,0.3426361083984375,1.066619873046875,0.733673095703125
141916,0.3459014892578125,0.9189605712890624,0.6025543212890625
141917,0.2900848388671875,0.8217926025390625,0.509674072265625
141918,0.250885009765625,0.7848052978515625,0.4688262939453125
141919,0.2591705322265625,0.7779693603515625,0.4584808349609375
141920,0.311859130859375,0.77490234375,0.4800262451171875
141921,0.36285400390625,0.7726287841796875,0.5114288330078125
141922,0.3660888671875,0.7916259765625,0.572265625
141923,0.2939910888671875,0.7952117919921875,0.6293792724609375
141924,0.150665283203125,0.774505615234375,0.677581787109375
141925,-0.008941650390625,0.7057037353515625,0.690338134765625
141926,-0.135284423828125,0.6356658935546875,0.692138671875
141927,-0.2322540283203125,0.5804443359375,0.6785125732421875
141928,-0.299285888671875,0.5239410400390625,0.66552734375
141929,-0.3473968505859375,0.462554931640625,0.624755859375
141930,-0.3632659912109375,0.4053192138671875,0.6046142578125
141931,-0.3530426025390625,0.362701416015625,0.5952606201171875
141932,-0.32037353515625,0.34942626953125,0.6014862060546875
141933,-0.2828826904296875,0.359893798828125,0.629791259765625
141934,-0.2769622802734375,0.379638671875,0.6526947021484375
141935,-0.3092041015625,0.40899658203125,0.6849365234375
141936,-0.3486328125,0.443359375,0.730682373046875
141937,-0.3721466064453125,0.481475830078125,0.7700347900390625
141938,-0.3758544921875,0.522247314453125,0.8018951416015625
141939,-0.3626708984375,0.572784423828125,0.8206024169921875
141940,-0.3370208740234375,0.629180908203125,0.855438232421875
141941,-0.3027496337890625,0.6814117431640625,0.9011993408203124
141942,-0.286224365234375,0.7186737060546875,0.9387359619140624
141943,-0.3040924072265625,0.7397308349609375,0.9595947265625
141944,-0.3265228271484375,0.733062744140625,0.9605712890625
