time_idx,accelerometerAccelerationX(G),accelerometerAccelerationY(G),accelerometerAccelerationZ(G)
240000,0.3053741455078125,0.663116455078125,0.681549072265625
240001,0.27239990234375,0.6665802001953125,0.67138671875
240002,0.193572998046875,0.69281005859375,0.7293701171875
240003,0.1063995361328125,0.7398681640625,0.78570556640625
240004,0.042083740234375,0.79833984375,0.813201904296875
240005,0.02325439453125,0.859161376953125,0.85247802734375
240006,0.0438079833984375,0.91363525390625,0.895751953125
240007,0.0882720947265625,0.950531005859375,0.89996337890625
240008,0.1427001953125,0.9375457763671876,0.836700439453125
240009,0.1860198974609375,0.87750244140625,0.7425689697265625
240010,0.203643798828125,0.7711334228515625,0.6344146728515625
240011,0.17205810546875,0.69677734375,0.5610504150390625
240012,0.096343994140625,0.687744140625,0.565582275390625
240013,0.0354156494140625,0.6408233642578125,0.616424560546875
240014,0.0097503662109375,0.59686279296875,0.67047119140625
240015,0.00396728515625,0.574920654296875,0.7071380615234375
240016,-0.006256103515625,0.577423095703125,0.749664306640625
240017,-0.0384063720703125,0.5808258056640625,0.7806549072265625
240018,-0.1011199951171875,0.57318115234375,0.7913360595703125
240019,-0.1871337890625,0.5559539794921875,0.8049774169921875
240020,-0.2770233154296875,0.5319366455078125,0.8252410888671875
240021,-0.3522491455078125,0.5175628662109375,0.8336944580078125
240022,-0.4095458984375,0.497161865234375,0.8293609619140625
240023,-0.449798583984375,0.488983154296875,0.82867431640625
240024,-0.4676055908203125,0.482666015625,0.8435821533203125
240025,-0.4941558837890625,0.4625701904296875,0.8655242919921875
240026,-0.5404205322265625,0.430450439453125,0.924285888671875
240027,-0.5944976806640625,0.4128875732421875,0.9837188720703124
240028,-0.6176300048828125,0.4114990234375,1.048904418945312
240029,-0.6009521484375,0.3963775634765625,1.086776733398438
240030,-0.545257568359375,0.3632659912109375,1.096939086914062
240031,-0.4670562744140625,0.318695068359375,1.075973510742188
240032,-0.3750762939453125,0.2919921875,1.050460815429688
240033,-0.29034423828125,0.291473388671875,1.0203857421875
240034,-0.2303924560546875,0.32843017578125,0.9710540771484376
240035,-0.202850341796875,0.38641357421875,0.9319610595703124
240036,-0.192840576171875,0.465606689453125,0.900970458984375
240037,-0.1998138427734375,0.5454559326171875,0.8917694091796875
240038,-0.2230377197265625,0.6100616455078125,0.9040374755859376
240039,-0.247833251953125,0.649658203125,0.9034423828125
240040,-0.2680511474609375,0.6717376708984375,0.8840789794921875
240041,-0.282989501953125,0.67388916015625,0.86199951171875
240042,-0.29290771484375,0.66802978515625,0.8419647216796875
240043,-0.2926788330078125,0.6825714111328125,0.8050079345703125
240044,-0.25299072265625,0.6906585693359375,0.7629241943359375
240045,-0.1996612548828125,0.6703338623046875,0.7069854736328125
240046,-0.1508331298828125,0.6216583251953125,0.6643218994140625
240047,-0.1339263916015625,0.54010009765625,0.61541748046875
240048,-0.1616363525390625,0.47174072265625,0.5680084228515625
240049,-0.2164306640625,0.4429473876953125,0.53460693359375
240050,-0.2566375732421875,0.4617156982421875,0.4941864013671875
240051,-0.279449462890625,0.45721435546875,0.4837493896484375
240052,-0.2906951904296875,0.4194183349609375,0.497344970703125
240053,-0.2949066162109375,0.404266357421875,0.505859375
240054,-0.3022003173828125,0.418548583984375,0.5161285400390625
240055,-0.3013763427734375,0.4469146728515625,0.531585693359375
240056,-0.2904052734375,0.4748992919921875,0.5597381591796875
240057,-0.2847442626953125,0.50787353515625,0.591064453125
240058,-0.2791748046875,0.544281005859375,0.6364288330078125
240059,-0.245880126953125,0.5966033935546875,0.6888427734375
240060,-0.171356201171875,0.65997314453125,0.73760986328125
240061,-0.0696563720703125,0.724761962890625,0.8022003173828125
240062,0.0557861328125,0.7894439697265625,0.8821868896484375
240063,0.1881561279296875,0.8645477294921875,0.9368896484375
240064,0.2775726318359375,0.942626953125,0.949462890625
240065,0.3226470947265625,1.002456665039062,0.9404754638671876
240066,0.35833740234375,1.015060424804688,0.8990631103515625
240067,0.3934478759765625,0.9913787841796876,0.850982666015625
240068,0.407440185546875,0.96563720703125,0.7896728515625
240069,0.39019775390625,0.914642333984375,0.75152587890625
240070,0.322113037109375,0.7782135009765625,0.7505950927734375
240071,0.24737548828125,0.6482391357421875,0.7480316162109375
240072,0.214080810546875,0.61376953125,0.75543212890625
240073,0.190643310546875,0.6212615966796875,0.799346923828125
240074,0.147674560546875,0.6276702880859375,0.833099365234375
240075,0.0831298828125,0.605377197265625,0.8543243408203125
240076,-0.017669677734375,0.55670166015625,0.8549652099609375
240077,-0.1414642333984375,0.5122833251953125,0.843994140625
240078,-0.272674560546875,0.5240020751953125,0.849090576171875
240079,-0.372283935546875,0.5434722900390625,0.837127685546875
240080,-0.3977508544921875,0.53985595703125,0.8349456787109375
240081,-0.4004364013671875,0.5079498291015625,0.8482666015625
240082,-0.448028564453125,0.46630859375,0.8601531982421875
240083,-0.5478515625,0.4495849609375,0.85546875
240084,-0.6746673583984375,0.4580841064453125,0.8715972900390625
240085,-0.7706146240234375,0.4864044189453125,0.923309326171875
240086,-0.7966766357421875,0.5194854736328125,0.9963226318359376
240087,-0.7468414306640625,0.5404052734375,1.0509033203125
240088,-0.6530609130859375,0.52752685546875,1.046112060546875
240089,-0.5570831298828125,0.521240234375,0.977996826171875
240090,-0.512115478515625,0.5285797119140625,0.901611328125
240091,-0.528900146484375,0.533843994140625,0.8488311767578125
240092,-0.543975830078125,0.546295166015625,0.8361053466796875
240093,-0.5040130615234375,0.5536956787109375,0.8609466552734375
240094,-0.4141082763671875,0.544036865234375,0.91119384765625
240095,-0.3130340576171875,0.5140533447265625,0.9409027099609376
240096,-0.23406982421875,0.4725341796875,0.945556640625
240097,-0.1917572021484375,0.4336700439453125,0.9396209716796876
240098,-0.1779327392578125,0.412841796875,0.9137420654296876
240099,-0.201995849609375,0.3987884521484375,0.8469085693359375
240100,-0.2275238037109375,0.3882904052734375,0.763153076171875
240101,-0.232421875,0.3745880126953125,0.6941070556640625
240102,-0.2178192138671875,0.36212158203125,0.682861328125
240103,-0.2019195556640625,0.3383941650390625,0.6947021484375
240104,-0.1642608642578125,0.3184814453125,0.7313385009765625
240105,-0.11273193359375,0.3085174560546875,0.7886962890625
240106,-0.0726165771484375,0.3196258544921875,0.8221282958984375
240107,-0.052703857421875,0.3514862060546875,0.8264923095703125
240108,-0.0345306396484375,0.38641357421875,0.820068359375
240109,-0.0078277587890625,0.4151763916015625,0.7865753173828125
240110,0.010009765625,0.4570465087890625,0.74017333984375
240111,0.017578125,0.4951171875,0.6952056884765625
240112,0.022247314453125,0.5229644775390625,0.6697540283203125
240113,0.023651123046875,0.5708160400390625,0.6564178466796875
240114,0.0355987548828125,0.61767578125,0.635986328125
240115,0.0503997802734375,0.6256561279296875,0.6206207275390625
240116,0.0619964599609375,0.6260223388671875,0.5996551513671875
240117,0.0657806396484375,0.650726318359375,0.5900115966796875
240118,0.0558013916015625,0.715240478515625,0.63165283203125
240119,0.0378570556640625,0.80133056640625,0.694732666015625
240120,0.01739501953125,0.884490966796875,0.7321624755859375
240121,0.0373077392578125,0.955291748046875,0.7648162841796875
240122,0.1046905517578125,1.000350952148438,0.795196533203125
240123,0.2082977294921875,0.9769744873046876,0.8312530517578125
240124,0.31195068359375,0.9450836181640624,0.76141357421875
240125,0.3701324462890625,0.9291534423828124,0.63433837890625
240126,0.364837646484375,0.907440185546875,0.548828125
240127,0.3143157958984375,0.847808837890625,0.5199737548828125
240128,0.2052459716796875,0.7680206298828125,0.5389556884765625
240129,0.0272064208984375,0.8352203369140625,0.428955078125
240130,-0.103363037109375,0.7779693603515625,0.617340087890625
240131,-0.0747222900390625,0.6376190185546875,0.8648223876953125
240132,-0.033050537109375,0.68817138671875,0.8065643310546875
240133,0.0078887939453125,0.721038818359375,0.83001708984375
240134,-0.0431365966796875,0.720672607421875,0.8193511962890625
240135,-0.151641845703125,0.645965576171875,0.7847900390625
240136,-0.240478515625,0.55224609375,0.7304534912109375
240137,-0.2978515625,0.5247344970703125,0.7022705078125
240138,-0.3405303955078125,0.49481201171875,0.744903564453125
240139,-0.38507080078125,0.4270477294921875,0.7959442138671875
240140,-0.4343719482421875,0.35333251953125,0.818603515625
240141,-0.501251220703125,0.31097412109375,0.837890625
240142,-0.581268310546875,0.2863922119140625,0.8761749267578125
240143,-0.6427001953125,0.2803192138671875,0.9234771728515624
240144,-0.6915130615234375,0.2974853515625,0.9502410888671876
240145,-0.7118072509765625,0.3054046630859375,0.99005126953125
240146,-0.6553192138671875,0.30413818359375,1.018463134765625
240147,-0.51983642578125,0.3133087158203125,1.028121948242188
240148,-0.36944580078125,0.33160400390625,1.0506591796875
240149,-0.253173828125,0.3954925537109375,1.069183349609375
240150,-0.201202392578125,0.497314453125,1.035430908203125
240151,-0.221466064453125,0.6052703857421875,0.9952392578125
240152,-0.2890625,0.6722412109375,0.9622802734375
240153,-0.3548431396484375,0.69549560546875,0.91796875
240154,-0.3831329345703125,0.6893157958984375,0.8725128173828125
240155,-0.375946044921875,0.6743927001953125,0.8568878173828125
240156,-0.34228515625,0.662994384765625,0.845977783203125
240157,-0.2898712158203125,0.655029296875,0.8093414306640625
240158,-0.2373504638671875,0.628082275390625,0.7687835693359375
240159,-0.196929931640625,0.600555419921875,0.7670745849609375
240160,-0.1806182861328125,0.558502197265625,0.764801025390625
240161,-0.186309814453125,0.4979400634765625,0.7018280029296875
240162,-0.2105712890625,0.4401702880859375,0.6568603515625
240163,-0.25811767578125,0.4032745361328125,0.619384765625
240164,-0.2993927001953125,0.3618316650390625,0.573760986328125
240165,-0.312896728515625,0.3558807373046875,0.576751708984375
240166,-0.3162689208984375,0.361907958984375,0.59716796875
240167,-0.311248779296875,0.3595123291015625,0.5833892822265625
240168,-0.3037872314453125,0.3632965087890625,0.5344390869140625
240169,-0.308319091796875,0.3767852783203125,0.5110015869140625
240170,-0.2950439453125,0.3991546630859375,0.5790557861328125
240171,-0.24462890625,0.4384918212890625,0.6710968017578125
240172,-0.13458251953125,0.4946746826171875,0.7870025634765625
240173,0.0283660888671875,0.5546112060546875,0.915069580078125
240174,0.1963043212890625,0.6382904052734375,1.009475708007812
240175,0.346466064453125,0.725921630859375,0.9811553955078124
240176,0.4798126220703125,0.82080078125,0.8631591796875
240177,0.6180419921875,0.942352294921875,0.8119964599609375
240178,0.7490234375,1.04840087890625,0.820831298828125
240179,0.8264007568359375,1.123809814453125,0.7919158935546875
240180,0.817596435546875,1.113052368164062,0.7738494873046875
240181,0.6755523681640625,1.072845458984375,0.790435791015625
240182,0.472381591796875,0.9521484375,0.80804443359375
240183,0.2431793212890625,0.767364501953125,0.786895751953125
240184,0.070770263671875,0.6546478271484375,0.758087158203125
240185,0.00323486328125,0.6300811767578125,0.7466888427734375
240186,0.031097412109375,0.602996826171875,0.7761688232421875
240187,0.1244354248046875,0.57861328125,0.8171844482421875
240188,0.213165283203125,0.5669708251953125,0.822967529296875
240189,0.2664947509765625,0.5512237548828125,0.7986907958984375
240190,0.258209228515625,0.5130462646484375,0.757720947265625
240191,0.18463134765625,0.4558563232421875,0.7435455322265625
240192,0.065277099609375,0.40283203125,0.76617431640625
240193,-0.056396484375,0.403228759765625,0.780029296875
240194,-0.1563873291015625,0.4093017578125,0.76873779296875
240195,-0.2499847412109375,0.38983154296875,0.754974365234375
240196,-0.3043670654296875,0.3647918701171875,0.770172119140625
240197,-0.3305206298828125,0.3553009033203125,0.79107666015625
240198,-0.3528900146484375,0.375640869140625,0.812255859375
240199,-0.361602783203125,0.4038238525390625,0.8239288330078125
240200,-0.356781005859375,0.4351959228515625,0.8488922119140625
240201,-0.341094970703125,0.49566650390625,0.90667724609375
240202,-0.3237762451171875,0.567138671875,0.9725341796875
240203,-0.3043670654296875,0.65069580078125,1.025100708007812
240204,-0.2837066650390625,0.7276611328125,1.01800537109375
240205,-0.24884033203125,0.7610626220703125,0.9760894775390624
240206,-0.2278900146484375,0.758575439453125,0.9715576171875
240207,-0.246551513671875,0.76409912109375,1.009780883789062
240208,-0.2483673095703125,0.77386474609375,1.021392822265625
240209,-0.1968231201171875,0.767669677734375,1.00286865234375
240210,-0.13287353515625,0.74298095703125,0.974151611328125
240211,-0.0824737548828125,0.691680908203125,0.9376220703125
240212,-0.0487823486328125,0.636627197265625,0.9022369384765624
240213,-0.032501220703125,0.5906524658203125,0.8869171142578125
240214,-0.0238189697265625,0.5579986572265625,0.86572265625
240215,-0.05096435546875,0.5079345703125,0.8316497802734375
240216,-0.0922698974609375,0.4438629150390625,0.808837890625
240217,-0.1457977294921875,0.401123046875,0.7661590576171875
240218,-0.2046051025390625,0.391082763671875,0.7334136962890625
240219,-0.2469940185546875,0.3971099853515625,0.7136077880859375
240220,-0.2667999267578125,0.410064697265625,0.7069549560546875
240221,-0.2618865966796875,0.42938232421875,0.70172119140625
240222,-0.2252349853515625,0.47357177734375,0.692230224609375
240223,-0.159393310546875,0.52001953125,0.6759490966796875
240224,-0.0889434814453125,0.531005859375,0.655364990234375
240225,-0.030792236328125,0.5229339599609375,0.627655029296875
240226,0.0129547119140625,0.54376220703125,0.58477783203125
240227,0.0337371826171875,0.611083984375,0.54632568359375
240228,0.0689849853515625,0.6710052490234375,0.550384521484375
240229,0.1219482421875,0.7261505126953125,0.5399322509765625
240230,0.1768646240234375,0.8107147216796875,0.59967041015625
240231,0.234375,0.9244842529296876,0.7230072021484375
240232,0.3401031494140625,1.04205322265625,0.8037567138671875
240233,0.5017547607421875,1.120956420898438,0.826263427734375
240234,0.64068603515625,1.126693725585938,0.802520751953125
240235,0.6594390869140625,1.07110595703125,0.709564208984375
240236,0.5580902099609375,0.994476318359375,0.61334228515625
240237,0.3962554931640625,0.9301910400390624,0.557373046875
240238,0.2269439697265625,0.8681182861328125,0.527099609375
240239,0.09716796875,0.8007354736328125,0.526336669921875
240240,0.018829345703125,0.7315826416015625,0.5534515380859375
240241,-0.02978515625,0.6896514892578125,0.6091766357421875
240242,-0.051361083984375,0.6735992431640625,0.68988037109375
240243,-0.035552978515625,0.65716552734375,0.76171875
240244,-0.003662109375,0.6313323974609375,0.782867431640625
240245,0.039093017578125,0.576080322265625,0.7454833984375
240246,0.0692596435546875,0.505462646484375,0.681854248046875
240247,0.037994384765625,0.457763671875,0.6285552978515625
240248,-0.0463409423828125,0.4135284423828125,0.6351470947265625
240249,-0.1200714111328125,0.391998291015625,0.682525634765625
240250,-0.1697540283203125,0.3861541748046875,0.7355194091796875
240251,-0.1957550048828125,0.3796539306640625,0.7697906494140625
240252,-0.214508056640625,0.35455322265625,0.7798919677734375
240253,-0.2487945556640625,0.3345947265625,0.7801666259765625
240254,-0.295501708984375,0.3279876708984375,0.7919769287109375
240255,-0.3392181396484375,0.3351593017578125,0.8119049072265625
240256,-0.363067626953125,0.3436431884765625,0.8409271240234375
240257,-0.352447509765625,0.3529510498046875,0.893096923828125
240258,-0.30194091796875,0.3669891357421875,0.9642181396484376
240259,-0.25128173828125,0.3938751220703125,1.035140991210938
240260,-0.231414794921875,0.43560791015625,1.075363159179688
240261,-0.2462158203125,0.4869384765625,1.087905883789062
240262,-0.27001953125,0.53033447265625,1.074172973632812
240263,-0.285003662109375,0.5553436279296875,1.065109252929688
240264,-0.2969512939453125,0.5873565673828125,1.045333862304688
240265,-0.3078765869140625,0.62908935546875,1.023941040039062
240266,-0.319732666015625,0.6643524169921875,1.0032958984375
240267,-0.3286895751953125,0.661651611328125,0.993682861328125
240268,-0.33465576171875,0.64300537109375,0.970611572265625
240269,-0.323974609375,0.63189697265625,0.9312591552734376
240270,-0.2973175048828125,0.6428680419921875,0.880828857421875
240271,-0.28985595703125,0.651641845703125,0.7964935302734375
240272,-0.3058929443359375,0.643890380859375,0.709381103515625
240273,-0.340972900390625,0.6194305419921875,0.6259002685546875
240274,-0.3978729248046875,0.587005615234375,0.5735626220703125
240275,-0.4520111083984375,0.5545806884765625,0.5437469482421875
240276,-0.48968505859375,0.529815673828125,0.5232696533203125
240277,-0.4803314208984375,0.52239990234375,0.5324554443359375
240278,-0.449310302734375,0.5160675048828125,0.5398406982421875
240279,-0.4132232666015625,0.5189361572265625,0.5466461181640625
240280,-0.38323974609375,0.5207672119140625,0.5489654541015625
240281,-0.353546142578125,0.51422119140625,0.5611114501953125
240282,-0.31689453125,0.5100555419921875,0.5920562744140625
240283,-0.2721405029296875,0.5337677001953125,0.6161651611328125
240284,-0.211669921875,0.570526123046875,0.6439361572265625
240285,-0.1434173583984375,0.6136474609375,0.66876220703125
240286,-0.0464324951171875,0.690704345703125,0.7124786376953125
240287,0.0701141357421875,0.7717742919921875,0.8027191162109375
240288,0.1644287109375,0.843353271484375,0.8808746337890625
240289,0.2761077880859375,0.9243011474609376,0.8799591064453125
240290,0.4312744140625,0.999603271484375,0.825897216796875
240291,0.591064453125,1.033294677734375,0.786468505859375
240292,0.7175750732421875,1.0714111328125,0.7467041015625
240293,0.8241729736328125,1.061599731445312,0.7472381591796875
240294,0.8682861328125,0.990570068359375,0.7701416015625
240295,0.824676513671875,0.903045654296875,0.7515411376953125
240296,0.7234954833984375,0.814788818359375,0.6974945068359375
240297,0.604248046875,0.790191650390625,0.7024993896484375
240298,0.4825439453125,0.753387451171875,0.73333740234375
240299,0.3461761474609375,0.67724609375,0.7696685791015625
240300,0.2126617431640625,0.601806640625,0.8032684326171875
240301,0.07684326171875,0.560333251953125,0.81915283203125
240302,-0.0964813232421875,0.532012939453125,0.808319091796875
240303,-0.2754364013671875,0.515838623046875,0.7599029541015625
240304,-0.4053192138671875,0.476837158203125,0.753204345703125
240305,-0.4541778564453125,0.451171875,0.7544097900390625
240306,-0.4395751953125,0.4458770751953125,0.7574920654296875
240307,-0.4051513671875,0.441802978515625,0.772369384765625
240308,-0.4066009521484375,0.4400787353515625,0.7881622314453125
240309,-0.4720611572265625,0.4464569091796875,0.8010711669921875
240310,-0.5875701904296875,0.458160400390625,0.8077392578125
240311,-0.692169189453125,0.4754486083984375,0.799102783203125
240312,-0.74530029296875,0.5225982666015625,0.79620361328125
240313,-0.7279815673828125,0.59527587890625,0.8321533203125
240314,-0.6357574462890625,0.655548095703125,0.8875274658203125
240315,-0.50634765625,0.6839447021484375,0.9257049560546876
240316,-0.4059295654296875,0.6921844482421875,0.95770263671875
240317,-0.3415985107421875,0.711273193359375,0.9947357177734376
240318,-0.3137359619140625,0.7102508544921875,0.99957275390625
240319,-0.3149261474609375,0.6806793212890625,0.977752685546875
240320,-0.331756591796875,0.631683349609375,0.9683380126953124
240321,-0.32318115234375,0.5851287841796875,0.9788360595703124
240322,-0.286895751953125,0.5594329833984375,0.9976959228515624
240323,-0.2261962890625,0.5512542724609375,0.990386962890625
240324,-0.1510162353515625,0.563629150390625,0.944366455078125
240325,-0.0912628173828125,0.56732177734375,0.90234375
240326,-0.0489349365234375,0.508331298828125,0.8505859375
240327,-0.0351104736328125,0.44244384765625,0.7924041748046875
240328,-0.064544677734375,0.3942413330078125,0.7469024658203125
240329,-0.11761474609375,0.3488006591796875,0.726165771484375
240330,-0.181854248046875,0.321533203125,0.705108642578125
240331,-0.2415008544921875,0.326202392578125,0.702484130859375
240332,-0.278167724609375,0.3538360595703125,0.71588134765625
240333,-0.2579345703125,0.3750152587890625,0.72344970703125
240334,-0.1843719482421875,0.388702392578125,0.7075653076171875
240335,-0.090087890625,0.3948516845703125,0.687225341796875
240336,0.0028839111328125,0.4247894287109375,0.67584228515625
240337,0.080596923828125,0.5012054443359375,0.667694091796875
240338,0.13623046875,0.5958404541015625,0.6624755859375
240339,0.163818359375,0.6461029052734375,0.626708984375
240340,0.155059814453125,0.6369171142578125,0.53851318359375
240341,0.1191253662109375,0.621612548828125,0.4676055908203125
240342,0.0751190185546875,0.658111572265625,0.443115234375
240343,0.0355377197265625,0.736541748046875,0.4790496826171875
240344,-0.0073394775390625,0.8343048095703125,0.544677734375
240345,-0.020477294921875,0.9379119873046876,0.609375
240346,0.0260009765625,1.038299560546875,0.679443359375
240347,0.1215972900390625,1.103958129882812,0.7232818603515625
240348,0.224212646484375,1.084457397460938,0.740570068359375
240349,0.294769287109375,1.004409790039062,0.7154693603515625
240350,0.294952392578125,0.94189453125,0.65228271484375
240351,0.238800048828125,0.889556884765625,0.5980987548828125
240352,0.1799468994140625,0.80023193359375,0.5618438720703125
240353,0.134979248046875,0.7353057861328125,0.5780487060546875
240354,0.0859375,0.6829376220703125,0.6131134033203125
240355,0.0425262451171875,0.647491455078125,0.6645355224609375
240356,0.0117645263671875,0.6510009765625,0.7144927978515625
240357,-0.0189056396484375,0.652008056640625,0.746551513671875
240358,-0.0807952880859375,0.65887451171875,0.7462310791015625
240359,-0.1576080322265625,0.6729888916015625,0.7591094970703125
240360,-0.22259521484375,0.669342041015625,0.7628021240234375
240361,-0.2761688232421875,0.65325927734375,0.729095458984375
240362,-0.3157958984375,0.617095947265625,0.6823272705078125
240363,-0.35968017578125,0.59661865234375,0.6403961181640625
240364,-0.42059326171875,0.588470458984375,0.6122894287109375
240365,-0.483123779296875,0.6021728515625,0.6048431396484375
240366,-0.53985595703125,0.59991455078125,0.63665771484375
240367,-0.599517822265625,0.60516357421875,0.6703033447265625
240368,-0.648529052734375,0.6174774169921875,0.706298828125
240369,-0.6896820068359375,0.618438720703125,0.7553253173828125
240370,-0.705169677734375,0.6052093505859375,0.820770263671875
240371,-0.6863861083984375,0.5756072998046875,0.9141082763671876
240372,-0.6106109619140625,0.5347442626953125,0.9923553466796876
240373,-0.527008056640625,0.5129547119140625,1.037033081054688
240374,-0.4758148193359375,0.5243072509765625,1.039306640625
240375,-0.44134521484375,0.5632171630859375,0.99981689453125
240376,-0.401458740234375,0.634765625,0.9471588134765624
240377,-0.3462982177734375,0.6658477783203125,0.9167938232421876
240378,-0.307830810546875,0.6555328369140625,0.877655029296875
240379,-0.3126373291015625,0.6417236328125,0.826812744140625
240380,-0.365875244140625,0.6494293212890625,0.7700347900390625
240381,-0.4450531005859375,0.6766204833984375,0.7305755615234375
240382,-0.486541748046875,0.6874847412109375,0.71820068359375
240383,-0.453399658203125,0.6759796142578125,0.7284088134765625
240384,-0.3652496337890625,0.6644134521484375,0.7250213623046875
240385,-0.2526702880859375,0.665069580078125,0.6993255615234375
240386,-0.14202880859375,0.680694580078125,0.670501708984375
240387,-0.0629425048828125,0.6918487548828125,0.6320037841796875
240388,-0.0337677001953125,0.6647186279296875,0.5922698974609375
240389,-0.0473480224609375,0.6027679443359375,0.547088623046875
240390,-0.079986572265625,0.5276336669921875,0.4857940673828125
240391,-0.1179046630859375,0.4644927978515625,0.4503936767578125
240392,-0.1514739990234375,0.4390411376953125,0.4600982666015625
240393,-0.1739501953125,0.4542083740234375,0.50421142578125
240394,-0.1827545166015625,0.4825897216796875,0.530792236328125
240395,-0.2067718505859375,0.4968109130859375,0.553558349609375
240396,-0.2545166015625,0.490753173828125,0.59283447265625
240397,-0.3055572509765625,0.49688720703125,0.6179962158203125
240398,-0.3303985595703125,0.5270843505859375,0.633087158203125
240399,-0.3057708740234375,0.5825653076171875,0.619598388671875
240400,-0.3355560302734375,0.6329345703125,0.6037750244140625
240401,-0.3404388427734375,0.69964599609375,0.6711578369140625
240402,-0.2647705078125,0.8008270263671875,0.7407684326171875
240403,-0.16033935546875,0.8973388671875,0.8458404541015625
240404,-0.034210205078125,0.9622039794921876,0.9143829345703124
240405,0.100311279296875,1.008834838867188,0.9280242919921876
240406,0.239044189453125,1.0418701171875,0.913970947265625
240407,0.36468505859375,1.021133422851562,0.8792266845703125
240408,0.4610443115234375,0.964111328125,0.8307952880859375
240409,0.5004425048828125,0.8797760009765625,0.78955078125
240410,0.4607696533203125,0.7890167236328125,0.7993316650390625
240411,0.3687896728515625,0.7236785888671875,0.815643310546875
240412,0.3142242431640625,0.682220458984375,0.81732177734375
240413,0.285064697265625,0.6607208251953125,0.8302459716796875
240414,0.2572174072265625,0.6391754150390625,0.8566131591796875
240415,0.197418212890625,0.62109375,0.8826446533203125
240416,0.112152099609375,0.6180267333984375,0.8939666748046875
240417,0.018524169921875,0.619110107421875,0.8705596923828125
240418,-0.0697021484375,0.5868072509765625,0.8068695068359375
240419,-0.1470794677734375,0.5403289794921875,0.7529449462890625
240420,-0.2071075439453125,0.4993438720703125,0.7323150634765625
240421,-0.257080078125,0.48095703125,0.7274322509765625
240422,-0.3145294189453125,0.4903564453125,0.74566650390625
240423,-0.3828277587890625,0.5034332275390625,0.7722320556640625
240424,-0.45062255859375,0.519256591796875,0.787384033203125
240425,-0.4980316162109375,0.5379180908203125,0.8007049560546875
240426,-0.5414276123046875,0.54913330078125,0.842010498046875
240427,-0.599945068359375,0.5652313232421875,0.8959503173828125
240428,-0.64434814453125,0.5818328857421875,0.9281005859375
240429,-0.649200439453125,0.5921478271484375,0.9191436767578124
240430,-0.619232177734375,0.59600830078125,0.87872314453125
240431,-0.58245849609375,0.587158203125,0.8540191650390625
240432,-0.5531005859375,0.57696533203125,0.83831787109375
240433,-0.5225067138671875,0.5699615478515625,0.836944580078125
240434,-0.48663330078125,0.5562744140625,0.8477020263671875
240435,-0.4502410888671875,0.5329742431640625,0.8551177978515625
240436,-0.40740966796875,0.5100555419921875,0.867279052734375
240437,-0.3575592041015625,0.4900970458984375,0.863525390625
240438,-0.306182861328125,0.4871978759765625,0.8603668212890625
240439,-0.2507476806640625,0.4889984130859375,0.8552703857421875
240440,-0.1884765625,0.493316650390625,0.830413818359375
240441,-0.138885498046875,0.4816131591796875,0.777984619140625
240442,-0.1089935302734375,0.4584503173828125,0.6945648193359375
240443,-0.0909423828125,0.442626953125,0.6343994140625
240444,-0.0828857421875,0.408294677734375,0.65386962890625
240445,-0.0780029296875,0.3607025146484375,0.70086669921875
240446,-0.06475830078125,0.358001708984375,0.732879638671875
240447,-0.048431396484375,0.40435791015625,0.7276611328125
240448,-0.0280303955078125,0.4492950439453125,0.6815032958984375
240449,0.004547119140625,0.46051025390625,0.63348388671875
240450,0.03717041015625,0.4715576171875,0.6035919189453125
240451,0.0585784912109375,0.54107666015625,0.5868988037109375
240452,0.0695343017578125,0.659149169921875,0.5768890380859375
240453,0.06219482421875,0.7403717041015625,0.529571533203125
240454,0.0257720947265625,0.7404937744140625,0.4862823486328125
240455,-0.0193939208984375,0.7397003173828125,0.46148681640625
240456,-0.0435943603515625,0.7896575927734375,0.4714202880859375
240457,-0.03607177734375,0.880615234375,0.5243072509765625
240458,0.00836181640625,0.995025634765625,0.6306915283203125
240459,0.0931396484375,1.13458251953125,0.754364013671875
240460,0.229736328125,1.245407104492188,0.8427581787109375
240461,0.37823486328125,1.262847900390625,0.877655029296875
240462,0.461456298828125,1.181381225585938,0.8368682861328125
240463,0.4546356201171875,1.021026611328125,0.735687255859375
240464,0.3628692626953125,0.8822479248046875,0.63360595703125
240465,0.2339324951171875,0.77008056640625,0.57391357421875
240466,0.1312255859375,0.693023681640625,0.57281494140625
240467,0.060760498046875,0.6467437744140625,0.59716796875
240468,-0.0091094970703125,0.6120758056640625,0.639984130859375
240469,-0.0629730224609375,0.599090576171875,0.6934356689453125
240470,-0.1122589111328125,0.599090576171875,0.72650146484375
240471,-0.1562957763671875,0.585662841796875,0.73858642578125
240472,-0.1802825927734375,0.542816162109375,0.746826171875
240473,-0.187408447265625,0.52471923828125,0.7563934326171875
240474,-0.184356689453125,0.512176513671875,0.7510223388671875
240475,-0.19036865234375,0.477325439453125,0.7190093994140625
240476,-0.2201080322265625,0.44110107421875,0.6933135986328125
240477,-0.2778472900390625,0.4184112548828125,0.697662353515625
240478,-0.3715057373046875,0.4224090576171875,0.7357330322265625
240479,-0.498260498046875,0.4499053955078125,0.7813568115234375
240480,-0.6240997314453125,0.49298095703125,0.8515777587890625
240481,-0.725372314453125,0.5215911865234375,0.939361572265625
240482,-0.798248291015625,0.5279083251953125,1.01446533203125
240483,-0.817352294921875,0.5069122314453125,1.066635131835938
240484,-0.771575927734375,0.4730224609375,1.088607788085938
240485,-0.6904754638671875,0.43585205078125,1.0809326171875
240486,-0.59869384765625,0.4199371337890625,1.038787841796875
240487,-0.5056915283203125,0.4264984130859375,0.98919677734375
240488,-0.4214019775390625,0.4576263427734375,0.973785400390625
240489,-0.35675048828125,0.5072021484375,0.962371826171875
240490,-0.316162109375,0.5516357421875,0.94464111328125
240491,-0.3037261962890625,0.584014892578125,0.9235992431640624
240492,-0.305938720703125,0.6041717529296875,0.8987274169921875
240493,-0.30755615234375,0.61212158203125,0.87249755859375
240494,-0.2943572998046875,0.6131439208984375,0.842742919921875
240495,-0.2523193359375,0.6081390380859375,0.7938079833984375
240496,-0.193817138671875,0.61212158203125,0.729248046875
240497,-0.1214599609375,0.6368255615234375,0.6881866455078125
240498,-0.04547119140625,0.6584930419921875,0.635772705078125
240499,0.0135345458984375,0.6464996337890625,0.5784149169921875
240500,0.0251007080078125,0.6194305419921875,0.5262451171875
240501,-0.0381927490234375,0.585479736328125,0.48114013671875
240502,-0.1538543701171875,0.5410614013671875,0.4449462890625
240503,-0.2765045166015625,0.51080322265625,0.3985595703125
240504,-0.354461669921875,0.48846435546875,0.37591552734375
240505,-0.398956298828125,0.472991943359375,0.3702850341796875
240506,-0.3917083740234375,0.459503173828125,0.3749237060546875
240507,-0.337158203125,0.47845458984375,0.3986358642578125
240508,-0.268096923828125,0.521392822265625,0.4555511474609375
240509,-0.182098388671875,0.5451507568359375,0.560150146484375
240510,-0.1621856689453125,0.598541259765625,0.6233062744140625
240511,-0.1600341796875,0.63427734375,0.7041778564453125
240512,-0.1638336181640625,0.6732025146484375,0.7532501220703125
240513,-0.1493072509765625,0.719635009765625,0.8065948486328125
240514,-0.1085205078125,0.781585693359375,0.8654937744140625
240515,-0.039398193359375,0.84088134765625,0.9162139892578124
240516,0.0323944091796875,0.91455078125,0.9483489990234376
240517,0.1119232177734375,0.9883880615234376,0.9761505126953124
240518,0.205474853515625,1.051895141601562,0.9455108642578124
240519,0.2888031005859375,1.069839477539062,0.92138671875
240520,0.36614990234375,1.040145874023438,0.8667755126953125
240521,0.4465179443359375,0.9927520751953124,0.8067626953125
240522,0.4853668212890625,0.8669281005859375,0.7978057861328125
240523,0.4524383544921875,0.74365234375,0.7640838623046875
240524,0.4165496826171875,0.7154998779296875,0.748260498046875
240525,0.3781585693359375,0.688934326171875,0.7457275390625
240526,0.3113861083984375,0.6399078369140625,0.756591796875
240527,0.2173919677734375,0.594268798828125,0.7985687255859375
240528,0.0960693359375,0.592254638671875,0.866973876953125
240529,-0.04168701171875,0.60986328125,0.9163970947265624
240530,-0.18096923828125,0.6301727294921875,0.8825836181640625
240531,-0.2906036376953125,0.623016357421875,0.782379150390625
240532,-0.363616943359375,0.5767059326171875,0.7432861328125
240533,-0.4213409423828125,0.5113983154296875,0.751708984375
240534,-0.479034423828125,0.4491729736328125,0.7652435302734375
240535,-0.548187255859375,0.3995361328125,0.7975921630859375
240536,-0.628662109375,0.3647003173828125,0.8417205810546875
240537,-0.7220458984375,0.339508056640625,0.888671875
240538,-0.8201141357421875,0.3065185546875,0.941802978515625
240539,-0.8738250732421875,0.2998809814453125,0.9976654052734376
240540,-0.856658935546875,0.341156005859375,1.04486083984375
240541,-0.773956298828125,0.40179443359375,1.056976318359375
240542,-0.65899658203125,0.4508819580078125,1.006927490234375
240543,-0.5764312744140625,0.499267578125,0.9312896728515624
240544,-0.5237884521484375,0.5297698974609375,0.8826904296875
240545,-0.4982757568359375,0.548675537109375,0.8325653076171875
240546,-0.4942779541015625,0.5297393798828125,0.8032379150390625
240547,-0.4604644775390625,0.4666748046875,0.787322998046875
240548,-0.410736083984375,0.4403076171875,0.7912139892578125
240549,-0.3586883544921875,0.4408111572265625,0.815460205078125
240550,-0.3028411865234375,0.4581146240234375,0.8418426513671875
240551,-0.2418060302734375,0.469482421875,0.8534698486328125
240552,-0.19415283203125,0.447265625,0.828948974609375
240553,-0.172149658203125,0.4341278076171875,0.79730224609375
240554,-0.18017578125,0.3798828125,0.7443084716796875
240555,-0.2075653076171875,0.3052978515625,0.716552734375
240556,-0.213165283203125,0.2535247802734375,0.703857421875
240557,-0.19683837890625,0.238128662109375,0.70281982421875
240558,-0.171478271484375,0.2730712890625,0.7283935546875
240559,-0.1473541259765625,0.3288726806640625,0.6783447265625
240560,-0.1375885009765625,0.3651580810546875,0.6606292724609375
240561,-0.1579437255859375,0.3918609619140625,0.6386260986328125
240562,-0.1677093505859375,0.41748046875,0.5965118408203125
240563,-0.1559295654296875,0.464508056640625,0.60662841796875
240564,-0.1000213623046875,0.5330963134765625,0.615753173828125
240565,-0.0107269287109375,0.585845947265625,0.60650634765625
240566,0.0643310546875,0.622802734375,0.58868408203125
240567,0.0839691162109375,0.654022216796875,0.5632781982421875
240568,0.04876708984375,0.67120361328125,0.5819549560546875
240569,-0.011444091796875,0.7057037353515625,0.626373291015625
240570,-0.0336456298828125,0.77520751953125,0.6623077392578125
240571,-0.0048675537109375,0.8581390380859375,0.7162933349609375
240572,0.042022705078125,0.9564971923828124,0.7553863525390625
240573,0.098388671875,1.020401000976562,0.7819976806640625
240574,0.14630126953125,1.044876098632812,0.7838592529296875
240575,0.1747894287109375,1.016311645507812,0.7426910400390625
240576,0.1602325439453125,0.978424072265625,0.680328369140625
240577,0.09356689453125,0.9463348388671876,0.6058807373046875
240578,0.0288238525390625,0.895172119140625,0.55535888671875
240579,-0.0030975341796875,0.85003662109375,0.5305633544921875
240580,-0.0042877197265625,0.8319549560546875,0.5241851806640625
240581,-0.0164642333984375,0.8268280029296875,0.54205322265625
240582,-0.0253143310546875,0.7963104248046875,0.532684326171875
240583,-0.0629119873046875,0.7656707763671875,0.5332183837890625
240584,-0.137451171875,0.75750732421875,0.57421875
240585,-0.2133636474609375,0.7515411376953125,0.63037109375
240586,-0.278289794921875,0.7268218994140625,0.6994781494140625
240587,-0.32391357421875,0.687774658203125,0.7067108154296875
240588,-0.3428955078125,0.6396636962890625,0.6697998046875
240589,-0.3560943603515625,0.5948028564453125,0.6471099853515625
240590,-0.3673553466796875,0.5572967529296875,0.6302337646484375
240591,-0.3949432373046875,0.5248870849609375,0.619873046875
240592,-0.4670562744140625,0.5114898681640625,0.637603759765625
240593,-0.5636138916015625,0.511932373046875,0.68157958984375
240594,-0.651214599609375,0.4887847900390625,0.7137298583984375
240595,-0.737884521484375,0.4938507080078125,0.762969970703125
240596,-0.8186492919921875,0.504119873046875,0.8640899658203125
240597,-0.818023681640625,0.5131378173828125,0.932861328125
240598,-0.7370147705078125,0.5268096923828125,0.9591522216796876
240599,-0.6440887451171875,0.5290985107421875,0.9794158935546876
240600,-0.581695556640625,0.534271240234375,0.9574432373046876
240601,-0.558502197265625,0.551055908203125,0.920379638671875
240602,-0.5828399658203125,0.5721282958984375,0.8747406005859375
240603,-0.616912841796875,0.603546142578125,0.796234130859375
240604,-0.6531524658203125,0.64788818359375,0.75
240605,-0.6788330078125,0.7197418212890625,0.75732421875
240606,-0.661102294921875,0.7974090576171875,0.7729339599609375
240607,-0.601318359375,0.8307037353515625,0.7794952392578125
240608,-0.51483154296875,0.819976806640625,0.760894775390625
240609,-0.4296112060546875,0.7788238525390625,0.7068634033203125
240610,-0.3775787353515625,0.7243499755859375,0.63446044921875
240611,-0.3457183837890625,0.67388916015625,0.5445556640625
240612,-0.3536376953125,0.6151123046875,0.45086669921875
240613,-0.40008544921875,0.581573486328125,0.4011688232421875
240614,-0.454620361328125,0.5583343505859375,0.377960205078125
240615,-0.4925689697265625,0.5282440185546875,0.4001007080078125
240616,-0.4952239990234375,0.5004119873046875,0.4402008056640625
240617,-0.4471893310546875,0.453887939453125,0.44757080078125
240618,-0.411956787109375,0.4418792724609375,0.4415283203125
240619,-0.3910369873046875,0.4703521728515625,0.4786529541015625
240620,-0.3581390380859375,0.483367919921875,0.4834747314453125
240621,-0.3064727783203125,0.470794677734375,0.4796600341796875
240622,-0.25775146484375,0.49053955078125,0.5280609130859375
240623,-0.182647705078125,0.5308380126953125,0.5758514404296875
240624,-0.0889434814453125,0.546966552734375,0.6513671875
240625,0.0003662109375,0.6016387939453125,0.7698974609375
240626,0.0807342529296875,0.68817138671875,0.870208740234375
240627,0.0995635986328125,0.764892578125,0.9332275390625
240628,0.0787353515625,0.84149169921875,0.958251953125
240629,0.0797882080078125,0.8914337158203125,0.9320068359375
240630,0.0911865234375,0.9048919677734376,0.8815765380859375
240631,0.1058349609375,0.9108734130859376,0.8338775634765625
240632,0.118255615234375,0.9049072265625,0.8229217529296875
240633,0.1257171630859375,0.8967437744140625,0.857940673828125
240634,0.1237030029296875,0.886199951171875,0.8717193603515625
240635,0.093536376953125,0.820709228515625,0.8378448486328125
240636,0.062957763671875,0.7541351318359375,0.7824859619140625
240637,0.042327880859375,0.70684814453125,0.7445068359375
240638,0.021087646484375,0.6548004150390625,0.705291748046875
240639,-0.003753662109375,0.6451568603515625,0.7080841064453125
240640,-0.03460693359375,0.64349365234375,0.6922149658203125
240641,-0.0666961669921875,0.645965576171875,0.6934661865234375
240642,-0.1007537841796875,0.6326751708984375,0.67034912109375
240643,-0.150177001953125,0.6176605224609375,0.6666107177734375
240644,-0.2167816162109375,0.6192626953125,0.693145751953125
240645,-0.2698516845703125,0.6090087890625,0.6900787353515625
240646,-0.334686279296875,0.5893096923828125,0.69952392578125
240647,-0.4122772216796875,0.5892486572265625,0.71630859375
240648,-0.46844482421875,0.566497802734375,0.697265625
240649,-0.5114593505859375,0.554718017578125,0.6895294189453125
240650,-0.5621337890625,0.5336151123046875,0.67218017578125
240651,-0.618682861328125,0.4836883544921875,0.6456756591796875
240652,-0.674346923828125,0.462066650390625,0.6655120849609375
240653,-0.721832275390625,0.4868621826171875,0.71002197265625
240654,-0.7405548095703125,0.5293731689453125,0.7425689697265625
240655,-0.681488037109375,0.57427978515625,0.794708251953125
240656,-0.5626373291015625,0.60443115234375,0.8682403564453125
240657,-0.4445343017578125,0.6123809814453125,0.9009857177734376
240658,-0.3721466064453125,0.6148834228515625,0.8998870849609375
240659,-0.383331298828125,0.6335906982421875,0.9164276123046876
240660,-0.460662841796875,0.6541595458984375,0.9169464111328124
240661,-0.5223236083984375,0.665283203125,0.8957672119140625
240662,-0.5522308349609375,0.6964874267578125,0.8851776123046875
240663,-0.567657470703125,0.7075347900390625,0.8603363037109375
240664,-0.54730224609375,0.7007293701171875,0.859161376953125
240665,-0.479736328125,0.709381103515625,0.8520660400390625
240666,-0.4004974365234375,0.6637420654296875,0.7607574462890625
240667,-0.371856689453125,0.578338623046875,0.708404541015625
240668,-0.3993988037109375,0.5167236328125,0.648468017578125
240669,-0.4271697998046875,0.4579010009765625,0.5294952392578125
240670,-0.4346771240234375,0.385101318359375,0.50714111328125
240671,-0.410980224609375,0.3552398681640625,0.529449462890625
240672,-0.35992431640625,0.3683319091796875,0.615692138671875
240673,-0.310272216796875,0.4280548095703125,0.6553802490234375
240674,-0.268890380859375,0.47149658203125,0.607208251953125
240675,-0.1960601806640625,0.482269287109375,0.571441650390625
240676,-0.1100921630859375,0.49517822265625,0.6126708984375
240677,-0.063232421875,0.59234619140625,0.6714324951171875
240678,-0.01995849609375,0.746978759765625,0.625701904296875
240679,-0.0460052490234375,0.8247222900390625,0.6168670654296875
240680,-0.14801025390625,0.85894775390625,0.57318115234375
240681,-0.2139892578125,0.886627197265625,0.510467529296875
240682,-0.2085113525390625,0.9053955078125,0.4870147705078125
240683,-0.1638031005859375,0.950469970703125,0.5362548828125
240684,-0.0899200439453125,1.024169921875,0.57928466796875
240685,-0.0367431640625,1.09149169921875,0.637481689453125
240686,0.039276123046875,1.114639282226562,0.6619415283203125
240687,0.115264892578125,1.085296630859375,0.71832275390625
240688,0.16009521484375,1.048171997070312,0.772796630859375
240689,0.1677703857421875,1.010330200195312,0.7887725830078125
240690,0.1607818603515625,0.985748291015625,0.7616119384765625
240691,0.1107330322265625,0.940948486328125,0.706878662109375
240692,0.0450897216796875,0.8793487548828125,0.6330718994140625
240693,0.0200347900390625,0.81964111328125,0.5477294921875
240694,0.023040771484375,0.76513671875,0.4976806640625
240695,0.0290679931640625,0.744659423828125,0.48895263671875
240696,0.0310821533203125,0.758331298828125,0.4914703369140625
240697,0.0237579345703125,0.7631683349609375,0.508056640625
240698,0.024322509765625,0.7353973388671875,0.527374267578125
240699,0.0244293212890625,0.689300537109375,0.566925048828125
240700,0.02349853515625,0.637847900390625,0.63702392578125
240701,0.004180908203125,0.5904388427734375,0.6807861328125
240702,-0.0221099853515625,0.5606689453125,0.6830902099609375
240703,-0.051910400390625,0.536163330078125,0.6725006103515625
240704,-0.1014251708984375,0.510467529296875,0.6716461181640625
240705,-0.1638336181640625,0.4857940673828125,0.7011260986328125
240706,-0.2260284423828125,0.45745849609375,0.7089996337890625
240707,-0.2874908447265625,0.440887451171875,0.6725006103515625
240708,-0.36456298828125,0.4051055908203125,0.657012939453125
240709,-0.4651641845703125,0.35455322265625,0.6888275146484375
240710,-0.5845947265625,0.3060150146484375,0.74749755859375
240711,-0.706817626953125,0.2734832763671875,0.8118743896484375
240712,-0.7976837158203125,0.267547607421875,0.870330810546875
240713,-0.8311767578125,0.2803802490234375,0.9203948974609376
240714,-0.806396484375,0.3028411865234375,0.97344970703125
240715,-0.719451904296875,0.33782958984375,1.022048950195312
240716,-0.5992279052734375,0.3762359619140625,1.03143310546875
240717,-0.481170654296875,0.4091949462890625,1.007415771484375
240718,-0.3769378662109375,0.42156982421875,0.983795166015625
240719,-0.3025360107421875,0.4256439208984375,0.947540283203125
240720,-0.2414703369140625,0.44732666015625,0.91278076171875
240721,-0.208709716796875,0.513427734375,0.8949127197265625
240722,-0.2110748291015625,0.5924224853515625,0.866912841796875
240723,-0.2037353515625,0.64483642578125,0.8322601318359375
240724,-0.19097900390625,0.69927978515625,0.8213653564453125
240725,-0.1846771240234375,0.7407989501953125,0.815643310546875
240726,-0.1844024658203125,0.7498321533203125,0.7906646728515625
240727,-0.17352294921875,0.736083984375,0.7686004638671875
240728,-0.1480560302734375,0.6988067626953125,0.726226806640625
240729,-0.1170806884765625,0.6388092041015625,0.6590576171875
240730,-0.121673583984375,0.593505859375,0.5843505859375
240731,-0.1745758056640625,0.574859619140625,0.5454864501953125
240732,-0.2668914794921875,0.5772552490234375,0.5501861572265625
240733,-0.3644256591796875,0.5727691650390625,0.5836944580078125
240734,-0.440673828125,0.5486907958984375,0.626190185546875
240735,-0.4838409423828125,0.5222625732421875,0.6675567626953125
240736,-0.5054931640625,0.5296478271484375,0.7032012939453125
240737,-0.498016357421875,0.5609893798828125,0.7526397705078125
240738,-0.4364013671875,0.5945587158203125,0.8153228759765625
240739,-0.32012939453125,0.6231536865234375,0.8819732666015625
240740,-0.170989990234375,0.663909912109375,0.9305877685546876
240741,-0.0260009765625,0.716796875,0.8936767578125
240742,0.064208984375,0.758026123046875,0.79986572265625
240743,0.0788421630859375,0.7857208251953125,0.72900390625
240744,0.0504913330078125,0.82330322265625,0.7351226806640625
240745,0.0610809326171875,0.8813934326171875,0.7957763671875
240746,0.1384735107421875,0.9596405029296876,0.8441314697265625
240747,0.26812744140625,1.025375366210938,0.87689208984375
240748,0.38031005859375,1.049591064453125,0.862884521484375
240749,0.4116973876953125,1.035125732421875,0.8519287109375
240750,0.395599365234375,0.9851837158203124,0.854278564453125
240751,0.387481689453125,0.9068450927734376,0.8269500732421875
240752,0.356475830078125,0.7993927001953125,0.7538604736328125
240753,0.3125152587890625,0.7320709228515625,0.669342041015625
240754,0.2785797119140625,0.70751953125,0.6360321044921875
240755,0.2288818359375,0.6794891357421875,0.6240081787109375
240756,0.1553192138671875,0.657745361328125,0.6252593994140625
240757,0.07147216796875,0.6477203369140625,0.6430206298828125
240758,-0.0294952392578125,0.6320648193359375,0.660491943359375
240759,-0.1361846923828125,0.601165771484375,0.6697540283203125
240760,-0.2349090576171875,0.559722900390625,0.6403656005859375
240761,-0.32928466796875,0.532867431640625,0.6093292236328125
240762,-0.4284210205078125,0.5169219970703125,0.6025238037109375
240763,-0.5151519775390625,0.4912261962890625,0.6158294677734375
240764,-0.5825042724609375,0.46612548828125,0.6503143310546875
240765,-0.633026123046875,0.431884765625,0.67547607421875
240766,-0.6856231689453125,0.398101806640625,0.6707611083984375
240767,-0.7423553466796875,0.3734283447265625,0.6638641357421875
240768,-0.771942138671875,0.3618621826171875,0.6741180419921875
240769,-0.752716064453125,0.3422698974609375,0.69384765625
240770,-0.701324462890625,0.328125,0.729278564453125
240771,-0.6551513671875,0.34210205078125,0.7642059326171875
240772,-0.6249847412109375,0.37548828125,0.794525146484375
240773,-0.6003875732421875,0.4233856201171875,0.82354736328125
240774,-0.5697021484375,0.4814910888671875,0.854736328125
240775,-0.5116424560546875,0.543487548828125,0.89874267578125
240776,-0.42791748046875,0.597320556640625,0.9581146240234376
240777,-0.346954345703125,0.6457977294921875,1.009552001953125
240778,-0.2758636474609375,0.672943115234375,1.041641235351562
240779,-0.209197998046875,0.6788787841796875,1.040390014648438
240780,-0.156158447265625,0.6397857666015625,1.007675170898438
240781,-0.111480712890625,0.5894317626953125,0.9471435546875
240782,-0.0764923095703125,0.57745361328125,0.885040283203125
240783,-0.0666351318359375,0.5736846923828125,0.881378173828125
240784,-0.0589752197265625,0.545623779296875,0.9104766845703124
240785,-0.0534515380859375,0.5141754150390625,0.9181365966796876
240786,-0.07684326171875,0.483612060546875,0.8917694091796875
240787,-0.109375,0.45538330078125,0.8479156494140625
240788,-0.1271820068359375,0.41741943359375,0.8280792236328125
240789,-0.119171142578125,0.38433837890625,0.8576507568359375
240790,-0.10369873046875,0.3700103759765625,0.8944091796875
240791,-0.085357666015625,0.364715576171875,0.923675537109375
240792,-0.0625152587890625,0.344635009765625,0.9335784912109376
240793,-0.041961669921875,0.3217926025390625,0.91168212890625
240794,-0.0264892578125,0.3209686279296875,0.883270263671875
240795,-0.014312744140625,0.364013671875,0.8514556884765625
240796,-0.007568359375,0.4654388427734375,0.818115234375
240797,-0.013031005859375,0.534637451171875,0.7825775146484375
240798,-0.0332794189453125,0.5384979248046875,0.73992919921875
240799,-0.0762939453125,0.5537261962890625,0.6967010498046875
240800,-0.1184844970703125,0.6029052734375,0.671051025390625
240801,-0.1388092041015625,0.6711273193359375,0.6610260009765625
240802,-0.1441497802734375,0.7446441650390625,0.6629791259765625
240803,-0.1385345458984375,0.81439208984375,0.6801910400390625
240804,-0.124237060546875,0.8859710693359375,0.7135467529296875
240805,-0.0704193115234375,0.9499053955078124,0.7837677001953125
240806,0.0259857177734375,0.98724365234375,0.85284423828125
240807,0.1281890869140625,0.970428466796875,0.867584228515625
240808,0.1973724365234375,0.923828125,0.8115386962890625
240809,0.221466064453125,0.88018798828125,0.7135467529296875
240810,0.2377471923828125,0.8458404541015625,0.6343231201171875
240811,0.2505950927734375,0.8120574951171875,0.582855224609375
240812,0.2434234619140625,0.7838592529296875,0.5499267578125
240813,0.2270660400390625,0.75726318359375,0.5475006103515625
240814,0.2017669677734375,0.72882080078125,0.5746612548828125
240815,0.181640625,0.6919097900390625,0.6143341064453125
240816,0.1415863037109375,0.65936279296875,0.6248321533203125
240817,0.0788116455078125,0.64202880859375,0.632049560546875
240818,-0.0042266845703125,0.6170654296875,0.6387786865234375
240819,-0.09893798828125,0.591827392578125,0.650146484375
240820,-0.195037841796875,0.5789031982421875,0.6543121337890625
240821,-0.284332275390625,0.5696868896484375,0.662353515625
240822,-0.3583831787109375,0.55010986328125,0.6686248779296875
240823,-0.4036102294921875,0.51568603515625,0.6503448486328125
240824,-0.4074859619140625,0.4865264892578125,0.6139678955078125
240825,-0.3830108642578125,0.4571685791015625,0.5745086669921875
240826,-0.3658447265625,0.4263916015625,0.5567169189453125
240827,-0.4053497314453125,0.38507080078125,0.559051513671875
240828,-0.5156402587890625,0.341888427734375,0.5876617431640625
240829,-0.646026611328125,0.3447113037109375,0.6253814697265625
240830,-0.74798583984375,0.3747100830078125,0.6685638427734375
240831,-0.7945404052734375,0.3962860107421875,0.7412567138671875
240832,-0.78302001953125,0.38934326171875,0.819732666015625
240833,-0.724090576171875,0.3558349609375,0.9006500244140625
240834,-0.6171417236328125,0.3248443603515625,1.0035400390625
240835,-0.4958953857421875,0.32275390625,1.09967041015625
240836,-0.3761749267578125,0.372833251953125,1.158966064453125
240837,-0.27801513671875,0.456787109375,1.181808471679688
240838,-0.223480224609375,0.548095703125,1.134445190429688
240839,-0.2139892578125,0.6092376708984375,1.046218872070312
240840,-0.2299957275390625,0.651519775390625,0.971832275390625
240841,-0.2362823486328125,0.6626739501953125,0.942169189453125
240842,-0.219940185546875,0.65960693359375,0.9272613525390624
240843,-0.1923828125,0.6651458740234375,0.9163665771484376
240844,-0.1647491455078125,0.686004638671875,0.897247314453125
240845,-0.1340179443359375,0.703277587890625,0.858001708984375
240846,-0.1078643798828125,0.687042236328125,0.79864501953125
240847,-0.108489990234375,0.6476593017578125,0.7390594482421875
240848,-0.1646575927734375,0.5919189453125,0.678680419921875
240849,-0.2616424560546875,0.54937744140625,0.6365203857421875
240850,-0.3343658447265625,0.53302001953125,0.638580322265625
240851,-0.350494384765625,0.52435302734375,0.6501617431640625
240852,-0.3431549072265625,0.5014801025390625,0.658477783203125
240853,-0.3337554931640625,0.4825592041015625,0.662322998046875
240854,-0.3296051025390625,0.47967529296875,0.6658782958984375
240855,-0.308685302734375,0.507965087890625,0.7141571044921875
240856,-0.247528076171875,0.5610809326171875,0.7805023193359375
240857,-0.156005859375,0.616455078125,0.8619384765625
240858,-0.06011962890625,0.6749725341796875,0.925750732421875
240859,0.0048980712890625,0.7144622802734375,0.9336700439453124
240860,0.0348663330078125,0.725189208984375,0.8761749267578125
240861,0.0545654296875,0.7266693115234375,0.7872161865234375
240862,0.111846923828125,0.765838623046875,0.7030487060546875
240863,0.1526031494140625,0.8393707275390625,0.6558837890625
240864,0.2068023681640625,0.89202880859375,0.70501708984375
240865,0.3524627685546875,0.9311065673828124,0.7774658203125
240866,0.5269622802734375,0.953216552734375,0.836578369140625
240867,0.6472625732421875,0.9200286865234376,0.82208251953125
240868,0.5948486328125,0.8412322998046875,0.7819061279296875
240869,0.4860076904296875,0.7383270263671875,0.76123046875
240870,0.4183197021484375,0.6746978759765625,0.7242584228515625
240871,0.37066650390625,0.619842529296875,0.7160186767578125
240872,0.3315887451171875,0.5720672607421875,0.7232513427734375
240873,0.273895263671875,0.5480499267578125,0.72271728515625
240874,0.15301513671875,0.534912109375,0.73492431640625
240875,-0.0194091796875,0.50970458984375,0.736541748046875
240876,-0.2067413330078125,0.4824371337890625,0.7236175537109375
240877,-0.39129638671875,0.47857666015625,0.7108001708984375
240878,-0.5456695556640625,0.4881591796875,0.7148590087890625
240879,-0.641387939453125,0.5030364990234375,0.7285003662109375
240880,-0.6526336669921875,0.5116729736328125,0.7225799560546875
240881,-0.603790283203125,0.49871826171875,0.6852264404296875
240882,-0.5531005859375,0.466094970703125,0.6395111083984375
240883,-0.52996826171875,0.4282379150390625,0.6392059326171875
240884,-0.53668212890625,0.4186859130859375,0.676055908203125
240885,-0.5721588134765625,0.45562744140625,0.721893310546875
240886,-0.5991973876953125,0.51336669921875,0.7684783935546875
240887,-0.5722503662109375,0.5655670166015625,0.798370361328125
240888,-0.508544921875,0.612518310546875,0.8026275634765625
240889,-0.4415740966796875,0.6739654541015625,0.7986297607421875
240890,-0.3878021240234375,0.7516326904296875,0.825775146484375
240891,-0.3358154296875,0.8275146484375,0.8662261962890625
240892,-0.28485107421875,0.87445068359375,0.8961181640625
240893,-0.2418212890625,0.88543701171875,0.9031524658203124
240894,-0.212493896484375,0.8610687255859375,0.8913726806640625
240895,-0.2081451416015625,0.8121490478515625,0.8531494140625
240896,-0.2305145263671875,0.7440032958984375,0.8258056640625
240897,-0.2394866943359375,0.6749725341796875,0.837493896484375
240898,-0.2559051513671875,0.6334381103515625,0.8253021240234375
240899,-0.283416748046875,0.61602783203125,0.789794921875
240900,-0.2829132080078125,0.5983428955078125,0.762481689453125
240901,-0.2492828369140625,0.577362060546875,0.7551727294921875
240902,-0.207061767578125,0.548492431640625,0.7566070556640625
240903,-0.1540985107421875,0.527130126953125,0.77001953125
240904,-0.0990753173828125,0.5364532470703125,0.79217529296875
240905,-0.0500640869140625,0.5492706298828125,0.8096160888671875
240906,-0.0184478759765625,0.5532379150390625,0.8082427978515625
240907,-0.0162811279296875,0.53973388671875,0.7894134521484375
240908,-0.0341033935546875,0.5186004638671875,0.7777862548828125
240909,-0.035858154296875,0.5326385498046875,0.800018310546875
240910,-0.0185394287109375,0.5809326171875,0.814208984375
240911,0.0060272216796875,0.65191650390625,0.79644775390625
240912,0.026397705078125,0.7041473388671875,0.73248291015625
240913,0.024017333984375,0.7142486572265625,0.651641845703125
240914,-0.0038909912109375,0.7462005615234375,0.5960693359375
240915,-0.0468597412109375,0.8054962158203125,0.579132080078125
240916,-0.0854949951171875,0.868011474609375,0.5919036865234375
240917,-0.0951385498046875,0.9273834228515624,0.606231689453125
240918,-0.083953857421875,0.9832611083984376,0.642303466796875
240919,-0.057952880859375,1.014801025390625,0.6986541748046875
240920,-0.0120086669921875,1.033584594726562,0.734832763671875
240921,0.0490570068359375,1.02764892578125,0.72650146484375
240922,0.1137237548828125,0.99517822265625,0.684051513671875
240923,0.1731414794921875,0.946258544921875,0.642913818359375
240924,0.1998443603515625,0.8808441162109375,0.6431732177734375
240925,0.18267822265625,0.8161163330078125,0.6534423828125
240926,0.1522064208984375,0.7475738525390625,0.64471435546875
240927,0.126434326171875,0.6814117431640625,0.6227874755859375
240928,0.090545654296875,0.6170196533203125,0.611083984375
240929,0.053985595703125,0.5564727783203125,0.61981201171875
240930,0.007049560546875,0.5126800537109375,0.63525390625
240931,-0.0550384521484375,0.4966278076171875,0.6624603271484375
240932,-0.1081085205078125,0.4832916259765625,0.675567626953125
240933,-0.138336181640625,0.4863433837890625,0.678070068359375
240934,-0.161895751953125,0.4970245361328125,0.6596221923828125
240935,-0.18609619140625,0.5022125244140625,0.640777587890625
240936,-0.2053680419921875,0.5037841796875,0.624267578125
240937,-0.22686767578125,0.4949798583984375,0.613250732421875
240938,-0.2407989501953125,0.49395751953125,0.6038665771484375
240939,-0.2322540283203125,0.49615478515625,0.6158447265625
240940,-0.2153778076171875,0.492340087890625,0.6297149658203125
240941,-0.2166748046875,0.478363037109375,0.63818359375
240942,-0.2531890869140625,0.4485931396484375,0.6283721923828125
240943,-0.327728271484375,0.409423828125,0.6115875244140625
240944,-0.434600830078125,0.3853759765625,0.5979461669921875
240945,-0.543792724609375,0.39007568359375,0.599365234375
240946,-0.61505126953125,0.4068145751953125,0.6287994384765625
240947,-0.6354827880859375,0.4349212646484375,0.682525634765625
240948,-0.6190643310546875,0.4796905517578125,0.7181243896484375
240949,-0.5692138671875,0.5225982666015625,0.74957275390625
240950,-0.504608154296875,0.577606201171875,0.8009033203125
240951,-0.458770751953125,0.63323974609375,0.8675689697265625
240952,-0.410552978515625,0.6450653076171875,0.931671142578125
240953,-0.3368377685546875,0.6572418212890625,0.9826507568359376
240954,-0.2672576904296875,0.710601806640625,1.021240234375
240955,-0.2346343994140625,0.7350311279296875,1.053466796875
240956,-0.2249908447265625,0.734771728515625,1.042648315429688
240957,-0.2064971923828125,0.7341766357421875,1.017120361328125
240958,-0.1821136474609375,0.7350921630859375,0.97442626953125
240959,-0.1697540283203125,0.716156005859375,0.91400146484375
240960,-0.17193603515625,0.6827392578125,0.8524169921875
240961,-0.1636505126953125,0.6608123779296875,0.7777557373046875
240962,-0.15325927734375,0.6707000732421875,0.6962738037109375
240963,-0.1691741943359375,0.669677734375,0.6329345703125
240964,-0.21051025390625,0.6327667236328125,0.6087799072265625
240965,-0.2666473388671875,0.597198486328125,0.6235198974609375
240966,-0.3322601318359375,0.6107025146484375,0.6451416015625
240967,-0.381622314453125,0.65240478515625,0.6751861572265625
240968,-0.3932647705078125,0.6804046630859375,0.688568115234375
240969,-0.36773681640625,0.6869049072265625,0.6617279052734375
240970,-0.3532257080078125,0.6744842529296875,0.6221466064453125
240971,-0.33367919921875,0.6642608642578125,0.610076904296875
240972,-0.2837371826171875,0.669952392578125,0.6268463134765625
240973,-0.2136993408203125,0.700042724609375,0.6860504150390625
240974,-0.1249542236328125,0.745208740234375,0.7507171630859375
240975,-0.0306854248046875,0.793731689453125,0.7734375
240976,0.0447845458984375,0.8254547119140625,0.7902374267578125
240977,0.0774078369140625,0.839447021484375,0.8006744384765625
240978,0.11297607421875,0.8751068115234375,0.798553466796875
240979,0.143890380859375,0.92962646484375,0.74652099609375
240980,0.14215087890625,0.933868408203125,0.7180633544921875
240981,0.19866943359375,0.896514892578125,0.7330322265625
240982,0.3122711181640625,0.879638671875,0.79071044921875
240983,0.3809051513671875,0.84661865234375,0.77978515625
240984,0.3220672607421875,0.7801971435546875,0.73052978515625
240985,0.2483978271484375,0.7464447021484375,0.732818603515625
240986,0.2138671875,0.7267913818359375,0.7461090087890625
240987,0.2034759521484375,0.6803436279296875,0.7247467041015625
240988,0.2025299072265625,0.6259613037109375,0.7032928466796875
240989,0.2036590576171875,0.577239990234375,0.6876220703125
240990,0.1739959716796875,0.5427703857421875,0.6775665283203125
240991,0.0905303955078125,0.5297698974609375,0.6887359619140625
240992,-0.045074462890625,0.53179931640625,0.6837158203125
240993,-0.2173614501953125,0.5183563232421875,0.683746337890625
240994,-0.386138916015625,0.5090789794921875,0.671112060546875
240995,-0.519134521484375,0.5086822509765625,0.656982421875
240996,-0.6113128662109375,0.510009765625,0.6573333740234375
240997,-0.6482086181640625,0.5156097412109375,0.659210205078125
240998,-0.6331634521484375,0.514373779296875,0.6581573486328125
240999,-0.5989837646484375,0.500579833984375,0.6485748291015625
241000,-0.5750579833984375,0.4715728759765625,0.6405792236328125
241001,-0.5686187744140625,0.440948486328125,0.652435302734375
241002,-0.5776519775390625,0.4568634033203125,0.6803436279296875
241003,-0.6052703857421875,0.486724853515625,0.7073822021484375
241004,-0.6257781982421875,0.5030517578125,0.726959228515625
241005,-0.609283447265625,0.5150146484375,0.758697509765625
241006,-0.5567779541015625,0.558319091796875,0.802001953125
241007,-0.487518310546875,0.63629150390625,0.83740234375
241008,-0.4094696044921875,0.7088775634765625,0.8607635498046875
241009,-0.3370819091796875,0.75689697265625,0.875946044921875
241010,-0.2827911376953125,0.77508544921875,0.8917388916015625
241011,-0.2622528076171875,0.771392822265625,0.8917388916015625
241012,-0.28448486328125,0.7501678466796875,0.886322021484375
241013,-0.3077392578125,0.723388671875,0.8946533203125
241014,-0.32073974609375,0.7188262939453125,0.9027557373046876
241015,-0.3040618896484375,0.714630126953125,0.9022064208984376
241016,-0.30609130859375,0.709136962890625,0.87628173828125
241017,-0.281494140625,0.70159912109375,0.875701904296875
241018,-0.2514495849609375,0.6830291748046875,0.848907470703125
241019,-0.2142791748046875,0.6396026611328125,0.8134918212890625
241020,-0.1527099609375,0.592529296875,0.78094482421875
241021,-0.1129913330078125,0.5535125732421875,0.7499542236328125
241022,-0.1186676025390625,0.517730712890625,0.7233734130859375
241023,-0.1321868896484375,0.480743408203125,0.738006591796875
241024,-0.09857177734375,0.4503021240234375,0.7969818115234375
241025,-0.0252227783203125,0.433868408203125,0.8498687744140625
241026,0.0439453125,0.4080657958984375,0.8524322509765625
241027,0.088775634765625,0.3822784423828125,0.827301025390625
241028,0.102691650390625,0.3773345947265625,0.8052978515625
241029,0.1083984375,0.446502685546875,0.7814483642578125
241030,0.1042633056640625,0.614990234375,0.7199249267578125
241031,0.07012939453125,0.7569732666015625,0.6152191162109375
241032,0.0072479248046875,0.769866943359375,0.489715576171875
241033,-0.064300537109375,0.771087646484375,0.412353515625
241034,-0.1317596435546875,0.8167877197265625,0.4093780517578125
241035,-0.1741180419921875,0.8892974853515625,0.478729248046875
241036,-0.1536102294921875,0.9808807373046876,0.5680084228515625
241037,-0.0712738037109375,1.059173583984375,0.6580810546875
241038,0.044921875,1.102920532226562,0.742034912109375
241039,0.147430419921875,1.115036010742188,0.7957763671875
241040,0.2078094482421875,1.0760498046875,0.8088531494140625
241041,0.246185302734375,0.986114501953125,0.7725982666015625
241042,0.292144775390625,0.8812713623046875,0.695587158203125
241043,0.3259124755859375,0.8165283203125,0.616180419921875
241044,0.3345184326171875,0.8041839599609375,0.5863037109375
241045,0.318939208984375,0.8095855712890625,0.5909423828125
241046,0.297698974609375,0.81536865234375,0.6277618408203125
241047,0.2669525146484375,0.7957763671875,0.6508026123046875
241048,0.2045135498046875,0.7407379150390625,0.6531219482421875
241049,0.0966644287109375,0.703216552734375,0.6316680908203125
241050,-0.036468505859375,0.694976806640625,0.6129608154296875
241051,-0.142486572265625,0.673828125,0.607574462890625
241052,-0.2093505859375,0.651763916015625,0.6088714599609375
241053,-0.235809326171875,0.6419677734375,0.6058807373046875
241054,-0.2208404541015625,0.626861572265625,0.58935546875
241055,-0.204803466796875,0.6121063232421875,0.5815277099609375
241056,-0.205535888671875,0.5992889404296875,0.5919952392578125
241057,-0.24664306640625,0.567047119140625,0.636138916015625
241058,-0.336883544921875,0.5009307861328125,0.6893768310546875
241059,-0.4195709228515625,0.44012451171875,0.6985015869140625
241060,-0.4927520751953125,0.41864013671875,0.6779937744140625
241061,-0.604278564453125,0.3953857421875,0.6724700927734375
241062,-0.7666778564453125,0.3655548095703125,0.6588287353515625
241063,-0.9126739501953124,0.3385162353515625,0.6384124755859375
241064,-0.963653564453125,0.3066864013671875,0.6597900390625
241065,-0.91839599609375,0.28753662109375,0.71856689453125
241066,-0.816009521484375,0.2800140380859375,0.768646240234375
241067,-0.6848907470703125,0.2919921875,0.7937469482421875
241068,-0.554351806640625,0.3327789306640625,0.834503173828125
241069,-0.4521484375,0.3992767333984375,0.9298248291015624
241070,-0.3730926513671875,0.4721221923828125,1.027847290039062
241071,-0.3127593994140625,0.5337677001953125,1.071945190429688
241072,-0.2744598388671875,0.57635498046875,1.05792236328125
241073,-0.268524169921875,0.600738525390625,1.0284423828125
241074,-0.2826080322265625,0.59381103515625,0.9951019287109376
241075,-0.292510986328125,0.5686492919921875,0.9439544677734376
241076,-0.29522705078125,0.561492919921875,0.8916168212890625
241077,-0.277130126953125,0.587310791015625,0.8514251708984375
241078,-0.22381591796875,0.628631591796875,0.8251800537109375
241079,-0.13482666015625,0.678955078125,0.80224609375
241080,-0.0325775146484375,0.7131500244140625,0.769927978515625
241081,0.0536346435546875,0.7162933349609375,0.7396087646484375
241082,0.12060546875,0.6968231201171875,0.6990203857421875
241083,0.145416259765625,0.6690673828125,0.6448822021484375
241084,0.12872314453125,0.637603759765625,0.602935791015625
241085,0.0740814208984375,0.6129302978515625,0.5647735595703125
241086,-0.0281219482421875,0.612762451171875,0.53778076171875
241087,-0.145416259765625,0.623321533203125,0.5597381591796875
241088,-0.225616455078125,0.64501953125,0.5938720703125
241089,-0.274444580078125,0.6745147705078125,0.6254119873046875
241090,-0.3401336669921875,0.6814422607421875,0.6583099365234375
241091,-0.3789215087890625,0.6524505615234375,0.6734161376953125
241092,-0.422943115234375,0.62335205078125,0.6638031005859375
241093,-0.48681640625,0.614654541015625,0.686279296875
241094,-0.50262451171875,0.6235504150390625,0.7303924560546875
241095,-0.4393463134765625,0.634674072265625,0.7725372314453125
241096,-0.3192291259765625,0.6352691650390625,0.785400390625
241097,-0.18658447265625,0.6367034912109375,0.78289794921875
241098,-0.07403564453125,0.6444091796875,0.80474853515625
241099,-0.007049560546875,0.676727294921875,0.8343658447265625
241100,0.0136566162109375,0.7291107177734375,0.8644561767578125
241101,0.017486572265625,0.7868194580078125,0.8841552734375
241102,0.0258026123046875,0.8497314453125,0.866790771484375
241103,0.0318603515625,0.901397705078125,0.8253173828125
241104,0.0558013916015625,0.932830810546875,0.7818756103515625
241105,0.0986480712890625,0.9239654541015624,0.7587738037109375
241106,0.1486968994140625,0.8868408203125,0.7587738037109375
241107,0.1980438232421875,0.8257293701171875,0.762176513671875
241108,0.2210235595703125,0.776519775390625,0.7525177001953125
241109,0.232330322265625,0.757904052734375,0.73553466796875
241110,0.248443603515625,0.751678466796875,0.7180023193359375
241111,0.25823974609375,0.7346038818359375,0.724395751953125
241112,0.2449951171875,0.7094879150390625,0.73480224609375
241113,0.2087554931640625,0.6992034912109375,0.7339935302734375
241114,0.1503143310546875,0.6993865966796875,0.729644775390625
241115,0.0678253173828125,0.7058563232421875,0.7105560302734375
241116,-0.0422821044921875,0.688018798828125,0.7040863037109375
241117,-0.1806182861328125,0.640960693359375,0.699615478515625
241118,-0.327606201171875,0.5851898193359375,0.6916351318359375
241119,-0.4643707275390625,0.5823822021484375,0.68707275390625
241120,-0.604034423828125,0.5877685546875,0.663238525390625
241121,-0.7439727783203125,0.54168701171875,0.6474456787109375
241122,-0.840545654296875,0.476776123046875,0.65478515625
241123,-0.8197021484375,0.4383544921875,0.706756591796875
241124,-0.7259674072265625,0.4273223876953125,0.77777099609375
241125,-0.68182373046875,0.4489593505859375,0.8640289306640625
241126,-0.6912689208984375,0.485321044921875,0.93817138671875
241127,-0.705047607421875,0.5178070068359375,0.93389892578125
241128,-0.7158355712890625,0.5437469482421875,0.867523193359375
241129,-0.7140655517578125,0.55621337890625,0.8232421875
241130,-0.6745147705078125,0.54437255859375,0.805328369140625
241131,-0.5994720458984375,0.553070068359375,0.8170623779296875
241132,-0.5043182373046875,0.5782470703125,0.8418121337890625
241133,-0.4075775146484375,0.5869598388671875,0.862945556640625
241134,-0.315948486328125,0.584564208984375,0.876312255859375
241135,-0.23260498046875,0.55120849609375,0.88116455078125
241136,-0.166107177734375,0.512603759765625,0.883819580078125
241137,-0.11126708984375,0.503509521484375,0.890838623046875
241138,-0.0518951416015625,0.479522705078125,0.923583984375
241139,0.020721435546875,0.4722137451171875,0.9350433349609376
241140,0.0888214111328125,0.4671783447265625,0.921478271484375
241141,0.114349365234375,0.41717529296875,0.8563385009765625
241142,0.1042633056640625,0.3405303955078125,0.7609710693359375
241143,0.063568115234375,0.2825469970703125,0.6983184814453125
241144,0.011932373046875,0.268402099609375,0.6973724365234375
241145,-0.062225341796875,0.2846527099609375,0.742279052734375
241146,-0.126129150390625,0.324615478515625,0.7910614013671875
241147,-0.140899658203125,0.4060211181640625,0.8433380126953125
241148,-0.1190185546875,0.4759979248046875,0.8774261474609375
241149,-0.0876007080078125,0.48486328125,0.896759033203125
241150,-0.0703887939453125,0.4603424072265625,0.9062957763671876
241151,-0.0594940185546875,0.4645843505859375,0.862213134765625
241152,-0.0474700927734375,0.53314208984375,0.78887939453125
241153,-0.044677734375,0.6239471435546875,0.7058563232421875
241154,-0.04559326171875,0.7173309326171875,0.6417388916015625
241155,-0.0829315185546875,0.749420166015625,0.65069580078125
241156,-0.1295318603515625,0.6230316162109375,0.7216796875
241157,-0.1108551025390625,0.7741241455078125,0.7615814208984375
241158,-0.0724639892578125,1.035873413085938,0.854736328125
241159,0.0125885009765625,1.026397705078125,0.94921875
241160,0.0512237548828125,0.9688720703125,0.964508056640625
241161,0.07208251953125,0.949920654296875,0.89605712890625
241162,0.106353759765625,0.9327392578125,0.8583526611328125
241163,0.121185302734375,0.88250732421875,0.82965087890625
241164,0.152557373046875,0.8583984375,0.7494354248046875
241165,0.1830902099609375,0.8426055908203125,0.702484130859375
241166,0.198822021484375,0.7895660400390625,0.683441162109375
241167,0.2026214599609375,0.7332305908203125,0.665313720703125
241168,0.19415283203125,0.699432373046875,0.6593780517578125
241169,0.174652099609375,0.657501220703125,0.652099609375
241170,0.13848876953125,0.6118927001953125,0.6364898681640625
241171,0.0807037353515625,0.57470703125,0.6230926513671875
241172,0.013214111328125,0.542572021484375,0.628326416015625
241173,-0.052825927734375,0.515350341796875,0.6534423828125
241174,-0.1138916015625,0.4876556396484375,0.6850433349609375
241175,-0.1681365966796875,0.457763671875,0.7028045654296875
241176,-0.226409912109375,0.4295806884765625,0.7118377685546875
241177,-0.2936859130859375,0.3861083984375,0.71826171875
241178,-0.373626708984375,0.3380584716796875,0.7207794189453125
241179,-0.45538330078125,0.306396484375,0.7318878173828125
241180,-0.5405426025390625,0.2869720458984375,0.7572174072265625
241181,-0.6194305419921875,0.2744598388671875,0.7685699462890625
241182,-0.697906494140625,0.255706787109375,0.75628662109375
241183,-0.778594970703125,0.2181243896484375,0.7451629638671875
241184,-0.8551025390625,0.1887664794921875,0.7459869384765625
241185,-0.9136810302734376,0.178253173828125,0.75970458984375
241186,-0.918609619140625,0.2017059326171875,0.7719573974609375
241187,-0.8600616455078125,0.2279510498046875,0.7987823486328125
241188,-0.7666778564453125,0.240264892578125,0.8479461669921875
241189,-0.6678314208984375,0.26361083984375,0.9023590087890624
241190,-0.560546875,0.3192291259765625,0.95501708984375
241191,-0.44647216796875,0.369537353515625,1.022354125976562
241192,-0.327850341796875,0.4041900634765625,1.081817626953125
241193,-0.2114715576171875,0.44140625,1.122360229492188
241194,-0.092315673828125,0.477264404296875,1.146804809570312
241195,0.0217742919921875,0.5086212158203125,1.137863159179688
241196,0.121673583984375,0.5408477783203125,1.061813354492188
241197,0.207366943359375,0.5807037353515625,0.9980316162109376
241198,0.261749267578125,0.60943603515625,0.9427032470703124
241199,0.273284912109375,0.6298828125,0.8850555419921875
241200,0.2310333251953125,0.65313720703125,0.853363037109375
241201,0.13360595703125,0.66558837890625,0.839508056640625
241202,0.0258026123046875,0.6796875,0.803802490234375
241203,-0.0657806396484375,0.6697235107421875,0.779022216796875
241204,-0.1378936767578125,0.6260223388671875,0.7574310302734375
241205,-0.2104949951171875,0.58917236328125,0.7152862548828125
241206,-0.2619781494140625,0.5631866455078125,0.6985931396484375
241207,-0.2946319580078125,0.5550689697265625,0.7053985595703125
241208,-0.31671142578125,0.557342529296875,0.703033447265625
241209,-0.3115692138671875,0.5556793212890625,0.708740234375
241210,-0.3011322021484375,0.5390625,0.7044219970703125
241211,-0.2892303466796875,0.5207061767578125,0.6931304931640625
241212,-0.2942657470703125,0.5081939697265625,0.6742095947265625
241213,-0.310943603515625,0.4890899658203125,0.6487884521484375
241214,-0.3391876220703125,0.4842529296875,0.6201171875
241215,-0.364471435546875,0.5037384033203125,0.630401611328125
241216,-0.342041015625,0.54150390625,0.6937408447265625
241217,-0.264251708984375,0.562164306640625,0.7596588134765625
241218,-0.1768798828125,0.6042022705078125,0.82073974609375
241219,-0.066162109375,0.67242431640625,0.917236328125
241220,0.0556488037109375,0.7402801513671875,0.9948883056640624
241221,0.16448974609375,0.7918853759765625,1.023361206054688
241222,0.2560882568359375,0.83953857421875,0.9967041015625
241223,0.3365478515625,0.8697357177734375,0.9144134521484376
241224,0.3787384033203125,0.93170166015625,0.81689453125
241225,0.37939453125,0.98211669921875,0.7830047607421875
241226,0.378662109375,0.9750518798828124,0.8011627197265625
241227,0.3552398681640625,0.874755859375,0.8112640380859375
241228,0.324188232421875,0.7337646484375,0.7635345458984375
241229,0.3161163330078125,0.6990966796875,0.6992645263671875
241230,0.325927734375,0.697540283203125,0.67584228515625
241231,0.331634521484375,0.6822357177734375,0.6622772216796875
241232,0.2989501953125,0.6669158935546875,0.677032470703125
241233,0.2121124267578125,0.637054443359375,0.6986083984375
241234,0.07586669921875,0.5935821533203125,0.7193756103515625
241235,-0.090667724609375,0.5300140380859375,0.7462310791015625
241236,-0.2532196044921875,0.482025146484375,0.7467498779296875
241237,-0.4097747802734375,0.46697998046875,0.70654296875
241238,-0.5252227783203125,0.43316650390625,0.6920928955078125
241239,-0.543975830078125,0.3678436279296875,0.752227783203125
241240,-0.51678466796875,0.3176422119140625,0.810028076171875
241241,-0.5073394775390625,0.326171875,0.854034423828125
241242,-0.6038360595703125,0.3611907958984375,0.92974853515625
241243,-0.8005218505859375,0.41290283203125,1.013992309570312
241244,-1.009140014648438,0.4692535400390625,1.041702270507812
241245,-1.15081787109375,0.494537353515625,0.9791107177734376
241246,-1.205764770507812,0.5120086669921875,0.89111328125
241247,-1.135101318359375,0.5544586181640625,0.8602294921875
241248,-1.00030517578125,0.5566558837890625,0.85528564453125
241249,-0.858673095703125,0.52252197265625,0.894805908203125
241250,-0.7200469970703125,0.498077392578125,0.9315948486328124
241251,-0.5946502685546875,0.4990081787109375,0.9609222412109376
241252,-0.494842529296875,0.5147247314453125,0.99591064453125
241253,-0.4105224609375,0.5082244873046875,1.058120727539062
241254,-0.3223114013671875,0.473785400390625,1.07421875
241255,-0.200775146484375,0.4336090087890625,1.0478515625
241256,-0.0699005126953125,0.42425537109375,1.007156372070312
241257,0.06072998046875,0.4001617431640625,0.9871826171875
241258,0.1855621337890625,0.3361663818359375,0.97393798828125
241259,0.309661865234375,0.2590179443359375,0.8903961181640625
241260,0.40350341796875,0.201141357421875,0.753631591796875
241261,0.419158935546875,0.1999053955078125,0.7019195556640625
241262,0.3577117919921875,0.2137603759765625,0.72723388671875
241263,0.2643890380859375,0.2012939453125,0.7567291259765625
241264,0.1716156005859375,0.1934051513671875,0.7433624267578125
241265,0.093109130859375,0.1978912353515625,0.6991119384765625
241266,0.0375518798828125,0.222991943359375,0.664276123046875
241267,0.0143585205078125,0.2677764892578125,0.6694793701171875
241268,0.009002685546875,0.31787109375,0.6994171142578125
241269,0.026336669921875,0.4120941162109375,0.7315826416015625
241270,0.0681915283203125,0.554412841796875,0.7576751708984375
241271,0.109130859375,0.655670166015625,0.7599334716796875
241272,0.1258392333984375,0.6568756103515625,0.685272216796875
241273,0.0963134765625,0.664093017578125,0.5598602294921875
241274,0.02703857421875,0.7126617431640625,0.5144500732421875
241275,-0.08148193359375,0.732666015625,0.55328369140625
241276,-0.1844482421875,0.7479095458984375,0.6265716552734375
241277,-0.1898956298828125,0.8155364990234375,0.699462890625
241278,-0.1037750244140625,0.9337158203125,0.7852935791015625
241279,0.0295257568359375,1.045547485351562,0.899749755859375
241280,0.1779327392578125,1.115127563476562,0.9996795654296876
241281,0.3066558837890625,1.111770629882812,1.022857666015625
241282,0.4086151123046875,1.00970458984375,0.9735565185546876
241283,0.446746826171875,0.8168792724609375,0.8665771484375
241284,0.3617706298828125,0.6928253173828125,0.690887451171875
241285,0.2118377685546875,0.656494140625,0.6219024658203125
241286,0.0515289306640625,0.6255645751953125,0.637237548828125
241287,-0.0562286376953125,0.5659637451171875,0.64642333984375
241288,-0.0825347900390625,0.5218658447265625,0.6368865966796875
241289,-0.082550048828125,0.497161865234375,0.6210174560546875
241290,-0.1128692626953125,0.46533203125,0.605072021484375
241291,-0.1582794189453125,0.432586669921875,0.593994140625
241292,-0.2027130126953125,0.4082183837890625,0.5945892333984375
241293,-0.2317352294921875,0.42095947265625,0.64813232421875
241294,-0.2601470947265625,0.4706268310546875,0.7437591552734375
241295,-0.2989959716796875,0.484954833984375,0.82989501953125
241296,-0.3519134521484375,0.474853515625,0.86962890625
241297,-0.4426116943359375,0.4805908203125,0.8641815185546875
241298,-0.5666961669921875,0.47918701171875,0.8284454345703125
241299,-0.6759490966796875,0.4452667236328125,0.8104248046875
241300,-0.7125091552734375,0.414794921875,0.81591796875
241301,-0.6656341552734375,0.4206695556640625,0.8204193115234375
241302,-0.578399658203125,0.4190521240234375,0.8249664306640625
241303,-0.4996795654296875,0.39813232421875,0.8382415771484375
241304,-0.4594573974609375,0.4048614501953125,0.893096923828125
241305,-0.46002197265625,0.445037841796875,0.9870452880859376
241306,-0.457916259765625,0.4903411865234375,1.086654663085938
241307,-0.4256591796875,0.520233154296875,1.155487060546875
241308,-0.3657379150390625,0.5400390625,1.18768310546875
241309,-0.2789154052734375,0.567108154296875,1.189224243164062
241310,-0.1999664306640625,0.60198974609375,1.168319702148438
241311,-0.1716461181640625,0.64031982421875,1.130538940429688
241312,-0.1867523193359375,0.6566314697265625,1.06072998046875
241313,-0.1985015869140625,0.6384124755859375,0.9795989990234376
241314,-0.1986236572265625,0.605712890625,0.905853271484375
241315,-0.195098876953125,0.5903472900390625,0.8638458251953125
241316,-0.1911773681640625,0.5840911865234375,0.8267364501953125
241317,-0.165435791015625,0.568145751953125,0.7758941650390625
241318,-0.129180908203125,0.5485992431640625,0.7182464599609375
241319,-0.102996826171875,0.513885498046875,0.6541900634765625
241320,-0.1310577392578125,0.4701995849609375,0.591278076171875
241321,-0.2259521484375,0.4326629638671875,0.5647430419921875
241322,-0.3395538330078125,0.4265594482421875,0.5806732177734375
241323,-0.423553466796875,0.456024169921875,0.61248779296875
241324,-0.4410858154296875,0.47735595703125,0.632965087890625
241325,-0.4021148681640625,0.5000457763671875,0.628662109375
241326,-0.329681396484375,0.5069427490234375,0.603729248046875
241327,-0.26397705078125,0.505279541015625,0.5465545654296875
241328,-0.2427825927734375,0.4916839599609375,0.4966583251953125
241329,-0.2668914794921875,0.487762451171875,0.4834136962890625
241330,-0.2997894287109375,0.48382568359375,0.5156707763671875
241331,-0.298919677734375,0.50421142578125,0.5963897705078125
241332,-0.24969482421875,0.53985595703125,0.6705474853515625
241333,-0.1524658203125,0.59429931640625,0.7427978515625
241334,-0.0019683837890625,0.6807403564453125,0.8468475341796875
241335,0.143218994140625,0.79095458984375,0.9339447021484376
241336,0.237518310546875,0.8787841796875,1.005722045898438
241337,0.3103485107421875,0.925079345703125,1.026138305664062
241338,0.4141082763671875,0.911834716796875,0.9870452880859376
241339,0.5184783935546875,0.8728179931640625,0.912078857421875
241340,0.544677734375,0.843109130859375,0.8640899658203125
241341,0.460205078125,0.8404541015625,0.8447723388671875
241342,0.3491973876953125,0.80615234375,0.8368988037109375
241343,0.2530059814453125,0.7602691650390625,0.807464599609375
241344,0.193023681640625,0.683135986328125,0.7579803466796875
241345,0.1781005859375,0.596527099609375,0.72119140625
241346,0.172454833984375,0.51141357421875,0.722076416015625
241347,0.1533966064453125,0.4291839599609375,0.7581787109375
241348,0.120269775390625,0.3831634521484375,0.775299072265625
241349,0.0632171630859375,0.4102630615234375,0.7947998046875
241350,-0.0224151611328125,0.4427337646484375,0.8417205810546875
241351,-0.1451568603515625,0.4713134765625,0.8491668701171875
241352,-0.2549285888671875,0.4794464111328125,0.85821533203125
241353,-0.337921142578125,0.4949493408203125,0.85516357421875
241354,-0.4239654541015625,0.4193267822265625,0.827972412109375
241355,-0.47216796875,0.344085693359375,0.79266357421875
241356,-0.47235107421875,0.3242645263671875,0.752288818359375
241357,-0.512939453125,0.3279266357421875,0.705230712890625
241358,-0.5979461669921875,0.3431396484375,0.69366455078125
241359,-0.654510498046875,0.372772216796875,0.7355194091796875
241360,-0.66766357421875,0.403961181640625,0.794647216796875
241361,-0.668548583984375,0.440277099609375,0.82440185546875
241362,-0.684326171875,0.51300048828125,0.8301849365234375
241363,-0.690399169921875,0.605072021484375,0.8448944091796875
241364,-0.6573638916015625,0.660064697265625,0.864959716796875
241365,-0.5925140380859375,0.670166015625,0.8994598388671875
241366,-0.518798828125,0.70556640625,0.995880126953125
241367,-0.4308929443359375,0.7409820556640625,1.107757568359375
241368,-0.398681640625,0.7769927978515625,1.186050415039062
241369,-0.37548828125,0.7170867919921875,1.16021728515625
241370,-0.3037109375,0.67138671875,1.112258911132812
241371,-0.199066162109375,0.653961181640625,1.07843017578125
241372,-0.07635498046875,0.597930908203125,1.016845703125
241373,0.02374267578125,0.5279541015625,0.978759765625
241374,0.0555877685546875,0.4779052734375,0.96099853515625
241375,0.04510498046875,0.406219482421875,0.946624755859375
241376,0.0241851806640625,0.2779998779296875,0.8802032470703125
241377,-0.02850341796875,0.14453125,0.781982421875
241378,-0.0982513427734375,0.079742431640625,0.71270751953125
241379,-0.1717987060546875,0.0986785888671875,0.6865081787109375
241380,-0.222015380859375,0.190765380859375,0.7180938720703125
241381,-0.227783203125,0.28289794921875,0.7729034423828125
241382,-0.19744873046875,0.3045654296875,0.7973785400390625
241383,-0.1399078369140625,0.3124237060546875,0.823394775390625
241384,-0.08978271484375,0.3589935302734375,0.8641357421875
241385,-0.073974609375,0.4259490966796875,0.9054107666015624
241386,-0.080657958984375,0.4672393798828125,0.8972930908203125
241387,-0.0809478759765625,0.490631103515625,0.816650390625
241388,-0.05145263671875,0.527587890625,0.7266845703125
241389,-0.024627685546875,0.5626983642578125,0.63470458984375
241390,-0.006195068359375,0.601959228515625,0.5611724853515625
241391,0.0233154296875,0.6485748291015625,0.5131988525390625
241392,0.048431396484375,0.6692962646484375,0.4960174560546875
241393,0.0611572265625,0.710296630859375,0.5678558349609375
241394,0.08642578125,0.850616455078125,0.689422607421875
241395,0.1568756103515625,1.046951293945312,0.84771728515625
241396,0.2731475830078125,1.224472045898438,0.984222412109375
241397,0.3881683349609375,1.316864013671875,1.048248291015625
241398,0.448455810546875,1.2501220703125,0.9911041259765624
241399,0.4557647705078125,1.056167602539062,0.851104736328125
241400,0.392730712890625,0.9263153076171876,0.7220306396484375
241401,0.2700347900390625,0.909912109375,0.6901397705078125
241402,0.1504974365234375,0.86688232421875,0.66766357421875
241403,0.092254638671875,0.757843017578125,0.6762542724609375
241404,0.1077423095703125,0.6282958984375,0.63214111328125
241405,0.138885498046875,0.5098419189453125,0.5609893798828125
241406,0.1309051513671875,0.428314208984375,0.519744873046875
241407,0.082366943359375,0.397918701171875,0.4901580810546875
241408,0.052032470703125,0.400909423828125,0.5008697509765625
241409,0.0323944091796875,0.412322998046875,0.55078125
241410,-0.0292205810546875,0.418365478515625,0.6239471435546875
241411,-0.133026123046875,0.408966064453125,0.7298431396484375
241412,-0.2342529296875,0.385650634765625,0.8295135498046875
241413,-0.3121337890625,0.3825836181640625,0.8606109619140625
241414,-0.38177490234375,0.370361328125,0.8234100341796875
241415,-0.462860107421875,0.3094635009765625,0.7788543701171875
241416,-0.5626373291015625,0.2568817138671875,0.740692138671875
241417,-0.67236328125,0.253997802734375,0.7206878662109375
241418,-0.766082763671875,0.2604522705078125,0.7050933837890625
241419,-0.8303070068359375,0.2477264404296875,0.689300537109375
241420,-0.8621673583984375,0.2376708984375,0.7024993896484375
241421,-0.8653717041015625,0.247314453125,0.757354736328125
241422,-0.8351287841796875,0.2736053466796875,0.8335418701171875
241423,-0.780059814453125,0.3176727294921875,0.943572998046875
241424,-0.7170867919921875,0.3894805908203125,1.06024169921875
241425,-0.6485137939453125,0.4929656982421875,1.164535522460938
241426,-0.59002685546875,0.551483154296875,1.199859619140625
241427,-0.5493316650390625,0.5079193115234375,1.118179321289062
241428,-0.5003814697265625,0.5030517578125,1.046279907226562
241429,-0.4515838623046875,0.577728271484375,1.023651123046875
241430,-0.4243621826171875,0.5883331298828125,0.9545135498046876
241431,-0.37969970703125,0.5517425537109375,0.867828369140625
241432,-0.2864227294921875,0.5321197509765625,0.802642822265625
241433,-0.1843414306640625,0.5264129638671875,0.7656097412109375
241434,-0.0974273681640625,0.5785064697265625,0.80303955078125
241435,-0.037200927734375,0.6771392822265625,0.8772735595703125
241436,0.020416259765625,0.742645263671875,0.9622344970703124
241437,0.114410400390625,0.719146728515625,0.9984588623046876
241438,0.1664581298828125,0.673797607421875,0.890472412109375
241439,0.109954833984375,0.6439971923828125,0.705841064453125
241440,-0.03228759765625,0.6146087646484375,0.5336151123046875
241441,-0.2014923095703125,0.6078948974609375,0.47210693359375
241442,-0.3700103759765625,0.6222991943359375,0.493560791015625
241443,-0.4792938232421875,0.6389007568359375,0.5493316650390625
241444,-0.4713134765625,0.631805419921875,0.564178466796875
241445,-0.389190673828125,0.6108856201171875,0.5147705078125
241446,-0.327850341796875,0.6109466552734375,0.4633941650390625
241447,-0.3034515380859375,0.6327972412109375,0.5007476806640625
241448,-0.2842864990234375,0.6689300537109375,0.634979248046875
241449,-0.23724365234375,0.70123291015625,0.7740631103515625
241450,-0.1357269287109375,0.7278900146484375,0.86395263671875
241451,0.03216552734375,0.7543487548828125,0.935272216796875
241452,0.1634368896484375,0.7836761474609375,0.9939422607421876
241453,0.207550048828125,0.7918243408203125,0.99957275390625
241454,0.252960205078125,0.7969207763671875,0.871124267578125
241455,0.344635009765625,0.828643798828125,0.75897216796875
241456,0.4201202392578125,0.8484954833984375,0.751434326171875
241457,0.427398681640625,0.9196624755859376,0.8390655517578125
241458,0.378662109375,0.97711181640625,0.9313507080078124
241459,0.311798095703125,0.905181884765625,0.8922576904296875
241460,0.2608184814453125,0.784423828125,0.8049468994140625
241461,0.198944091796875,0.7197723388671875,0.7373809814453125
241462,0.117462158203125,0.6443328857421875,0.6986541748046875
241463,0.048858642578125,0.558258056640625,0.6905975341796875
241464,0.0265045166015625,0.484527587890625,0.702239990234375
241465,0.0375518798828125,0.4131927490234375,0.697601318359375
241466,0.0479583740234375,0.3566436767578125,0.68292236328125
241467,0.033355712890625,0.34112548828125,0.63238525390625
241468,-0.0076904296875,0.3681488037109375,0.617584228515625
241469,-0.0735626220703125,0.393585205078125,0.670745849609375
241470,-0.1561126708984375,0.3911590576171875,0.72772216796875
241471,-0.2516021728515625,0.3811492919921875,0.76043701171875
241472,-0.3576507568359375,0.37030029296875,0.7886810302734375
241473,-0.456451416015625,0.348876953125,0.802581787109375
241474,-0.571868896484375,0.31231689453125,0.798095703125
241475,-0.724609375,0.274139404296875,0.8172760009765625
241476,-0.88421630859375,0.2764129638671875,0.86614990234375
241477,-1.01434326171875,0.321502685546875,0.9210662841796876
241478,-1.077423095703125,0.3541717529296875,0.9484405517578124
241479,-1.082550048828125,0.3815765380859375,0.9433746337890624
241480,-1.017379760742188,0.4189605712890625,0.9368896484375
241481,-0.89788818359375,0.473724365234375,0.9083099365234376
241482,-0.7967071533203125,0.52191162109375,0.877532958984375
241483,-0.740753173828125,0.5390777587890625,0.846466064453125
241484,-0.7198944091796875,0.5472869873046875,0.854827880859375
241485,-0.7020416259765625,0.5542755126953125,0.879669189453125
241486,-0.6525726318359375,0.55340576171875,0.9246826171875
241487,-0.5728912353515625,0.560791015625,0.9482879638671876
241488,-0.50115966796875,0.5753021240234375,0.9457855224609376
241489,-0.43182373046875,0.5710906982421875,0.9909515380859376
241490,-0.356201171875,0.565185546875,1.040252685546875
241491,-0.2285003662109375,0.50836181640625,1.049026489257812
241492,-0.0517120361328125,0.4558868408203125,1.091827392578125
241493,0.147613525390625,0.42877197265625,1.154205322265625
241494,0.304718017578125,0.3956146240234375,1.08477783203125
241495,0.4288787841796875,0.394378662109375,0.6927642822265625
241496,0.4288330078125,0.45928955078125,0.4977874755859375
241497,0.2322998046875,0.4882659912109375,0.6613616943359375
241498,0.008087158203125,0.4223785400390625,0.7138671875
241499,-0.1269989013671875,0.35552978515625,0.7128143310546875
241500,-0.1888580322265625,0.3515167236328125,0.7119293212890625
241501,-0.226104736328125,0.389862060546875,0.7011566162109375
241502,-0.2456817626953125,0.41888427734375,0.691192626953125
241503,-0.2565765380859375,0.4300384521484375,0.6989898681640625
241504,-0.244537353515625,0.49102783203125,0.712677001953125
241505,-0.1978759765625,0.6198577880859375,0.7250823974609375
241506,-0.1377716064453125,0.7400970458984375,0.713409423828125
241507,-0.0996551513671875,0.7841339111328125,0.7071685791015625
241508,-0.095428466796875,0.7818603515625,0.6869354248046875
241509,-0.1188201904296875,0.802459716796875,0.6331024169921875
241510,-0.1356964111328125,0.86712646484375,0.5997467041015625
241511,-0.1291961669921875,0.9597015380859376,0.6230621337890625
241512,-0.0668487548828125,1.05780029296875,0.6905670166015625
241513,0.103973388671875,1.120437622070312,0.73406982421875
241514,0.35345458984375,1.092193603515625,0.794952392578125
241515,0.581024169921875,1.024078369140625,0.8216400146484375
241516,0.7281951904296875,0.964752197265625,0.7935943603515625
241517,0.760894775390625,0.93768310546875,0.6919097900390625
241518,0.71240234375,0.9103851318359376,0.5986785888671875
241519,0.6424407958984375,0.8299102783203125,0.55047607421875
241520,0.5236968994140625,0.721160888671875,0.546051025390625
241521,0.3698272705078125,0.6489105224609375,0.582122802734375
241522,0.2402496337890625,0.618194580078125,0.64404296875
241523,0.1495513916015625,0.582183837890625,0.69378662109375
241524,0.0641632080078125,0.5233917236328125,0.7180938720703125
241525,-0.0367279052734375,0.464569091796875,0.726837158203125
241526,-0.1505279541015625,0.4307403564453125,0.7434234619140625
241527,-0.28802490234375,0.4169769287109375,0.7768707275390625
241528,-0.427764892578125,0.420989990234375,0.8005828857421875
241529,-0.5152435302734375,0.4228057861328125,0.8089752197265625
241530,-0.5458831787109375,0.40557861328125,0.791839599609375
241531,-0.564666748046875,0.375579833984375,0.7400970458984375
241532,-0.5936737060546875,0.323974609375,0.6747589111328125
241533,-0.6710357666015625,0.2610931396484375,0.615570068359375
241534,-0.7804107666015625,0.204437255859375,0.6300506591796875
241535,-0.89166259765625,0.201690673828125,0.68719482421875
241536,-0.98199462890625,0.2306671142578125,0.73614501953125
241537,-0.9824371337890624,0.2507476806640625,0.8089752197265625
241538,-0.901092529296875,0.2489013671875,0.852264404296875
241539,-0.7982635498046875,0.22637939453125,0.906005859375
241540,-0.692657470703125,0.2232208251953125,0.976715087890625
241541,-0.601715087890625,0.2706298828125,1.027511596679688
241542,-0.528350830078125,0.3726043701171875,1.081451416015625
241543,-0.4609222412109375,0.51287841796875,1.141433715820312
241544,-0.38336181640625,0.6347198486328125,1.188934326171875
241545,-0.3123321533203125,0.689300537109375,1.173065185546875
241546,-0.2531280517578125,0.75054931640625,1.153640747070312
241547,-0.181549072265625,0.8079681396484375,1.136871337890625
241548,-0.1073455810546875,0.813629150390625,1.111129760742188
241549,-0.06201171875,0.7844085693359375,1.044754028320312
241550,-0.03216552734375,0.76611328125,0.9906158447265624
241551,-0.0046539306640625,0.7225799560546875,0.9273223876953124
241552,0.01220703125,0.644744873046875,0.8274993896484375
241553,0.0010833740234375,0.546875,0.7104644775390625
241554,-0.0379638671875,0.4672393798828125,0.6088714599609375
241555,-0.079498291015625,0.4309234619140625,0.5729522705078125
241556,-0.126708984375,0.4130706787109375,0.5834197998046875
241557,-0.1562347412109375,0.39874267578125,0.59332275390625
241558,-0.1679229736328125,0.379058837890625,0.5576629638671875
241559,-0.189727783203125,0.361663818359375,0.4923858642578125
241560,-0.183349609375,0.368011474609375,0.486968994140625
241561,-0.1707611083984375,0.427276611328125,0.49896240234375
241562,-0.1546630859375,0.5057525634765625,0.5482025146484375
241563,-0.12677001953125,0.5638885498046875,0.645721435546875
241564,-0.0765228271484375,0.62225341796875,0.7783355712890625
241565,0.002471923828125,0.7052154541015625,0.8956298828125
241566,0.1049957275390625,0.7640838623046875,0.9661102294921876
241567,0.1865234375,0.7983856201171875,1.001052856445312
241568,0.2085113525390625,0.8624267578125,1.011138916015625
241569,0.1861419677734375,0.92999267578125,0.985137939453125
241570,0.1977081298828125,0.954498291015625,0.9383392333984376
241571,0.250457763671875,0.9378814697265624,0.8931732177734375
241572,0.329193115234375,0.89404296875,0.8768768310546875
241573,0.4034881591796875,0.8507537841796875,0.8570709228515625
241574,0.45745849609375,0.8072662353515625,0.8480987548828125
241575,0.4868316650390625,0.749969482421875,0.8131561279296875
241576,0.504608154296875,0.6753692626953125,0.742156982421875
241577,0.501739501953125,0.5955810546875,0.68707275390625
241578,0.45782470703125,0.574493408203125,0.6370849609375
241579,0.35882568359375,0.605560302734375,0.593109130859375
241580,0.2379150390625,0.5725555419921875,0.612579345703125
241581,0.0986175537109375,0.496063232421875,0.665191650390625
241582,-0.0554656982421875,0.4132232666015625,0.6893768310546875
241583,-0.2304534912109375,0.3573150634765625,0.6521453857421875
241584,-0.4199676513671875,0.3657379150390625,0.6207733154296875
241585,-0.58642578125,0.375274658203125,0.6534423828125
241586,-0.6931610107421875,0.361785888671875,0.705780029296875
241587,-0.71600341796875,0.343231201171875,0.7634735107421875
241588,-0.7183990478515625,0.338226318359375,0.796478271484375
241589,-0.7483978271484375,0.3303680419921875,0.826904296875
241590,-0.787017822265625,0.3035125732421875,0.8906402587890625
241591,-0.8438720703125,0.2911224365234375,0.9445343017578124
241592,-0.937042236328125,0.31097412109375,0.953216552734375
241593,-1.033950805664062,0.3744964599609375,0.9594268798828124
241594,-1.033401489257812,0.4669647216796875,0.9676361083984376
241595,-0.9476776123046876,0.5428009033203125,0.951629638671875
241596,-0.88177490234375,0.5697021484375,0.9234466552734376
241597,-0.8340911865234375,0.56378173828125,0.9042510986328124
241598,-0.790863037109375,0.5636444091796875,0.91290283203125
241599,-0.7304229736328125,0.5683746337890625,0.9574432373046876
241600,-0.6488494873046875,0.5806121826171875,1.010757446289062
241601,-0.558380126953125,0.6153717041015625,1.032958984375
241602,-0.460693359375,0.6565399169921875,1.030242919921875
241603,-0.3450164794921875,0.6772308349609375,1.020721435546875
241604,-0.230560302734375,0.67742919921875,0.9933319091796876
241605,-0.10467529296875,0.6438751220703125,0.9769439697265624
241606,0.0211029052734375,0.573638916015625,0.9354095458984376
241607,0.1529998779296875,0.46728515625,0.883209228515625
241608,0.2694549560546875,0.364105224609375,0.84808349609375
241609,0.350067138671875,0.3113250732421875,0.8750762939453125
241610,0.4333953857421875,0.3795928955078125,0.7769012451171875
241611,0.471893310546875,0.4947967529296875,0.630279541015625
241612,0.3725433349609375,0.520355224609375,0.632720947265625
241613,0.1813201904296875,0.470062255859375,0.7109375
241614,0.0470428466796875,0.3861083984375,0.6743927001953125
241615,-0.031768798828125,0.337432861328125,0.6351470947265625
241616,-0.098602294921875,0.364532470703125,0.6376800537109375
241617,-0.150787353515625,0.4803619384765625,0.6254425048828125
241618,-0.1581573486328125,0.6235198974609375,0.607208251953125
241619,-0.1337738037109375,0.719085693359375,0.604705810546875
241620,-0.117767333984375,0.7762908935546875,0.616607666015625
241621,-0.1033782958984375,0.83294677734375,0.6598052978515625
241622,-0.09332275390625,0.909210205078125,0.7523193359375
241623,-0.0620269775390625,1.006851196289062,0.823760986328125
241624,0.035125732421875,1.093475341796875,0.8299713134765625
241625,0.193603515625,1.13250732421875,0.76116943359375
241626,0.3369903564453125,1.170425415039062,0.68896484375
241627,0.454986572265625,1.152679443359375,0.6939697265625
241628,0.5012359619140625,1.054306030273438,0.699066162109375
241629,0.50262451171875,0.936370849609375,0.68792724609375
241630,0.4750518798828125,0.844818115234375,0.63983154296875
241631,0.4457855224609375,0.7432403564453125,0.5831451416015625
241632,0.3904876708984375,0.6372833251953125,0.5432586669921875
241633,0.29156494140625,0.5487823486328125,0.5518035888671875
241634,0.1731414794921875,0.4859161376953125,0.6031341552734375
241635,0.0758514404296875,0.454864501953125,0.6739959716796875
241636,-0.00396728515625,0.434417724609375,0.7366180419921875
241637,-0.086822509765625,0.3913421630859375,0.7676849365234375
241638,-0.1760711669921875,0.36944580078125,0.7522735595703125
241639,-0.26153564453125,0.3616180419921875,0.746917724609375
241640,-0.332763671875,0.3367767333984375,0.7744598388671875
241641,-0.397430419921875,0.2946319580078125,0.8050689697265625
241642,-0.4428253173828125,0.2695159912109375,0.820556640625
241643,-0.49114990234375,0.2687225341796875,0.7873687744140625
241644,-0.5378265380859375,0.2612152099609375,0.7172393798828125
241645,-0.585296630859375,0.2223358154296875,0.652374267578125
241646,-0.6583404541015625,0.1836090087890625,0.6188507080078125
241647,-0.7583770751953125,0.1674652099609375,0.66339111328125
241648,-0.833831787109375,0.183380126953125,0.7449188232421875
241649,-0.84197998046875,0.215576171875,0.8273773193359375
241650,-0.7693023681640625,0.245697021484375,0.917755126953125
241651,-0.6597900390625,0.2531585693359375,1.0006103515625
241652,-0.5622100830078125,0.2698211669921875,1.06378173828125
241653,-0.4949798583984375,0.36016845703125,1.130157470703125
241654,-0.4498748779296875,0.5070343017578125,1.186050415039062
241655,-0.4150848388671875,0.6820220947265625,1.244522094726562
241656,-0.3887481689453125,0.8058929443359375,1.269302368164062
241657,-0.3398284912109375,0.832000732421875,1.214279174804688
241658,-0.2583465576171875,0.841796875,1.126983642578125
241659,-0.1782379150390625,0.8408966064453125,1.05645751953125
241660,-0.1209564208984375,0.8042144775390625,1.000289916992188
241661,-0.085235595703125,0.762603759765625,0.93450927734375
241662,-0.06378173828125,0.7167205810546875,0.8527984619140625
241663,-0.072174072265625,0.662445068359375,0.7566375732421875
241664,-0.1174468994140625,0.6016998291015625,0.6678009033203125
241665,-0.206573486328125,0.5502471923828125,0.59222412109375
241666,-0.315277099609375,0.5271148681640625,0.5327911376953125
241667,-0.4057159423828125,0.548858642578125,0.4796905517578125
241668,-0.427581787109375,0.56793212890625,0.4880828857421875
241669,-0.3789520263671875,0.5611572265625,0.528289794921875
241670,-0.3101348876953125,0.5422210693359375,0.558868408203125
241671,-0.25115966796875,0.5509033203125,0.614013671875
241672,-0.21917724609375,0.6192779541015625,0.6715850830078125
241673,-0.2051849365234375,0.6738739013671875,0.7168121337890625
241674,-0.188262939453125,0.663238525390625,0.74884033203125
241675,-0.1322174072265625,0.6418304443359375,0.779693603515625
241676,-0.0487823486328125,0.6565399169921875,0.7850799560546875
241677,0.0585784912109375,0.7038726806640625,0.7917633056640625
241678,0.1721343994140625,0.779998779296875,0.8026275634765625
241679,0.28143310546875,0.837158203125,0.857025146484375
241680,0.372650146484375,0.853607177734375,0.904205322265625
241681,0.442169189453125,0.8611602783203125,0.9017791748046876
241682,0.4778594970703125,0.844970703125,0.84747314453125
241683,0.480377197265625,0.81072998046875,0.772430419921875
241684,0.4558258056640625,0.74072265625,0.7229461669921875
241685,0.4012298583984375,0.6629180908203125,0.7346343994140625
241686,0.34844970703125,0.608123779296875,0.798095703125
241687,0.3210601806640625,0.5715484619140625,0.8176422119140625
241688,0.3145294189453125,0.5599822998046875,0.7675933837890625
241689,0.3053741455078125,0.56402587890625,0.6956329345703125
241690,0.2888336181640625,0.5217742919921875,0.6353302001953125
241691,0.2333526611328125,0.449920654296875,0.575042724609375
241692,0.1157073974609375,0.4348602294921875,0.5491485595703125
241693,-0.04315185546875,0.450927734375,0.592498779296875
241694,-0.24261474609375,0.45513916015625,0.6383056640625
241695,-0.4296722412109375,0.442230224609375,0.6808624267578125
241696,-0.5373382568359375,0.4360504150390625,0.7397613525390625
241697,-0.567291259765625,0.4437255859375,0.78631591796875
241698,-0.542938232421875,0.4290924072265625,0.800262451171875
241699,-0.5260009765625,0.4153289794921875,0.7826080322265625
241700,-0.56988525390625,0.400726318359375,0.7639312744140625
241701,-0.677581787109375,0.3836669921875,0.78851318359375
241702,-0.824951171875,0.358734130859375,0.84515380859375
241703,-0.983642578125,0.377105712890625,0.902923583984375
241704,-1.100845336914062,0.4669952392578125,0.91436767578125
241705,-1.121856689453125,0.589996337890625,0.9163970947265624
241706,-1.0491943359375,0.712799072265625,0.881439208984375
241707,-0.938385009765625,0.7601318359375,0.841094970703125
241708,-0.84661865234375,0.73553466796875,0.8299102783203125
241709,-0.7830047607421875,0.7022705078125,0.8314361572265625
241710,-0.7083587646484375,0.695220947265625,0.8970794677734375
241711,-0.5791473388671875,0.714569091796875,0.994964599609375
241712,-0.4272918701171875,0.7437591552734375,1.0596923828125
241713,-0.3043365478515625,0.7831573486328125,1.080657958984375
241714,-0.23443603515625,0.79718017578125,1.049240112304688
241715,-0.1879730224609375,0.76336669921875,0.99847412109375
241716,-0.14813232421875,0.733428955078125,0.999847412109375
241717,-0.0923919677734375,0.673553466796875,1.00506591796875
241718,-0.02227783203125,0.5749664306640625,0.9619293212890624
241719,0.070068359375,0.4598388671875,0.926239013671875
241720,0.1678619384765625,0.365020751953125,0.8412017822265625
241721,0.226287841796875,0.2960205078125,0.756866455078125
241722,0.2426910400390625,0.2753753662109375,0.6710205078125
241723,0.2088623046875,0.2941131591796875,0.619140625
241724,0.1171417236328125,0.28125,0.6022796630859375
241725,0.0115203857421875,0.248809814453125,0.64178466796875
241726,-0.032958984375,0.2944183349609375,0.6920623779296875
241727,0.0169525146484375,0.50323486328125,0.70904541015625
241728,0.1275634765625,0.682769775390625,0.6607666015625
241729,0.222900390625,0.7153778076171875,0.550262451171875
241730,0.266693115234375,0.741363525390625,0.465911865234375
241731,0.2720489501953125,0.808074951171875,0.492462158203125
241732,0.2401580810546875,0.8939361572265625,0.6118621826171875
241733,0.20855712890625,0.9722442626953124,0.7543487548828125
241734,0.2051544189453125,1.045516967773438,0.852752685546875
241735,0.2322998046875,1.095657348632812,0.8932647705078125
241736,0.2891845703125,1.105941772460938,0.858734130859375
241737,0.373016357421875,1.06939697265625,0.7924041748046875
241738,0.440826416015625,0.9915618896484376,0.748687744140625
241739,0.4783172607421875,0.9046478271484376,0.704345703125
241740,0.47576904296875,0.838775634765625,0.6760406494140625
241741,0.4328460693359375,0.8047943115234375,0.6588287353515625
241742,0.357696533203125,0.7859649658203125,0.640106201171875
241743,0.273193359375,0.6935882568359375,0.6362457275390625
241744,0.188751220703125,0.5894927978515625,0.627716064453125
241745,0.1084136962890625,0.52471923828125,0.6431884765625
241746,0.0184478759765625,0.4765167236328125,0.669097900390625
241747,-0.08221435546875,0.4371337890625,0.686859130859375
241748,-0.189208984375,0.4027099609375,0.700775146484375
241749,-0.2837066650390625,0.3589324951171875,0.7229156494140625
241750,-0.342315673828125,0.315093994140625,0.733306884765625
241751,-0.3741455078125,0.2928924560546875,0.711883544921875
241752,-0.366302490234375,0.27166748046875,0.6970977783203125
241753,-0.33966064453125,0.2308502197265625,0.67694091796875
241754,-0.3324432373046875,0.1912384033203125,0.66058349609375
241755,-0.36700439453125,0.1919403076171875,0.6535797119140625
241756,-0.4468994140625,0.2187652587890625,0.673828125
241757,-0.5744781494140625,0.258514404296875,0.6934967041015625
241758,-0.712860107421875,0.29302978515625,0.6961212158203125
241759,-0.812652587890625,0.3083953857421875,0.691375732421875
241760,-0.852935791015625,0.324981689453125,0.6978912353515625
241761,-0.845001220703125,0.3597869873046875,0.74017333984375
241762,-0.8044281005859375,0.394866943359375,0.7920074462890625
241763,-0.730224609375,0.415069580078125,0.8484649658203125
241764,-0.6406402587890625,0.4332275390625,0.913909912109375
241765,-0.5570831298828125,0.47869873046875,0.97418212890625
241766,-0.476043701171875,0.5483551025390625,1.035491943359375
241767,-0.400909423828125,0.6318817138671875,1.089691162109375
241768,-0.3333892822265625,0.71673583984375,1.137954711914062
241769,-0.2783966064453125,0.7924957275390625,1.16156005859375
241770,-0.2371826171875,0.8355865478515625,1.155975341796875
241771,-0.1867828369140625,0.80352783203125,1.089447021484375
241772,-0.1363983154296875,0.77728271484375,0.9862060546875
241773,-0.1034088134765625,0.7938079833984375,0.9263916015625
241774,-0.094940185546875,0.756378173828125,0.87548828125
241775,-0.11041259765625,0.6875,0.7945556640625
241776,-0.1279296875,0.632232666015625,0.704254150390625
241777,-0.1237335205078125,0.594818115234375,0.6280670166015625
241778,-0.1109771728515625,0.5729522705078125,0.5714263916015625
241779,-0.105987548828125,0.5599822998046875,0.5524139404296875
241780,-0.106842041015625,0.548492431640625,0.552337646484375
241781,-0.123504638671875,0.5320892333984375,0.56268310546875
241782,-0.1613922119140625,0.53363037109375,0.56561279296875
241783,-0.1844635009765625,0.5555419921875,0.569549560546875
241784,-0.199981689453125,0.574798583984375,0.5613250732421875
241785,-0.212127685546875,0.5847015380859375,0.562103271484375
241786,-0.2069244384765625,0.5754241943359375,0.5658111572265625
241787,-0.2032623291015625,0.5527191162109375,0.5646514892578125
241788,-0.2310943603515625,0.551055908203125,0.5619049072265625
241789,-0.2744598388671875,0.5753631591796875,0.5760650634765625
241790,-0.2909088134765625,0.6057891845703125,0.66461181640625
241791,-0.270416259765625,0.63861083984375,0.757476806640625
241792,-0.2347564697265625,0.7071685791015625,0.831451416015625
241793,-0.1380615234375,0.7906341552734375,0.9325408935546876
241794,0.017913818359375,0.8503570556640625,1.020721435546875
241795,0.1951446533203125,0.880615234375,1.034820556640625
241796,0.3597259521484375,0.9246978759765624,1.017898559570312
241797,0.484649658203125,0.9821929931640624,0.9246673583984376
241798,0.55322265625,1.013412475585938,0.879150390625
241799,0.558837890625,0.990875244140625,0.8784637451171875
241800,0.523529052734375,0.9175567626953124,0.8905029296875
241801,0.4973297119140625,0.817352294921875,0.864227294921875
241802,0.51336669921875,0.7578887939453125,0.800811767578125
241803,0.523468017578125,0.72491455078125,0.7410888671875
241804,0.5226898193359375,0.6912841796875,0.71380615234375
241805,0.498809814453125,0.6717681884765625,0.697235107421875
241806,0.4288330078125,0.6773529052734375,0.7108154296875
241807,0.333709716796875,0.649658203125,0.7492218017578125
241808,0.206390380859375,0.5761260986328125,0.7755584716796875
241809,0.0379791259765625,0.499786376953125,0.7964935302734375
241810,-0.143585205078125,0.468017578125,0.8060302734375
241811,-0.315673828125,0.4592132568359375,0.8119659423828125
241812,-0.46142578125,0.452606201171875,0.853668212890625
241813,-0.5877685546875,0.43743896484375,0.8765869140625
241814,-0.6821746826171875,0.4211883544921875,0.9149017333984376
241815,-0.72967529296875,0.431671142578125,0.948272705078125
241816,-0.74066162109375,0.4270782470703125,0.95977783203125
241817,-0.7734527587890625,0.416290283203125,0.9693603515625
241818,-0.8318023681640625,0.4304962158203125,0.992462158203125
241819,-0.87335205078125,0.46942138671875,0.97637939453125
241820,-0.896026611328125,0.5267791748046875,0.9217987060546876
241821,-0.86474609375,0.584442138671875,0.8640289306640625
241822,-0.81976318359375,0.6018829345703125,0.8266448974609375
241823,-0.7892913818359375,0.5679779052734375,0.8222808837890625
241824,-0.743499755859375,0.5069580078125,0.83868408203125
241825,-0.672821044921875,0.4593963623046875,0.8665008544921875
241826,-0.588348388671875,0.4712066650390625,0.8902587890625
241827,-0.4989166259765625,0.517486572265625,0.8935394287109375
241828,-0.40142822265625,0.540130615234375,0.8794708251953125
241829,-0.3055877685546875,0.52886962890625,0.854705810546875
241830,-0.225311279296875,0.5016632080078125,0.82073974609375
241831,-0.155364990234375,0.4562225341796875,0.8008575439453125
241832,-0.091278076171875,0.414703369140625,0.7740020751953125
241833,-0.0171356201171875,0.3419342041015625,0.7432403564453125
241834,0.08953857421875,0.2613525390625,0.727783203125
241835,0.1962890625,0.1925506591796875,0.718902587890625
241836,0.2979583740234375,0.194244384765625,0.7228546142578125
241837,0.390380859375,0.3199920654296875,0.6348724365234375
241838,0.415130615234375,0.4268646240234375,0.5298309326171875
241839,0.3128814697265625,0.4104156494140625,0.5321197509765625
241840,0.176055908203125,0.3676300048828125,0.6411285400390625
241841,0.0812530517578125,0.361083984375,0.7336578369140625
241842,0.0441131591796875,0.4068603515625,0.729583740234375
241843,0.0186004638671875,0.4785308837890625,0.6769866943359375
241844,-0.007598876953125,0.5445556640625,0.629852294921875
241845,-0.0218658447265625,0.614013671875,0.5930023193359375
241846,-0.0286712646484375,0.676910400390625,0.5916900634765625
241847,-0.0268096923828125,0.7438201904296875,0.611083984375
241848,-0.00115966796875,0.79388427734375,0.658935546875
241849,0.03082275390625,0.837066650390625,0.7350921630859375
241850,0.0441436767578125,0.894561767578125,0.8463134765625
241851,0.04962158203125,0.975341796875,0.893280029296875
241852,0.0731658935546875,1.06268310546875,0.8844451904296875
241853,0.1386566162109375,1.085845947265625,0.85443115234375
241854,0.2293701171875,1.0240478515625,0.812591552734375
241855,0.3107757568359375,0.90625,0.7820892333984375
241856,0.3438873291015625,0.78302001953125,0.73980712890625
241857,0.316619873046875,0.7089080810546875,0.697662353515625
241858,0.24835205078125,0.6461944580078125,0.667938232421875
241859,0.1555023193359375,0.59539794921875,0.6487884521484375
241860,0.0532684326171875,0.579071044921875,0.6623687744140625
241861,-0.0451507568359375,0.594879150390625,0.7091827392578125
241862,-0.119720458984375,0.6188507080078125,0.7563934326171875
241863,-0.159149169921875,0.6184234619140625,0.7824249267578125
241864,-0.1810150146484375,0.5929718017578125,0.7867431640625
241865,-0.19647216796875,0.548614501953125,0.794708251953125
241866,-0.235107421875,0.5020599365234375,0.7975616455078125
241867,-0.309234619140625,0.4769134521484375,0.7838134765625
241868,-0.3911285400390625,0.461700439453125,0.7681427001953125
241869,-0.4640960693359375,0.423370361328125,0.7503662109375
241870,-0.5333099365234375,0.3902587890625,0.735504150390625
241871,-0.591888427734375,0.3790130615234375,0.750823974609375
241872,-0.6349945068359375,0.39276123046875,0.771270751953125
241873,-0.654266357421875,0.42425537109375,0.801483154296875
241874,-0.6238861083984375,0.441558837890625,0.836212158203125
241875,-0.54388427734375,0.4597015380859375,0.8773651123046875
241876,-0.4512176513671875,0.473388671875,0.9388427734375
241877,-0.3879852294921875,0.4927520751953125,0.99249267578125
241878,-0.3494415283203125,0.5292205810546875,1.037139892578125
241879,-0.316741943359375,0.5899658203125,1.0792236328125
241880,-0.2883758544921875,0.6716766357421875,1.12078857421875
241881,-0.2675018310546875,0.7551422119140625,1.1279296875
241882,-0.2461395263671875,0.8144378662109375,1.090576171875
241883,-0.231109619140625,0.8180999755859375,1.014114379882812
241884,-0.2481689453125,0.7810821533203125,0.9256744384765624
241885,-0.2936248779296875,0.74786376953125,0.8979339599609375
241886,-0.348052978515625,0.72442626953125,0.89990234375
241887,-0.3808441162109375,0.6691436767578125,0.8634185791015625
241888,-0.389312744140625,0.6193084716796875,0.810516357421875
241889,-0.3668975830078125,0.5878448486328125,0.758148193359375
241890,-0.3245697021484375,0.5570831298828125,0.696624755859375
241891,-0.2977142333984375,0.5115966796875,0.6350555419921875
241892,-0.293609619140625,0.46563720703125,0.5984649658203125
241893,-0.3151397705078125,0.4353179931640625,0.5660552978515625
241894,-0.331146240234375,0.4252777099609375,0.5531463623046875
241895,-0.3271026611328125,0.4327239990234375,0.5242767333984375
241896,-0.2852325439453125,0.42901611328125,0.4945220947265625
241897,-0.2484130859375,0.413909912109375,0.473907470703125
241898,-0.219757080078125,0.3991546630859375,0.4741973876953125
241899,-0.1947784423828125,0.393768310546875,0.485992431640625
241900,-0.173370361328125,0.4041290283203125,0.493621826171875
241901,-0.158538818359375,0.42333984375,0.5230255126953125
241902,-0.149749755859375,0.4515380859375,0.5814208984375
241903,-0.150421142578125,0.4916839599609375,0.6449432373046875
241904,-0.1506500244140625,0.5509796142578125,0.7071533203125
241905,-0.1252899169921875,0.62921142578125,0.802703857421875
241906,-0.06982421875,0.707794189453125,0.90216064453125
241907,0.0238037109375,0.7816009521484375,0.9720458984375
241908,0.1474151611328125,0.839385986328125,0.99981689453125
241909,0.290802001953125,0.8670806884765625,1.033172607421875
241910,0.460205078125,0.899688720703125,0.9876251220703124
241911,0.6226806640625,0.9659271240234376,0.9332275390625
241912,0.7287750244140625,1.01690673828125,0.9163665771484376
241913,0.7350006103515625,1.029739379882812,0.86248779296875
241914,0.67596435546875,0.934661865234375,0.78631591796875
241915,0.5853424072265625,0.8014984130859375,0.7168731689453125
241916,0.501617431640625,0.7081146240234375,0.7204742431640625
241917,0.416595458984375,0.64599609375,0.7551727294921875
241918,0.3150482177734375,0.596099853515625,0.8079071044921875
241919,0.2152557373046875,0.56622314453125,0.8409576416015625
241920,0.120513916015625,0.549041748046875,0.852874755859375
241921,0.0089263916015625,0.5396270751953125,0.8864898681640625
241922,-0.115081787109375,0.5403594970703125,0.912506103515625
241923,-0.2417449951171875,0.50946044921875,0.898834228515625
241924,-0.372467041015625,0.46893310546875,0.8907928466796875
241925,-0.46026611328125,0.4180145263671875,0.876708984375
241926,-0.49810791015625,0.374755859375,0.8361663818359375
241927,-0.509246826171875,0.3315582275390625,0.809783935546875
241928,-0.4845428466796875,0.300689697265625,0.8167572021484375
241929,-0.4384765625,0.30621337890625,0.8602752685546875
241930,-0.419403076171875,0.329315185546875,0.907989501953125
241931,-0.4640655517578125,0.3525238037109375,0.9337158203125
241932,-0.582183837890625,0.391143798828125,0.9266510009765624
241933,-0.7114410400390625,0.4391021728515625,0.91583251953125
241934,-0.76470947265625,0.50421142578125,0.918914794921875
241935,-0.737701416015625,0.5795745849609375,0.9131622314453124
241936,-0.6814117431640625,0.6258087158203125,0.8978271484375
241937,-0.628082275390625,0.6292572021484375,0.876220703125
241938,-0.5782623291015625,0.6167144775390625,0.87054443359375
241939,-0.52630615234375,0.5991668701171875,0.88665771484375
241940,-0.4570159912109375,0.5781097412109375,0.925506591796875
241941,-0.3814697265625,0.574005126953125,0.9487762451171876
241942,-0.3039703369140625,0.5599212646484375,0.9593353271484376
241943,-0.2351531982421875,0.53167724609375,0.9670562744140624
241944,-0.1926422119140625,0.500152587890625,0.9617156982421876
