time_idx,accelerometerAccelerationX(G),accelerometerAccelerationY(G),accelerometerAccelerationZ(G)
40000,0.1753387451171875,0.6605987548828125,0.5745697021484375
40001,0.147247314453125,0.7042236328125,0.5571136474609375
40002,0.0858917236328125,0.741455078125,0.560211181640625
40003,0.03802490234375,0.7968902587890625,0.588531494140625
40004,0.029327392578125,0.86468505859375,0.634918212890625
40005,0.0677490234375,0.9429168701171876,0.7039337158203125
40006,0.156982421875,1.003982543945312,0.739044189453125
40007,0.285247802734375,1.025100708007812,0.7285919189453125
40008,0.399810791015625,1.026290893554688,0.687164306640625
40009,0.4778289794921875,0.9955596923828124,0.653167724609375
40010,0.5038909912109375,0.9453582763671876,0.6306304931640625
40011,0.4799346923828125,0.8875732421875,0.6194610595703125
40012,0.4198760986328125,0.8283843994140625,0.6567230224609375
40013,0.34234619140625,0.7436981201171875,0.68988037109375
40014,0.255157470703125,0.6508941650390625,0.677093505859375
40015,0.1730499267578125,0.5888519287109375,0.6516265869140625
40016,0.074859619140625,0.5442352294921875,0.6533355712890625
40017,-0.053680419921875,0.5096435546875,0.6996307373046875
40018,-0.200592041015625,0.4759368896484375,0.7651214599609375
40019,-0.3388671875,0.4540863037109375,0.82562255859375
40020,-0.441070556640625,0.4454345703125,0.83319091796875
40021,-0.5115814208984375,0.4196929931640625,0.7906646728515625
40022,-0.545166015625,0.390869140625,0.7396392822265625
40023,-0.558624267578125,0.3798370361328125,0.6861572265625
40024,-0.5900421142578125,0.398590087890625,0.639007568359375
40025,-0.65924072265625,0.4176025390625,0.61578369140625
40026,-0.7421112060546875,0.41510009765625,0.6242523193359375
40027,-0.8143768310546875,0.41253662109375,0.6619110107421875
40028,-0.8705902099609375,0.411773681640625,0.7245330810546875
40029,-0.871490478515625,0.4200286865234375,0.8087921142578125
40030,-0.8310089111328125,0.4382171630859375,0.8978424072265625
40031,-0.782135009765625,0.471282958984375,0.9775390625
40032,-0.735443115234375,0.511749267578125,1.02667236328125
40033,-0.6961212158203125,0.5630950927734375,1.044540405273438
40034,-0.650115966796875,0.6232147216796875,1.024932861328125
40035,-0.606903076171875,0.67529296875,0.96527099609375
40036,-0.5705413818359375,0.7162017822265625,0.9344024658203124
40037,-0.5268402099609375,0.7481689453125,0.9347381591796876
40038,-0.46728515625,0.768463134765625,0.952392578125
40039,-0.3900604248046875,0.79901123046875,0.987762451171875
40040,-0.2830963134765625,0.8392333984375,1.0360107421875
40041,-0.16668701171875,0.8520050048828125,1.016983032226562
40042,-0.0839691162109375,0.830902099609375,0.9091949462890624
40043,-0.0527496337890625,0.759033203125,0.736053466796875
40044,-0.064727783203125,0.652313232421875,0.548858642578125
40045,-0.1143798828125,0.5643463134765625,0.44927978515625
40046,-0.172332763671875,0.5205230712890625,0.4385986328125
40047,-0.23260498046875,0.500762939453125,0.41497802734375
40048,-0.261688232421875,0.486602783203125,0.3996734619140625
40049,-0.227813720703125,0.4679718017578125,0.4080810546875
40050,-0.17059326171875,0.443572998046875,0.420074462890625
40051,-0.141815185546875,0.4452056884765625,0.4707794189453125
40052,-0.1460113525390625,0.457794189453125,0.5653228759765625
40053,-0.1458587646484375,0.518768310546875,0.6898345947265625
40054,-0.08837890625,0.5872650146484375,0.780548095703125
40055,0.000640869140625,0.6274566650390625,0.792938232421875
40056,0.0992279052734375,0.6595001220703125,0.794708251953125
40057,0.1888427734375,0.7143402099609375,0.8128509521484375
40058,0.256072998046875,0.7935333251953125,0.841094970703125
40059,0.3094024658203125,0.851715087890625,0.868316650390625
40060,0.379180908203125,0.9102020263671876,0.9011077880859376
40061,0.4522857666015625,1.03936767578125,0.903839111328125
40062,0.513153076171875,1.106414794921875,0.87579345703125
40063,0.5592803955078125,1.069549560546875,0.8208465576171875
40064,0.5787811279296875,0.9731292724609376,0.77581787109375
40065,0.553680419921875,0.86224365234375,0.7868804931640625
40066,0.4784393310546875,0.7818145751953125,0.7924652099609375
40067,0.380950927734375,0.6883392333984375,0.7539825439453125
40068,0.2763214111328125,0.6238250732421875,0.716064453125
40069,0.15972900390625,0.57611083984375,0.686248779296875
40070,0.0080718994140625,0.54144287109375,0.6934661865234375
40071,-0.163909912109375,0.5008087158203125,0.7353057861328125
40072,-0.325469970703125,0.444549560546875,0.7643890380859375
40073,-0.477386474609375,0.389373779296875,0.7689208984375
40074,-0.6157989501953125,0.3690643310546875,0.781524658203125
40075,-0.7261199951171875,0.3429107666015625,0.798583984375
40076,-0.7916107177734375,0.3150634765625,0.803680419921875
40077,-0.8083953857421875,0.285614013671875,0.79296875
40078,-0.809967041015625,0.2558441162109375,0.7923431396484375
40079,-0.8335723876953125,0.25042724609375,0.8230133056640625
40080,-0.8889007568359375,0.2702789306640625,0.8565673828125
40081,-0.9542388916015624,0.323760986328125,0.889373779296875
40082,-0.990692138671875,0.417633056640625,0.925933837890625
40083,-0.9491424560546876,0.4855194091796875,0.96746826171875
40084,-0.82305908203125,0.5093994140625,0.9916839599609376
40085,-0.689178466796875,0.5479583740234375,1.002838134765625
40086,-0.58636474609375,0.5867767333984375,1.004226684570312
40087,-0.4976806640625,0.586639404296875,0.991851806640625
40088,-0.4151763916015625,0.5502166748046875,1.00042724609375
40089,-0.346405029296875,0.51953125,1.021926879882812
40090,-0.2845916748046875,0.531341552734375,1.034683227539062
40091,-0.22393798828125,0.5298614501953125,1.018905639648438
40092,-0.179931640625,0.51910400390625,0.9756622314453124
40093,-0.1519317626953125,0.5228424072265625,0.8988800048828125
40094,-0.1342010498046875,0.530303955078125,0.841888427734375
40095,-0.1136016845703125,0.530670166015625,0.8261566162109375
40096,-0.0814056396484375,0.52496337890625,0.794921875
40097,-0.0308685302734375,0.508331298828125,0.757537841796875
40098,0.0176544189453125,0.489471435546875,0.708038330078125
40099,0.033905029296875,0.4610443115234375,0.6656494140625
40100,-0.0021514892578125,0.41094970703125,0.6679229736328125
40101,-0.0744476318359375,0.352783203125,0.709442138671875
40102,-0.155670166015625,0.296630859375,0.7645416259765625
40103,-0.2244415283203125,0.2640533447265625,0.800811767578125
40104,-0.2518768310546875,0.2240753173828125,0.8246612548828125
40105,-0.2214813232421875,0.1908416748046875,0.8336639404296875
40106,-0.149566650390625,0.1777801513671875,0.82659912109375
40107,-0.053253173828125,0.1891937255859375,0.8453369140625
40108,0.0509796142578125,0.2574310302734375,0.873291015625
40109,0.1504364013671875,0.4079132080078125,0.8668670654296875
40110,0.2124176025390625,0.5510406494140625,0.8046875
40111,0.2212066650390625,0.574066162109375,0.7317962646484375
40112,0.1660919189453125,0.5788726806640625,0.66131591796875
40113,0.079620361328125,0.63006591796875,0.6434173583984375
40114,0.0246734619140625,0.7006072998046875,0.68109130859375
40115,0.02227783203125,0.7777557373046875,0.7464141845703125
40116,0.09014892578125,0.837310791015625,0.8079986572265625
40117,0.2241363525390625,0.8841705322265625,0.834259033203125
40118,0.3631439208984375,0.9349365234375,0.8219146728515625
40119,0.4627227783203125,0.965606689453125,0.7607574462890625
40120,0.5279541015625,0.94415283203125,0.6691741943359375
40121,0.5497589111328125,0.88916015625,0.583099365234375
40122,0.4995574951171875,0.8360595703125,0.56134033203125
40123,0.4014892578125,0.7611236572265625,0.603546142578125
40124,0.2955780029296875,0.6631011962890625,0.618560791015625
40125,0.201202392578125,0.5726470947265625,0.5783233642578125
40126,0.114013671875,0.511138916015625,0.5396575927734375
40127,0.0144805908203125,0.47149658203125,0.5516815185546875
40128,-0.1017303466796875,0.432220458984375,0.601409912109375
40129,-0.233978271484375,0.3794097900390625,0.6668548583984375
40130,-0.3489532470703125,0.3410186767578125,0.73114013671875
40131,-0.4347991943359375,0.3183441162109375,0.745269775390625
40132,-0.4995574951171875,0.3064422607421875,0.73675537109375
40133,-0.548553466796875,0.2747955322265625,0.7285308837890625
40134,-0.621917724609375,0.24774169921875,0.7496185302734375
40135,-0.74542236328125,0.246124267578125,0.7983551025390625
40136,-0.90869140625,0.251739501953125,0.845550537109375
40137,-1.040802001953125,0.2525177001953125,0.8986968994140625
40138,-1.100357055664062,0.2473297119140625,0.9599761962890624
40139,-1.069320678710938,0.263702392578125,1.03680419921875
40140,-0.974395751953125,0.28363037109375,1.0531005859375
40141,-0.896881103515625,0.3071746826171875,1.008819580078125
40142,-0.8480224609375,0.3605194091796875,0.9593048095703124
40143,-0.824127197265625,0.4270172119140625,0.931610107421875
40144,-0.8008880615234375,0.48101806640625,0.948394775390625
40145,-0.74676513671875,0.52545166015625,0.9815521240234376
40146,-0.6562957763671875,0.57135009765625,1.012161254882812
40147,-0.54315185546875,0.643096923828125,1.015823364257812
40148,-0.412384033203125,0.732513427734375,1.009719848632812
40149,-0.2668304443359375,0.7933349609375,0.9937591552734376
40150,-0.1130218505859375,0.812347412109375,0.92919921875
40151,0.0269317626953125,0.8022308349609375,0.8289642333984375
40152,0.1167755126953125,0.754425048828125,0.7676544189453125
40153,0.12994384765625,0.6889495849609375,0.7116241455078125
40154,0.0862274169921875,0.624542236328125,0.6419219970703125
40155,-0.019989013671875,0.5945587158203125,0.6350250244140625
40156,-0.120941162109375,0.5792694091796875,0.5877685546875
40157,-0.20843505859375,0.573211669921875,0.5142669677734375
40158,-0.2890167236328125,0.5294342041015625,0.5143585205078125
40159,-0.3384857177734375,0.4789581298828125,0.548065185546875
40160,-0.3560638427734375,0.4425506591796875,0.5956878662109375
40161,-0.3553009033203125,0.4317474365234375,0.620147705078125
40162,-0.3506317138671875,0.4368896484375,0.615203857421875
40163,-0.37603759765625,0.4656982421875,0.614776611328125
40164,-0.4085235595703125,0.5075836181640625,0.6200714111328125
40165,-0.3911590576171875,0.5692596435546875,0.6733551025390625
40166,-0.2901153564453125,0.5843658447265625,0.7457275390625
40167,-0.1435394287109375,0.596405029296875,0.757476806640625
40168,0.026641845703125,0.696624755859375,0.785736083984375
40169,0.1907806396484375,0.81884765625,0.8398590087890625
40170,0.311309814453125,0.8990936279296875,0.8766021728515625
40171,0.380645751953125,0.914215087890625,0.9036865234375
40172,0.455169677734375,0.9098358154296876,0.9601593017578124
40173,0.5453338623046875,0.9797515869140624,1.0150146484375
40174,0.6199798583984375,1.027816772460938,1.007919311523438
40175,0.6852569580078125,1.003158569335938,0.96478271484375
40176,0.7115631103515625,0.9613800048828124,0.906829833984375
40177,0.6656341552734375,0.859832763671875,0.904541015625
40178,0.62774658203125,0.7447967529296875,0.8778533935546875
40179,0.5686492919921875,0.67889404296875,0.795318603515625
40180,0.4411468505859375,0.637115478515625,0.7147216796875
40181,0.2241058349609375,0.585205078125,0.7103424072265625
40182,-0.043548583984375,0.5118865966796875,0.76959228515625
40183,-0.2962188720703125,0.4187469482421875,0.7800445556640625
40184,-0.5184173583984375,0.35699462890625,0.73297119140625
40185,-0.6964111328125,0.3314971923828125,0.7067413330078125
40186,-0.8185272216796875,0.314483642578125,0.7194671630859375
40187,-0.8503570556640625,0.30133056640625,0.7569580078125
40188,-0.8160552978515625,0.254302978515625,0.7586212158203125
40189,-0.77410888671875,0.208526611328125,0.749847412109375
40190,-0.779937744140625,0.162017822265625,0.7301025390625
40191,-0.8136138916015625,0.14935302734375,0.76593017578125
40192,-0.8635406494140625,0.20782470703125,0.82171630859375
40193,-0.9286346435546876,0.28759765625,0.8686981201171875
40194,-0.97894287109375,0.3535919189453125,0.925323486328125
40195,-0.992401123046875,0.4329833984375,0.96881103515625
40196,-0.9197235107421876,0.5145416259765625,0.96209716796875
40197,-0.77960205078125,0.5729522705078125,0.9447174072265624
40198,-0.611663818359375,0.5811004638671875,0.9318389892578124
40199,-0.442230224609375,0.5574951171875,0.9155426025390624
40200,-0.3154144287109375,0.5385284423828125,0.9113616943359376
40201,-0.24981689453125,0.5354461669921875,0.9207916259765624
40202,-0.22857666015625,0.542816162109375,0.921844482421875
40203,-0.2325439453125,0.5546417236328125,0.936737060546875
40204,-0.2377471923828125,0.5587921142578125,0.957275390625
40205,-0.2202911376953125,0.5537872314453125,0.946319580078125
40206,-0.152557373046875,0.5365447998046875,0.895782470703125
40207,-0.04730224609375,0.5054473876953125,0.841217041015625
40208,0.0647125244140625,0.466522216796875,0.7863922119140625
40209,0.1507415771484375,0.42572021484375,0.72186279296875
40210,0.1755218505859375,0.3966064453125,0.666412353515625
40211,0.1262359619140625,0.376800537109375,0.6380615234375
40212,0.0336151123046875,0.3742828369140625,0.6570587158203125
40213,-0.0850677490234375,0.36956787109375,0.6936798095703125
40214,-0.1761627197265625,0.322662353515625,0.7458953857421875
40215,-0.2311553955078125,0.278656005859375,0.7577972412109375
40216,-0.2456512451171875,0.24420166015625,0.7401275634765625
40217,-0.2123565673828125,0.2254180908203125,0.7263031005859375
40218,-0.125,0.24908447265625,0.7309112548828125
40219,0.0049285888671875,0.3908538818359375,0.7856597900390625
40220,0.1452484130859375,0.61309814453125,0.840667724609375
40221,0.23577880859375,0.6981658935546875,0.83758544921875
40222,0.268951416015625,0.6989593505859375,0.7900848388671875
40223,0.257110595703125,0.7267913818359375,0.71142578125
40224,0.2098388671875,0.79144287109375,0.653045654296875
40225,0.1695098876953125,0.8563232421875,0.653778076171875
40226,0.1943817138671875,0.92877197265625,0.6704864501953125
40227,0.30328369140625,1.028900146484375,0.6709136962890625
40228,0.3864288330078125,1.106536865234375,0.655029296875
40229,0.4075927734375,1.1243896484375,0.698272705078125
40230,0.4024810791015625,1.076873779296875,0.764739990234375
40231,0.375244140625,1.011306762695312,0.779388427734375
40232,0.3638763427734375,0.9232940673828124,0.7282867431640625
40233,0.37384033203125,0.829254150390625,0.6724853515625
40234,0.3524017333984375,0.74310302734375,0.676300048828125
40235,0.2634429931640625,0.652130126953125,0.722747802734375
40236,0.1192779541015625,0.5594329833984375,0.7724456787109375
40237,-0.0418853759765625,0.48809814453125,0.8017730712890625
40238,-0.1942138671875,0.42645263671875,0.812103271484375
40239,-0.327362060546875,0.377349853515625,0.80487060546875
40240,-0.4374237060546875,0.33026123046875,0.7869110107421875
40241,-0.5157012939453125,0.2788238525390625,0.7666473388671875
40242,-0.568450927734375,0.257415771484375,0.765350341796875
40243,-0.6339874267578125,0.263031005859375,0.7535858154296875
40244,-0.7208404541015625,0.2696990966796875,0.73138427734375
40245,-0.81744384765625,0.2755889892578125,0.7341766357421875
40246,-0.91302490234375,0.2828826904296875,0.771575927734375
40247,-0.968475341796875,0.29669189453125,0.8544464111328125
40248,-0.959442138671875,0.32342529296875,0.9436798095703124
40249,-0.8801727294921875,0.3375244140625,1.003860473632812
40250,-0.7745819091796875,0.343017578125,1.010772705078125
40251,-0.6792449951171875,0.3606719970703125,0.981781005859375
40252,-0.6341552734375,0.389312744140625,0.941619873046875
40253,-0.6157989501953125,0.4369354248046875,0.91741943359375
40254,-0.59161376953125,0.4990692138671875,0.8917083740234375
40255,-0.5633087158203125,0.573577880859375,0.8824920654296875
40256,-0.50408935546875,0.6333770751953125,0.8892669677734375
40257,-0.4255828857421875,0.6965484619140625,0.8863677978515625
40258,-0.3554229736328125,0.7769317626953125,0.8998870849609375
40259,-0.291534423828125,0.8438720703125,0.9160003662109376
40260,-0.2340545654296875,0.8833465576171875,0.899658203125
40261,-0.192169189453125,0.8754425048828125,0.802886962890625
40262,-0.17626953125,0.823944091796875,0.6467132568359375
40263,-0.1640777587890625,0.73095703125,0.5076904296875
40264,-0.1475677490234375,0.6322174072265625,0.4166412353515625
40265,-0.1481170654296875,0.5749053955078125,0.39593505859375
40266,-0.172637939453125,0.565887451171875,0.4149017333984375
40267,-0.2083587646484375,0.5756683349609375,0.41058349609375
40268,-0.21417236328125,0.5714874267578125,0.401092529296875
40269,-0.18328857421875,0.526458740234375,0.3904266357421875
40270,-0.153289794921875,0.4764251708984375,0.3951416015625
40271,-0.1600341796875,0.46051025390625,0.4572906494140625
40272,-0.1944580078125,0.481781005859375,0.5929412841796875
40273,-0.19793701171875,0.526641845703125,0.7566986083984375
40274,-0.155364990234375,0.5813140869140625,0.863037109375
40275,-0.0732574462890625,0.6475830078125,0.949310302734375
40276,0.03509521484375,0.6911468505859375,1.0009765625
40277,0.1445465087890625,0.71844482421875,1.024139404296875
40278,0.233184814453125,0.758148193359375,1.015914916992188
40279,0.2991943359375,0.8309326171875,0.9394989013671876
40280,0.378631591796875,0.909759521484375,0.8849639892578125
40281,0.4651947021484375,0.9783935546875,0.889312744140625
40282,0.52569580078125,0.988983154296875,0.90478515625
40283,0.5288543701171875,0.963409423828125,0.8954925537109375
40284,0.5016021728515625,0.9019622802734376,0.9244232177734376
40285,0.4615478515625,0.7935333251953125,0.93670654296875
40286,0.4254302978515625,0.7260894775390625,0.8861236572265625
40287,0.384063720703125,0.6829376220703125,0.8329010009765625
40288,0.3096160888671875,0.62945556640625,0.7991943359375
40289,0.2127685546875,0.5695648193359375,0.7642364501953125
40290,0.1024932861328125,0.5020294189453125,0.7272796630859375
40291,-0.03192138671875,0.4449920654296875,0.69720458984375
40292,-0.1650238037109375,0.3898773193359375,0.688262939453125
40293,-0.2895965576171875,0.3479766845703125,0.6879425048828125
40294,-0.3983612060546875,0.32177734375,0.7028961181640625
40295,-0.4924468994140625,0.3088226318359375,0.7087554931640625
40296,-0.5831756591796875,0.280670166015625,0.710662841796875
40297,-0.656280517578125,0.239990234375,0.7268218994140625
40298,-0.7064361572265625,0.2117156982421875,0.7480316162109375
40299,-0.7410125732421875,0.1931304931640625,0.755126953125
40300,-0.7589874267578125,0.1894989013671875,0.79608154296875
40301,-0.77703857421875,0.226715087890625,0.8388214111328125
40302,-0.8061676025390625,0.3040771484375,0.8931884765625
40303,-0.8057403564453125,0.4071807861328125,0.9495391845703124
40304,-0.732208251953125,0.495361328125,0.992645263671875
40305,-0.609100341796875,0.5685272216796875,0.9944915771484376
40306,-0.4909210205078125,0.6375732421875,0.9654541015625
40307,-0.409637451171875,0.685577392578125,0.9528961181640624
40308,-0.371826171875,0.6966400146484375,0.9591522216796876
40309,-0.341400146484375,0.6733856201171875,0.9746246337890624
40310,-0.3192901611328125,0.6319580078125,0.9644317626953124
40311,-0.3348388671875,0.5740203857421875,0.978515625
40312,-0.3668060302734375,0.5502777099609375,0.9864501953125
40313,-0.3824462890625,0.56396484375,0.9910125732421876
40314,-0.3749542236328125,0.569915771484375,0.9846038818359376
40315,-0.3411865234375,0.5705718994140625,0.950653076171875
40316,-0.2809906005859375,0.546844482421875,0.9058074951171876
40317,-0.225128173828125,0.51409912109375,0.8553466796875
40318,-0.2010345458984375,0.493499755859375,0.81524658203125
40319,-0.2133331298828125,0.4695587158203125,0.7899322509765625
40320,-0.2479095458984375,0.44989013671875,0.7865142822265625
40321,-0.29754638671875,0.450408935546875,0.774688720703125
40322,-0.33587646484375,0.459136962890625,0.7603912353515625
40323,-0.3139190673828125,0.46295166015625,0.7256011962890625
40324,-0.2270660400390625,0.4656982421875,0.6566162109375
40325,-0.105377197265625,0.451629638671875,0.6027984619140625
40326,0.0201873779296875,0.4235382080078125,0.590423583984375
40327,0.12701416015625,0.39697265625,0.58935546875
40328,0.1995391845703125,0.4129180908203125,0.5783538818359375
40329,0.227508544921875,0.5422821044921875,0.578643798828125
40330,0.23480224609375,0.6841278076171875,0.5906982421875
40331,0.21771240234375,0.717437744140625,0.5859832763671875
40332,0.17816162109375,0.7409820556640625,0.5725860595703125
40333,0.1673431396484375,0.8236083984375,0.60076904296875
40334,0.1959228515625,0.9472808837890624,0.6609344482421875
40335,0.244232177734375,1.050674438476562,0.6959686279296875
40336,0.3050994873046875,1.101486206054688,0.70703125
40337,0.4246826171875,1.110198974609375,0.742340087890625
40338,0.5545196533203125,1.055511474609375,0.752655029296875
40339,0.5909271240234375,0.9993438720703124,0.7197418212890625
40340,0.54681396484375,0.9639434814453124,0.68896484375
40341,0.4571075439453125,0.892974853515625,0.6768646240234375
40342,0.3292236328125,0.7875213623046875,0.6704559326171875
40343,0.2079315185546875,0.6859130859375,0.6295623779296875
40344,0.12738037109375,0.6156768798828125,0.58856201171875
40345,0.0160064697265625,0.5550994873046875,0.603851318359375
40346,-0.147064208984375,0.48016357421875,0.6718902587890625
40347,-0.3047943115234375,0.4102020263671875,0.774200439453125
40348,-0.4185333251953125,0.355865478515625,0.869842529296875
40349,-0.46923828125,0.3321990966796875,0.8982086181640625
40350,-0.4722900390625,0.321014404296875,0.8565521240234375
40351,-0.4603729248046875,0.3065032958984375,0.78302001953125
40352,-0.4625244140625,0.283782958984375,0.690032958984375
40353,-0.4987945556640625,0.2711181640625,0.63031005859375
40354,-0.5803375244140625,0.2741241455078125,0.58990478515625
40355,-0.6944122314453125,0.282470703125,0.5749359130859375
40356,-0.8169403076171875,0.276763916015625,0.589874267578125
40357,-0.9185028076171876,0.2752532958984375,0.6712799072265625
40358,-0.973907470703125,0.283477783203125,0.781890869140625
40359,-0.9738311767578124,0.30157470703125,0.907562255859375
40360,-0.928375244140625,0.3325958251953125,1.018829345703125
40361,-0.8620758056640625,0.3702850341796875,1.076171875
40362,-0.784881591796875,0.4099578857421875,1.070556640625
40363,-0.7034454345703125,0.449005126953125,1.058364868164062
40364,-0.631072998046875,0.502349853515625,1.064956665039062
40365,-0.523040771484375,0.558197021484375,1.075363159179688
40366,-0.3859710693359375,0.6160888671875,1.051376342773438
40367,-0.256195068359375,0.66595458984375,1.00579833984375
40368,-0.1320953369140625,0.72021484375,0.9763336181640624
40369,-0.048126220703125,0.793792724609375,0.930267333984375
40370,-0.012054443359375,0.846588134765625,0.9002227783203125
40371,-0.0041351318359375,0.8608856201171875,0.841033935546875
40372,-0.0109710693359375,0.8220672607421875,0.755340576171875
40373,-0.0322113037109375,0.7696990966796875,0.6680145263671875
40374,-0.0645751953125,0.7301177978515625,0.570465087890625
40375,-0.0943603515625,0.702667236328125,0.5336761474609375
40376,-0.152008056640625,0.670379638671875,0.5155792236328125
40377,-0.187652587890625,0.6340484619140625,0.5292205810546875
40378,-0.2106781005859375,0.5979461669921875,0.5578155517578125
40379,-0.2115325927734375,0.563873291015625,0.580963134765625
40380,-0.2016754150390625,0.5380096435546875,0.5600433349609375
40381,-0.209381103515625,0.4893341064453125,0.5442047119140625
40382,-0.244781494140625,0.448883056640625,0.5536041259765625
40383,-0.304107666015625,0.440582275390625,0.6050262451171875
40384,-0.3250579833984375,0.4639129638671875,0.70782470703125
40385,-0.2512054443359375,0.4974822998046875,0.808837890625
40386,-0.1214141845703125,0.5603790283203125,0.8739013671875
40387,0.024169921875,0.649078369140625,0.9333038330078124
40388,0.165008544921875,0.723785400390625,0.9546661376953124
40389,0.280242919921875,0.7716827392578125,0.941436767578125
40390,0.3806610107421875,0.8176116943359375,0.8881378173828125
40391,0.481842041015625,0.8865509033203125,0.8250579833984375
40392,0.611602783203125,0.974578857421875,0.8121490478515625
40393,0.7743988037109375,1.011428833007812,0.8135528564453125
40394,0.8762359619140625,0.9633026123046876,0.8207550048828125
40395,0.8254241943359375,0.8998260498046875,0.8468170166015625
40396,0.7125396728515625,0.8621826171875,0.861907958984375
40397,0.608001708984375,0.77447509765625,0.823394775390625
40398,0.5018310546875,0.662872314453125,0.73974609375
40399,0.3547821044921875,0.5886993408203125,0.6503448486328125
40400,0.1646728515625,0.539215087890625,0.6108551025390625
40401,-0.0276641845703125,0.4945526123046875,0.6399078369140625
40402,-0.1928863525390625,0.45404052734375,0.6746978759765625
40403,-0.341888427734375,0.4528656005859375,0.665374755859375
40404,-0.4604034423828125,0.4431610107421875,0.667724609375
40405,-0.5391387939453125,0.4201202392578125,0.702972412109375
40406,-0.589630126953125,0.39801025390625,0.719085693359375
40407,-0.642974853515625,0.35638427734375,0.719573974609375
40408,-0.695770263671875,0.304046630859375,0.6974945068359375
40409,-0.726806640625,0.258392333984375,0.66876220703125
40410,-0.7642364501953125,0.2379913330078125,0.6668853759765625
40411,-0.824310302734375,0.2525482177734375,0.7071075439453125
40412,-0.900177001953125,0.299468994140625,0.773712158203125
40413,-0.969970703125,0.3798828125,0.845916748046875
40414,-1.006927490234375,0.4736480712890625,0.9264068603515624
40415,-0.974151611328125,0.5573272705078125,0.99090576171875
40416,-0.875579833984375,0.6363983154296875,0.99847412109375
40417,-0.742706298828125,0.715911865234375,0.96112060546875
40418,-0.6160430908203125,0.747833251953125,0.9154815673828124
40419,-0.5235595703125,0.7400360107421875,0.904754638671875
40420,-0.4491729736328125,0.7367095947265625,0.9694061279296876
40421,-0.39227294921875,0.7322235107421875,1.035919189453125
40422,-0.3323516845703125,0.7013397216796875,1.088455200195312
40423,-0.2541351318359375,0.6800689697265625,1.09906005859375
40424,-0.150390625,0.6691741943359375,1.062057495117188
40425,-0.032867431640625,0.6314544677734375,0.9902191162109376
40426,0.060943603515625,0.574066162109375,0.9086456298828124
40427,0.1168212890625,0.4940185546875,0.8462066650390625
40428,0.1304473876953125,0.4254150390625,0.8054046630859375
40429,0.1087188720703125,0.3755340576171875,0.792449951171875
40430,0.07427978515625,0.368408203125,0.786590576171875
40431,0.0180206298828125,0.3962249755859375,0.75799560546875
40432,-0.027069091796875,0.4234771728515625,0.714202880859375
40433,-0.049835205078125,0.4310455322265625,0.6487579345703125
40434,-0.054473876953125,0.398162841796875,0.5905914306640625
40435,-0.050079345703125,0.3566131591796875,0.5806884765625
40436,-0.0399627685546875,0.3458709716796875,0.5926971435546875
40437,-0.012176513671875,0.4038848876953125,0.6007080078125
40438,0.0442352294921875,0.56317138671875,0.583648681640625
40439,0.1147308349609375,0.68389892578125,0.5659027099609375
40440,0.146881103515625,0.6897125244140625,0.5323028564453125
40441,0.1319732666015625,0.7037200927734375,0.51092529296875
40442,0.1267852783203125,0.8045196533203125,0.5520782470703125
40443,0.1589508056640625,0.971282958984375,0.6583404541015625
40444,0.2447967529296875,1.12603759765625,0.732147216796875
40445,0.381744384765625,1.169692993164062,0.7074127197265625
40446,0.52813720703125,1.163314819335938,0.6878662109375
40447,0.61529541015625,1.148193359375,0.7127685546875
40448,0.5972747802734375,1.098861694335938,0.721893310546875
40449,0.466278076171875,1.000198364257812,0.7204437255859375
40450,0.2833709716796875,0.8490753173828125,0.7176361083984375
40451,0.14599609375,0.6976776123046875,0.6899261474609375
40452,0.0554962158203125,0.5791473388671875,0.667755126953125
40453,-0.00360107421875,0.477081298828125,0.6473541259765625
40454,-0.0340118408203125,0.42169189453125,0.649200439453125
40455,-0.0513458251953125,0.3779754638671875,0.6592864990234375
40456,-0.0787353515625,0.349273681640625,0.6884002685546875
40457,-0.1376495361328125,0.33819580078125,0.731292724609375
40458,-0.217071533203125,0.3359375,0.763671875
40459,-0.2920684814453125,0.3386383056640625,0.76971435546875
40460,-0.36114501953125,0.3661346435546875,0.7552490234375
40461,-0.4374542236328125,0.3948822021484375,0.703826904296875
40462,-0.5168914794921875,0.4037933349609375,0.6526336669921875
40463,-0.5977630615234375,0.4038543701171875,0.6418914794921875
40464,-0.6651611328125,0.3986358642578125,0.682647705078125
40465,-0.718902587890625,0.3748321533203125,0.7549591064453125
40466,-0.7593231201171875,0.3382110595703125,0.84735107421875
40467,-0.7867584228515625,0.3093414306640625,0.9303131103515624
40468,-0.795257568359375,0.2911529541015625,0.989410400390625
40469,-0.7828826904296875,0.2987060546875,1.028167724609375
40470,-0.746856689453125,0.3209991455078125,1.053207397460938
40471,-0.6871490478515625,0.354156494140625,1.042861938476562
40472,-0.611083984375,0.404541015625,1.018569946289062
40473,-0.5313873291015625,0.49188232421875,0.9801025390625
40474,-0.4510040283203125,0.5948333740234375,0.91015625
40475,-0.365966796875,0.6942138671875,0.871124267578125
40476,-0.2956695556640625,0.77667236328125,0.861114501953125
40477,-0.2686004638671875,0.8474884033203125,0.8440704345703125
40478,-0.2640533447265625,0.8944549560546875,0.8275299072265625
40479,-0.242919921875,0.9204559326171876,0.8190765380859375
40480,-0.1977386474609375,0.93682861328125,0.805419921875
40481,-0.13787841796875,0.9178619384765624,0.752227783203125
40482,-0.0515899658203125,0.8772735595703125,0.6980438232421875
40483,0.034393310546875,0.834228515625,0.6171417236328125
40484,0.0782012939453125,0.757171630859375,0.5518951416015625
40485,0.0355377197265625,0.6771240234375,0.512420654296875
40486,-0.0608367919921875,0.63330078125,0.4859771728515625
40487,-0.165374755859375,0.5976715087890625,0.49261474609375
40488,-0.244232177734375,0.5533294677734375,0.483367919921875
40489,-0.280792236328125,0.5281982421875,0.4794464111328125
40490,-0.269805908203125,0.5312957763671875,0.4902191162109375
40491,-0.2227935791015625,0.5570526123046875,0.511993408203125
40492,-0.1908721923828125,0.5931396484375,0.5682373046875
40493,-0.1771697998046875,0.6212615966796875,0.6948394775390625
40494,-0.131866455078125,0.6327972412109375,0.8428497314453125
40495,-0.05926513671875,0.6797637939453125,0.9164276123046876
40496,0.034454345703125,0.7421417236328125,0.960845947265625
40497,0.129241943359375,0.80877685546875,0.96942138671875
40498,0.2265625,0.8897247314453125,0.94964599609375
40499,0.326690673828125,0.9919281005859376,0.9082489013671876
40500,0.4530181884765625,1.103363037109375,0.889129638671875
40501,0.639068603515625,1.155838012695312,0.88104248046875
40502,0.81964111328125,1.1224365234375,0.849578857421875
40503,0.9075775146484376,1.037094116210938,0.8097381591796875
40504,0.9229736328125,0.968597412109375,0.8075103759765625
40505,0.8476409912109375,0.852996826171875,0.838287353515625
40506,0.7078399658203125,0.72454833984375,0.791900634765625
40507,0.5781707763671875,0.634124755859375,0.6778717041015625
40508,0.4380035400390625,0.5614471435546875,0.5761871337890625
40509,0.2564239501953125,0.5078125,0.54119873046875
40510,0.0449676513671875,0.4846954345703125,0.5451507568359375
40511,-0.164886474609375,0.4608154296875,0.6167449951171875
40512,-0.336029052734375,0.4307098388671875,0.69488525390625
40513,-0.4591827392578125,0.4212646484375,0.730865478515625
40514,-0.5575103759765625,0.419891357421875,0.7426300048828125
40515,-0.61590576171875,0.3753204345703125,0.7665252685546875
40516,-0.6242828369140625,0.3096923828125,0.7724151611328125
40517,-0.6048431396484375,0.2482147216796875,0.7405242919921875
40518,-0.5983428955078125,0.1914520263671875,0.7163543701171875
40519,-0.6451568603515625,0.1512298583984375,0.7328033447265625
40520,-0.7532806396484375,0.16705322265625,0.7697906494140625
40521,-0.9007415771484376,0.19390869140625,0.82794189453125
40522,-1.018890380859375,0.22027587890625,0.8883514404296875
40523,-1.06134033203125,0.27349853515625,0.91717529296875
40524,-1.025390625,0.3526763916015625,0.9216766357421876
40525,-0.934417724609375,0.426666259765625,0.9179229736328124
40526,-0.8126983642578125,0.4781646728515625,0.9098052978515624
40527,-0.697113037109375,0.5155029296875,0.946014404296875
40528,-0.6103363037109375,0.54266357421875,1.016372680664062
40529,-0.5314788818359375,0.536529541015625,1.083328247070312
40530,-0.4542083740234375,0.5020751953125,1.12811279296875
40531,-0.38134765625,0.478759765625,1.131149291992188
40532,-0.2802734375,0.4806671142578125,1.042144775390625
40533,-0.1895904541015625,0.5019073486328125,0.9676055908203124
40534,-0.129913330078125,0.51751708984375,0.943695068359375
40535,-0.070953369140625,0.53399658203125,0.9205474853515624
40536,-0.00018310546875,0.5434722900390625,0.8819732666015625
40537,0.0673065185546875,0.5424346923828125,0.8126983642578125
40538,0.1174163818359375,0.5305328369140625,0.7405242919921875
40539,0.1488189697265625,0.4980010986328125,0.7103424072265625
40540,0.137115478515625,0.461395263671875,0.7018280029296875
40541,0.07818603515625,0.410675048828125,0.7226104736328125
40542,0.0050201416015625,0.3538360595703125,0.7547149658203125
40543,-0.0457763671875,0.3149566650390625,0.7593231201171875
40544,-0.0416412353515625,0.311920166015625,0.7480621337890625
40545,0.011993408203125,0.330902099609375,0.7329864501953125
40546,0.0797119140625,0.3827972412109375,0.690185546875
40547,0.1334686279296875,0.5148162841796875,0.6323394775390625
40548,0.128143310546875,0.6325836181640625,0.6145477294921875
40549,0.0584259033203125,0.6484832763671875,0.6078643798828125
40550,-0.0403594970703125,0.6376800537109375,0.5666656494140625
40551,-0.10723876953125,0.6721649169921875,0.544189453125
40552,-0.130859375,0.775848388671875,0.595428466796875
40553,-0.0943450927734375,0.92767333984375,0.71392822265625
40554,0.035552978515625,1.049468994140625,0.8159332275390625
40555,0.212554931640625,1.107269287109375,0.789093017578125
40556,0.3919677734375,1.141830444335938,0.717010498046875
40557,0.5279998779296875,1.1463623046875,0.70947265625
40558,0.5617828369140625,1.0557861328125,0.7417144775390625
40559,0.4733123779296875,0.96417236328125,0.7342681884765625
40560,0.3622283935546875,0.888824462890625,0.6683349609375
40561,0.286285400390625,0.7976226806640625,0.6114044189453125
40562,0.242889404296875,0.7059173583984375,0.568511962890625
40563,0.183563232421875,0.61614990234375,0.5300140380859375
40564,0.1286468505859375,0.5463104248046875,0.5222320556640625
40565,0.0662078857421875,0.4780731201171875,0.5542449951171875
40566,-0.0182037353515625,0.4392547607421875,0.6311492919921875
40567,-0.10418701171875,0.4026641845703125,0.7161102294921875
40568,-0.202789306640625,0.383544921875,0.7815093994140625
40569,-0.309814453125,0.3756866455078125,0.794830322265625
40570,-0.4223785400390625,0.3501434326171875,0.783233642578125
40571,-0.529327392578125,0.3212127685546875,0.763031005859375
40572,-0.6502838134765625,0.3045654296875,0.7387542724609375
40573,-0.7641448974609375,0.3027496337890625,0.7221221923828125
40574,-0.8507080078125,0.2933502197265625,0.743865966796875
40575,-0.9337158203125,0.2844085693359375,0.77716064453125
40576,-1.01953125,0.275970458984375,0.8489837646484375
40577,-1.060272216796875,0.27685546875,0.926055908203125
40578,-1.029891967773438,0.264404296875,0.9940032958984376
40579,-0.9605865478515624,0.2838287353515625,1.038192749023438
40580,-0.8762969970703125,0.34344482421875,1.101791381835938
40581,-0.7726593017578125,0.4260101318359375,1.148193359375
40582,-0.65020751953125,0.5311126708984375,1.14013671875
40583,-0.5166778564453125,0.6382598876953125,1.083023071289062
40584,-0.394989013671875,0.7302398681640625,1.00726318359375
40585,-0.2920379638671875,0.80657958984375,0.9310455322265624
40586,-0.2143096923828125,0.850555419921875,0.8488616943359375
40587,-0.1548919677734375,0.859710693359375,0.7886810302734375
40588,-0.1097412109375,0.848846435546875,0.7402191162109375
40589,-0.071929931640625,0.827301025390625,0.721282958984375
40590,-0.031463623046875,0.78875732421875,0.715667724609375
40591,0.0026397705078125,0.738128662109375,0.673919677734375
40592,0.03424072265625,0.6811065673828125,0.56982421875
40593,0.05303955078125,0.619049072265625,0.456939697265625
40594,0.0424652099609375,0.5625457763671875,0.39813232421875
40595,-0.0047760009765625,0.529388427734375,0.417266845703125
40596,-0.05224609375,0.5192413330078125,0.4578399658203125
40597,-0.0620269775390625,0.5189056396484375,0.4764556884765625
40598,-0.0715484619140625,0.493072509765625,0.5180206298828125
40599,-0.1030731201171875,0.46600341796875,0.553863525390625
40600,-0.184844970703125,0.457733154296875,0.589263916015625
40601,-0.3014068603515625,0.4566802978515625,0.664886474609375
40602,-0.399688720703125,0.48101806640625,0.777923583984375
40603,-0.4078216552734375,0.5165863037109375,0.906402587890625
40604,-0.3402099609375,0.5800323486328125,0.9745330810546876
40605,-0.2353973388671875,0.6465606689453125,1.003585815429688
40606,-0.1206512451171875,0.702972412109375,1.020126342773438
40607,-0.0271453857421875,0.757232666015625,0.999237060546875
40608,0.043182373046875,0.827301025390625,0.9426116943359376
40609,0.1183319091796875,0.90850830078125,0.9343414306640624
40610,0.215087890625,1.00823974609375,0.948699951171875
40611,0.3499755859375,1.064620971679688,0.939453125
40612,0.5008697509765625,1.067169189453125,0.91375732421875
40613,0.588287353515625,1.015380859375,0.8643646240234375
40614,0.6095428466796875,0.9282684326171876,0.838897705078125
40615,0.5643463134765625,0.824676513671875,0.7841644287109375
40616,0.4904937744140625,0.722808837890625,0.692626953125
40617,0.4040374755859375,0.6457672119140625,0.61053466796875
40618,0.2925567626953125,0.58404541015625,0.5729217529296875
40619,0.1662139892578125,0.53765869140625,0.579864501953125
40620,0.0369110107421875,0.501861572265625,0.6071929931640625
40621,-0.101043701171875,0.4671630859375,0.6291351318359375
40622,-0.2411956787109375,0.4203338623046875,0.6524200439453125
40623,-0.3662872314453125,0.38360595703125,0.6851959228515625
40624,-0.4519805908203125,0.3470611572265625,0.71697998046875
40625,-0.486053466796875,0.3005218505859375,0.7383880615234375
40626,-0.4879913330078125,0.25335693359375,0.7293701171875
40627,-0.493865966796875,0.2197723388671875,0.724212646484375
40628,-0.527008056640625,0.2044219970703125,0.7222442626953125
40629,-0.5840911865234375,0.2223052978515625,0.758697509765625
40630,-0.6624603271484375,0.2600860595703125,0.818023681640625
40631,-0.7562255859375,0.306671142578125,0.8792266845703125
40632,-0.8477783203125,0.374481201171875,0.9293670654296876
40633,-0.89678955078125,0.4566192626953125,0.96954345703125
40634,-0.8683624267578125,0.5335235595703125,0.9898834228515624
40635,-0.772918701171875,0.5919189453125,0.9729766845703124
40636,-0.660064697265625,0.626922607421875,0.9480743408203124
40637,-0.5618438720703125,0.6471710205078125,0.9283599853515624
40638,-0.4864654541015625,0.665771484375,0.93084716796875
40639,-0.426055908203125,0.66595458984375,0.9380645751953124
40640,-0.3870391845703125,0.6424713134765625,0.938446044921875
40641,-0.3518218994140625,0.5979766845703125,0.9423065185546876
40642,-0.3012847900390625,0.550933837890625,0.9506072998046876
40643,-0.2499237060546875,0.530731201171875,0.9488525390625
40644,-0.192901611328125,0.52825927734375,0.9466705322265624
40645,-0.123992919921875,0.5291595458984375,0.9173126220703124
40646,-0.0680389404296875,0.4998779296875,0.8614349365234375
40647,-0.0466766357421875,0.4528350830078125,0.7866058349609375
40648,-0.0518951416015625,0.421905517578125,0.7231292724609375
40649,-0.0861053466796875,0.385406494140625,0.687713623046875
40650,-0.1250457763671875,0.3508758544921875,0.7040557861328125
40651,-0.150054931640625,0.3385009765625,0.7280120849609375
40652,-0.1583404541015625,0.3412933349609375,0.7295074462890625
40653,-0.1484222412109375,0.3679656982421875,0.705963134765625
40654,-0.119537353515625,0.3979339599609375,0.6761627197265625
40655,-0.080902099609375,0.4512176513671875,0.658782958984375
40656,-0.03271484375,0.576141357421875,0.6493682861328125
40657,0.007476806640625,0.688446044921875,0.6397247314453125
40658,0.0056304931640625,0.72247314453125,0.6071319580078125
40659,-0.0110015869140625,0.7280426025390625,0.5542755126953125
40660,-0.015411376953125,0.774871826171875,0.5252685546875
40661,0.0104217529296875,0.9031524658203124,0.585723876953125
40662,0.06915283203125,1.08587646484375,0.7147979736328125
40663,0.1751861572265625,1.249298095703125,0.8338623046875
40664,0.32867431640625,1.2928466796875,0.9332733154296876
40665,0.4547882080078125,1.230865478515625,0.9398040771484376
40666,0.483245849609375,1.172500610351562,0.86053466796875
40667,0.4139862060546875,1.097412109375,0.802032470703125
40668,0.3087158203125,0.95721435546875,0.7331695556640625
40669,0.2153472900390625,0.76239013671875,0.6540679931640625
40670,0.1321258544921875,0.6341552734375,0.6505584716796875
40671,0.0666656494140625,0.55218505859375,0.6468963623046875
40672,0.0175628662109375,0.48223876953125,0.633514404296875
40673,-0.029510498046875,0.4133453369140625,0.6309967041015625
40674,-0.07928466796875,0.3602294921875,0.64593505859375
40675,-0.1433868408203125,0.311370849609375,0.69781494140625
40676,-0.2140960693359375,0.27325439453125,0.7669677734375
40677,-0.268218994140625,0.2772216796875,0.8124847412109375
40678,-0.2863311767578125,0.287353515625,0.8312225341796875
40679,-0.29815673828125,0.2617034912109375,0.7831268310546875
40680,-0.3362884521484375,0.221588134765625,0.7232666015625
40681,-0.4166412353515625,0.20135498046875,0.6827392578125
40682,-0.5373992919921875,0.2164154052734375,0.6576995849609375
40683,-0.6679229736328125,0.2348175048828125,0.6548309326171875
40684,-0.756561279296875,0.2293701171875,0.6968231201171875
40685,-0.792816162109375,0.2392578125,0.7404327392578125
40686,-0.780609130859375,0.2645416259765625,0.785675048828125
40687,-0.7305755615234375,0.30792236328125,0.862823486328125
40688,-0.659149169921875,0.3583221435546875,0.9523468017578124
40689,-0.591094970703125,0.4125518798828125,1.008926391601562
40690,-0.52215576171875,0.4618682861328125,1.021041870117188
40691,-0.447174072265625,0.5358428955078125,1.0103759765625
40692,-0.4010772705078125,0.6203155517578125,0.97607421875
40693,-0.3744964599609375,0.677337646484375,0.9171600341796876
40694,-0.337493896484375,0.70269775390625,0.8235015869140625
40695,-0.321685791015625,0.7306671142578125,0.734375
40696,-0.3112640380859375,0.76947021484375,0.7274932861328125
40697,-0.2778778076171875,0.803436279296875,0.7523345947265625
40698,-0.2366180419921875,0.8329315185546875,0.78887939453125
40699,-0.184112548828125,0.85980224609375,0.8152923583984375
40700,-0.1270294189453125,0.8573455810546875,0.7917938232421875
40701,-0.1026611328125,0.8271026611328125,0.7262420654296875
40702,-0.1157989501953125,0.78173828125,0.663909912109375
40703,-0.165252685546875,0.723968505859375,0.62060546875
40704,-0.245025634765625,0.6587677001953125,0.5940399169921875
40705,-0.33258056640625,0.5966033935546875,0.5797119140625
40706,-0.3961639404296875,0.528411865234375,0.5638427734375
40707,-0.4222564697265625,0.4730987548828125,0.55133056640625
40708,-0.39166259765625,0.4342041015625,0.5361328125
40709,-0.33935546875,0.4153289794921875,0.5196990966796875
40710,-0.30169677734375,0.4404449462890625,0.532501220703125
40711,-0.2811279296875,0.5130767822265625,0.5800018310546875
40712,-0.245697021484375,0.5995025634765625,0.6600189208984375
40713,-0.1591796875,0.6787872314453125,0.744720458984375
40714,-0.035888671875,0.756591796875,0.847442626953125
40715,0.0767669677734375,0.8433380126953125,0.9071197509765624
40716,0.1727447509765625,0.916290283203125,0.923248291015625
40717,0.2698211669921875,0.9555511474609376,0.902374267578125
40718,0.361968994140625,1.001708984375,0.8838043212890625
40719,0.4917144775390625,1.082931518554688,0.9229736328125
40720,0.635406494140625,1.146072387695312,0.970947265625
40721,0.7415313720703125,1.131057739257812,1.004180908203125
40722,0.7841949462890625,1.064788818359375,1.005111694335938
40723,0.76788330078125,0.990509033203125,0.9665374755859376
40724,0.6990203857421875,0.867431640625,0.8748321533203125
40725,0.595123291015625,0.70458984375,0.7778472900390625
40726,0.4705047607421875,0.6267547607421875,0.7418365478515625
40727,0.287994384765625,0.5955047607421875,0.759033203125
40728,0.0828857421875,0.53900146484375,0.7496795654296875
40729,-0.078826904296875,0.4582061767578125,0.739471435546875
40730,-0.2149810791015625,0.3803558349609375,0.7250213623046875
40731,-0.3479766845703125,0.3426971435546875,0.7072296142578125
40732,-0.462646484375,0.3236236572265625,0.7152557373046875
40733,-0.55621337890625,0.2923126220703125,0.7400665283203125
40734,-0.648590087890625,0.2532806396484375,0.7502593994140625
40735,-0.718292236328125,0.1952362060546875,0.727691650390625
40736,-0.749725341796875,0.14453125,0.6962432861328125
40737,-0.757293701171875,0.1079864501953125,0.6783294677734375
40738,-0.7765655517578125,0.1092071533203125,0.7023162841796875
40739,-0.8374481201171875,0.1378173828125,0.7631988525390625
40740,-0.9180755615234376,0.191986083984375,0.835235595703125
40741,-0.977203369140625,0.2595062255859375,0.8685760498046875
40742,-0.991119384765625,0.33154296875,0.8763885498046875
40743,-0.9413604736328124,0.41009521484375,0.8657989501953125
40744,-0.8291778564453125,0.4620819091796875,0.8457794189453125
40745,-0.7172698974609375,0.50994873046875,0.81573486328125
40746,-0.6290435791015625,0.562408447265625,0.8115234375
40747,-0.548492431640625,0.6166229248046875,0.84869384765625
40748,-0.4774627685546875,0.6743011474609375,0.9101104736328124
40749,-0.3811492919921875,0.699554443359375,1.004638671875
40750,-0.259674072265625,0.72210693359375,1.089859008789062
40751,-0.1748504638671875,0.75238037109375,1.104721069335938
40752,-0.0777435302734375,0.748626708984375,1.035186767578125
40753,0.0448150634765625,0.732025146484375,0.9449920654296876
40754,0.1361236572265625,0.70709228515625,0.889617919921875
40755,0.1833343505859375,0.643707275390625,0.8470458984375
40756,0.2029876708984375,0.5677337646484375,0.814300537109375
40757,0.19622802734375,0.501983642578125,0.7773284912109375
40758,0.16387939453125,0.4819488525390625,0.7353515625
40759,0.10015869140625,0.4748382568359375,0.689544677734375
40760,0.0262908935546875,0.4531402587890625,0.6579132080078125
40761,-0.0492401123046875,0.4428558349609375,0.6251220703125
40762,-0.1079864501953125,0.4232025146484375,0.620849609375
40763,-0.1434326171875,0.3768768310546875,0.6394805908203125
40764,-0.1468505859375,0.350341796875,0.6741180419921875
40765,-0.1120758056640625,0.3671417236328125,0.7193603515625
40766,-0.05126953125,0.47515869140625,0.7717437744140625
40767,0.0620880126953125,0.6773529052734375,0.807342529296875
40768,0.17474365234375,0.7587127685546875,0.7816009521484375
40769,0.2458343505859375,0.7789764404296875,0.72906494140625
40770,0.2848663330078125,0.81304931640625,0.69500732421875
40771,0.2879791259765625,0.880828857421875,0.713714599609375
40772,0.29754638671875,0.9835052490234376,0.7792205810546875
40773,0.3769989013671875,1.019882202148438,0.78607177734375
40774,0.4844818115234375,0.9961090087890624,0.7623443603515625
40775,0.506591796875,0.9785003662109376,0.758331298828125
40776,0.4575653076171875,0.905364990234375,0.7382354736328125
40777,0.385467529296875,0.8026123046875,0.699432373046875
40778,0.309844970703125,0.6499481201171875,0.6403656005859375
40779,0.233001708984375,0.520294189453125,0.5948638916015625
40780,0.1254119873046875,0.4394683837890625,0.5913238525390625
40781,0.0220947265625,0.4039154052734375,0.6153717041015625
40782,-0.03509521484375,0.384246826171875,0.6712799072265625
40783,-0.0906829833984375,0.3394622802734375,0.733795166015625
40784,-0.153289794921875,0.2931976318359375,0.77374267578125
40785,-0.2218017578125,0.31048583984375,0.7776947021484375
40786,-0.283447265625,0.3280487060546875,0.7769622802734375
40787,-0.3265533447265625,0.3124542236328125,0.766845703125
40788,-0.363250732421875,0.2904510498046875,0.7469329833984375
40789,-0.397430419921875,0.2722320556640625,0.7125396728515625
40790,-0.4537353515625,0.262786865234375,0.709228515625
40791,-0.54638671875,0.280426025390625,0.72955322265625
40792,-0.663665771484375,0.307464599609375,0.7635498046875
40793,-0.771087646484375,0.326263427734375,0.811279296875
40794,-0.8358917236328125,0.345611572265625,0.87445068359375
40795,-0.8416290283203125,0.366546630859375,0.9565887451171876
40796,-0.777099609375,0.3911895751953125,1.023056030273438
40797,-0.690643310546875,0.40386962890625,1.032577514648438
40798,-0.643157958984375,0.4264373779296875,0.997955322265625
40799,-0.609710693359375,0.478546142578125,0.9496612548828124
40800,-0.593170166015625,0.54681396484375,0.93145751953125
40801,-0.564361572265625,0.6050262451171875,0.942291259765625
40802,-0.5308837890625,0.654571533203125,0.9182281494140624
40803,-0.4654388427734375,0.69012451171875,0.896026611328125
40804,-0.3974609375,0.7362213134765625,0.861785888671875
40805,-0.33551025390625,0.784423828125,0.8582000732421875
40806,-0.28118896484375,0.8268585205078125,0.881439208984375
40807,-0.23443603515625,0.855987548828125,0.89239501953125
40808,-0.1965179443359375,0.82574462890625,0.862457275390625
40809,-0.1422576904296875,0.727264404296875,0.764801025390625
40810,-0.08648681640625,0.6546478271484375,0.6469268798828125
40811,-0.06671142578125,0.6115875244140625,0.580291748046875
40812,-0.0861053466796875,0.5829925537109375,0.5470733642578125
40813,-0.14166259765625,0.5633544921875,0.526458740234375
40814,-0.2086029052734375,0.530914306640625,0.51275634765625
40815,-0.262786865234375,0.509124755859375,0.5144500732421875
40816,-0.267608642578125,0.5011749267578125,0.52069091796875
40817,-0.2393035888671875,0.51226806640625,0.518829345703125
40818,-0.20733642578125,0.545684814453125,0.5457763671875
40819,-0.178558349609375,0.6056671142578125,0.631256103515625
40820,-0.1237030029296875,0.6605987548828125,0.7832489013671875
40821,-0.0449066162109375,0.70660400390625,0.8911590576171875
40822,0.0484466552734375,0.7687530517578125,0.9720001220703124
40823,0.1713104248046875,0.80914306640625,1.003158569335938
40824,0.2803192138671875,0.8442230224609375,0.9646453857421876
40825,0.3556060791015625,0.8989105224609375,0.891143798828125
40826,0.4455413818359375,0.964202880859375,0.8665771484375
40827,0.5325164794921875,1.01617431640625,0.892730712890625
40828,0.607574462890625,1.0228271484375,0.91400146484375
40829,0.66326904296875,0.981201171875,0.9011688232421876
40830,0.678497314453125,0.9447479248046876,0.8710784912109375
40831,0.6434173583984375,0.8339080810546875,0.8377532958984375
40832,0.59185791015625,0.7126922607421875,0.789520263671875
40833,0.5382843017578125,0.651123046875,0.723602294921875
40834,0.45318603515625,0.619140625,0.6839141845703125
40835,0.3071441650390625,0.5890350341796875,0.6991119384765625
40836,0.1251373291015625,0.5325927734375,0.741119384765625
40837,-0.0618896484375,0.47857666015625,0.73272705078125
40838,-0.2561492919921875,0.4343109130859375,0.68524169921875
40839,-0.427947998046875,0.393341064453125,0.6607513427734375
40840,-0.5820159912109375,0.3483428955078125,0.6602783203125
40841,-0.693939208984375,0.3007659912109375,0.6800079345703125
40842,-0.7358856201171875,0.2571868896484375,0.721343994140625
40843,-0.7247467041015625,0.2386016845703125,0.7366790771484375
40844,-0.699005126953125,0.222991943359375,0.70648193359375
40845,-0.7033233642578125,0.2117767333984375,0.6983184814453125
40846,-0.733734130859375,0.2264556884765625,0.7409515380859375
40847,-0.80474853515625,0.265380859375,0.818634033203125
40848,-0.890960693359375,0.3203277587890625,0.888519287109375
40849,-0.93927001953125,0.3860321044921875,0.938690185546875
40850,-0.913726806640625,0.45904541015625,0.964202880859375
40851,-0.8134765625,0.5263671875,0.97955322265625
40852,-0.688873291015625,0.5755157470703125,0.979217529296875
40853,-0.589599609375,0.6140899658203125,0.966949462890625
40854,-0.5285797119140625,0.6162261962890625,0.9659881591796876
40855,-0.4693603515625,0.5995635986328125,0.99176025390625
40856,-0.3911285400390625,0.6008453369140625,1.035537719726562
40857,-0.3267669677734375,0.610137939453125,1.050064086914062
40858,-0.266082763671875,0.599700927734375,1.052581787109375
40859,-0.188446044921875,0.5935211181640625,1.001998901367188
40860,-0.1143035888671875,0.5911407470703125,0.9333648681640624
40861,-0.0524139404296875,0.5964813232421875,0.8814849853515625
40862,-0.005767822265625,0.5670013427734375,0.834320068359375
40863,0.0395355224609375,0.5107421875,0.77294921875
40864,0.0674285888671875,0.4687652587890625,0.7082366943359375
40865,0.0727996826171875,0.433074951171875,0.6584320068359375
40866,0.0611114501953125,0.3980255126953125,0.645355224609375
40867,0.039337158203125,0.3730621337890625,0.66424560546875
40868,0.006256103515625,0.3779754638671875,0.6961669921875
40869,-0.04156494140625,0.4047088623046875,0.6974029541015625
40870,-0.0826568603515625,0.4241180419921875,0.6734466552734375
40871,-0.0982208251953125,0.4048919677734375,0.6472625732421875
40872,-0.090728759765625,0.3742218017578125,0.638275146484375
40873,-0.0640411376953125,0.387939453125,0.653106689453125
40874,-0.0184173583984375,0.50579833984375,0.6953582763671875
40875,0.054718017578125,0.673675537109375,0.713409423828125
40876,0.1266937255859375,0.7160491943359375,0.6929931640625
40877,0.1595458984375,0.72125244140625,0.646453857421875
40878,0.188751220703125,0.7723541259765625,0.6246490478515625
40879,0.2083587646484375,0.8956756591796875,0.6591949462890625
40880,0.2201995849609375,1.042068481445312,0.761077880859375
40881,0.312774658203125,1.126983642578125,0.8177032470703125
40882,0.496124267578125,1.113967895507812,0.8073883056640625
40883,0.618499755859375,1.069992065429688,0.76690673828125
40884,0.6108551025390625,1.007156372070312,0.7167510986328125
40885,0.5072174072265625,0.92364501953125,0.701171875
40886,0.3870697021484375,0.8410491943359375,0.7080841064453125
40887,0.301422119140625,0.71807861328125,0.6645355224609375
40888,0.2092742919921875,0.5948486328125,0.589111328125
40889,0.0927581787109375,0.5431976318359375,0.5482330322265625
40890,-0.0157623291015625,0.535003662109375,0.57135009765625
40891,-0.10888671875,0.5041351318359375,0.6591033935546875
40892,-0.205413818359375,0.453460693359375,0.77667236328125
40893,-0.3017578125,0.43939208984375,0.828643798828125
40894,-0.38360595703125,0.43463134765625,0.814117431640625
40895,-0.409515380859375,0.3965301513671875,0.7665557861328125
40896,-0.384185791015625,0.3434295654296875,0.7273101806640625
40897,-0.37091064453125,0.309600830078125,0.7028656005859375
40898,-0.40374755859375,0.30419921875,0.69720458984375
40899,-0.4719390869140625,0.3268585205078125,0.7012939453125
40900,-0.565521240234375,0.34796142578125,0.70062255859375
40901,-0.674163818359375,0.36016845703125,0.71697998046875
40902,-0.773773193359375,0.3534088134765625,0.7547607421875
40903,-0.81884765625,0.3527984619140625,0.8426361083984375
40904,-0.7968902587890625,0.36212158203125,0.9575958251953124
40905,-0.7373046875,0.3963775634765625,1.065048217773438
40906,-0.6791229248046875,0.4338226318359375,1.127471923828125
40907,-0.639373779296875,0.4725189208984375,1.148849487304688
40908,-0.604644775390625,0.521514892578125,1.155288696289062
40909,-0.5725250244140625,0.571502685546875,1.147048950195312
40910,-0.5420074462890625,0.6084747314453125,1.118621826171875
40911,-0.5060577392578125,0.6360931396484375,1.06732177734375
40912,-0.46771240234375,0.6702423095703125,1.005661010742188
40913,-0.405731201171875,0.6988067626953125,0.9514617919921876
40914,-0.347808837890625,0.72076416015625,0.9083404541015624
40915,-0.308380126953125,0.7430419921875,0.8840484619140625
40916,-0.2660980224609375,0.74658203125,0.8466949462890625
40917,-0.2218017578125,0.72882080078125,0.7904052734375
40918,-0.1793670654296875,0.7025146484375,0.720123291015625
40919,-0.1421356201171875,0.66351318359375,0.6492462158203125
40920,-0.142913818359375,0.604278564453125,0.5790252685546875
40921,-0.1808319091796875,0.539398193359375,0.5285186767578125
40922,-0.259063720703125,0.4985198974609375,0.502288818359375
40923,-0.304443359375,0.486358642578125,0.494873046875
40924,-0.326629638671875,0.4756011962890625,0.4803314208984375
40925,-0.3169097900390625,0.4561920166015625,0.48095703125
40926,-0.2790069580078125,0.4267730712890625,0.4741668701171875
40927,-0.2297821044921875,0.409820556640625,0.4557952880859375
40928,-0.186737060546875,0.4220428466796875,0.44342041015625
40929,-0.161376953125,0.4423828125,0.4453277587890625
40930,-0.155548095703125,0.4878387451171875,0.4975738525390625
40931,-0.1464385986328125,0.542236328125,0.592529296875
40932,-0.1262664794921875,0.5968475341796875,0.690155029296875
40933,-0.085235595703125,0.6956024169921875,0.7993621826171875
40934,-0.0011138916015625,0.8098297119140625,0.9388275146484376
40935,0.117462158203125,0.9092864990234376,1.056838989257812
40936,0.2310333251953125,0.969482421875,1.088699340820312
40937,0.353118896484375,1.0252685546875,1.03662109375
40938,0.5015716552734375,1.111740112304688,0.948883056640625
40939,0.64398193359375,1.18804931640625,0.9353790283203124
40940,0.72125244140625,1.21282958984375,0.9428863525390624
40941,0.6839752197265625,1.121200561523438,0.917144775390625
40942,0.6303253173828125,0.9411468505859376,0.8107757568359375
40943,0.5679168701171875,0.7252960205078125,0.742218017578125
40944,0.5050048828125,0.594146728515625,0.7232208251953125
40945,0.47576904296875,0.527099609375,0.7020416259765625
40946,0.417205810546875,0.51544189453125,0.6875152587890625
40947,0.3011474609375,0.5195770263671875,0.75946044921875
40948,0.15802001953125,0.527984619140625,0.86077880859375
40949,0.007781982421875,0.5408935546875,0.8795318603515625
40950,-0.15826416015625,0.4960784912109375,0.849456787109375
40951,-0.3087158203125,0.3853302001953125,0.8271331787109375
40952,-0.4154052734375,0.2888336181640625,0.7801361083984375
40953,-0.4728240966796875,0.1986236572265625,0.735504150390625
40954,-0.5061187744140625,0.133087158203125,0.703460693359375
40955,-0.5445709228515625,0.0854644775390625,0.7082366943359375
40956,-0.6331329345703125,0.0653839111328125,0.7319793701171875
40957,-0.7536468505859375,0.0589447021484375,0.774261474609375
40958,-0.9047088623046876,0.0833740234375,0.8311767578125
40959,-1.05938720703125,0.1320343017578125,0.8773193359375
40960,-1.136978149414062,0.1996307373046875,0.904266357421875
40961,-1.087249755859375,0.286895751953125,0.92431640625
40962,-0.9593353271484376,0.367523193359375,0.918701171875
40963,-0.8183441162109375,0.430694580078125,0.8848419189453125
40964,-0.6862335205078125,0.47833251953125,0.87152099609375
40965,-0.60308837890625,0.520294189453125,0.8702392578125
40966,-0.54571533203125,0.5378265380859375,0.870880126953125
40967,-0.4759368896484375,0.5472259521484375,0.886993408203125
40968,-0.3975067138671875,0.5558319091796875,0.93157958984375
40969,-0.3069915771484375,0.6014862060546875,1.0052490234375
40970,-0.2206878662109375,0.6431732177734375,1.05938720703125
40971,-0.1192626953125,0.6754150390625,1.059066772460938
40972,0.0023956298828125,0.6946563720703125,0.9297943115234376
40973,0.0980987548828125,0.6790618896484375,0.8433990478515625
40974,0.1240081787109375,0.62774658203125,0.8065032958984375
40975,0.1011199951171875,0.53741455078125,0.7319793701171875
40976,0.06951904296875,0.460845947265625,0.667022705078125
40977,0.0219573974609375,0.42779541015625,0.6529083251953125
40978,-0.0394439697265625,0.41705322265625,0.6810455322265625
40979,-0.1070404052734375,0.4183502197265625,0.7328033447265625
40980,-0.18463134765625,0.4235992431640625,0.7565155029296875
40981,-0.2257080078125,0.4283447265625,0.7435455322265625
40982,-0.22174072265625,0.4253692626953125,0.72039794921875
40983,-0.1844482421875,0.42364501953125,0.7287445068359375
40984,-0.1227874755859375,0.46490478515625,0.755157470703125
40985,-0.039581298828125,0.604217529296875,0.7716064453125
40986,0.0526580810546875,0.75811767578125,0.7528076171875
40987,0.0851287841796875,0.7742767333984375,0.679534912109375
40988,0.066162109375,0.74560546875,0.605377197265625
40989,0.05010986328125,0.774566650390625,0.5855712890625
40990,0.0328521728515625,0.872406005859375,0.6754302978515625
40991,0.035003662109375,0.9940948486328124,0.829193115234375
40992,0.1132659912109375,1.113494873046875,0.9246826171875
40993,0.257049560546875,1.178054809570312,0.909515380859375
40994,0.383209228515625,1.159637451171875,0.8818359375
40995,0.445465087890625,1.086715698242188,0.839141845703125
40996,0.4526214599609375,0.995208740234375,0.78759765625
40997,0.4223785400390625,0.8939361572265625,0.7535552978515625
40998,0.344940185546875,0.789581298828125,0.699615478515625
40999,0.2685394287109375,0.6693878173828125,0.6398773193359375
41000,0.196014404296875,0.5557861328125,0.5714111328125
41001,0.1192626953125,0.4733123779296875,0.535552978515625
41002,0.0352783203125,0.4003753662109375,0.526824951171875
41003,-0.05755615234375,0.367584228515625,0.54608154296875
41004,-0.1475830078125,0.3395233154296875,0.601531982421875
41005,-0.2181243896484375,0.304046630859375,0.66802978515625
41006,-0.293792724609375,0.2925567626953125,0.724212646484375
41007,-0.362152099609375,0.30914306640625,0.7557220458984375
41008,-0.394287109375,0.33197021484375,0.7625885009765625
41009,-0.404449462890625,0.3295745849609375,0.7368316650390625
41010,-0.4305877685546875,0.3202667236328125,0.714691162109375
41011,-0.4740753173828125,0.3133544921875,0.68572998046875
41012,-0.529022216796875,0.31591796875,0.677764892578125
41013,-0.597991943359375,0.324798583984375,0.6927947998046875
41014,-0.678863525390625,0.344146728515625,0.728546142578125
41015,-0.7322845458984375,0.3565826416015625,0.7806396484375
41016,-0.7584228515625,0.3564453125,0.845123291015625
41017,-0.7679595947265625,0.3725738525390625,0.9230804443359376
41018,-0.7508392333984375,0.3948974609375,1.003921508789062
41019,-0.7128448486328125,0.4125823974609375,1.073837280273438
41020,-0.6726531982421875,0.42718505859375,1.092910766601562
41021,-0.6429443359375,0.4309234619140625,1.07073974609375
41022,-0.60723876953125,0.4471435546875,1.065414428710938
41023,-0.5509796142578125,0.4953460693359375,1.085830688476562
41024,-0.4875335693359375,0.55133056640625,1.052459716796875
41025,-0.3959808349609375,0.58074951171875,0.999908447265625
41026,-0.2926788330078125,0.6030731201171875,0.9501190185546876
41027,-0.2006072998046875,0.6260986328125,0.9069366455078124
41028,-0.1334075927734375,0.6498260498046875,0.857177734375
41029,-0.0885772705078125,0.66888427734375,0.8292083740234375
41030,-0.0596466064453125,0.6765594482421875,0.79974365234375
41031,-0.06036376953125,0.6796722412109375,0.75836181640625
41032,-0.0561676025390625,0.6693115234375,0.718780517578125
41033,-0.050384521484375,0.656036376953125,0.661590576171875
41034,-0.0593719482421875,0.6373291015625,0.62078857421875
41035,-0.1176910400390625,0.6073760986328125,0.58123779296875
41036,-0.1767578125,0.5833740234375,0.57586669921875
41037,-0.2227325439453125,0.559722900390625,0.5828704833984375
41038,-0.2581939697265625,0.5406341552734375,0.6061553955078125
41039,-0.272979736328125,0.506439208984375,0.607025146484375
41040,-0.2889251708984375,0.47418212890625,0.592071533203125
41041,-0.3099822998046875,0.46490478515625,0.5886383056640625
41042,-0.321502685546875,0.496002197265625,0.61944580078125
41043,-0.3021697998046875,0.5541839599609375,0.7017364501953125
41044,-0.2202606201171875,0.5964813232421875,0.8119354248046875
41045,-0.1013336181640625,0.66204833984375,0.883270263671875
41046,0.0335693359375,0.7449493408203125,0.9435272216796876
41047,0.1839447021484375,0.81756591796875,0.96923828125
41048,0.315155029296875,0.8760223388671875,0.9561004638671876
41049,0.404876708984375,0.929443359375,0.9293212890625
41050,0.47857666015625,0.9654388427734376,0.8778533935546875
41051,0.5748748779296875,1.02154541015625,0.8228912353515625
41052,0.6463623046875,1.057830810546875,0.799530029296875
41053,0.6399688720703125,1.010147094726562,0.783905029296875
41054,0.5970916748046875,0.9431610107421876,0.7769012451171875
41055,0.5411529541015625,0.857025146484375,0.79034423828125
41056,0.4928436279296875,0.727325439453125,0.747222900390625
41057,0.454254150390625,0.6510009765625,0.6378631591796875
41058,0.3885955810546875,0.6445465087890625,0.5625762939453125
41059,0.2811431884765625,0.6376190185546875,0.573638916015625
41060,0.1519317626953125,0.56329345703125,0.633026123046875
41061,0.0251922607421875,0.4630584716796875,0.6722564697265625
41062,-0.1204376220703125,0.412353515625,0.653472900390625
41063,-0.3056488037109375,0.392852783203125,0.675872802734375
41064,-0.4932098388671875,0.3740997314453125,0.73284912109375
41065,-0.635955810546875,0.336578369140625,0.768524169921875
41066,-0.7545318603515625,0.289093017578125,0.790679931640625
41067,-0.8619384765625,0.2651519775390625,0.77923583984375
41068,-0.9249420166015624,0.2280731201171875,0.7380218505859375
41069,-0.9453582763671876,0.1896820068359375,0.71490478515625
41070,-0.97015380859375,0.162109375,0.7360076904296875
41071,-1.015609741210938,0.1651763916015625,0.7935791015625
41072,-1.042678833007812,0.202301025390625,0.86749267578125
41073,-1.035324096679688,0.2679901123046875,0.925628662109375
41074,-1.000640869140625,0.3683929443359375,0.988555908203125
41075,-0.877685546875,0.435455322265625,1.018600463867188
41076,-0.719696044921875,0.47735595703125,1.015365600585938
41077,-0.591278076171875,0.5423126220703125,1.027923583984375
41078,-0.4902191162109375,0.5904388427734375,1.053573608398438
41079,-0.40625,0.5905914306640625,1.050033569335938
41080,-0.3203277587890625,0.5845794677734375,1.052459716796875
41081,-0.2526397705078125,0.6073455810546875,1.070114135742188
41082,-0.180450439453125,0.6302032470703125,1.048843383789062
41083,-0.114349365234375,0.63946533203125,0.9940185546875
41084,-0.0757598876953125,0.6359710693359375,0.951171875
41085,-0.0643463134765625,0.629730224609375,0.883056640625
41086,-0.05908203125,0.5927886962890625,0.8309173583984375
41087,-0.0588531494140625,0.55401611328125,0.8044586181640625
41088,-0.050689697265625,0.517578125,0.768798828125
41089,-0.0402374267578125,0.4876708984375,0.736358642578125
41090,-0.0443115234375,0.464813232421875,0.714019775390625
41091,-0.06756591796875,0.44964599609375,0.716156005859375
41092,-0.0959930419921875,0.4316864013671875,0.7140045166015625
41093,-0.111541748046875,0.39605712890625,0.6924591064453125
41094,-0.1096954345703125,0.3516998291015625,0.6586151123046875
41095,-0.0713958740234375,0.318359375,0.6413116455078125
41096,-0.0096588134765625,0.32891845703125,0.6549072265625
41097,0.059906005859375,0.415771484375,0.681365966796875
41098,0.09820556640625,0.599700927734375,0.6856231689453125
41099,0.105072021484375,0.693939208984375,0.6812591552734375
41100,0.085845947265625,0.681549072265625,0.6574554443359375
41101,0.0418243408203125,0.720703125,0.6453399658203125
41102,-0.008209228515625,0.8070220947265625,0.6962432861328125
41103,-0.00885009765625,0.898773193359375,0.792724609375
41104,0.0629425048828125,0.954925537109375,0.865509033203125
41105,0.194091796875,1.00311279296875,0.8789215087890625
41106,0.355316162109375,1.015243530273438,0.8145751953125
41107,0.4809417724609375,0.9451904296875,0.73223876953125
41108,0.5146636962890625,0.8984375,0.66278076171875
41109,0.47955322265625,0.8820953369140625,0.6007843017578125
41110,0.413787841796875,0.851318359375,0.5911102294921875
41111,0.351806640625,0.783355712890625,0.6076202392578125
41112,0.2776336669921875,0.6850128173828125,0.63787841796875
41113,0.18890380859375,0.6246795654296875,0.6616363525390625
41114,0.090484619140625,0.6002960205078125,0.687744140625
41115,0.0046844482421875,0.5713653564453125,0.723175048828125
41116,-0.0838165283203125,0.536865234375,0.7406005859375
41117,-0.1923675537109375,0.5005035400390625,0.741790771484375
41118,-0.2780609130859375,0.476898193359375,0.729095458984375
41119,-0.30474853515625,0.4442138671875,0.701385498046875
41120,-0.294097900390625,0.41455078125,0.690338134765625
41121,-0.2986297607421875,0.3789215087890625,0.6793975830078125
41122,-0.3640289306640625,0.3410491943359375,0.6565704345703125
41123,-0.495025634765625,0.3032989501953125,0.63067626953125
41124,-0.6692047119140625,0.2745819091796875,0.64788818359375
41125,-0.84033203125,0.2698974609375,0.7058868408203125
41126,-0.985504150390625,0.26837158203125,0.7679595947265625
41127,-1.077346801757812,0.2473602294921875,0.866546630859375
41128,-1.072174072265625,0.2195892333984375,0.96734619140625
41129,-0.9970245361328124,0.1958770751953125,1.042495727539062
41130,-0.894378662109375,0.2130279541015625,1.085098266601562
41131,-0.7741851806640625,0.2509613037109375,1.066421508789062
41132,-0.67694091796875,0.2873077392578125,1.007354736328125
41133,-0.594512939453125,0.3583984375,0.97564697265625
41134,-0.5048980712890625,0.4680023193359375,0.967041015625
41135,-0.4388275146484375,0.58648681640625,0.94744873046875
41136,-0.3758087158203125,0.6771087646484375,0.9102325439453124
41137,-0.313629150390625,0.7212982177734375,0.8854217529296875
41138,-0.26318359375,0.7397003173828125,0.8921661376953125
41139,-0.2027740478515625,0.76708984375,0.89031982421875
41140,-0.1349945068359375,0.820404052734375,0.88958740234375
41141,-0.0677490234375,0.849365234375,0.87603759765625
41142,0.0101470947265625,0.82086181640625,0.8282318115234375
41143,0.076080322265625,0.7470855712890625,0.68023681640625
41144,0.0736236572265625,0.6673583984375,0.52587890625
41145,0.001220703125,0.6031341552734375,0.438751220703125
41146,-0.0832061767578125,0.565948486328125,0.415252685546875
41147,-0.15966796875,0.521026611328125,0.424591064453125
41148,-0.198272705078125,0.4980316162109375,0.4638671875
41149,-0.1955718994140625,0.52313232421875,0.531524658203125
41150,-0.1809539794921875,0.5619354248046875,0.592498779296875
41151,-0.18255615234375,0.6054840087890625,0.633148193359375
41152,-0.1990966796875,0.6446533203125,0.700775146484375
41153,-0.184478759765625,0.6461029052734375,0.8257904052734375
41154,-0.1118621826171875,0.6326141357421875,0.928009033203125
41155,0.0139007568359375,0.650360107421875,0.9775848388671876
41156,0.1586151123046875,0.696563720703125,0.9710693359375
41157,0.2829437255859375,0.76580810546875,0.9351654052734376
41158,0.3865203857421875,0.852508544921875,0.9025421142578124
41159,0.4845123291015625,0.96832275390625,0.895294189453125
41160,0.5800323486328125,1.072616577148438,0.909271240234375
41161,0.6779937744140625,1.090850830078125,0.9068450927734376
41162,0.7335968017578125,1.040298461914062,0.905029296875
41163,0.7187347412109375,0.9368896484375,0.8683319091796875
41164,0.638916015625,0.8201904296875,0.8292083740234375
41165,0.55523681640625,0.7174072265625,0.759613037109375
41166,0.472412109375,0.665985107421875,0.714263916015625
41167,0.3758392333984375,0.6260833740234375,0.7089080810546875
41168,0.23828125,0.59765625,0.716766357421875
41169,0.0660858154296875,0.5581512451171875,0.774505615234375
41170,-0.1169891357421875,0.47882080078125,0.79168701171875
41171,-0.3059844970703125,0.428680419921875,0.729034423828125
41172,-0.47412109375,0.4334716796875,0.666717529296875
41173,-0.6214599609375,0.4310302734375,0.644317626953125
41174,-0.7361602783203125,0.402740478515625,0.685302734375
41175,-0.7921142578125,0.3701629638671875,0.7134857177734375
41176,-0.807159423828125,0.3315277099609375,0.6951904296875
41177,-0.7989654541015625,0.2848968505859375,0.655120849609375
41178,-0.805389404296875,0.2492523193359375,0.661102294921875
41179,-0.8377685546875,0.258270263671875,0.710205078125
41180,-0.9041290283203124,0.298187255859375,0.7785186767578125
41181,-0.990264892578125,0.35711669921875,0.852996826171875
41182,-1.039749145507812,0.4354705810546875,0.9287872314453124
41183,-1.018081665039062,0.4972991943359375,0.9730224609375
41184,-0.9265289306640624,0.5548248291015625,0.953643798828125
41185,-0.7884979248046875,0.6102447509765625,0.9111175537109376
41186,-0.640380859375,0.6336212158203125,0.8843841552734375
41187,-0.525360107421875,0.6130828857421875,0.875946044921875
41188,-0.435333251953125,0.55987548828125,0.9026641845703124
41189,-0.3607940673828125,0.521484375,0.950958251953125
41190,-0.2975006103515625,0.507965087890625,0.98455810546875
41191,-0.2353668212890625,0.5092315673828125,0.96832275390625
41192,-0.171630859375,0.5159759521484375,0.9399566650390624
41193,-0.129913330078125,0.5193328857421875,0.96148681640625
41194,-0.0850982666015625,0.5027923583984375,0.9889678955078124
41195,-0.020904541015625,0.5080413818359375,0.970672607421875
41196,0.0475616455078125,0.519805908203125,0.90203857421875
41197,0.110443115234375,0.5015869140625,0.77569580078125
41198,0.1349334716796875,0.458984375,0.6623382568359375
41199,0.0999298095703125,0.4061126708984375,0.6242523193359375
41200,0.025604248046875,0.37078857421875,0.6491546630859375
41201,-0.050811767578125,0.343536376953125,0.70220947265625
41202,-0.0855560302734375,0.3298492431640625,0.754425048828125
41203,-0.0667724609375,0.3279571533203125,0.7582550048828125
41204,-0.0161285400390625,0.3498382568359375,0.7244720458984375
41205,0.027740478515625,0.3634033203125,0.6914215087890625
41206,0.0618743896484375,0.36590576171875,0.670501708984375
41207,0.0849151611328125,0.3706512451171875,0.657562255859375
41208,0.09088134765625,0.437652587890625,0.67059326171875
41209,0.0888519287109375,0.544769287109375,0.68414306640625
41210,0.0822296142578125,0.5764617919921875,0.64447021484375
41211,0.047882080078125,0.5913543701171875,0.5887908935546875
41212,0.014251708984375,0.6534881591796875,0.5935516357421875
41213,-0.0011444091796875,0.77288818359375,0.6498260498046875
41214,0.0083465576171875,0.9019012451171876,0.7524566650390625
41215,0.07647705078125,0.9974212646484376,0.8474273681640625
41216,0.1971893310546875,1.085311889648438,0.8692779541015625
41217,0.32501220703125,1.098953247070312,0.8177032470703125
41218,0.4132232666015625,1.019485473632812,0.7324676513671875
41219,0.428924560546875,0.9489898681640624,0.674713134765625
41220,0.3853759765625,0.9282379150390624,0.6671295166015625
41221,0.3355865478515625,0.857147216796875,0.6933135986328125
41222,0.2832489013671875,0.75897216796875,0.6771240234375
41223,0.237640380859375,0.65887451171875,0.6425018310546875
41224,0.18511962890625,0.574493408203125,0.6253204345703125
41225,0.1119232177734375,0.5251617431640625,0.63970947265625
41226,0.008026123046875,0.453216552734375,0.678619384765625
41227,-0.1353302001953125,0.390838623046875,0.720489501953125
41228,-0.2924346923828125,0.3600006103515625,0.7398834228515625
41229,-0.43603515625,0.367218017578125,0.748291015625
41230,-0.5379180908203125,0.3648681640625,0.74896240234375
41231,-0.611602783203125,0.349761962890625,0.754730224609375
41232,-0.6553497314453125,0.3532867431640625,0.74383544921875
41233,-0.6968994140625,0.358978271484375,0.7065887451171875
41234,-0.7645721435546875,0.354339599609375,0.6727294921875
41235,-0.8317413330078125,0.3491058349609375,0.677703857421875
41236,-0.886505126953125,0.3432159423828125,0.69183349609375
41237,-0.9286956787109376,0.3271942138671875,0.721649169921875
41238,-0.9507293701171876,0.316986083984375,0.7823333740234375
41239,-0.943603515625,0.3284149169921875,0.8798828125
41240,-0.9203338623046876,0.371337890625,0.977752685546875
41241,-0.888275146484375,0.4117584228515625,1.02142333984375
41242,-0.859375,0.4681549072265625,1.033798217773438
41243,-0.7986602783203125,0.5568084716796875,1.056976318359375
41244,-0.7148284912109375,0.6456146240234375,1.079666137695312
41245,-0.6107635498046875,0.7270660400390625,1.106796264648438
41246,-0.4912567138671875,0.7967529296875,1.122085571289062
41247,-0.3581390380859375,0.8382415771484375,1.102142333984375
41248,-0.23846435546875,0.8381500244140625,1.0655517578125
41249,-0.0908660888671875,0.825408935546875,1.01580810546875
41250,0.0697479248046875,0.8426055908203125,0.9124603271484376
41251,0.1914520263671875,0.8160858154296875,0.8020782470703125
41252,0.2424163818359375,0.7651519775390625,0.6566009521484375
41253,0.1825103759765625,0.702667236328125,0.4611358642578125
41254,0.0471343994140625,0.5938720703125,0.3865966796875
41255,-0.0989990234375,0.508148193359375,0.4388885498046875
41256,-0.227294921875,0.4614410400390625,0.489410400390625
41257,-0.3157806396484375,0.4642181396484375,0.4847869873046875
41258,-0.3055419921875,0.5089569091796875,0.500396728515625
41259,-0.249298095703125,0.576995849609375,0.5718231201171875
41260,-0.1962432861328125,0.637725830078125,0.6924896240234375
41261,-0.1327362060546875,0.6600341796875,0.8188323974609375
41262,-0.0542755126953125,0.6681060791015625,0.8954620361328125
41263,0.0296630859375,0.684326171875,0.9468536376953124
41264,0.140472412109375,0.7075347900390625,0.9268646240234376
41265,0.236236572265625,0.760101318359375,0.84228515625
41266,0.3109283447265625,0.8270263671875,0.767303466796875
41267,0.4185028076171875,0.8970489501953125,0.7389068603515625
41268,0.5690155029296875,0.98492431640625,0.745025634765625
41269,0.766143798828125,1.097396850585938,0.808349609375
41270,0.9305419921875,1.158859252929688,0.811981201171875
41271,0.997772216796875,1.090484619140625,0.7822418212890625
41272,0.9347686767578124,0.95635986328125,0.7436065673828125
41273,0.78582763671875,0.795074462890625,0.670989990234375
41274,0.596649169921875,0.6890716552734375,0.61004638671875
41275,0.395904541015625,0.626068115234375,0.5893707275390625
41276,0.187957763671875,0.57720947265625,0.6021881103515625
41277,-0.0284423828125,0.5222625732421875,0.6430511474609375
41278,-0.22650146484375,0.45330810546875,0.68450927734375
41279,-0.3973541259765625,0.42529296875,0.6946563720703125
41280,-0.5364227294921875,0.4087982177734375,0.6948394775390625
41281,-0.6450347900390625,0.360565185546875,0.6844635009765625
41282,-0.7185516357421875,0.3226470947265625,0.6904449462890625
41283,-0.719451904296875,0.332427978515625,0.6851806640625
41284,-0.6568756103515625,0.3393096923828125,0.667999267578125
41285,-0.6013946533203125,0.32281494140625,0.6408843994140625
41286,-0.6020965576171875,0.292327880859375,0.637542724609375
41287,-0.6615447998046875,0.265289306640625,0.640777587890625
41288,-0.777618408203125,0.26690673828125,0.6539306640625
41289,-0.938079833984375,0.293060302734375,0.7090911865234375
41290,-1.100387573242188,0.3728485107421875,0.780059814453125
41291,-1.188400268554688,0.5231781005859375,0.8868408203125
41292,-1.1546630859375,0.660797119140625,1.026885986328125
41293,-1.025665283203125,0.6908111572265625,1.080337524414062
41294,-0.8596038818359375,0.7298736572265625,1.070343017578125
41295,-0.693115234375,0.738983154296875,1.039138793945312
41296,-0.532806396484375,0.700531005859375,1.028900146484375
41297,-0.412445068359375,0.66302490234375,1.015518188476562
41298,-0.328582763671875,0.656005859375,1.016189575195312
41299,-0.2274627685546875,0.6556243896484375,1.037033081054688
41300,-0.0928192138671875,0.6491241455078125,1.022247314453125
41301,0.0205078125,0.60919189453125,1.022232055664062
41302,0.1104278564453125,0.592864990234375,0.977935791015625
41303,0.1917877197265625,0.6000518798828125,0.893280029296875
41304,0.2210845947265625,0.600982666015625,0.8510894775390625
41305,0.184112548828125,0.56475830078125,0.8204193115234375
41306,0.13189697265625,0.47149658203125,0.7425384521484375
41307,0.077606201171875,0.3776092529296875,0.7196807861328125
41308,0.0052032470703125,0.309600830078125,0.7389373779296875
41309,-0.0764923095703125,0.2719573974609375,0.7612152099609375
41310,-0.1282196044921875,0.2616729736328125,0.752655029296875
41311,-0.1349945068359375,0.269256591796875,0.7139129638671875
41312,-0.1243438720703125,0.2707672119140625,0.684539794921875
41313,-0.095367431640625,0.2482147216796875,0.6899566650390625
41314,-0.0400238037109375,0.2814788818359375,0.687164306640625
41315,0.040252685546875,0.4186248779296875,0.6828765869140625
41316,0.135650634765625,0.5969085693359375,0.6654815673828125
41317,0.18701171875,0.6448211669921875,0.6020355224609375
41318,0.17694091796875,0.64422607421875,0.55474853515625
41319,0.1421356201171875,0.712066650390625,0.576324462890625
41320,0.11627197265625,0.8250885009765625,0.631591796875
41321,0.1289520263671875,0.937042236328125,0.7025604248046875
41322,0.2087249755859375,1.039337158203125,0.728515625
41323,0.343292236328125,1.130020141601562,0.696746826171875
41324,0.480499267578125,1.149703979492188,0.65667724609375
41325,0.54052734375,1.158416748046875,0.6834564208984375
41326,0.512542724609375,1.140777587890625,0.7040863037109375
41327,0.4309539794921875,1.071121215820312,0.7138519287109375
41328,0.3533935546875,0.938507080078125,0.68231201171875
41329,0.28070068359375,0.7968292236328125,0.6486968994140625
41330,0.1799468994140625,0.6740875244140625,0.648956298828125
41331,0.0929718017578125,0.5930938720703125,0.6408538818359375
41332,0.0367279052734375,0.5455322265625,0.6181793212890625
41333,-0.0193634033203125,0.5117645263671875,0.616363525390625
41334,-0.0847625732421875,0.486297607421875,0.65045166015625
41335,-0.1453704833984375,0.4384765625,0.6994781494140625
41336,-0.1912841796875,0.4012298583984375,0.7087554931640625
41337,-0.22039794921875,0.393341064453125,0.6846160888671875
41338,-0.26361083984375,0.3802032470703125,0.657379150390625
41339,-0.33721923828125,0.373382568359375,0.6617279052734375
41340,-0.45794677734375,0.3658599853515625,0.6325836181640625
41341,-0.6037445068359375,0.3367156982421875,0.5938720703125
41342,-0.753173828125,0.3237762451171875,0.5957794189453125
41343,-0.890411376953125,0.3229827880859375,0.625030517578125
41344,-0.98516845703125,0.310821533203125,0.701690673828125
41345,-1.03497314453125,0.31121826171875,0.794586181640625
41346,-1.026947021484375,0.32061767578125,0.86962890625
41347,-0.966278076171875,0.34197998046875,0.9251556396484376
41348,-0.871124267578125,0.3741607666015625,0.9793243408203124
41349,-0.7821807861328125,0.402923583984375,1.016891479492188
41350,-0.6947021484375,0.4405670166015625,1.021408081054688
41351,-0.58795166015625,0.5072174072265625,1.032745361328125
41352,-0.4630126953125,0.614288330078125,1.071578979492188
41353,-0.3396453857421875,0.7383575439453125,1.118499755859375
41354,-0.245361328125,0.823394775390625,1.1683349609375
41355,-0.1564178466796875,0.88079833984375,1.116622924804688
41356,-0.0773162841796875,0.909271240234375,0.95343017578125
41357,-0.062255859375,0.8881378173828125,0.8334503173828125
41358,-0.1052703857421875,0.850982666015625,0.798431396484375
41359,-0.1386871337890625,0.8107452392578125,0.764129638671875
41360,-0.129302978515625,0.7579803466796875,0.65142822265625
41361,-0.099395751953125,0.712677001953125,0.54156494140625
41362,-0.0746612548828125,0.668060302734375,0.5159912109375
41363,-0.1089324951171875,0.63531494140625,0.5492706298828125
41364,-0.1616668701171875,0.615203857421875,0.60040283203125
41365,-0.1977386474609375,0.6024017333984375,0.6298828125
41366,-0.2251129150390625,0.5950164794921875,0.6407012939453125
41367,-0.23748779296875,0.5931396484375,0.6484222412109375
41368,-0.257781982421875,0.5978240966796875,0.6438751220703125
41369,-0.2541656494140625,0.62835693359375,0.6831817626953125
41370,-0.1768646240234375,0.6647491455078125,0.7886505126953125
41371,-0.0608062744140625,0.7024078369140625,0.85577392578125
41372,0.0548248291015625,0.7570037841796875,0.8600006103515625
41373,0.158416748046875,0.8162689208984375,0.82281494140625
41374,0.236541748046875,0.87054443359375,0.758209228515625
41375,0.31640625,0.921478271484375,0.73870849609375
41376,0.435760498046875,0.993072509765625,0.76947021484375
41377,0.6181182861328125,1.044570922851562,0.801910400390625
41378,0.837615966796875,1.025985717773438,0.8019561767578125
41379,0.978546142578125,1.0054931640625,0.80242919921875
41380,0.9490814208984376,0.9567413330078124,0.7799530029296875
41381,0.851837158203125,0.8865966796875,0.7462158203125
41382,0.720611572265625,0.7792510986328125,0.6894073486328125
41383,0.55914306640625,0.686279296875,0.6347808837890625
41384,0.3752899169921875,0.6204071044921875,0.5976715087890625
41385,0.1945343017578125,0.563018798828125,0.588836669921875
41386,0.0064849853515625,0.495147705078125,0.607818603515625
41387,-0.1988067626953125,0.44427490234375,0.6201324462890625
41388,-0.395050048828125,0.418670654296875,0.6164093017578125
41389,-0.5562286376953125,0.4006500244140625,0.596405029296875
41390,-0.6779632568359375,0.382049560546875,0.628509521484375
41391,-0.748382568359375,0.3883514404296875,0.66058349609375
41392,-0.7631683349609375,0.3898468017578125,0.657318115234375
41393,-0.7278289794921875,0.3858642578125,0.616973876953125
41394,-0.6632537841796875,0.3589019775390625,0.5711517333984375
41395,-0.627593994140625,0.3214263916015625,0.5509033203125
41396,-0.648834228515625,0.2990570068359375,0.5802459716796875
41397,-0.7254180908203125,0.299835205078125,0.61431884765625
41398,-0.847198486328125,0.313079833984375,0.6541595458984375
41399,-0.973724365234375,0.346832275390625,0.7076873779296875
41400,-1.050247192382812,0.3995361328125,0.783172607421875
41401,-1.032333374023438,0.462738037109375,0.8819122314453125
41402,-0.966888427734375,0.544158935546875,0.9642486572265624
41403,-0.8646392822265625,0.6492767333984375,1.021804809570312
41404,-0.7310028076171875,0.71051025390625,1.06719970703125
41405,-0.575225830078125,0.7408447265625,1.097061157226562
41406,-0.433868408203125,0.750732421875,1.100784301757812
41407,-0.33416748046875,0.713531494140625,1.07672119140625
41408,-0.25506591796875,0.643280029296875,0.99798583984375
41409,-0.198822021484375,0.63079833984375,0.9794158935546876
41410,-0.17144775390625,0.6505889892578125,1.019577026367188
41411,-0.13623046875,0.62200927734375,1.035507202148438
41412,-0.11285400390625,0.565948486328125,0.99530029296875
41413,-0.1403045654296875,0.507965087890625,0.9068450927734376
41414,-0.197021484375,0.4404449462890625,0.8382568359375
41415,-0.2412109375,0.3889007568359375,0.821685791015625
41416,-0.258087158203125,0.3720703125,0.813568115234375
41417,-0.239776611328125,0.3884429931640625,0.78973388671875
41418,-0.2053070068359375,0.4028472900390625,0.73040771484375
41419,-0.1531982421875,0.3890838623046875,0.6709442138671875
41420,-0.08160400390625,0.3794403076171875,0.6389923095703125
41421,-0.0023193359375,0.3850555419921875,0.6317901611328125
41422,0.075469970703125,0.43792724609375,0.6306610107421875
41423,0.11920166015625,0.597991943359375,0.60833740234375
41424,0.1361541748046875,0.748748779296875,0.5779266357421875
41425,0.139923095703125,0.771087646484375,0.5312652587890625
41426,0.113555908203125,0.75213623046875,0.4692230224609375
41427,0.08148193359375,0.809417724609375,0.4632720947265625
41428,0.064666748046875,0.9603118896484376,0.5474853515625
41429,0.1168365478515625,1.117324829101562,0.651458740234375
41430,0.2620391845703125,1.214981079101562,0.6787872314453125
41431,0.4869384765625,1.211624145507812,0.670013427734375
41432,0.6663055419921875,1.163742065429688,0.6709747314453125
41433,0.7010345458984375,1.129913330078125,0.6779022216796875
41434,0.6272125244140625,1.077835083007812,0.7049407958984375
41435,0.5451812744140625,0.9990692138671876,0.67120361328125
41436,0.5158538818359375,0.87139892578125,0.57086181640625
41437,0.4663848876953125,0.75531005859375,0.5471954345703125
41438,0.3892974853515625,0.6711578369140625,0.590087890625
41439,0.298583984375,0.572540283203125,0.629638671875
41440,0.180755615234375,0.488067626953125,0.67083740234375
41441,0.0426788330078125,0.422454833984375,0.7369842529296875
41442,-0.0847930908203125,0.39776611328125,0.7891082763671875
41443,-0.2011871337890625,0.3878021240234375,0.8004608154296875
41444,-0.294586181640625,0.35986328125,0.7631378173828125
41445,-0.372100830078125,0.3290863037109375,0.7171630859375
41446,-0.43829345703125,0.3118896484375,0.688018798828125
41447,-0.5274200439453125,0.3133087158203125,0.650665283203125
41448,-0.635040283203125,0.297210693359375,0.5927581787109375
41449,-0.7343292236328125,0.256805419921875,0.5502777099609375
41450,-0.81103515625,0.252593994140625,0.584259033203125
41451,-0.8592987060546875,0.260223388671875,0.673004150390625
41452,-0.885345458984375,0.269287109375,0.7854461669921875
41453,-0.8917388916015625,0.2880096435546875,0.8953857421875
41454,-0.8641815185546875,0.320953369140625,1.007736206054688
41455,-0.80853271484375,0.3504486083984375,1.092727661132812
41456,-0.7455902099609375,0.373992919921875,1.092620849609375
41457,-0.679534912109375,0.4220428466796875,1.049697875976562
41458,-0.598846435546875,0.5044097900390625,1.031326293945312
41459,-0.4936981201171875,0.6032867431640625,1.020751953125
41460,-0.377960205078125,0.713348388671875,0.9907073974609376
41461,-0.285186767578125,0.8142852783203125,0.959930419921875
41462,-0.2229461669921875,0.8691558837890625,0.931793212890625
41463,-0.17462158203125,0.8839874267578125,0.8912353515625
41464,-0.140472412109375,0.8914642333984375,0.850738525390625
41465,-0.1048431396484375,0.88348388671875,0.8052215576171875
41466,-0.077301025390625,0.867889404296875,0.734649658203125
41467,-0.049285888671875,0.8408966064453125,0.6419525146484375
41468,-0.029388427734375,0.806793212890625,0.5480194091796875
41469,-0.0166015625,0.7447357177734375,0.462066650390625
41470,-0.049163818359375,0.662445068359375,0.4120330810546875
41471,-0.10247802734375,0.60833740234375,0.4065704345703125
41472,-0.155029296875,0.583526611328125,0.416748046875
41473,-0.1662750244140625,0.5625152587890625,0.446258544921875
41474,-0.1564178466796875,0.5507965087890625,0.478057861328125
41475,-0.1300048828125,0.53839111328125,0.51641845703125
41476,-0.1191864013671875,0.52923583984375,0.5201416015625
41477,-0.1485748291015625,0.526611328125,0.5182037353515625
41478,-0.20184326171875,0.531341552734375,0.555908203125
41479,-0.252288818359375,0.5464935302734375,0.6426544189453125
41480,-0.2511444091796875,0.5718536376953125,0.77471923828125
41481,-0.1923675537109375,0.6259307861328125,0.8827972412109375
41482,-0.071868896484375,0.6894073486328125,0.9573516845703124
41483,0.0912017822265625,0.766387939453125,0.9864044189453124
41484,0.2377777099609375,0.85284423828125,0.970855712890625
41485,0.3550567626953125,0.9273681640625,0.9572296142578124
41486,0.4615631103515625,0.9724578857421876,0.9334259033203124
41487,0.5999908447265625,0.9942169189453124,0.931884765625
41488,0.75714111328125,0.9949188232421876,0.9488372802734376
41489,0.8142852783203125,0.9590911865234376,0.9161834716796876
41490,0.7542266845703125,0.8975677490234375,0.8621826171875
41491,0.6263427734375,0.802825927734375,0.7722320556640625
41492,0.5077972412109375,0.7379608154296875,0.7463836669921875
41493,0.398590087890625,0.6983184814453125,0.7581787109375
41494,0.2624359130859375,0.6497039794921875,0.7693634033203125
41495,0.1059722900390625,0.6062774658203125,0.793853759765625
41496,-0.04937744140625,0.5739288330078125,0.800384521484375
41497,-0.2094879150390625,0.5501861572265625,0.7806549072265625
41498,-0.383544921875,0.5447235107421875,0.7467041015625
41499,-0.53900146484375,0.5224609375,0.7304534912109375
41500,-0.62884521484375,0.476531982421875,0.7306671142578125
41501,-0.641326904296875,0.4261016845703125,0.7135162353515625
41502,-0.5803985595703125,0.39739990234375,0.6637725830078125
41503,-0.5132293701171875,0.37200927734375,0.61431884765625
41504,-0.511322021484375,0.33587646484375,0.5826416015625
41505,-0.58148193359375,0.306884765625,0.5879058837890625
41506,-0.7074127197265625,0.3093414306640625,0.641357421875
41507,-0.8511505126953125,0.3319091796875,0.7034912109375
41508,-0.9657440185546876,0.38385009765625,0.740142822265625
41509,-0.99957275390625,0.4609222412109375,0.797454833984375
41510,-0.91949462890625,0.530609130859375,0.872039794921875
41511,-0.793548583984375,0.6011810302734375,0.916351318359375
41512,-0.6787872314453125,0.68023681640625,0.9502105712890624
41513,-0.5760955810546875,0.74462890625,0.9957427978515624
41514,-0.4825897216796875,0.7667694091796875,1.055038452148438
41515,-0.373748779296875,0.750335693359375,1.11700439453125
41516,-0.2609710693359375,0.7122650146484375,1.145309448242188
41517,-0.1746063232421875,0.67779541015625,1.136337280273438
41518,-0.06903076171875,0.6654052734375,1.082717895507812
41519,0.044097900390625,0.6611785888671875,0.9823760986328124
41520,0.10693359375,0.6492462158203125,0.909698486328125
41521,0.11590576171875,0.6069488525390625,0.86749267578125
41522,0.0971832275390625,0.5394287109375,0.831024169921875
41523,0.04345703125,0.50921630859375,0.7689208984375
41524,-0.02435302734375,0.5063323974609375,0.6976470947265625
41525,-0.0689544677734375,0.47784423828125,0.6719512939453125
41526,-0.0953521728515625,0.4514923095703125,0.6801910400390625
41527,-0.122467041015625,0.4342193603515625,0.6895599365234375
41528,-0.1351165771484375,0.4005279541015625,0.6753082275390625
41529,-0.1132965087890625,0.359649658203125,0.6561737060546875
41530,-0.0649871826171875,0.3365020751953125,0.6478729248046875
41531,-0.0048370361328125,0.353973388671875,0.656036376953125
41532,0.0503692626953125,0.468414306640625,0.626556396484375
41533,0.097625732421875,0.640777587890625,0.5679473876953125
41534,0.1273956298828125,0.667205810546875,0.5006561279296875
41535,0.0954437255859375,0.6349639892578125,0.4337310791015625
41536,0.027099609375,0.653961181640625,0.4130096435546875
41537,-0.013092041015625,0.74267578125,0.48931884765625
41538,-0.0002593994140625,0.8690032958984375,0.6150665283203125
41539,0.1015167236328125,0.9929351806640624,0.71600341796875
41540,0.3020477294921875,1.090408325195312,0.78033447265625
41541,0.5177001953125,1.126358032226562,0.780731201171875
41542,0.63555908203125,1.084640502929688,0.74957275390625
41543,0.6254425048828125,0.97821044921875,0.687896728515625
41544,0.5238189697265625,0.8656005859375,0.6235809326171875
41545,0.399810791015625,0.776824951171875,0.606414794921875
41546,0.2906341552734375,0.686309814453125,0.5845794677734375
41547,0.2058258056640625,0.6190338134765625,0.56744384765625
41548,0.1414337158203125,0.572052001953125,0.5758819580078125
41549,0.09613037109375,0.54254150390625,0.6354217529296875
41550,0.047088623046875,0.5125274658203125,0.717559814453125
41551,-0.030853271484375,0.4605255126953125,0.7896575927734375
41552,-0.1416778564453125,0.4407501220703125,0.821929931640625
41553,-0.265533447265625,0.4411773681640625,0.8136749267578125
41554,-0.39324951171875,0.42181396484375,0.80670166015625
41555,-0.5105133056640625,0.384552001953125,0.7997894287109375
41556,-0.5937042236328125,0.3567657470703125,0.7899932861328125
41557,-0.6773223876953125,0.367767333984375,0.763214111328125
41558,-0.7651824951171875,0.35662841796875,0.7261199951171875
41559,-0.834442138671875,0.338623046875,0.7284088134765625
41560,-0.8633575439453125,0.33868408203125,0.7760009765625
41561,-0.838958740234375,0.3572235107421875,0.8215484619140625
41562,-0.773193359375,0.378631591796875,0.859649658203125
41563,-0.6866455078125,0.39349365234375,0.90789794921875
41564,-0.5943145751953125,0.414306640625,0.9726104736328124
41565,-0.5089874267578125,0.45513916015625,1.048126220703125
41566,-0.439971923828125,0.51202392578125,1.114089965820312
41567,-0.380828857421875,0.5703887939453125,1.1617431640625
41568,-0.3125457763671875,0.6255645751953125,1.160720825195312
41569,-0.2419281005859375,0.6723785400390625,1.116485595703125
41570,-0.1888427734375,0.7133331298828125,1.054092407226562
41571,-0.16790771484375,0.7475433349609375,0.985809326171875
41572,-0.175262451171875,0.773590087890625,0.91241455078125
41573,-0.19482421875,0.786865234375,0.8651275634765625
41574,-0.2061920166015625,0.7711029052734375,0.827667236328125
41575,-0.2274169921875,0.760040283203125,0.7729339599609375
41576,-0.1724090576171875,0.708892822265625,0.8089447021484375
41577,-0.08740234375,0.6669158935546875,0.7442626953125
41578,-0.0302276611328125,0.6257171630859375,0.69500732421875
41579,-0.0191497802734375,0.584320068359375,0.6806182861328125
41580,-0.0355072021484375,0.5579681396484375,0.660797119140625
41581,-0.07073974609375,0.5249786376953125,0.627349853515625
41582,-0.131439208984375,0.47772216796875,0.5762481689453125
41583,-0.1808624267578125,0.4214324951171875,0.54205322265625
41584,-0.23089599609375,0.38775634765625,0.527008056640625
41585,-0.2584075927734375,0.394317626953125,0.5561981201171875
41586,-0.3032684326171875,0.4189605712890625,0.5666046142578125
41587,-0.3415985107421875,0.44708251953125,0.593475341796875
41588,-0.3603668212890625,0.4937896728515625,0.6345672607421875
41589,-0.335906982421875,0.55914306640625,0.71868896484375
41590,-0.265533447265625,0.6039886474609375,0.805084228515625
41591,-0.184173583984375,0.6568145751953125,0.8567962646484375
41592,-0.095062255859375,0.709503173828125,0.8846588134765625
41593,0.007904052734375,0.7552490234375,0.8798828125
41594,0.0945281982421875,0.7991485595703125,0.8286895751953125
41595,0.1485443115234375,0.8577423095703125,0.790283203125
41596,0.1980438232421875,0.9365386962890624,0.7923736572265625
41597,0.277130126953125,1.029312133789062,0.816253662109375
41598,0.407470703125,1.099349975585938,0.816253662109375
41599,0.5719757080078125,1.099716186523438,0.8141937255859375
41600,0.7315673828125,1.068359375,0.814697265625
41601,0.806182861328125,1.031661987304688,0.783447265625
41602,0.787933349609375,0.93829345703125,0.7284698486328125
41603,0.7194976806640625,0.818145751953125,0.678985595703125
41604,0.6121063232421875,0.7104339599609375,0.6546478271484375
41605,0.4565277099609375,0.63470458984375,0.6390533447265625
41606,0.2911529541015625,0.5860748291015625,0.6304779052734375
41607,0.1350555419921875,0.534332275390625,0.6094818115234375
41608,-0.0052490234375,0.478363037109375,0.5916900634765625
41609,-0.14056396484375,0.4171905517578125,0.5946044921875
41610,-0.27740478515625,0.3852996826171875,0.63275146484375
41611,-0.4134063720703125,0.3809661865234375,0.6868438720703125
41612,-0.5457763671875,0.38128662109375,0.7453765869140625
41613,-0.6400146484375,0.3670654296875,0.78173828125
41614,-0.683502197265625,0.33917236328125,0.7870941162109375
41615,-0.692291259765625,0.318206787109375,0.7870025634765625
41616,-0.7053680419921875,0.30804443359375,0.7919158935546875
41617,-0.741851806640625,0.3031158447265625,0.8274078369140625
41618,-0.8212890625,0.311981201171875,0.8976287841796875
41619,-0.9249725341796876,0.313385009765625,0.970916748046875
41620,-1.047500610351562,0.3650360107421875,0.922576904296875
41621,-1.131439208984375,0.4437713623046875,0.8527984619140625
41622,-1.077056884765625,0.5033416748046875,0.8028106689453125
41623,-0.973907470703125,0.576507568359375,0.75604248046875
41624,-0.8793182373046875,0.665863037109375,0.752288818359375
41625,-0.75750732421875,0.744415283203125,0.7407989501953125
41626,-0.6087646484375,0.7983245849609375,0.717041015625
41627,-0.4795074462890625,0.8211669921875,0.7164154052734375
41628,-0.3779296875,0.8157501220703125,0.74407958984375
41629,-0.2911224365234375,0.787994384765625,0.7938995361328125
41630,-0.21002197265625,0.748382568359375,0.8741455078125
41631,-0.1542510986328125,0.7501220703125,0.8969573974609375
41632,-0.0921783447265625,0.765228271484375,0.9233551025390624
41633,-0.01654052734375,0.74261474609375,0.899322509765625
41634,0.0597381591796875,0.704254150390625,0.8439178466796875
41635,0.1024169921875,0.6390838623046875,0.78021240234375
41636,0.1072235107421875,0.5672454833984375,0.7282562255859375
41637,0.0872802734375,0.5040130615234375,0.7169189453125
41638,0.0560150146484375,0.465362548828125,0.7380523681640625
41639,0.0203704833984375,0.4589996337890625,0.7682037353515625
41640,-0.013519287109375,0.469512939453125,0.78131103515625
41641,-0.047119140625,0.46417236328125,0.77252197265625
41642,-0.0700836181640625,0.4368896484375,0.7601165771484375
41643,-0.067626953125,0.432525634765625,0.7664031982421875
41644,-0.0457916259765625,0.465545654296875,0.789459228515625
41645,-0.0135650634765625,0.5516510009765625,0.7765960693359375
41646,0.0193939208984375,0.669921875,0.721893310546875
41647,0.046295166015625,0.7102203369140625,0.6571044921875
41648,0.0296478271484375,0.7157135009765625,0.60107421875
41649,-0.015716552734375,0.7462615966796875,0.609130859375
41650,-0.0418243408203125,0.8209381103515625,0.6672821044921875
41651,-0.03570556640625,0.9281005859375,0.758575439453125
41652,0.007904052734375,1.014251708984375,0.8438262939453125
41653,0.0809326171875,1.02362060546875,0.8719024658203125
41654,0.136077880859375,0.9599609375,0.82733154296875
41655,0.15179443359375,0.8976593017578125,0.7509765625
41656,0.157379150390625,0.8446502685546875,0.6767120361328125
41657,0.1792449951171875,0.7869873046875,0.6122589111328125
41658,0.212493896484375,0.7283172607421875,0.5587921142578125
41659,0.2481536865234375,0.6820220947265625,0.527435302734375
41660,0.2855072021484375,0.646331787109375,0.48846435546875
41661,0.3153839111328125,0.6098480224609375,0.4548492431640625
41662,0.31683349609375,0.5711212158203125,0.474456787109375
41663,0.267303466796875,0.52801513671875,0.528228759765625
41664,0.1855316162109375,0.4878387451171875,0.596221923828125
41665,0.079681396484375,0.416473388671875,0.6595306396484375
41666,-0.0566864013671875,0.34735107421875,0.7138519287109375
41667,-0.2027740478515625,0.319366455078125,0.747100830078125
41668,-0.339508056640625,0.3159332275390625,0.758148193359375
41669,-0.45611572265625,0.3181915283203125,0.7535400390625
41670,-0.552581787109375,0.3123779296875,0.743621826171875
41671,-0.636383056640625,0.3180999755859375,0.716278076171875
41672,-0.6921844482421875,0.3413238525390625,0.6956634521484375
41673,-0.7458953857421875,0.360015869140625,0.700286865234375
41674,-0.80303955078125,0.347625732421875,0.7315826416015625
41675,-0.8312835693359375,0.3287353515625,0.780853271484375
41676,-0.8283538818359375,0.3147430419921875,0.8363494873046875
41677,-0.8072967529296875,0.3051300048828125,0.8846588134765625
41678,-0.7967376708984375,0.3094482421875,0.93389892578125
41679,-0.8163909912109375,0.346771240234375,1.008026123046875
41680,-0.82574462890625,0.417724609375,1.071762084960938
41681,-0.78759765625,0.5024871826171875,1.096878051757812
41682,-0.706573486328125,0.598907470703125,1.063568115234375
41683,-0.60467529296875,0.708892822265625,0.9604949951171876
41684,-0.481353759765625,0.8182525634765625,0.877471923828125
41685,-0.33160400390625,0.882537841796875,0.8238067626953125
41686,-0.2215423583984375,0.8905181884765625,0.764190673828125
41687,-0.16534423828125,0.89105224609375,0.7663726806640625
41688,-0.146331787109375,0.8971405029296875,0.803314208984375
41689,-0.13690185546875,0.9114837646484376,0.7879638671875
41690,-0.1080474853515625,0.914276123046875,0.7272796630859375
41691,-0.072906494140625,0.88763427734375,0.6521759033203125
41692,-0.055450439453125,0.837005615234375,0.5982666015625
41693,-0.0695648193359375,0.76983642578125,0.5609588623046875
41694,-0.12835693359375,0.70989990234375,0.52447509765625
41695,-0.188079833984375,0.647796630859375,0.512359619140625
41696,-0.2281494140625,0.5803070068359375,0.512908935546875
41697,-0.2847137451171875,0.5199737548828125,0.532135009765625
41698,-0.3504180908203125,0.50079345703125,0.572052001953125
41699,-0.3975677490234375,0.5378875732421875,0.63189697265625
41700,-0.356109619140625,0.60675048828125,0.712860107421875
41701,-0.233123779296875,0.681884765625,0.8054962158203125
41702,-0.0579376220703125,0.7505645751953125,0.9042205810546876
41703,0.1621856689453125,0.8224945068359375,0.927978515625
41704,0.3347625732421875,0.8591461181640625,0.952972412109375
41705,0.4171295166015625,0.8998260498046875,0.9625091552734376
41706,0.4412384033203125,0.96343994140625,0.869781494140625
41707,0.4855804443359375,1.000579833984375,0.82916259765625
41708,0.54901123046875,1.015625,0.7843017578125
41709,0.5956878662109375,1.016632080078125,0.815399169921875
41710,0.65936279296875,1.008819580078125,0.78350830078125
41711,0.7190704345703125,0.980072021484375,0.7173309326171875
41712,0.7044677734375,0.944580078125,0.6905059814453125
41713,0.6091461181640625,0.8625335693359375,0.6982879638671875
41714,0.4609222412109375,0.7480926513671875,0.7129364013671875
41715,0.3058013916015625,0.6513671875,0.7208709716796875
41716,0.1642608642578125,0.5837249755859375,0.7017822265625
41717,0.050323486328125,0.5206298828125,0.647216796875
41718,-0.03472900390625,0.427398681640625,0.5734100341796875
41719,-0.1309356689453125,0.3416290283203125,0.5599365234375
41720,-0.2682647705078125,0.3020782470703125,0.59674072265625
41721,-0.4022369384765625,0.283966064453125,0.6449737548828125
41722,-0.4985198974609375,0.254669189453125,0.6500701904296875
41723,-0.556427001953125,0.21356201171875,0.6328582763671875
41724,-0.56781005859375,0.1820526123046875,0.6157073974609375
41725,-0.5506134033203125,0.1846466064453125,0.6258544921875
41726,-0.55157470703125,0.2114105224609375,0.6521148681640625
41727,-0.59375,0.2457733154296875,0.693634033203125
41728,-0.677642822265625,0.2842864990234375,0.731689453125
41729,-0.796630859375,0.32135009765625,0.742218017578125
41730,-0.898345947265625,0.3498687744140625,0.7436370849609375
41731,-0.948516845703125,0.375274658203125,0.724639892578125
41732,-0.9698333740234376,0.40032958984375,0.7281341552734375
41733,-0.9917755126953124,0.4501190185546875,0.7661285400390625
41734,-1.004959106445312,0.5147705078125,0.790283203125
41735,-0.9643096923828124,0.581573486328125,0.7752227783203125
41736,-0.867706298828125,0.636932373046875,0.7458038330078125
41737,-0.7339935302734375,0.687225341796875,0.74627685546875
41738,-0.59197998046875,0.7481689453125,0.7701416015625
41739,-0.4645233154296875,0.8063812255859375,0.81121826171875
41740,-0.36279296875,0.8451385498046875,0.8286590576171875
41741,-0.27252197265625,0.8722686767578125,0.8470001220703125
41742,-0.1810302734375,0.8877716064453125,0.9002532958984375
41743,-0.10723876953125,0.8852691650390625,0.943389892578125
41744,-0.072601318359375,0.8618011474609375,0.952392578125
41745,-0.0649871826171875,0.823486328125,0.921844482421875
41746,-0.05780029296875,0.7597808837890625,0.884063720703125
41747,-0.06170654296875,0.6974945068359375,0.8914794921875
41748,-0.081573486328125,0.6651458740234375,0.92694091796875
41749,-0.134307861328125,0.6419219970703125,0.936553955078125
41750,-0.216461181640625,0.603118896484375,0.937896728515625
41751,-0.2833709716796875,0.565704345703125,0.9349822998046876
41752,-0.32342529296875,0.535888671875,0.9134063720703124
41753,-0.3211669921875,0.483673095703125,0.878631591796875
41754,-0.2503814697265625,0.4140777587890625,0.8611297607421875
41755,-0.122711181640625,0.38360595703125,0.858245849609375
41756,0.0233917236328125,0.4248199462890625,0.84912109375
41757,0.1320953369140625,0.5567169189453125,0.7745819091796875
41758,0.1507568359375,0.729736328125,0.64288330078125
41759,0.1819305419921875,0.7584686279296875,0.6474609375
41760,0.1864776611328125,0.71722412109375,0.6316375732421875
41761,0.1360626220703125,0.7391357421875,0.661773681640625
41762,0.1336212158203125,0.7991943359375,0.7562713623046875
41763,0.219207763671875,0.8684844970703125,0.8328399658203125
41764,0.3682861328125,0.8910369873046875,0.841156005859375
41765,0.5191802978515625,0.8665924072265625,0.78411865234375
41766,0.6064300537109375,0.83935546875,0.6667938232421875
41767,0.60699462890625,0.85614013671875,0.5234832763671875
41768,0.5333404541015625,0.861785888671875,0.4360809326171875
41769,0.4078369140625,0.8046417236328125,0.4265594482421875
41770,0.2901153564453125,0.7384490966796875,0.4200439453125
41771,0.2385711669921875,0.6976165771484375,0.4428558349609375
41772,0.22979736328125,0.650665283203125,0.51861572265625
41773,0.2249603271484375,0.616058349609375,0.59906005859375
41774,0.18048095703125,0.5506439208984375,0.6418304443359375
41775,0.0749359130859375,0.47222900390625,0.65545654296875
41776,-0.07672119140625,0.4187469482421875,0.6677703857421875
41777,-0.2349395751953125,0.384429931640625,0.698150634765625
41778,-0.3477630615234375,0.357208251953125,0.714080810546875
41779,-0.40899658203125,0.329376220703125,0.6904296875
41780,-0.4385223388671875,0.3228759765625,0.6566925048828125
41781,-0.4671783447265625,0.317291259765625,0.625946044921875
41782,-0.5198211669921875,0.308929443359375,0.6077728271484375
41783,-0.6082916259765625,0.2993316650390625,0.59478759765625
41784,-0.7263641357421875,0.278839111328125,0.606842041015625
41785,-0.8598175048828125,0.2714080810546875,0.65643310546875
41786,-0.983184814453125,0.2570037841796875,0.716888427734375
41787,-1.061080932617188,0.2203521728515625,0.785614013671875
41788,-1.075653076171875,0.1821746826171875,0.85662841796875
41789,-1.038009643554688,0.1717529296875,0.9299163818359376
41790,-0.9741668701171876,0.217529296875,1.01434326171875
41791,-0.894317626953125,0.3092193603515625,1.075912475585938
41792,-0.789337158203125,0.4304962158203125,1.10113525390625
41793,-0.6480255126953125,0.5871734619140625,1.128662109375
41794,-0.4823150634765625,0.7256927490234375,1.126296997070312
41795,-0.3436737060546875,0.8401947021484375,1.053115844726562
41796,-0.26043701171875,0.938507080078125,0.9757843017578124
41797,-0.234466552734375,1.013153076171875,0.9359283447265624
41798,-0.23779296875,1.032394409179688,0.880828857421875
41799,-0.2331390380859375,0.9907073974609376,0.8114013671875
41800,-0.2007293701171875,0.899078369140625,0.722564697265625
41801,-0.15679931640625,0.797271728515625,0.6182098388671875
41802,-0.0936126708984375,0.7060394287109375,0.58026123046875
41803,-0.0244598388671875,0.6458740234375,0.599761962890625
41804,0.0258026123046875,0.62335205078125,0.6366119384765625
41805,0.0168304443359375,0.618743896484375,0.6511688232421875
41806,-0.0740814208984375,0.608551025390625,0.66864013671875
41807,-0.220458984375,0.5902252197265625,0.6865081787109375
41808,-0.3464202880859375,0.5775604248046875,0.725067138671875
41809,-0.3731842041015625,0.5880279541015625,0.788848876953125
41810,-0.2680206298828125,0.6111297607421875,0.879058837890625
41811,-0.080780029296875,0.6481170654296875,0.9476165771484376
41812,0.095306396484375,0.700775146484375,0.94854736328125
41813,0.202789306640625,0.7489166259765625,0.9153594970703124
41814,0.2409820556640625,0.778045654296875,0.8764190673828125
41815,0.22711181640625,0.806243896484375,0.8426666259765625
41816,0.2048492431640625,0.84112548828125,0.8298797607421875
41817,0.2162322998046875,0.8585357666015625,0.825653076171875
41818,0.2723388671875,0.8552703857421875,0.80511474609375
41819,0.343475341796875,0.830108642578125,0.7672271728515625
41820,0.4091949462890625,0.78326416015625,0.7273712158203125
41821,0.446136474609375,0.7248077392578125,0.697998046875
41822,0.4226837158203125,0.6717529296875,0.6772308349609375
41823,0.36309814453125,0.6261138916015625,0.6893768310546875
41824,0.255584716796875,0.5716094970703125,0.716064453125
41825,0.107330322265625,0.5159759521484375,0.7183837890625
41826,-0.0158538818359375,0.4465789794921875,0.6513671875
41827,-0.08489990234375,0.3828277587890625,0.5931549072265625
41828,-0.1379241943359375,0.3530731201171875,0.5694427490234375
41829,-0.2104034423828125,0.35662841796875,0.58233642578125
41830,-0.30999755859375,0.372650146484375,0.6311798095703125
41831,-0.4043731689453125,0.3809967041015625,0.68133544921875
41832,-0.45660400390625,0.374359130859375,0.68603515625
41833,-0.4757232666015625,0.359527587890625,0.6532745361328125
41834,-0.477020263671875,0.3321990966796875,0.63861083984375
41835,-0.48199462890625,0.2985687255859375,0.6330413818359375
41836,-0.514801025390625,0.255645751953125,0.6343536376953125
41837,-0.5869903564453125,0.2189178466796875,0.6514129638671875
41838,-0.66583251953125,0.1936187744140625,0.69610595703125
41839,-0.7182769775390625,0.1903533935546875,0.7408294677734375
41840,-0.75701904296875,0.2173309326171875,0.7834930419921875
41841,-0.8064117431640625,0.2863922119140625,0.8205718994140625
41842,-0.84259033203125,0.380859375,0.863067626953125
41843,-0.8289031982421875,0.49261474609375,0.924163818359375
41844,-0.7542877197265625,0.5992431640625,0.9667205810546876
41845,-0.6531219482421875,0.6653594970703125,0.9643707275390624
41846,-0.559295654296875,0.6871490478515625,0.9311981201171876
41847,-0.4986724853515625,0.700103759765625,0.9028778076171876
41848,-0.48272705078125,0.728302001953125,0.90789794921875
41849,-0.469512939453125,0.7570953369140625,0.9354705810546876
41850,-0.419586181640625,0.74267578125,0.9717559814453124
41851,-0.351348876953125,0.709564208984375,1.00543212890625
41852,-0.298583984375,0.704925537109375,1.019821166992188
41853,-0.2567901611328125,0.700408935546875,1.014984130859375
41854,-0.223114013671875,0.6793060302734375,0.9903717041015624
41855,-0.22064208984375,0.64410400390625,0.9623565673828124
41856,-0.2506866455078125,0.6034393310546875,0.93707275390625
41857,-0.2901611328125,0.5650634765625,0.9204559326171876
41858,-0.330596923828125,0.5549163818359375,0.9200592041015624
41859,-0.3634490966796875,0.5611114501953125,0.90655517578125
41860,-0.3771514892578125,0.5565948486328125,0.860198974609375
41861,-0.3475189208984375,0.5263214111328125,0.788482666015625
41862,-0.2747802734375,0.473876953125,0.736053466796875
41863,-0.159698486328125,0.4363555908203125,0.7193756103515625
41864,-0.0234222412109375,0.476409912109375,0.703399658203125
41865,0.1014251708984375,0.61407470703125,0.6440887451171875
41866,0.207305908203125,0.7741546630859375,0.598541259765625
41867,0.235687255859375,0.8278961181640625,0.5216064453125
41868,0.1866607666015625,0.841278076171875,0.4595489501953125
41869,0.1361541748046875,0.8791961669921875,0.4608306884765625
41870,0.1399383544921875,0.9485321044921876,0.5335235595703125
41871,0.2194976806640625,1.022430419921875,0.6242218017578125
41872,0.3609161376953125,1.070480346679688,0.6904296875
41873,0.504241943359375,1.102920532226562,0.7057647705078125
41874,0.6000518798828125,1.144577026367188,0.6729278564453125
41875,0.6640625,1.1414794921875,0.628082275390625
41876,0.663818359375,1.08074951171875,0.55731201171875
41877,0.5841827392578125,0.959136962890625,0.50762939453125
41878,0.443572998046875,0.83642578125,0.5048828125
41879,0.29656982421875,0.7275390625,0.5547943115234375
41880,0.183135986328125,0.6178436279296875,0.600982666015625
41881,0.1134796142578125,0.53558349609375,0.603546142578125
41882,0.0496368408203125,0.452056884765625,0.580810546875
41883,-0.0489349365234375,0.3686676025390625,0.56781005859375
41884,-0.1682891845703125,0.2920684814453125,0.5724639892578125
41885,-0.2767333984375,0.2271270751953125,0.609161376953125
41886,-0.3415069580078125,0.1877288818359375,0.666168212890625
41887,-0.353271484375,0.1507720947265625,0.686004638671875
41888,-0.345855712890625,0.093963623046875,0.6943206787109375
41889,-0.3755340576171875,0.0470428466796875,0.669464111328125
41890,-0.4457550048828125,0.017059326171875,0.626556396484375
41891,-0.5734100341796875,0.0269775390625,0.61651611328125
41892,-0.7433624267578125,0.0660552978515625,0.6407470703125
41893,-0.899261474609375,0.089569091796875,0.697479248046875
41894,-1.001556396484375,0.1155548095703125,0.80072021484375
41895,-1.029022216796875,0.1355438232421875,0.9330291748046876
41896,-0.979888916015625,0.15045166015625,1.07000732421875
41897,-0.8933868408203125,0.1976776123046875,1.1446533203125
41898,-0.813720703125,0.25384521484375,1.12237548828125
41899,-0.7712249755859375,0.309967041015625,1.04150390625
41900,-0.73291015625,0.4100799560546875,0.997344970703125
41901,-0.671112060546875,0.56365966796875,0.9801025390625
41902,-0.573822021484375,0.6873321533203125,1.002960205078125
41903,-0.442718505859375,0.79296875,1.011917114257812
41904,-0.310821533203125,0.9237213134765624,1.0301513671875
41905,-0.2215728759765625,1.0489501953125,1.066802978515625
41906,-0.1923370361328125,1.119979858398438,1.071273803710938
41907,-0.16851806640625,1.131256103515625,1.025985717773438
41908,-0.14361572265625,1.078765869140625,0.89910888671875
41909,-0.1297454833984375,0.952301025390625,0.72564697265625
41910,-0.1126556396484375,0.8023223876953125,0.570281982421875
41911,-0.1007537841796875,0.6750335693359375,0.5149993896484375
41912,-0.1076812744140625,0.583160400390625,0.5357208251953125
41913,-0.12127685546875,0.5482177734375,0.53564453125
41914,-0.1690216064453125,0.527984619140625,0.5152587890625
41915,-0.225128173828125,0.48663330078125,0.52056884765625
41916,-0.2772369384765625,0.4578704833984375,0.520538330078125
41917,-0.320037841796875,0.4606475830078125,0.550750732421875
41918,-0.3571929931640625,0.506561279296875,0.597259521484375
41919,-0.35125732421875,0.5861358642578125,0.6891937255859375
41920,-0.244537353515625,0.640106201171875,0.814422607421875
41921,-0.0963287353515625,0.66259765625,0.8745880126953125
41922,0.0357208251953125,0.710113525390625,0.907958984375
41923,0.13873291015625,0.788665771484375,0.92352294921875
41924,0.1656951904296875,0.8896942138671875,0.917877197265625
41925,0.1234130859375,0.9712371826171876,0.8863677978515625
41926,0.0835418701171875,1.00927734375,0.852691650390625
41927,0.1143951416015625,1.025436401367188,0.8196868896484375
41928,0.2444305419921875,1.02349853515625,0.80950927734375
41929,0.4594879150390625,0.9946746826171876,0.8313446044921875
41930,0.61993408203125,0.9335174560546876,0.788818359375
41931,0.6593017578125,0.89215087890625,0.697357177734375
41932,0.648895263671875,0.8696746826171875,0.6500701904296875
41933,0.6146697998046875,0.7978363037109375,0.64349365234375
41934,0.53424072265625,0.698089599609375,0.5970916748046875
41935,0.38592529296875,0.603240966796875,0.508636474609375
41936,0.2122039794921875,0.5312042236328125,0.47418212890625
41937,0.034423828125,0.503509521484375,0.51654052734375
41938,-0.1363677978515625,0.4509429931640625,0.5901031494140625
41939,-0.298126220703125,0.3711090087890625,0.674285888671875
41940,-0.439910888671875,0.2963104248046875,0.7349700927734375
41941,-0.542724609375,0.2517852783203125,0.7624053955078125
41942,-0.595184326171875,0.20843505859375,0.73492431640625
41943,-0.6114654541015625,0.1437835693359375,0.69122314453125
41944,-0.635498046875,0.1014251708984375,0.6724700927734375
41945,-0.6957244873046875,0.0725860595703125,0.7103729248046875
41946,-0.808197021484375,0.0747222900390625,0.7940521240234375
41947,-0.9470062255859376,0.103546142578125,0.87042236328125
41948,-1.056472778320312,0.135894775390625,0.9192657470703124
41949,-1.099624633789062,0.18365478515625,0.9505462646484376
41950,-1.093719482421875,0.2902069091796875,0.97210693359375
41951,-1.04791259765625,0.441375732421875,0.9838714599609376
41952,-0.948455810546875,0.5420989990234375,0.9870452880859376
41953,-0.8181304931640625,0.590728759765625,0.9693756103515624
41954,-0.6735382080078125,0.6291656494140625,0.98016357421875
41955,-0.5081787109375,0.6501922607421875,1.005508422851562
41956,-0.372406005859375,0.697998046875,1.028076171875
41957,-0.3314361572265625,0.758056640625,1.0255126953125
41958,-0.3207244873046875,0.776123046875,1.035247802734375
41959,-0.283782958984375,0.751739501953125,0.994415283203125
41960,-0.2372894287109375,0.692657470703125,0.9342498779296876
41961,-0.2072906494140625,0.641265869140625,0.864654541015625
41962,-0.1928863525390625,0.6004791259765625,0.81805419921875
41963,-0.1750946044921875,0.56585693359375,0.8003387451171875
41964,-0.1504974365234375,0.5384979248046875,0.7713470458984375
41965,-0.1380767822265625,0.5140838623046875,0.7492218017578125
41966,-0.1502838134765625,0.48443603515625,0.73297119140625
41967,-0.167449951171875,0.463623046875,0.71441650390625
41968,-0.160308837890625,0.426513671875,0.6807861328125
41969,-0.1088104248046875,0.373382568359375,0.6632843017578125
41970,0.001922607421875,0.3443145751953125,0.67340087890625
41971,0.1448822021484375,0.4213714599609375,0.6761474609375
41972,0.2403106689453125,0.64599609375,0.65106201171875
41973,0.24835205078125,0.77886962890625,0.61663818359375
41974,0.1935882568359375,0.754547119140625,0.5863494873046875
41975,0.1341552734375,0.7411651611328125,0.5650787353515625
41976,0.121551513671875,0.8170013427734375,0.6150360107421875
41977,0.1483612060546875,0.948272705078125,0.714019775390625
41978,0.2022857666015625,1.0736083984375,0.7981109619140625
