time_idx,accelerometerAccelerationX(G),accelerometerAccelerationY(G),accelerometerAccelerationZ(G)
200000,2.274978637695312,2.039047241210938,1.380935668945312
200001,1.32244873046875,2.303634643554688,1.74139404296875
200002,-0.3845062255859375,2.16937255859375,2.160659790039062
200003,-1.15380859375,2.0478515625,2.25750732421875
200004,-0.944732666015625,1.762252807617188,1.670928955078125
200005,-0.8428497314453125,1.323440551757812,1.173110961914062
200006,-0.866851806640625,1.106399536132812,1.257110595703125
200007,-0.771392822265625,1.116973876953125,1.457992553710938
200008,-0.6459197998046875,1.190078735351562,1.504959106445312
200009,-0.3991546630859375,1.077743530273438,1.423309326171875
200010,-0.1964569091796875,0.8098907470703125,1.192611694335938
200011,-0.2446136474609375,0.6456451416015625,1.012176513671875
200012,-0.486083984375,0.6290283203125,0.9651031494140624
200013,-0.7025146484375,0.6442718505859375,0.9275360107421876
200014,-0.78228759765625,0.6010284423828125,0.8011474609375
200015,-0.722198486328125,0.44403076171875,0.55853271484375
200016,-0.5551300048828125,0.2333221435546875,0.2351531982421875
200017,-0.3643341064453125,0.0415496826171875,-0.073883056640625
200018,-0.210296630859375,-0.12286376953125,-0.2563323974609375
200019,-0.095458984375,-0.2142791748046875,-0.3205718994140625
200020,-0.010589599609375,-0.2222747802734375,-0.30615234375
200021,0.0777130126953125,-0.2236785888671875,-0.2342681884765625
200022,0.11553955078125,-0.25469970703125,-0.1663818359375
200023,0.08868408203125,-0.2513580322265625,-0.09613037109375
200024,0.0821533203125,-0.192108154296875,-0.004852294921875
200025,0.117279052734375,-0.1602630615234375,0.027313232421875
200026,0.133544921875,-0.2225189208984375,-0.0170135498046875
200027,0.0971221923828125,-0.162506103515625,0.0347900390625
200028,0.04376220703125,0.0701141357421875,0.165191650390625
200029,-0.03955078125,0.2187957763671875,0.3516082763671875
200030,-0.1514129638671875,0.4289093017578125,0.6996917724609375
200031,-0.276458740234375,0.7859954833984375,0.89361572265625
200032,-0.2327880859375,1.223388671875,1.308578491210938
200033,0.3486328125,1.600265502929688,1.69317626953125
200034,1.80169677734375,1.791702270507812,1.370895385742188
200035,2.225311279296875,2.205917358398438,1.731307983398438
200036,0.84625244140625,2.576583862304688,1.694488525390625
200037,-0.3624114990234375,2.291641235351562,1.745162963867188
200038,-0.642303466796875,1.76104736328125,1.613311767578125
200039,-0.3708343505859375,1.26806640625,1.222549438476562
200040,-0.2377777099609375,1.128936767578125,1.0203857421875
200041,-0.2924957275390625,1.193283081054688,1.165664672851562
200042,-0.2332305908203125,1.205215454101562,1.382522583007812
200043,-0.02197265625,1.150970458984375,1.373367309570312
200044,0.235870361328125,1.070571899414062,1.251968383789062
200045,0.3380584716796875,0.9666290283203124,1.1795654296875
200046,0.1565704345703125,0.8783111572265625,1.14532470703125
200047,-0.277740478515625,0.778350830078125,1.075546264648438
200048,-0.7294769287109375,0.6359710693359375,0.98162841796875
200049,-1.006103515625,0.4361724853515625,0.807830810546875
200050,-1.09967041015625,0.2217254638671875,0.579254150390625
200051,-1.03314208984375,0.040283203125,0.320404052734375
200052,-0.832611083984375,-0.06402587890625,0.058074951171875
200053,-0.570098876953125,-0.127838134765625,-0.134796142578125
200054,-0.3206787109375,-0.16644287109375,-0.25274658203125
200055,-0.1253204345703125,-0.1787567138671875,-0.2514190673828125
200056,0.0111541748046875,-0.1949920654296875,-0.1577911376953125
200057,0.0983428955078125,-0.18902587890625,-0.028167724609375
200058,0.1496734619140625,-0.1837005615234375,0.064300537109375
200059,0.197418212890625,-0.1443023681640625,0.0396270751953125
200060,0.202606201171875,-0.044219970703125,-0.0225067138671875
200061,0.118072509765625,0.0098114013671875,-0.12860107421875
200062,0.000701904296875,-0.02557373046875,-0.1820068359375
200063,-0.112884521484375,-0.091339111328125,-0.0530242919921875
200064,-0.2152099609375,-0.04058837890625,0.1607666015625
200065,-0.238525390625,0.1952972412109375,0.32708740234375
200066,-0.1520843505859375,0.5068511962890625,0.402130126953125
200067,-0.01263427734375,0.7985687255859375,0.4687652587890625
200068,0.44732666015625,0.9695281982421876,0.7462310791015625
200069,1.615768432617188,1.147476196289062,0.7380523681640625
200070,2.603408813476562,1.95562744140625,1.2296142578125
200071,2.49688720703125,2.897705078125,1.704742431640625
200072,1.36798095703125,3.11785888671875,1.7891845703125
200073,0.1437225341796875,2.421295166015625,1.785812377929688
200074,-0.4246673583984375,2.014846801757812,1.550857543945312
200075,-0.751007080078125,1.903366088867188,1.481689453125
200076,-0.85565185546875,1.768478393554688,1.577606201171875
200077,-0.7353363037109375,1.55938720703125,1.63934326171875
200078,-0.53515625,1.351593017578125,1.48760986328125
200079,-0.2769317626953125,1.127670288085938,1.297119140625
200080,-0.0473480224609375,0.9633331298828124,1.222076416015625
200081,-0.0003204345703125,0.946624755859375,1.266937255859375
200082,-0.1850738525390625,0.979736328125,1.308837890625
200083,-0.4676361083984375,0.9532012939453124,1.226318359375
200084,-0.7143096923828125,0.7818603515625,1.024826049804688
200085,-0.901885986328125,0.497100830078125,0.808074951171875
200086,-1.002166748046875,0.2931060791015625,0.595458984375
200087,-0.9167022705078124,0.1674346923828125,0.3513031005859375
200088,-0.667877197265625,0.035247802734375,0.1381072998046875
200089,-0.3724365234375,-0.0987091064453125,0.015380859375
200090,-0.12689208984375,-0.1578826904296875,-0.0855865478515625
200091,0.02288818359375,-0.156402587890625,-0.193878173828125
200092,0.0869903564453125,-0.1717376708984375,-0.2949676513671875
200093,0.0660858154296875,-0.2378082275390625,-0.313812255859375
200094,-0.036865234375,-0.3508148193359375,-0.26708984375
200095,-0.1411590576171875,-0.4354095458984375,-0.2097320556640625
200096,-0.12713623046875,-0.432464599609375,-0.1623382568359375
200097,-0.011993408203125,-0.3663177490234375,-0.1004486083984375
200098,0.137847900390625,-0.149261474609375,-0.0040130615234375
200099,0.2105712890625,0.096527099609375,0.083221435546875
200100,0.1515655517578125,0.136993408203125,0.1332855224609375
200101,-0.004547119140625,0.2566375732421875,0.2389068603515625
200102,-0.2865447998046875,0.5621490478515625,0.408111572265625
200103,-0.53814697265625,1.021041870117188,0.6299285888671875
200104,-0.477447509765625,1.487777709960938,1.05377197265625
200105,0.200836181640625,1.774276733398438,1.794540405273438
200106,2.388580322265625,1.900177001953125,1.629226684570312
200107,2.913131713867188,2.690963745117188,1.708343505859375
200108,0.953094482421875,3.000076293945312,1.450469970703125
200109,-0.560943603515625,2.369735717773438,1.5123291015625
200110,-0.8304290771484375,1.7706298828125,1.617477416992188
200111,-0.318572998046875,1.17401123046875,1.338424682617188
200112,0.07977294921875,0.9794769287109376,1.132415771484375
200113,0.084320068359375,1.212966918945312,1.284759521484375
200114,0.0139617919921875,1.306060791015625,1.429550170898438
200115,-0.0604400634765625,1.22265625,1.336746215820312
200116,-0.150970458984375,1.07415771484375,1.191375732421875
200117,-0.2366943359375,0.9823150634765624,1.139572143554688
200118,-0.3617401123046875,0.9504241943359376,1.142623901367188
200119,-0.556365966796875,0.8995513916015625,1.114852905273438
200120,-0.7952880859375,0.81365966796875,0.98876953125
200121,-0.977142333984375,0.6782379150390625,0.804107666015625
200122,-1.008514404296875,0.508270263671875,0.6226959228515625
200123,-0.90289306640625,0.3265838623046875,0.3874664306640625
200124,-0.663543701171875,0.1367645263671875,0.108001708984375
200125,-0.3511810302734375,-0.02685546875,-0.1238555908203125
200126,-0.1072540283203125,-0.1400299072265625,-0.2511444091796875
200127,-0.0130615234375,-0.2413482666015625,-0.2819671630859375
200128,-0.024505615234375,-0.3217315673828125,-0.20867919921875
200129,-0.050384521484375,-0.3405609130859375,-0.1305694580078125
200130,0.0117950439453125,-0.245849609375,-0.0775146484375
200131,0.142669677734375,-0.0743560791015625,-0.0992431640625
200132,0.2836151123046875,0.066131591796875,-0.171875
200133,0.3417510986328125,0.0861358642578125,-0.281585693359375
200134,0.28216552734375,0.0728759765625,-0.2557220458984375
200135,0.194915771484375,0.153289794921875,-0.0647430419921875
200136,0.1383209228515625,0.3800506591796875,0.2079010009765625
200137,0.1427459716796875,0.6891632080078125,0.4989013671875
200138,0.291015625,0.9137115478515624,0.6959228515625
200139,0.64385986328125,0.9632415771484376,1.069854736328125
200140,1.332138061523438,0.9144134521484376,1.21630859375
200141,2.0751953125,1.57354736328125,0.7202911376953125
200142,2.219635009765625,2.421218872070312,1.486541748046875
200143,1.340042114257812,2.588333129882812,2.101303100585938
200144,0.2501678466796875,2.07763671875,1.952133178710938
200145,-0.3146820068359375,1.614883422851562,1.615234375
200146,-0.585205078125,1.305450439453125,1.371353149414062
200147,-0.8964385986328125,1.06951904296875,1.377471923828125
200148,-1.012374877929688,1.06500244140625,1.529434204101562
200149,-0.8262786865234375,1.160171508789062,1.635452270507812
200150,-0.6125946044921875,1.194229125976562,1.552230834960938
200151,-0.402130126953125,1.128097534179688,1.372085571289062
200152,-0.29119873046875,0.9570770263671876,1.22125244140625
200153,-0.419952392578125,0.8172760009765625,1.176071166992188
200154,-0.7625885009765625,0.812591552734375,1.17791748046875
200155,-1.110397338867188,0.872711181640625,1.190475463867188
200156,-1.3096923828125,0.8314208984375,1.119720458984375
200157,-1.316299438476562,0.6488037109375,0.9379119873046876
200158,-1.149627685546875,0.4433746337890625,0.6845855712890625
200159,-0.8636932373046875,0.3024749755859375,0.4103851318359375
200160,-0.59332275390625,0.204620361328125,0.1507415771484375
200161,-0.3719940185546875,0.1359710693359375,-0.030548095703125
200162,-0.202545166015625,0.0262603759765625,-0.2140960693359375
200163,-0.0733642578125,-0.13555908203125,-0.38037109375
200164,-0.003936767578125,-0.24847412109375,-0.45697021484375
200165,0.0540618896484375,-0.28118896484375,-0.392730712890625
200166,0.0798797607421875,-0.266845703125,-0.2655792236328125
200167,0.1299285888671875,-0.2225494384765625,-0.1202545166015625
200168,0.232879638671875,-0.1317138671875,-0.1004486083984375
200169,0.32476806640625,-0.0242156982421875,-0.1319580078125
200170,0.333251953125,-0.00146484375,-0.1236572265625
200171,0.255615234375,-0.0058441162109375,-0.016326904296875
200172,0.13995361328125,0.1445770263671875,0.1427001953125
200173,-0.053070068359375,0.373626708984375,0.2852935791015625
200174,-0.28656005859375,0.7437286376953125,0.541534423828125
200175,-0.348907470703125,1.188568115234375,0.8201446533203125
200176,0.068084716796875,1.70697021484375,1.40557861328125
200177,1.256988525390625,1.844070434570312,1.600631713867188
200178,2.857528686523438,1.93206787109375,1.233413696289062
200179,2.406631469726562,2.604095458984375,1.583511352539062
200180,0.590087890625,2.465469360351562,1.589752197265625
200181,-0.46722412109375,1.915054321289062,1.496139526367188
200182,-0.7039794921875,1.548477172851562,1.430526733398438
200183,-0.5756378173828125,1.196517944335938,1.255661010742188
200184,-0.5139312744140625,0.978515625,1.157211303710938
200185,-0.48370361328125,1.019943237304688,1.40380859375
200186,-0.3087615966796875,1.073394775390625,1.604385375976562
200187,-0.2002105712890625,1.001434326171875,1.55316162109375
200188,-0.2625274658203125,0.920440673828125,1.387161254882812
200189,-0.43853759765625,0.8523406982421875,1.291900634765625
200190,-0.721588134765625,0.8266143798828125,1.2852783203125
200191,-1.11334228515625,0.82147216796875,1.245407104492188
200192,-1.492218017578125,0.7582855224609375,1.13751220703125
200193,-1.5732421875,0.5897674560546875,0.940216064453125
200194,-1.370452880859375,0.4556427001953125,0.747222900390625
200195,-0.9927520751953124,0.3687896728515625,0.50677490234375
200196,-0.557037353515625,0.3020172119140625,0.16204833984375
200197,-0.19561767578125,0.177703857421875,-0.073699951171875
200198,0.04638671875,0.03167724609375,-0.2393035888671875
200199,0.161407470703125,-0.150054931640625,-0.3526458740234375
200200,0.1689453125,-0.3402099609375,-0.3447265625
200201,0.1651763916015625,-0.3644866943359375,-0.204193115234375
200202,0.25537109375,-0.2035980224609375,-0.002655029296875
200203,0.459503173828125,0.0457611083984375,0.19525146484375
200204,0.64990234375,0.26092529296875,0.00201416015625
200205,0.608612060546875,0.333404541015625,-0.261077880859375
200206,0.399993896484375,0.3277740478515625,-0.211639404296875
200207,0.19873046875,0.4209747314453125,-0.0653533935546875
200208,0.0552978515625,0.693572998046875,0.1204071044921875
200209,0.115142822265625,1.071807861328125,0.393798828125
200210,0.45758056640625,1.350982666015625,0.626800537109375
200211,0.89910888671875,1.335098266601562,1.262710571289062
200212,1.608795166015625,0.9463348388671876,1.2281494140625
200213,2.201766967773438,1.533798217773438,1.03363037109375
200214,1.623992919921875,2.38104248046875,1.443923950195312
200215,0.1707763671875,2.0013427734375,1.806472778320312
200216,-0.7249755859375,1.390792846679688,1.558059692382812
200217,-0.744842529296875,1.279617309570312,1.335418701171875
200218,-0.663543701171875,1.16650390625,1.226470947265625
200219,-0.6887054443359375,1.033645629882812,1.231704711914062
200220,-0.551300048828125,1.1090087890625,1.503692626953125
200221,-0.370574951171875,1.264297485351562,1.6544189453125
200222,-0.2855224609375,1.3233642578125,1.622314453125
200223,-0.32196044921875,1.238006591796875,1.496795654296875
200224,-0.496490478515625,1.027816772460938,1.36627197265625
200225,-0.805938720703125,0.839202880859375,1.226730346679688
200226,-1.171524047851562,0.753204345703125,1.1151123046875
200227,-1.40814208984375,0.691497802734375,1.098342895507812
200228,-1.430648803710938,0.573272705078125,1.014389038085938
200229,-1.360977172851562,0.4271697998046875,0.7960052490234375
200230,-1.167648315429688,0.2761993408203125,0.5667572021484375
200231,-0.8878173828125,0.1300811767578125,0.3161773681640625
200232,-0.5868682861328125,0.0355377197265625,0.0680389404296875
200233,-0.3599853515625,-0.0355377197265625,-0.1419830322265625
200234,-0.2281494140625,-0.132049560546875,-0.287689208984375
200235,-0.16265869140625,-0.2130584716796875,-0.39276123046875
200236,-0.099578857421875,-0.2393646240234375,-0.385955810546875
200237,0.0312347412109375,-0.2199249267578125,-0.2439727783203125
200238,0.1976776123046875,-0.1481475830078125,-0.1242828369140625
200239,0.363372802734375,-0.013824462890625,-0.0749359130859375
200240,0.46929931640625,0.1195526123046875,-0.0388641357421875
200241,0.5462646484375,0.281402587890625,0.03070068359375
200242,0.6286468505859375,0.3842010498046875,0.0570220947265625
200243,0.607757568359375,0.3590240478515625,0.1540679931640625
200244,0.385498046875,0.39617919921875,0.7022247314453125
200245,0.0811004638671875,0.57916259765625,1.275665283203125
200246,-0.134002685546875,0.80792236328125,1.093795776367188
200247,-0.2721710205078125,1.010543823242188,0.7061767578125
200248,-0.04498291015625,0.9849395751953124,0.663543701171875
200249,0.7495269775390625,1.139190673828125,0.9727935791015624
200250,1.141067504882812,1.685836791992188,1.48931884765625
200251,0.781219482421875,2.10076904296875,1.526992797851562
200252,0.1800994873046875,2.272857666015625,1.632354736328125
200253,-0.2173614501953125,1.835678100585938,1.634307861328125
200254,-0.3865814208984375,1.228958129882812,1.363601684570312
200255,-0.4150238037109375,0.918609619140625,1.217971801757812
200256,-0.359588623046875,0.876739501953125,1.28106689453125
200257,-0.317413330078125,0.9890899658203124,1.39453125
200258,-0.3991851806640625,1.07818603515625,1.360748291015625
200259,-0.5947723388671875,1.11474609375,1.293045043945312
200260,-0.833526611328125,1.14794921875,1.314422607421875
200261,-1.1356201171875,1.123931884765625,1.250885009765625
200262,-1.447647094726562,1.02606201171875,1.161117553710938
200263,-1.64276123046875,0.89727783203125,1.033172607421875
200264,-1.64752197265625,0.74688720703125,0.8764190673828125
200265,-1.483718872070312,0.6020965576171875,0.686370849609375
200266,-1.175491333007812,0.536895751953125,0.4261932373046875
200267,-0.7975921630859375,0.476654052734375,0.1677398681640625
200268,-0.4541015625,0.358428955078125,-0.01568603515625
200269,-0.1668853759765625,0.1800689697265625,-0.16131591796875
200270,0.109649658203125,-0.0719146728515625,-0.25897216796875
200271,0.368743896484375,-0.29522705078125,-0.2404327392578125
200272,0.5819854736328125,-0.335662841796875,-0.126068115234375
200273,0.7768707275390625,-0.17498779296875,0.139678955078125
200274,0.992584228515625,0.0154571533203125,0.232452392578125
200275,0.9473419189453124,0.208160400390625,-0.348388671875
200276,0.648590087890625,0.1315155029296875,-0.5556640625
200277,0.254913330078125,-0.1101531982421875,-0.2843475341796875
200278,-0.0358123779296875,-0.094696044921875,0.0661468505859375
200279,-0.214263916015625,0.1736907958984375,0.361053466796875
200280,-0.262969970703125,0.3382568359375,0.56646728515625
200281,-0.1312408447265625,0.36920166015625,0.6370391845703125
200282,0.029937744140625,0.4763031005859375,0.721038818359375
200283,0.09210205078125,0.7470703125,0.919586181640625
200284,0.0068206787109375,1.087936401367188,1.5233154296875
200285,0.067596435546875,1.277175903320312,1.984832763671875
200286,0.8357391357421875,1.410476684570312,1.684326171875
200287,1.013839721679688,2.035186767578125,1.550140380859375
200288,0.176666259765625,2.261123657226562,1.789443969726562
200289,-0.5797271728515625,1.991989135742188,1.85601806640625
200290,-0.8568572998046875,1.553665161132812,1.664627075195312
200291,-0.83172607421875,1.217498779296875,1.349594116210938
200292,-0.7131195068359375,1.054458618164062,1.304443359375
200293,-0.6371307373046875,0.993988037109375,1.438644409179688
200294,-0.6119384765625,0.9975433349609376,1.53167724609375
200295,-0.57342529296875,1.01055908203125,1.492019653320312
200296,-0.533203125,0.96527099609375,1.338150024414062
200297,-0.5823974609375,0.86669921875,1.165328979492188
200298,-0.7707672119140625,0.777130126953125,1.02978515625
200299,-0.9768218994140624,0.664642333984375,0.9759521484375
200300,-1.08087158203125,0.5115966796875,0.8709259033203125
200301,-1.05682373046875,0.3642578125,0.7196197509765625
200302,-0.888458251953125,0.27105712890625,0.4883270263671875
200303,-0.6150970458984375,0.209716796875,0.234405517578125
200304,-0.33453369140625,0.145416259765625,0.0518341064453125
200305,-0.0918731689453125,0.015289306640625,-0.094451904296875
200306,0.100128173828125,-0.158966064453125,-0.2306976318359375
200307,0.2067718505859375,-0.2687530517578125,-0.3126678466796875
200308,0.2115020751953125,-0.2718048095703125,-0.2630615234375
200309,0.1864013671875,-0.215789794921875,-0.18597412109375
200310,0.1852874755859375,-0.161895751953125,-0.1699981689453125
200311,0.209442138671875,-0.1338043212890625,-0.163543701171875
200312,0.2409210205078125,-0.127227783203125,-0.1371002197265625
200313,0.257720947265625,-0.1135406494140625,-0.07330322265625
200314,0.2657623291015625,-0.032440185546875,0.0292510986328125
200315,0.236053466796875,0.059967041015625,0.145965576171875
200316,0.1229248046875,0.2321624755859375,0.335418701171875
200317,-0.045684814453125,0.4841766357421875,0.5982818603515625
200318,-0.13885498046875,0.7856292724609375,0.88232421875
200319,-0.0951995849609375,1.004074096679688,0.9619140625
200320,0.0730743408203125,1.231002807617188,1.435989379882812
200321,0.876251220703125,1.249542236328125,1.42547607421875
200322,1.938934326171875,1.833343505859375,1.469161987304688
200323,1.275314331054688,2.405776977539062,1.597244262695312
200324,-0.0015716552734375,2.290679931640625,1.480987548828125
200325,-0.53759765625,1.931198120117188,1.469024658203125
200326,-0.45989990234375,1.455535888671875,1.352676391601562
200327,-0.1694183349609375,1.020919799804688,1.203414916992188
200328,-0.0220184326171875,0.9267578125,1.179306030273438
200329,-0.0206298828125,1.10833740234375,1.384994506835938
200330,0.0429840087890625,1.186767578125,1.51654052734375
200331,0.1239471435546875,1.159988403320312,1.433273315429688
200332,0.1046295166015625,1.078079223632812,1.261627197265625
200333,-0.005615234375,0.9529266357421876,1.144332885742188
200334,-0.2021331787109375,0.8683013916015625,1.100311279296875
200335,-0.5098419189453125,0.740447998046875,1.09979248046875
200336,-0.9195404052734376,0.575653076171875,1.064987182617188
200337,-1.299591064453125,0.41375732421875,0.9230804443359376
200338,-1.483444213867188,0.2600555419921875,0.703704833984375
200339,-1.416213989257812,0.12274169921875,0.459869384765625
200340,-1.132308959960938,-0.0213165283203125,0.195343017578125
200341,-0.732330322265625,-0.166473388671875,-0.06866455078125
200342,-0.3196563720703125,-0.3030853271484375,-0.213775634765625
200343,0.063995361328125,-0.376373291015625,-0.2317352294921875
200344,0.3659820556640625,-0.3433990478515625,-0.1744842529296875
200345,0.561859130859375,-0.2518157958984375,-0.0525970458984375
200346,0.6504058837890625,-0.1373138427734375,0.0858154296875
200347,0.60443115234375,-0.1127471923828125,0.1147003173828125
200348,0.4729766845703125,-0.124237060546875,0.0352630615234375
200349,0.296661376953125,-0.1560821533203125,-0.1119842529296875
200350,0.07647705078125,-0.1797637939453125,-0.200164794921875
200351,-0.1278076171875,-0.127685546875,-0.1291656494140625
200352,-0.3075408935546875,-0.03125,0.05816650390625
200353,-0.49835205078125,0.096343994140625,0.234100341796875
200354,-0.66314697265625,0.3031463623046875,0.4612274169921875
200355,-0.7160491943359375,0.6598968505859375,0.834625244140625
200356,-0.6104583740234375,1.091705322265625,1.364181518554688
200357,-0.18389892578125,1.440811157226562,2.252761840820312
200358,1.579681396484375,1.807357788085938,1.44964599609375
200359,2.914474487304688,2.895797729492188,0.952880859375
200360,1.7369384765625,3.210525512695312,1.966522216796875
200361,0.1466064453125,2.542098999023438,2.455368041992188
200362,-0.278076171875,1.793701171875,2.130035400390625
200363,-0.21197509765625,1.551177978515625,1.386093139648438
200364,-0.4099273681640625,1.3133544921875,1.161117553710938
200365,-0.649322509765625,1.094482421875,1.444366455078125
200366,-0.6371307373046875,1.017684936523438,1.552474975585938
200367,-0.5546112060546875,1.0521240234375,1.381072998046875
200368,-0.478607177734375,1.0081787109375,1.117874145507812
200369,-0.4049072265625,0.8319854736328125,0.9550323486328124
200370,-0.4436187744140625,0.6677093505859375,0.9546966552734376
200371,-0.5735015869140625,0.612152099609375,1.001907348632812
200372,-0.6674652099609375,0.620361328125,0.990997314453125
200373,-0.7396697998046875,0.5431671142578125,0.8586883544921875
200374,-0.78314208984375,0.367706298828125,0.605377197265625
200375,-0.7030029296875,0.16900634765625,0.3400726318359375
200376,-0.5359344482421875,-0.0035552978515625,0.1067352294921875
200377,-0.3484039306640625,-0.1590576171875,-0.0291900634765625
200378,-0.1758575439453125,-0.241485595703125,-0.0914306640625
200379,-0.04998779296875,-0.2521820068359375,-0.153778076171875
200380,-0.024322509765625,-0.2175750732421875,-0.1829681396484375
200381,-0.0571136474609375,-0.1912841796875,-0.1972808837890625
200382,-0.0675506591796875,-0.20343017578125,-0.1907806396484375
200383,-0.0230712890625,-0.2432708740234375,-0.16741943359375
200384,0.05218505859375,-0.2709197998046875,-0.119842529296875
200385,0.1003265380859375,-0.294677734375,-0.0702972412109375
200386,0.0827484130859375,-0.3399505615234375,-0.0519561767578125
200387,0.028289794921875,-0.248504638671875,-0.000244140625
200388,0.0012969970703125,-0.041595458984375,0.180633544921875
200389,0.0326690673828125,0.2233428955078125,0.542694091796875
200390,0.1227569580078125,0.488494873046875,1.042236328125
200391,0.26220703125,0.749176025390625,1.395782470703125
200392,0.405364990234375,1.223098754882812,1.864501953125
200393,0.7331085205078125,1.61163330078125,1.85052490234375
200394,1.559951782226562,1.844024658203125,1.19158935546875
200395,1.42193603515625,2.3126220703125,1.4884033203125
200396,0.3242645263671875,2.352035522460938,1.719024658203125
200397,-0.3052978515625,2.14501953125,1.778305053710938
200398,-0.4064483642578125,1.703704833984375,1.680465698242188
200399,-0.292388916015625,1.133529663085938,1.358062744140625
200400,-0.1781158447265625,0.7796173095703125,1.15533447265625
200401,-0.200836181640625,0.7961273193359375,1.239456176757812
200402,-0.3401336669921875,0.92144775390625,1.414138793945312
200403,-0.42181396484375,0.964691162109375,1.528366088867188
200404,-0.3605499267578125,0.9590606689453124,1.483718872070312
200405,-0.3036346435546875,0.9149627685546876,1.330810546875
200406,-0.38714599609375,0.801971435546875,1.167037963867188
200407,-0.5614013671875,0.5959625244140625,1.0484619140625
200408,-0.767822265625,0.3562774658203125,0.879852294921875
200409,-0.9505767822265624,0.1798858642578125,0.6143646240234375
200410,-1.00262451171875,0.1151275634765625,0.36859130859375
200411,-0.877593994140625,0.0860595703125,0.2118682861328125
200412,-0.6102294921875,0.0079345703125,0.0707550048828125
200413,-0.3111572265625,-0.1363067626953125,-0.0793304443359375
200414,-0.091827392578125,-0.2091064453125,-0.202117919921875
200415,0.0376434326171875,-0.1951141357421875,-0.2913665771484375
200416,0.1182708740234375,-0.2386322021484375,-0.314178466796875
200417,0.1750946044921875,-0.3203582763671875,-0.2395172119140625
200418,0.250762939453125,-0.3468170166015625,-0.0399169921875
200419,0.355316162109375,-0.2140350341796875,0.230712890625
200420,0.45770263671875,-0.0186920166015625,0.3324127197265625
200421,0.4550018310546875,0.0744781494140625,-0.014251708984375
200422,0.3822784423828125,0.0012664794921875,-0.285186767578125
200423,0.180633544921875,-0.0888214111328125,-0.1254425048828125
200424,-0.146148681640625,-0.0200958251953125,0.2507781982421875
200425,-0.4150238037109375,0.2930755615234375,0.5483856201171875
200426,-0.48260498046875,0.6954498291015625,0.60406494140625
200427,-0.4043426513671875,0.9340057373046876,0.6496734619140625
200428,-0.157684326171875,1.202713012695312,1.664657592773438
200429,0.679351806640625,1.452102661132812,2.292205810546875
200430,2.271957397460938,2.226287841796875,1.260971069335938
200431,2.23388671875,3.068161010742188,1.393844604492188
200432,0.5005950927734375,3.029922485351562,2.214584350585938
200433,-0.6645355224609375,2.194992065429688,2.425369262695312
200434,-0.649322509765625,1.58636474609375,1.85223388671875
200435,-0.42608642578125,1.275588989257812,1.242919921875
200436,-0.50262451171875,1.093978881835938,1.2032470703125
200437,-0.6971588134765625,1.10894775390625,1.5235595703125
200438,-0.779510498046875,1.204757690429688,1.684860229492188
200439,-0.753448486328125,1.20843505859375,1.58758544921875
200440,-0.674713134765625,1.075027465820312,1.3162841796875
200441,-0.6815185546875,0.853118896484375,1.109817504882812
200442,-0.836639404296875,0.6182708740234375,1.04547119140625
200443,-1.042800903320312,0.465545654296875,1.004425048828125
200444,-1.190185546875,0.332672119140625,0.949951171875
200445,-1.177230834960938,0.1931610107421875,0.7580413818359375
200446,-0.9375152587890624,0.098358154296875,0.4455108642578125
200447,-0.5672454833984375,0.0429229736328125,0.154388427734375
200448,-0.2231597900390625,-0.0298919677734375,-0.0723419189453125
200449,0.0331268310546875,-0.1308746337890625,-0.265960693359375
200450,0.20513916015625,-0.209991455078125,-0.38958740234375
200451,0.2550811767578125,-0.2220458984375,-0.400360107421875
200452,0.213653564453125,-0.2194976806640625,-0.2995147705078125
200453,0.14483642578125,-0.229949951171875,-0.19525146484375
200454,0.1049652099609375,-0.204254150390625,-0.152008056640625
200455,0.1004638671875,-0.1912689208984375,-0.1414337158203125
200456,0.1190032958984375,-0.2056884765625,-0.115447998046875
200457,0.1527557373046875,-0.226226806640625,-0.0790557861328125
200458,0.1769561767578125,-0.1418609619140625,-0.00494384765625
200459,0.1929779052734375,0.0023345947265625,0.086151123046875
200460,0.227935791015625,0.1077728271484375,0.2315521240234375
200461,0.232940673828125,0.248077392578125,0.476654052734375
200462,0.1615447998046875,0.3610382080078125,0.7190704345703125
200463,0.0569610595703125,0.581512451171875,0.97344970703125
200464,-0.006561279296875,0.82073974609375,1.253509521484375
200465,0.0347900390625,1.079849243164062,1.660293579101562
200466,0.46087646484375,1.443618774414062,1.830169677734375
200467,1.371917724609375,1.95489501953125,1.699951171875
200468,1.3990478515625,2.379531860351562,1.78662109375
200469,0.3951873779296875,2.458816528320312,1.810592651367188
200470,-0.3645782470703125,2.202041625976562,1.840988159179688
200471,-0.681854248046875,1.7288818359375,1.70458984375
200472,-0.68292236328125,1.149322509765625,1.458786010742188
200473,-0.547210693359375,0.7905731201171875,1.2625732421875
200474,-0.4326629638671875,0.7594451904296875,1.349349975585938
200475,-0.43743896484375,0.893280029296875,1.514190673828125
200476,-0.458251953125,1.014053344726562,1.628570556640625
200477,-0.4447479248046875,1.041793823242188,1.586257934570312
200478,-0.5037689208984375,0.9335479736328124,1.3828125
200479,-0.624725341796875,0.6635284423828125,1.142715454101562
200480,-0.776123046875,0.3039093017578125,0.9113006591796876
200481,-0.9217071533203124,0.03338623046875,0.7271881103515625
200482,-0.9607086181640624,-0.0564422607421875,0.52899169921875
200483,-0.81549072265625,-0.0034332275390625,0.33026123046875
200484,-0.534759521484375,0.064727783203125,0.1416168212890625
200485,-0.2274322509765625,0.0478363037109375,-0.0473785400390625
200486,0.0184173583984375,-0.0615386962890625,-0.18865966796875
200487,0.177642822265625,-0.2237701416015625,-0.277618408203125
200488,0.27069091796875,-0.3519287109375,-0.249053955078125
200489,0.3365631103515625,-0.363922119140625,-0.0872955322265625
200490,0.40167236328125,-0.2633056640625,0.1424102783203125
200491,0.462493896484375,-0.09991455078125,0.252655029296875
200492,0.4858551025390625,0.0631103515625,0.0804290771484375
200493,0.433197021484375,0.0600738525390625,-0.1569976806640625
200494,0.299407958984375,-0.055908203125,-0.250885009765625
200495,0.126861572265625,-0.06732177734375,-0.225433349609375
200496,-0.0605621337890625,0.0250701904296875,-0.11981201171875
200497,-0.255645751953125,0.1736907958984375,0.070098876953125
200498,-0.3885498046875,0.41705322265625,0.3033447265625
200499,-0.427825927734375,0.750946044921875,0.38787841796875
200500,-0.33154296875,1.108978271484375,0.6721343994140625
200501,-0.0254058837890625,1.598007202148438,1.91363525390625
200502,0.96624755859375,1.941864013671875,2.377410888671875
200503,2.319290161132812,2.529937744140625,1.443740844726562
200504,1.591476440429688,3.072280883789062,1.968505859375
200505,-0.3102569580078125,2.755874633789062,2.593048095703125
200506,-1.20428466796875,2.137359619140625,2.391891479492188
200507,-0.8771514892578125,1.698501586914062,1.486572265625
200508,-0.573089599609375,1.252639770507812,1.077377319335938
200509,-0.622161865234375,1.072998046875,1.320175170898438
200510,-0.6196746826171875,1.162750244140625,1.599075317382812
200511,-0.412872314453125,1.258041381835938,1.537887573242188
200512,-0.2124481201171875,1.081817626953125,1.222076416015625
200513,-0.1925048828125,0.737518310546875,1.013565063476562
200514,-0.3800506591796875,0.47381591796875,0.96478271484375
200515,-0.587646484375,0.3968963623046875,0.9662933349609376
200516,-0.71533203125,0.377716064453125,0.87542724609375
200517,-0.8313140869140625,0.2924346923828125,0.6866912841796875
200518,-0.849212646484375,0.1855621337890625,0.4822998046875
200519,-0.65362548828125,0.085479736328125,0.2656707763671875
200520,-0.3037261962890625,-0.0190277099609375,0.097137451171875
200521,0.042694091796875,-0.1403045654296875,-0.0007476806640625
200522,0.2678985595703125,-0.239410400390625,-0.093994140625
200523,0.34991455078125,-0.2769317626953125,-0.1883697509765625
200524,0.3102264404296875,-0.2635650634765625,-0.255096435546875
200525,0.1832122802734375,-0.2179412841796875,-0.2845611572265625
200526,0.04046630859375,-0.1968536376953125,-0.2385711669921875
200527,-0.0447998046875,-0.2259368896484375,-0.144622802734375
200528,-0.0496826171875,-0.2619781494140625,-0.05877685546875
200529,-0.012664794921875,-0.2677154541015625,0.0014190673828125
200530,0.0476531982421875,-0.1432342529296875,0.095306396484375
200531,0.1198272705078125,0.0538787841796875,0.15582275390625
200532,0.1548614501953125,0.1959991455078125,0.1997222900390625
200533,0.1204833984375,0.311737060546875,0.3118133544921875
200534,0.01849365234375,0.372711181640625,0.569915771484375
200535,-0.08935546875,0.5171966552734375,0.7810516357421875
200536,-0.2191009521484375,0.8256072998046875,0.985931396484375
200537,-0.243927001953125,1.23944091796875,1.653518676757812
200538,0.29205322265625,1.512420654296875,1.993133544921875
200539,1.470855712890625,1.875411987304688,1.515045166015625
200540,1.487457275390625,2.359817504882812,1.354354858398438
200541,0.234130859375,2.393783569335938,1.614028930664062
200542,-0.659210205078125,2.162109375,1.987930297851562
200543,-0.7213134765625,1.785202026367188,1.957778930664062
200544,-0.5,1.302291870117188,1.5482177734375
200545,-0.4411773681640625,0.9976654052734376,1.380752563476562
200546,-0.5595245361328125,1.011505126953125,1.494598388671875
200547,-0.6759185791015625,1.083648681640625,1.520294189453125
200548,-0.66326904296875,1.035659790039062,1.485504150390625
200549,-0.594940185546875,0.90411376953125,1.386749267578125
200550,-0.5826263427734375,0.7411041259765625,1.226089477539062
200551,-0.6121063232421875,0.5861968994140625,1.070968627929688
200552,-0.64764404296875,0.3903350830078125,0.897216796875
200553,-0.66552734375,0.178924560546875,0.681671142578125
200554,-0.64288330078125,0.079742431640625,0.4710235595703125
200555,-0.504119873046875,0.0821533203125,0.2652587890625
200556,-0.2581939697265625,0.0592041015625,0.074798583984375
200557,-0.023773193359375,-0.079620361328125,-0.06744384765625
200558,0.1376190185546875,-0.2465057373046875,-0.154449462890625
200559,0.2248992919921875,-0.39544677734375,-0.2097930908203125
200560,0.253936767578125,-0.44622802734375,-0.2281036376953125
200561,0.235748291015625,-0.42974853515625,-0.166259765625
200562,0.2295379638671875,-0.387176513671875,0.0048675537109375
200563,0.3125457763671875,-0.22564697265625,0.175811767578125
200564,0.432952880859375,0.001434326171875,0.1243133544921875
200565,0.4514312744140625,0.0869140625,-0.0640716552734375
200566,0.3376007080078125,-0.0157623291015625,-0.1809844970703125
200567,0.19219970703125,-0.09295654296875,-0.120330810546875
200568,0.036895751953125,-0.0494537353515625,0.0423431396484375
200569,-0.1679229736328125,0.091644287109375,0.1946563720703125
200570,-0.33660888671875,0.307403564453125,0.3603973388671875
200571,-0.42547607421875,0.62744140625,0.4176788330078125
200572,-0.3853912353515625,1.027236938476562,0.623748779296875
200573,-0.2480926513671875,1.570907592773438,1.793258666992188
200574,0.567962646484375,2.160369873046875,2.208984375
200575,2.494338989257812,2.711898803710938,0.7754364013671875
200576,1.912307739257812,3.402145385742188,2.1328125
200577,-0.0081787109375,3.017593383789062,2.675827026367188
200578,-0.60955810546875,1.875335693359375,2.074798583984375
200579,-0.383270263671875,1.650634765625,1.42376708984375
200580,-0.509796142578125,1.529739379882812,1.37506103515625
200581,-0.78155517578125,1.323471069335938,1.617828369140625
200582,-0.7760009765625,1.238372802734375,1.651275634765625
200583,-0.628692626953125,1.166122436523438,1.404220581054688
200584,-0.53033447265625,1.103302001953125,1.180267333984375
200585,-0.505828857421875,0.9737701416015624,1.039764404296875
200586,-0.621002197265625,0.771484375,0.9338531494140624
200587,-0.8088531494140625,0.629150390625,0.8458099365234375
200588,-0.92169189453125,0.503326416015625,0.6733856201171875
200589,-0.88165283203125,0.357177734375,0.4745330810546875
200590,-0.6663665771484375,0.221160888671875,0.27276611328125
200591,-0.360015869140625,0.103546142578125,0.05267333984375
200592,-0.078460693359375,-0.002655029296875,-0.127899169921875
200593,0.1121063232421875,-0.0654144287109375,-0.23046875
200594,0.1607208251953125,-0.1019439697265625,-0.3269805908203125
200595,0.084869384765625,-0.166046142578125,-0.3861541748046875
200596,-0.040191650390625,-0.21435546875,-0.377044677734375
200597,-0.13629150390625,-0.2512054443359375,-0.32720947265625
200598,-0.14697265625,-0.30322265625,-0.257171630859375
200599,-0.0708770751953125,-0.4017181396484375,-0.1774749755859375
200600,0.057708740234375,-0.5044403076171875,-0.0258331298828125
200601,0.199981689453125,-0.4019622802734375,0.2254638671875
200602,0.3131561279296875,-0.0340576171875,0.41680908203125
200603,0.339569091796875,0.210693359375,0.50494384765625
200604,0.2637786865234375,0.26617431640625,0.6835174560546875
200605,0.0780181884765625,0.3206787109375,0.921234130859375
200606,-0.1463470458984375,0.487640380859375,1.08856201171875
200607,-0.3618927001953125,0.6539459228515625,1.069015502929688
200608,-0.580596923828125,0.932403564453125,1.475967407226562
200609,-0.0072784423828125,1.136886596679688,1.809097290039062
200610,1.729232788085938,1.76776123046875,1.75091552734375
200611,1.829330444335938,2.684173583984375,1.492095947265625
200612,0.3884735107421875,2.873245239257812,1.410934448242188
200613,-0.24371337890625,2.33367919921875,1.552505493164062
200614,-0.383880615234375,1.52386474609375,1.54827880859375
200615,-0.3427581787109375,0.9193267822265624,1.424835205078125
200616,-0.2337799072265625,0.693267822265625,1.331283569335938
200617,-0.1851043701171875,0.81573486328125,1.417343139648438
200618,-0.246429443359375,1.00628662109375,1.51300048828125
200619,-0.27685546875,1.076980590820312,1.466339111328125
200620,-0.284393310546875,1.013687133789062,1.297332763671875
200621,-0.355987548828125,0.9090576171875,1.0848388671875
200622,-0.471923828125,0.7569427490234375,0.935821533203125
200623,-0.621978759765625,0.546783447265625,0.838836669921875
200624,-0.7838897705078125,0.3395233154296875,0.726531982421875
200625,-0.8476104736328125,0.1900787353515625,0.57989501953125
200626,-0.7619476318359375,0.115814208984375,0.431671142578125
200627,-0.5504302978515625,0.0512237548828125,0.2275238037109375
200628,-0.2659912109375,-0.0699310302734375,0.00848388671875
200629,0.0223846435546875,-0.197723388671875,-0.13262939453125
200630,0.2609100341796875,-0.266448974609375,-0.2045745849609375
200631,0.3978118896484375,-0.2686004638671875,-0.2340087890625
200632,0.411712646484375,-0.2606201171875,-0.23382568359375
200633,0.34271240234375,-0.2557373046875,-0.146392822265625
200634,0.283355712890625,-0.180938720703125,0.0294189453125
200635,0.2962646484375,-0.014251708984375,0.1422576904296875
200636,0.3433074951171875,0.1406402587890625,0.0528717041015625
200637,0.34893798828125,0.143218994140625,-0.1099700927734375
200638,0.2673492431640625,0.0239105224609375,-0.1585845947265625
200639,0.106231689453125,-0.0214385986328125,-0.068695068359375
200640,-0.117156982421875,0.082427978515625,0.1171417236328125
200641,-0.38934326171875,0.218475341796875,0.3986663818359375
200642,-0.59588623046875,0.4300537109375,0.7287750244140625
200643,-0.631683349609375,0.8045654296875,1.047210693359375
200644,-0.4612884521484375,1.193862915039062,1.6444091796875
200645,-0.15911865234375,1.56146240234375,2.692657470703125
200646,1.249465942382812,1.747879028320312,1.446640014648438
200647,2.200210571289062,2.678558349609375,1.10723876953125
200648,0.704254150390625,3.198532104492188,2.623336791992188
200649,-0.690093994140625,2.6263427734375,2.800003051757812
200650,-0.6425018310546875,1.803955078125,1.90576171875
200651,-0.5150909423828125,1.584854125976562,1.288925170898438
200652,-0.6670379638671875,1.405532836914062,1.39288330078125
200653,-0.8378143310546875,1.253860473632812,1.530670166015625
200654,-0.8523406982421875,1.171340942382812,1.518722534179688
200655,-0.725860595703125,1.121047973632812,1.3487548828125
200656,-0.550933837890625,1.003997802734375,1.097198486328125
200657,-0.5178375244140625,0.813812255859375,0.9535675048828124
200658,-0.7143096923828125,0.6491241455078125,0.9639892578125
200659,-0.9830780029296876,0.577728271484375,0.93280029296875
200660,-1.077239990234375,0.49444580078125,0.786865234375
200661,-0.890655517578125,0.358428955078125,0.519073486328125
200662,-0.5193634033203125,0.2412109375,0.1815338134765625
200663,-0.1744537353515625,0.138885498046875,-0.1045684814453125
200664,0.041778564453125,0.0109710693359375,-0.3062286376953125
200665,0.1239471435546875,-0.147918701171875,-0.4889984130859375
200666,0.1033782958984375,-0.33929443359375,-0.610931396484375
200667,0.0133209228515625,-0.4822845458984375,-0.6178436279296875
200668,-0.0563201904296875,-0.5199737548828125,-0.50311279296875
200669,-0.0356292724609375,-0.4942626953125,-0.295623779296875
200670,0.1049652099609375,-0.4032745361328125,-0.0211639404296875
200671,0.33184814453125,-0.1805419921875,0.2312469482421875
200672,0.5143890380859375,-0.0732574462890625,0.245941162109375
200673,0.5372772216796875,-0.0997772216796875,0.0850372314453125
200674,0.4774322509765625,-0.0445556640625,-0.027008056640625
200675,0.357421875,0.0117950439453125,-0.018310546875
200676,0.18914794921875,0.080108642578125,0.1994171142578125
200677,-0.0149993896484375,0.25341796875,0.621490478515625
200678,-0.1325225830078125,0.600067138671875,1.129302978515625
200679,-0.02777099609375,0.8939361572265625,1.428466796875
200680,0.18389892578125,1.1177978515625,2.033676147460938
200681,0.424896240234375,1.44287109375,2.640838623046875
200682,1.165008544921875,1.843673706054688,1.566665649414062
200683,1.023971557617188,2.477020263671875,0.9768218994140624
200684,-0.1879119873046875,2.613525390625,1.577606201171875
200685,-0.8716888427734375,2.385894775390625,2.036285400390625
200686,-0.735992431640625,1.754974365234375,1.91015625
200687,-0.391510009765625,1.043838500976562,1.618194580078125
200688,-0.23223876953125,0.7061004638671875,1.380294799804688
200689,-0.3397369384765625,0.7586822509765625,1.408462524414062
200690,-0.5621490478515625,0.890869140625,1.485488891601562
200691,-0.7402801513671875,0.8897705078125,1.547836303710938
200692,-0.79974365234375,0.7946624755859375,1.4417724609375
200693,-0.817626953125,0.648956298828125,1.248672485351562
200694,-0.817718505859375,0.447662353515625,1.064849853515625
200695,-0.8058319091796875,0.238037109375,0.8462677001953125
200696,-0.7879486083984375,0.070465087890625,0.61724853515625
200697,-0.7294921875,0.0078277587890625,0.41949462890625
200698,-0.601287841796875,0.076751708984375,0.2467498779296875
200699,-0.4015960693359375,0.096588134765625,0.1084747314453125
200700,-0.1853790283203125,0.0137481689453125,-0.0474395751953125
200701,-0.0082244873046875,-0.146026611328125,-0.220733642578125
200702,0.1295166015625,-0.2887725830078125,-0.329376220703125
200703,0.232025146484375,-0.353485107421875,-0.3372650146484375
200704,0.323883056640625,-0.3373565673828125,-0.193511962890625
200705,0.4377288818359375,-0.252960205078125,0.0827484130859375
200706,0.5485992431640625,-0.117767333984375,0.2730560302734375
200707,0.57220458984375,0.0403900146484375,0.0941314697265625
200708,0.456390380859375,0.07476806640625,-0.1795654296875
200709,0.2686309814453125,0.0027008056640625,-0.226776123046875
200710,0.1099853515625,-0.02215576171875,-0.17388916015625
200711,-0.04754638671875,0.0566864013671875,-0.032073974609375
200712,-0.2237091064453125,0.2002716064453125,0.1456146240234375
200713,-0.3709564208984375,0.3935546875,0.2152252197265625
200714,-0.45611572265625,0.7270965576171875,0.1844635009765625
200715,-0.3509521484375,1.01885986328125,0.5336456298828125
200716,-0.013671875,1.489639282226562,1.9818115234375
200717,1.11041259765625,2.077651977539062,2.876907348632812
200718,3.122039794921875,2.79144287109375,1.219268798828125
200719,2.238601684570312,3.51519775390625,1.943939208984375
200720,-0.1292724609375,2.867279052734375,2.675369262695312
200721,-1.251785278320312,2.049835205078125,2.448196411132812
200722,-0.97222900390625,1.724151611328125,1.511306762695312
200723,-0.796112060546875,1.216552734375,1.016494750976562
200724,-0.8976287841796875,1.019027709960938,1.366958618164062
200725,-0.891632080078125,1.039443969726562,1.667556762695312
200726,-0.7627105712890625,1.105224609375,1.67608642578125
200727,-0.5706634521484375,1.071548461914062,1.419204711914062
200728,-0.522186279296875,0.846649169921875,1.188095092773438
200729,-0.723541259765625,0.591552734375,1.036575317382812
200730,-1.01348876953125,0.442901611328125,0.92510986328125
200731,-1.202133178710938,0.3315887451171875,0.85009765625
200732,-1.16845703125,0.18426513671875,0.70587158203125
200733,-0.9179534912109376,0.1042327880859375,0.448333740234375
200734,-0.5390167236328125,0.1046600341796875,0.1633758544921875
200735,-0.1724090576171875,0.068634033203125,-0.0292205810546875
200736,0.0838775634765625,-0.016510009765625,-0.1415557861328125
200737,0.211151123046875,-0.1190032958984375,-0.2408905029296875
200738,0.2121429443359375,-0.20562744140625,-0.2774810791015625
200739,0.1285552978515625,-0.24359130859375,-0.2384185791015625
200740,0.046173095703125,-0.19158935546875,-0.1436309814453125
200741,0.039154052734375,-0.126434326171875,-0.09222412109375
200742,0.08648681640625,-0.1304779052734375,-0.1214447021484375
200743,0.154144287109375,-0.2084197998046875,-0.143768310546875
200744,0.213653564453125,-0.30487060546875,-0.098419189453125
200745,0.2764434814453125,-0.263641357421875,-0.0052032470703125
200746,0.330352783203125,-0.00323486328125,0.058746337890625
200747,0.3492431640625,0.160919189453125,0.1614837646484375
200748,0.2893829345703125,0.2269287109375,0.4019012451171875
200749,0.1605377197265625,0.3727874755859375,0.773895263671875
200750,0.04522705078125,0.5536041259765625,1.119659423828125
200751,-0.025543212890625,0.6828155517578125,1.037765502929688
200752,-0.2451934814453125,0.8933868408203125,1.4024658203125
200753,-0.228363037109375,1.140777587890625,1.706634521484375
200754,1.30303955078125,1.554061889648438,1.333343505859375
200755,2.278961181640625,2.339645385742188,1.5999755859375
200756,0.930511474609375,2.991500854492188,1.789016723632812
200757,-0.3204193115234375,2.837966918945312,2.004806518554688
200758,-0.7572479248046875,2.016799926757812,1.890182495117188
200759,-0.8137664794921875,1.2398681640625,1.415695190429688
200760,-0.752166748046875,0.7571868896484375,1.2900390625
200761,-0.580322265625,0.7243499755859375,1.402969360351562
200762,-0.5493316650390625,0.84259033203125,1.470458984375
200763,-0.5399017333984375,0.9088134765625,1.585128784179688
200764,-0.4964141845703125,0.8827056884765625,1.503646850585938
200765,-0.515350341796875,0.7537994384765625,1.307723999023438
200766,-0.63787841796875,0.52630615234375,1.128921508789062
200767,-0.817779541015625,0.2567138671875,0.9277496337890624
200768,-0.932769775390625,0.068511962890625,0.7517547607421875
200769,-0.885467529296875,0.0641021728515625,0.5750885009765625
200770,-0.692657470703125,0.1427001953125,0.39288330078125
200771,-0.4036102294921875,0.18829345703125,0.20562744140625
200772,-0.060089111328125,0.180908203125,-0.0326080322265625
200773,0.249908447265625,0.0826873779296875,-0.235260009765625
200774,0.4319915771484375,-0.061431884765625,-0.3074798583984375
200775,0.4606170654296875,-0.211761474609375,-0.25933837890625
200776,0.413177490234375,-0.319061279296875,-0.140838623046875
200777,0.38787841796875,-0.2548980712890625,0.0140533447265625
200778,0.4146881103515625,-0.054962158203125,0.133392333984375
200779,0.4573974609375,0.1443939208984375,0.1434173583984375
200780,0.4597930908203125,0.1840362548828125,0.009307861328125
200781,0.3923187255859375,0.0394287109375,-0.1352386474609375
200782,0.2576751708984375,-0.16485595703125,-0.18048095703125
200783,0.12127685546875,-0.10394287109375,-0.1273956298828125
200784,-0.014404296875,0.11334228515625,0.0234222412109375
200785,-0.15301513671875,0.28338623046875,0.283599853515625
200786,-0.268341064453125,0.4584197998046875,0.5235137939453125
200787,-0.3527984619140625,0.7869415283203125,0.604217529296875
200788,-0.3653411865234375,1.17608642578125,0.7664337158203125
200789,-0.3884429931640625,1.607467651367188,2.084945678710938
200790,0.229248046875,1.705047607421875,2.449508666992188
200791,2.255477905273438,2.051315307617188,1.0050048828125
200792,1.904754638671875,2.99700927734375,2.02093505859375
200793,0.013519287109375,3.004898071289062,2.782989501953125
200794,-0.75762939453125,2.148849487304688,2.22979736328125
200795,-0.672454833984375,1.705322265625,1.394638061523438
200796,-0.684967041015625,1.45367431640625,1.194717407226562
200797,-0.8215179443359375,1.255081176757812,1.483978271484375
200798,-0.9104461669921876,1.149215698242188,1.63494873046875
200799,-0.8814697265625,1.110519409179688,1.54217529296875
200800,-0.6734619140625,1.047332763671875,1.307342529296875
200801,-0.5447998046875,0.8620147705078125,1.060897827148438
200802,-0.6963958740234375,0.629547119140625,0.9546661376953124
200803,-0.9417572021484376,0.442657470703125,0.9056854248046876
200804,-1.059371948242188,0.291900634765625,0.8189239501953125
200805,-0.9738616943359376,0.17059326171875,0.669525146484375
200806,-0.6802520751953125,0.080230712890625,0.4053192138671875
200807,-0.33172607421875,0.02117919921875,0.097442626953125
200808,-0.0889129638671875,-0.0294189453125,-0.13055419921875
200809,0.0301513671875,-0.0706634521484375,-0.2516326904296875
200810,0.02154541015625,-0.1154937744140625,-0.3245391845703125
200811,-0.05078125,-0.2054901123046875,-0.3334808349609375
200812,-0.14764404296875,-0.2937774658203125,-0.28167724609375
200813,-0.2192535400390625,-0.327789306640625,-0.1936187744140625
200814,-0.2006988525390625,-0.312225341796875,-0.107818603515625
200815,-0.10296630859375,-0.330718994140625,-0.0520477294921875
200816,0.0421295166015625,-0.366546630859375,0.0381011962890625
200817,0.2077178955078125,-0.280029296875,0.1478729248046875
200818,0.31781005859375,0.0114288330078125,0.1217498779296875
200819,0.2802276611328125,0.2061309814453125,0.0202484130859375
200820,0.21331787109375,0.227386474609375,0.033172607421875
200821,0.1753997802734375,0.2514190673828125,0.2312164306640625
200822,0.092010498046875,0.3383636474609375,0.5948028564453125
200823,0.0081024169921875,0.529266357421875,0.9124908447265624
200824,0.0829315185546875,0.8551177978515625,1.225860595703125
200825,0.359405517578125,1.432144165039062,2.08441162109375
200826,1.375946044921875,1.774520874023438,1.960906982421875
200827,2.605377197265625,2.273529052734375,1.000518798828125
200828,1.446136474609375,2.690811157226562,1.280868530273438
200829,-0.3144683837890625,2.460968017578125,1.86328125
200830,-0.9883575439453124,2.008087158203125,2.000137329101562
200831,-0.7022552490234375,1.4542236328125,1.606781005859375
200832,-0.2345123291015625,0.8994293212890625,1.3037109375
200833,-0.1915435791015625,0.793304443359375,1.384689331054688
200834,-0.42572021484375,1.039688110351562,1.625946044921875
200835,-0.64276123046875,1.140350341796875,1.794952392578125
200836,-0.6743927001953125,1.042495727539062,1.67236328125
200837,-0.6749267578125,0.868011474609375,1.3868408203125
200838,-0.75115966796875,0.7045440673828125,1.129364013671875
200839,-0.841552734375,0.5204620361328125,0.9494781494140624
200840,-0.9354248046875,0.3031005859375,0.801666259765625
200841,-0.970062255859375,0.1329803466796875,0.62164306640625
200842,-0.845947265625,0.05816650390625,0.4467315673828125
200843,-0.5559539794921875,0.0598297119140625,0.28948974609375
200844,-0.230133056640625,0.00543212890625,0.05096435546875
200845,-0.00335693359375,-0.11846923828125,-0.14141845703125
200846,0.1158599853515625,-0.21435546875,-0.2643280029296875
200847,0.1671295166015625,-0.2480621337890625,-0.3625946044921875
200848,0.1519927978515625,-0.260040283203125,-0.40234375
200849,0.117401123046875,-0.3256683349609375,-0.333831787109375
200850,0.146026611328125,-0.3222503662109375,-0.15313720703125
200851,0.2566375732421875,-0.1832427978515625,0.0952301025390625
200852,0.39642333984375,0.0269927978515625,0.3288421630859375
200853,0.4960174560546875,0.1540985107421875,0.251190185546875
200854,0.4215850830078125,0.1313629150390625,-0.0874481201171875
200855,0.2290191650390625,0.0647125244140625,-0.2160797119140625
200856,-0.0048675537109375,0.078216552734375,-0.011810302734375
200857,-0.2339019775390625,0.2124786376953125,0.40289306640625
200858,-0.43475341796875,0.5123291015625,0.7996978759765625
200859,-0.578521728515625,0.95880126953125,0.8625030517578125
200860,-0.5357208251953125,1.260543823242188,1.207366943359375
200861,-0.540618896484375,1.68084716796875,2.8583984375
200862,0.74505615234375,1.82147216796875,1.592300415039062
200863,2.501327514648438,2.67840576171875,0.551727294921875
200864,1.193817138671875,3.280441284179688,2.618621826171875
200865,-0.4885406494140625,2.723831176757812,2.55914306640625
200866,-0.29656982421875,1.780181884765625,1.745681762695312
200867,0.04583740234375,1.334793090820312,1.228408813476562
200868,-0.2415313720703125,1.17449951171875,1.227401733398438
200869,-0.5894012451171875,1.074966430664062,1.448623657226562
200870,-0.6541290283203125,0.95806884765625,1.58795166015625
200871,-0.48590087890625,0.907073974609375,1.441909790039062
200872,-0.304931640625,0.8506927490234375,1.225997924804688
200873,-0.244476318359375,0.7304534912109375,1.00750732421875
200874,-0.376617431640625,0.5912017822265625,0.8578033447265625
200875,-0.6225738525390625,0.507232666015625,0.7568206787109375
200876,-0.812652587890625,0.450836181640625,0.6782989501953125
200877,-0.839080810546875,0.3364105224609375,0.5250091552734375
200878,-0.6859283447265625,0.169647216796875,0.315093994140625
200879,-0.4641265869140625,-0.0018157958984375,0.0540008544921875
200880,-0.26959228515625,-0.107818603515625,-0.164215087890625
200881,-0.1347503662109375,-0.14056396484375,-0.307159423828125
200882,-0.084320068359375,-0.1745147705078125,-0.4033203125
200883,-0.1165771484375,-0.249847412109375,-0.4337005615234375
200884,-0.1804046630859375,-0.2960052490234375,-0.4089508056640625
200885,-0.2103424072265625,-0.3307342529296875,-0.3162384033203125
200886,-0.1733245849609375,-0.3950042724609375,-0.1741790771484375
200887,-0.0673065185546875,-0.478515625,0.003021240234375
200888,0.0919342041015625,-0.4401702880859375,0.2000579833984375
200889,0.2464599609375,-0.1641998291015625,0.3854217529296875
200890,0.3268280029296875,0.1161651611328125,0.491119384765625
200891,0.34912109375,0.218170166015625,0.4822845458984375
200892,0.304840087890625,0.280242919921875,0.5650482177734375
200893,0.15771484375,0.468963623046875,0.8944244384765625
200894,-0.0524139404296875,0.7209014892578125,1.117156982421875
200895,-0.250579833984375,0.89984130859375,1.401626586914062
200896,-0.207183837890625,1.138717651367188,1.99188232421875
200897,1.187850952148438,1.586105346679688,1.389862060546875
200898,2.408294677734375,2.580810546875,0.9708709716796876
200899,0.8149871826171875,2.890899658203125,1.560333251953125
200900,-0.6558380126953125,2.465621948242188,1.91644287109375
200901,-0.6957550048828125,1.69744873046875,1.797805786132812
200902,-0.2375335693359375,1.171493530273438,1.381927490234375
200903,-0.0055999755859375,0.852874755859375,1.102951049804688
200904,-0.1444549560546875,0.896759033203125,1.323333740234375
200905,-0.355865478515625,1.047073364257812,1.591476440429688
200906,-0.42169189453125,1.123001098632812,1.620086669921875
200907,-0.35699462890625,1.09002685546875,1.387985229492188
200908,-0.373565673828125,0.9817047119140624,1.082382202148438
200909,-0.5482025146484375,0.8649139404296875,0.9108428955078124
200910,-0.7710418701171875,0.7403564453125,0.805633544921875
200911,-0.9815216064453124,0.549407958984375,0.708770751953125
200912,-1.089736938476562,0.3946380615234375,0.569183349609375
200913,-1.033905029296875,0.3483123779296875,0.4056243896484375
200914,-0.8457183837890625,0.3216094970703125,0.19610595703125
200915,-0.560821533203125,0.207733154296875,-0.071258544921875
200916,-0.2455902099609375,0.016204833984375,-0.21551513671875
200917,0.02911376953125,-0.1219940185546875,-0.227294921875
200918,0.2275543212890625,-0.1620635986328125,-0.2063446044921875
200919,0.3298187255859375,-0.1546478271484375,-0.1777191162109375
200920,0.338623046875,-0.158660888671875,-0.0954437255859375
200921,0.305145263671875,-0.1828765869140625,0.0259246826171875
200922,0.2930450439453125,-0.122711181640625,0.1995391845703125
200923,0.35650634765625,0.0440216064453125,0.203948974609375
200924,0.43011474609375,0.1689605712890625,-0.05877685546875
200925,0.4189910888671875,0.162139892578125,-0.229095458984375
200926,0.3327789306640625,0.0933380126953125,-0.2009429931640625
200927,0.216094970703125,0.03924560546875,-0.0197601318359375
200928,0.040069580078125,0.059112548828125,0.248016357421875
200929,-0.1715850830078125,0.1731109619140625,0.5396881103515625
200930,-0.3259735107421875,0.4105377197265625,0.8655853271484375
200931,-0.47900390625,0.859832763671875,1.209808349609375
200932,-0.58465576171875,1.283462524414062,2.242019653320312
200933,-0.241943359375,1.49664306640625,2.601898193359375
200934,1.132720947265625,1.7894287109375,0.7266998291015625
200935,1.109344482421875,2.40057373046875,1.677413940429688
200936,-0.379730224609375,2.503204345703125,2.6669921875
200937,-0.684661865234375,2.040496826171875,2.205078125
200938,-0.088775634765625,1.56475830078125,1.511077880859375
200939,-0.0968475341796875,1.43804931640625,1.395278930664062
200940,-0.482421875,1.278610229492188,1.6656494140625
200941,-0.69573974609375,1.111282348632812,1.798416137695312
200942,-0.6994476318359375,1.004959106445312,1.593353271484375
200943,-0.64013671875,0.878814697265625,1.294189453125
200944,-0.59942626953125,0.7267608642578125,1.046066284179688
200945,-0.60919189453125,0.6009368896484375,0.91558837890625
200946,-0.64862060546875,0.543731689453125,0.88934326171875
200947,-0.6942901611328125,0.5334320068359375,0.836700439453125
200948,-0.6590728759765625,0.4873046875,0.719696044921875
200949,-0.489532470703125,0.349578857421875,0.474945068359375
200950,-0.2707672119140625,0.1643218994140625,0.183502197265625
200951,-0.0745391845703125,-0.003814697265625,-0.07568359375
200952,0.0653228759765625,-0.060455322265625,-0.2516326904296875
200953,0.10986328125,-0.00042724609375,-0.37017822265625
200954,0.0764312744140625,-0.02557373046875,-0.3867645263671875
200955,-0.0015869140625,-0.1110687255859375,-0.3664398193359375
200956,-0.0697021484375,-0.171661376953125,-0.3037567138671875
200957,-0.078369140625,-0.215545654296875,-0.1696319580078125
200958,-0.02960205078125,-0.2581787109375,-0.0134124755859375
200959,0.0695037841796875,-0.30322265625,0.1347198486328125
200960,0.198486328125,-0.246307373046875,0.239227294921875
200961,0.27728271484375,0.0273895263671875,0.3227691650390625
200962,0.2840576171875,0.289398193359375,0.4086151123046875
200963,0.241241455078125,0.4033203125,0.5313873291015625
200964,0.1271514892578125,0.5041656494140625,0.694549560546875
200965,-0.0570831298828125,0.6471405029296875,0.8716278076171875
200966,-0.255889892578125,0.761627197265625,0.8715362548828125
200967,-0.429168701171875,0.8451995849609375,1.090316772460938
200968,-0.3703155517578125,1.07586669921875,1.801895141601562
200969,0.73883056640625,1.242446899414062,1.556671142578125
200970,1.771484375,1.955078125,1.385543823242188
200971,1.038986206054688,2.533660888671875,1.548690795898438
200972,-0.0777130126953125,2.432388305664062,1.606033325195312
200973,-0.3821258544921875,1.951446533203125,1.6043701171875
200974,-0.2689208984375,1.491012573242188,1.48016357421875
200975,-0.199951171875,1.1260986328125,1.344558715820312
200976,-0.347259521484375,1.007354736328125,1.353302001953125
200977,-0.5708770751953125,1.0618896484375,1.453994750976562
200978,-0.609039306640625,1.063018798828125,1.4354248046875
200979,-0.473297119140625,0.9998779296875,1.276107788085938
200980,-0.341522216796875,0.876129150390625,1.080093383789062
200981,-0.3548583984375,0.6939849853515625,0.9314422607421876
200982,-0.50225830078125,0.451812744140625,0.8237457275390625
200983,-0.6694488525390625,0.239013671875,0.6720733642578125
200984,-0.74200439453125,0.1461029052734375,0.4889678955078125
200985,-0.661651611328125,0.1213531494140625,0.3121185302734375
200986,-0.46014404296875,0.0593719482421875,0.10345458984375
200987,-0.208221435546875,-0.0624542236328125,-0.108062744140625
200988,0.0174560546875,-0.2099761962890625,-0.2270355224609375
200989,0.1595458984375,-0.303497314453125,-0.23309326171875
200990,0.2355804443359375,-0.29315185546875,-0.2112274169921875
200991,0.2650299072265625,-0.2758026123046875,-0.16717529296875
200992,0.2589263916015625,-0.3326263427734375,-0.0594940185546875
200993,0.268524169921875,-0.31512451171875,0.085174560546875
200994,0.3065032958984375,-0.16241455078125,0.1672515869140625
200995,0.3169403076171875,0.005035400390625,0.1372833251953125
200996,0.255218505859375,0.0385589599609375,0.026763916015625
200997,0.1313018798828125,0.0361175537109375,-0.0443878173828125
200998,-0.023834228515625,0.04052734375,0.0023956298828125
200999,-0.2210540771484375,0.0402679443359375,0.1685791015625
201000,-0.405731201171875,0.112213134765625,0.4092864990234375
201001,-0.489410400390625,0.3943023681640625,0.6778411865234375
201002,-0.470062255859375,0.8675384521484375,0.922882080078125
201003,-0.350616455078125,1.440963745117188,1.88055419921875
201004,0.3507232666015625,1.730941772460938,2.666305541992188
201005,2.28814697265625,2.130538940429688,1.203262329101562
201006,2.357467651367188,2.904937744140625,1.526031494140625
201007,0.3461456298828125,2.862503051757812,2.41424560546875
201008,-0.970489501953125,2.170059204101562,2.49078369140625
201009,-0.7968292236328125,1.788650512695312,1.902389526367188
201010,-0.4324188232421875,1.6292724609375,1.30474853515625
201011,-0.599029541015625,1.334381103515625,1.362014770507812
201012,-0.83843994140625,1.167526245117188,1.56463623046875
201013,-0.83807373046875,1.103378295898438,1.514251708984375
201014,-0.666259765625,1.029861450195312,1.360275268554688
201015,-0.4930267333984375,0.86492919921875,1.182449340820312
201016,-0.47406005859375,0.66705322265625,1.00445556640625
201017,-0.5850067138671875,0.5437774658203125,0.8822174072265625
201018,-0.7100982666015625,0.4690399169921875,0.7489776611328125
201019,-0.7393341064453125,0.3795623779296875,0.6114044189453125
201020,-0.6028900146484375,0.2646484375,0.44525146484375
201021,-0.3683319091796875,0.15472412109375,0.255523681640625
201022,-0.1332244873046875,0.0381927490234375,0.0472869873046875
201023,0.053466796875,-0.0561981201171875,-0.1282501220703125
201024,0.1281280517578125,-0.073944091796875,-0.2771759033203125
201025,0.10418701171875,-0.1200408935546875,-0.3580322265625
201026,0.0234527587890625,-0.1793060302734375,-0.4026641845703125
201027,-0.07550048828125,-0.20477294921875,-0.378448486328125
201028,-0.12933349609375,-0.2030792236328125,-0.2938385009765625
201029,-0.10125732421875,-0.2135467529296875,-0.184722900390625
201030,-0.000762939453125,-0.273162841796875,-0.069976806640625
201031,0.129486083984375,-0.31591796875,0.06695556640625
201032,0.2380828857421875,-0.1703338623046875,0.194915771484375
201033,0.2974853515625,0.1338958740234375,0.2858123779296875
201034,0.3127593994140625,0.2939910888671875,0.375640869140625
201035,0.263397216796875,0.3444366455078125,0.489715576171875
201036,0.1514129638671875,0.417572021484375,0.7038116455078125
201037,-0.0543212890625,0.5301513671875,0.950958251953125
201038,-0.246734619140625,0.7137603759765625,1.228973388671875
201039,-0.1776123046875,1.138824462890625,1.931350708007812
201040,0.833740234375,1.403457641601562,1.889816284179688
201041,1.846267700195312,2.122543334960938,1.497055053710938
201042,0.8287811279296875,2.617828369140625,1.58111572265625
201043,-0.5019378662109375,2.302703857421875,1.654556274414062
201044,-0.8144073486328125,1.8511962890625,1.703659057617188
201045,-0.5207061767578125,1.419570922851562,1.621841430664062
201046,-0.2173614501953125,1.032760620117188,1.510147094726562
201047,-0.2347869873046875,0.969879150390625,1.575698852539062
201048,-0.4666290283203125,1.046005249023438,1.653182983398438
201049,-0.6741790771484375,1.069793701171875,1.55609130859375
201050,-0.6889801025390625,0.973968505859375,1.323776245117188
201051,-0.6261138916015625,0.81671142578125,1.07958984375
201052,-0.6309814453125,0.6876220703125,0.9478607177734376
201053,-0.71832275390625,0.534332275390625,0.85693359375
201054,-0.8203887939453125,0.3478546142578125,0.7352142333984375
201055,-0.8447418212890625,0.195159912109375,0.57733154296875
201056,-0.735931396484375,0.133270263671875,0.4271087646484375
201057,-0.52667236328125,0.12945556640625,0.2394866943359375
201058,-0.272430419921875,0.0385589599609375,-0.0218658447265625
201059,-0.0408935546875,-0.0985107421875,-0.216583251953125
201060,0.1177520751953125,-0.1998291015625,-0.297454833984375
201061,0.1927490234375,-0.2126617431640625,-0.3580780029296875
201062,0.2121734619140625,-0.2062530517578125,-0.345458984375
201063,0.2095794677734375,-0.2172393798828125,-0.1862640380859375
201064,0.2312164306640625,-0.12554931640625,0.05841064453125
201065,0.3270111083984375,0.0511627197265625,0.330474853515625
201066,0.4840545654296875,0.142486572265625,0.4084320068359375
201067,0.499969482421875,0.0642852783203125,0.0170440673828125
201068,0.33502197265625,-0.0577239990234375,-0.2973785400390625
201069,0.125885009765625,-0.09222412109375,-0.2165069580078125
201070,-0.131317138671875,-0.03143310546875,0.0755462646484375
201071,-0.4005126953125,0.1647491455078125,0.420745849609375
201072,-0.522247314453125,0.4411773681640625,0.700103759765625
201073,-0.457122802734375,0.7456512451171875,0.865447998046875
201074,-0.1863250732421875,1.146163940429688,1.550704956054688
201075,0.1943359375,1.628799438476562,2.527099609375
201076,1.500640869140625,1.838775634765625,1.226150512695312
201077,2.346725463867188,2.675857543945312,1.080718994140625
201078,0.964019775390625,3.072402954101562,2.277267456054688
201079,-0.43841552734375,2.627700805664062,2.464584350585938
201080,-0.4608154296875,1.977874755859375,2.039932250976562
201081,-0.179107666015625,1.560882568359375,1.3983154296875
201082,-0.3846435546875,1.196746826171875,1.259872436523438
201083,-0.66925048828125,1.048690795898438,1.511581420898438
201084,-0.7353973388671875,1.001083374023438,1.649581909179688
201085,-0.69805908203125,0.9915313720703124,1.513214111328125
201086,-0.5940704345703125,0.9033050537109376,1.257186889648438
201087,-0.5040130615234375,0.7150726318359375,1.0576171875
201088,-0.547607421875,0.5194549560546875,0.9619598388671876
201089,-0.724609375,0.4261322021484375,0.868011474609375
201090,-0.8994140625,0.3777313232421875,0.761383056640625
201091,-0.94317626953125,0.2734222412109375,0.5889129638671875
201092,-0.774810791015625,0.12847900390625,0.361083984375
201093,-0.4857940673828125,-0.0214691162109375,0.0811004638671875
201094,-0.183624267578125,-0.1374969482421875,-0.14111328125
201095,0.0235595703125,-0.172393798828125,-0.250274658203125
201096,0.12310791015625,-0.151214599609375,-0.27423095703125
201097,0.0798492431640625,-0.1523895263671875,-0.2443084716796875
201098,-0.062225341796875,-0.15850830078125,-0.1992950439453125
201099,-0.179534912109375,-0.1541748046875,-0.157257080078125
201100,-0.2244873046875,-0.206207275390625,-0.130584716796875
201101,-0.2016448974609375,-0.3554534912109375,-0.097137451171875
201102,-0.1259307861328125,-0.5487060546875,-0.0176239013671875
201103,-0.0012969970703125,-0.5859832763671875,0.1387176513671875
201104,0.1143035888671875,-0.2677154541015625,0.366363525390625
201105,0.136138916015625,0.1182403564453125,0.5131988525390625
201106,0.092620849609375,0.251922607421875,0.5236968994140625
201107,0.0056304931640625,0.3281402587890625,0.553955078125
201108,-0.167510986328125,0.45941162109375,0.7964935302734375
201109,-0.3922119140625,0.7236480712890625,0.9813385009765624
201110,-0.5569000244140625,1.140792846679688,1.611114501953125
201111,0.367950439453125,1.355911254882812,2.1337890625
201112,2.561126708984375,2.038238525390625,1.383697509765625
201113,2.702484130859375,3.098785400390625,1.491012573242188
201114,0.5873565673828125,2.934005737304688,1.365066528320312
201115,-0.502471923828125,2.007278442382812,1.606521606445312
201116,-0.3492431640625,1.455886840820312,1.718429565429688
201117,0.1381378173828125,1.01593017578125,1.352752685546875
201118,0.23211669921875,0.90771484375,1.265609741210938
201119,-0.0786895751953125,1.058456420898438,1.51409912109375
201120,-0.1568756103515625,1.128036499023438,1.548416137695312
201121,-0.1625823974609375,1.111312866210938,1.285675048828125
201122,-0.2418212890625,1.042098999023438,1.100143432617188
201123,-0.361785888671875,0.9362335205078124,1.022933959960938
201124,-0.533355712890625,0.786712646484375,0.9832763671875
201125,-0.7516326904296875,0.607818603515625,0.9049530029296876
201126,-0.94512939453125,0.41986083984375,0.7631378173828125
201127,-0.9985809326171876,0.283294677734375,0.567657470703125
201128,-0.9305267333984376,0.1969757080078125,0.3585205078125
201129,-0.77203369140625,0.087432861328125,0.1709136962890625
201130,-0.5438232421875,-0.036712646484375,-0.0230712890625
201131,-0.2807464599609375,-0.1329803466796875,-0.1566925048828125
201132,-0.0479278564453125,-0.198150634765625,-0.2276458740234375
201133,0.1130523681640625,-0.2539520263671875,-0.2316741943359375
201134,0.1809844970703125,-0.31866455078125,-0.22186279296875
201135,0.1953125,-0.3506011962890625,-0.1360931396484375
201136,0.2130279541015625,-0.2920989990234375,0.036102294921875
201137,0.2897491455078125,-0.1046295166015625,0.212615966796875
201138,0.3876800537109375,0.1281585693359375,0.173187255859375
201139,0.4197235107421875,0.179779052734375,-0.0194244384765625
201140,0.34088134765625,0.069671630859375,-0.0932159423828125
201141,0.1849365234375,-0.0147705078125,0.0068206787109375
201142,-0.0299530029296875,0.0328521728515625,0.204010009765625
201143,-0.2400054931640625,0.2241363525390625,0.4528961181640625
201144,-0.3589324951171875,0.5528411865234375,0.56317138671875
201145,-0.3636322021484375,0.9638519287109376,0.666595458984375
201146,-0.298370361328125,1.396759033203125,1.843780517578125
201147,0.58209228515625,1.463043212890625,2.228775024414062
201148,2.242782592773438,2.028289794921875,1.027679443359375
201149,1.8201904296875,2.978134155273438,1.735946655273438
201150,-0.00494384765625,2.998870849609375,2.4281005859375
201151,-0.746124267578125,2.19427490234375,2.225692749023438
201152,-0.4615936279296875,1.713302612304688,1.567718505859375
201153,-0.32257080078125,1.337142944335938,1.205734252929688
201154,-0.592559814453125,1.078704833984375,1.292221069335938
201155,-0.8264007568359375,1.026779174804688,1.508743286132812
201156,-0.8863067626953125,1.023971557617188,1.576187133789062
201157,-0.8970184326171875,1.0338134765625,1.495590209960938
201158,-0.875701904296875,0.9543609619140624,1.414321899414062
201159,-0.9153900146484376,0.7657623291015625,1.304443359375
201160,-0.9930267333984376,0.597686767578125,1.144607543945312
201161,-0.9904327392578124,0.5540618896484375,0.941253662109375
201162,-0.935333251953125,0.5474090576171875,0.747314453125
201163,-0.826416015625,0.495086669921875,0.5610198974609375
201164,-0.6212921142578125,0.3999786376953125,0.33758544921875
201165,-0.330169677734375,0.2814178466796875,0.099853515625
201166,-0.0655364990234375,0.0899658203125,-0.151092529296875
201167,0.0821380615234375,-0.1505889892578125,-0.3594818115234375
201168,0.1211395263671875,-0.30670166015625,-0.4759368896484375
201169,0.1304473876953125,-0.353179931640625,-0.464630126953125
201170,0.153656005859375,-0.335693359375,-0.41314697265625
201171,0.2203369140625,-0.27276611328125,-0.25701904296875
201172,0.3258819580078125,-0.1869659423828125,-0.0399932861328125
201173,0.4036712646484375,-0.0540618896484375,0.068878173828125
201174,0.4294586181640625,0.104278564453125,0.0157012939453125
201175,0.379425048828125,0.200531005859375,-0.12884521484375
201176,0.286956787109375,0.14727783203125,-0.2020111083984375
201177,0.181671142578125,0.059539794921875,-0.1672515869140625
201178,0.0980224609375,0.064605712890625,0.0075225830078125
201179,0.060272216796875,0.197509765625,0.3342742919921875
201180,0.0267791748046875,0.4598388671875,0.7716217041015625
201181,0.0572052001953125,0.751556396484375,1.294281005859375
201182,0.160675048828125,1.109466552734375,1.850814819335938
201183,0.1884918212890625,1.441680908203125,2.067169189453125
201184,0.819488525390625,1.5167236328125,0.9438323974609376
201185,0.77838134765625,2.1788330078125,0.9993438720703124
201186,-0.0020751953125,2.397750854492188,1.669174194335938
201187,-0.378387451171875,2.25506591796875,1.776535034179688
201188,-0.1833953857421875,1.805191040039062,1.502212524414062
201189,0.0791473388671875,1.322601318359375,1.287979125976562
201190,0.160125732421875,1.036865234375,1.351791381835938
201191,0.0235748291015625,0.96099853515625,1.39385986328125
201192,-0.1634674072265625,0.960052490234375,1.47186279296875
201193,-0.3612060546875,0.9520111083984376,1.472198486328125
201194,-0.584259033203125,0.970458984375,1.359573364257812
201195,-0.8561553955078125,0.98284912109375,1.235565185546875
201196,-1.114608764648438,0.918182373046875,1.099853515625
201197,-1.263458251953125,0.7711334228515625,0.9708709716796876
201198,-1.278976440429688,0.591583251953125,0.87384033203125
201199,-1.165512084960938,0.4237823486328125,0.7146453857421875
201200,-0.96514892578125,0.30303955078125,0.455902099609375
201201,-0.65484619140625,0.1930389404296875,0.224456787109375
201202,-0.275421142578125,0.0500946044921875,0.0427703857421875
201203,0.0072479248046875,-0.08270263671875,-0.1119384765625
201204,0.1982879638671875,-0.2096405029296875,-0.21246337890625
201205,0.328887939453125,-0.3125457763671875,-0.2976837158203125
201206,0.381988525390625,-0.361419677734375,-0.3269500732421875
201207,0.365966796875,-0.37359619140625,-0.288787841796875
201208,0.357208251953125,-0.24505615234375,-0.171234130859375
201209,0.4061126708984375,0.013916015625,-0.0465545654296875
201210,0.47998046875,0.208465576171875,-0.014434814453125
201211,0.5581207275390625,0.21759033203125,-0.00140380859375
201212,0.6202392578125,0.191650390625,0.1361236572265625
201213,0.5808563232421875,0.2360687255859375,0.2982635498046875
201214,0.4731903076171875,0.3522186279296875,0.4470672607421875
201215,0.3290252685546875,0.5781402587890625,0.5593109130859375
201216,0.1733551025390625,0.8189849853515625,0.8162841796875
201217,-0.076019287109375,1.0869140625,1.627944946289062
201218,-0.2294921875,1.347488403320312,2.418914794921875
201219,0.339691162109375,1.846878051757812,1.51397705078125
201220,0.3440093994140625,2.851043701171875,1.311004638671875
201221,-0.3890533447265625,2.893508911132812,2.012603759765625
201222,-0.791259765625,2.144973754882812,2.122222900390625
201223,-0.4456939697265625,1.579071044921875,1.609161376953125
201224,-0.046356201171875,1.193740844726562,1.234970092773438
201225,0.025299072265625,0.9306488037109376,1.279342651367188
201226,-0.2028656005859375,0.7694091796875,1.426132202148438
201227,-0.518890380859375,0.7063446044921875,1.498580932617188
201228,-0.7830352783203125,0.748687744140625,1.475311279296875
201229,-0.9599151611328124,0.8123016357421875,1.381240844726562
201230,-1.038162231445312,0.798919677734375,1.272994995117188
201231,-1.053451538085938,0.689300537109375,1.130020141601562
201232,-1.0462646484375,0.5204925537109375,1.021652221679688
201233,-1.000503540039062,0.356536865234375,0.86395263671875
201234,-0.9046783447265624,0.2807159423828125,0.69366455078125
201235,-0.720062255859375,0.261383056640625,0.491180419921875
201236,-0.447967529296875,0.20404052734375,0.247589111328125
201237,-0.177093505859375,0.0660552978515625,0.000946044921875
201238,-0.002349853515625,-0.1044769287109375,-0.217376708984375
201239,0.044525146484375,-0.2378082275390625,-0.372955322265625
201240,0.0003814697265625,-0.3087158203125,-0.408782958984375
201241,-0.07696533203125,-0.3300933837890625,-0.397857666015625
201242,-0.109405517578125,-0.315399169921875,-0.3318939208984375
201243,-0.056976318359375,-0.3463134765625,-0.2216033935546875
201244,0.0938568115234375,-0.3698272705078125,-0.068023681640625
201245,0.3512420654296875,-0.168975830078125,0.1334381103515625
201246,0.690673828125,0.284759521484375,0.2304534912109375
201247,0.91326904296875,0.460113525390625,0.074737548828125
201248,0.863616943359375,0.248443603515625,-0.0976715087890625
201249,0.6491241455078125,0.165008544921875,-0.1179351806640625
201250,0.4273834228515625,0.2487335205078125,0.170166015625
201251,0.2541656494140625,0.3488006591796875,0.6524505615234375
201252,0.1899566650390625,0.6123199462890625,1.01177978515625
201253,0.292694091796875,1.085922241210938,1.889511108398438
201254,0.6293792724609375,1.673995971679688,2.459396362304688
201255,1.396286010742188,2.384307861328125,1.5789794921875
201256,0.9141998291015624,2.979812622070312,1.353271484375
201257,-0.3594970703125,2.754791259765625,1.88775634765625
201258,-1.073135375976562,2.4129638671875,1.9901123046875
201259,-0.965545654296875,1.752838134765625,1.530792236328125
201260,-0.57537841796875,0.989227294921875,1.168991088867188
201261,-0.348602294921875,0.7423858642578125,1.133010864257812
201262,-0.3589935302734375,0.87432861328125,1.25555419921875
201263,-0.5807647705078125,0.969757080078125,1.3465576171875
201264,-0.777008056640625,0.9004974365234375,1.38458251953125
201265,-0.7471466064453125,0.7529449462890625,1.277175903320312
201266,-0.6317901611328125,0.6652069091796875,1.119461059570312
201267,-0.6199798583984375,0.6237335205078125,1.015960693359375
201268,-0.7333221435546875,0.516876220703125,0.950103759765625
201269,-0.835662841796875,0.394500732421875,0.9024810791015624
201270,-0.8597869873046875,0.270111083984375,0.7530364990234375
201271,-0.748626708984375,0.1324615478515625,0.5124359130859375
201272,-0.5021209716796875,-0.0455780029296875,0.2372589111328125
201273,-0.1728973388671875,-0.2552947998046875,0.031005859375
201274,0.162322998046875,-0.3446807861328125,-0.13873291015625
201275,0.412139892578125,-0.268035888671875,-0.2664337158203125
201276,0.4957122802734375,-0.242645263671875,-0.347137451171875
201277,0.4062957763671875,-0.3936920166015625,-0.312225341796875
201278,0.245880126953125,-0.4936676025390625,-0.134674072265625
201279,0.138824462890625,-0.334381103515625,0.0487518310546875
201280,0.1212158203125,-0.1755218505859375,0.0912322998046875
201281,0.1254425048828125,-0.016693115234375,0.0171356201171875
201282,0.0291900634765625,0.1898193359375,-0.0279998779296875
201283,-0.1268157958984375,0.3416900634765625,0.1310882568359375
201284,-0.2296142578125,0.5746307373046875,0.2960968017578125
201285,-0.2125244140625,0.9343414306640624,0.3763427734375
201286,-0.0761260986328125,1.255462646484375,0.421783447265625
201287,0.373443603515625,1.008636474609375,0.94085693359375
201288,1.619735717773438,0.9854736328125,1.109054565429688
201289,2.282821655273438,2.263916015625,1.501190185546875
201290,2.177902221679688,3.22308349609375,2.174758911132812
201291,1.459060668945312,3.012893676757812,1.802520751953125
201292,0.5690765380859375,1.97216796875,1.33966064453125
201293,-0.0493011474609375,1.463363647460938,1.247268676757812
201294,-0.470977783203125,1.356094360351562,1.336196899414062
201295,-0.4108123779296875,1.311325073242188,1.377716064453125
201296,-0.2046356201171875,1.19635009765625,1.396713256835938
201297,-0.1889495849609375,1.039566040039062,1.321197509765625
201298,-0.2001800537109375,0.839141845703125,1.12298583984375
201299,-0.0805511474609375,0.70880126953125,1.035003662109375
201300,-0.0359954833984375,0.706207275390625,1.14495849609375
201301,-0.254241943359375,0.753387451171875,1.223175048828125
201302,-0.5549774169921875,0.77752685546875,1.13946533203125
201303,-0.750701904296875,0.7518310546875,0.9723052978515624
201304,-0.841888427734375,0.6992950439453125,0.8066253662109375
201305,-0.9040985107421876,0.57708740234375,0.61724853515625
201306,-0.88079833984375,0.382110595703125,0.3975982666015625
201307,-0.7353973388671875,0.1883544921875,0.229461669921875
201308,-0.517852783203125,0.0144195556640625,0.126953125
201309,-0.3251495361328125,-0.0883941650390625,0.0275115966796875
201310,-0.1788330078125,-0.1063385009765625,-0.10107421875
201311,-0.0611419677734375,-0.1395111083984375,-0.1924285888671875
201312,0.0361175537109375,-0.196533203125,-0.2106781005859375
201313,0.0909576416015625,-0.2443389892578125,-0.23260498046875
201314,0.116668701171875,-0.3076324462890625,-0.2104949951171875
201315,0.123565673828125,-0.364013671875,-0.1221923828125
201316,0.1442108154296875,-0.328460693359375,-0.011810302734375
201317,0.186370849609375,-0.202392578125,0.0859375
201318,0.211578369140625,-0.1424102783203125,0.1573028564453125
201319,0.2097625732421875,0.0016937255859375,0.2805023193359375
201320,0.1333160400390625,0.170623779296875,0.41162109375
201321,0.04071044921875,0.3441314697265625,0.695831298828125
201322,-0.0098114013671875,0.5576019287109375,0.984405517578125
201323,0.0365142822265625,0.8556365966796875,1.129806518554688
201324,0.2808074951171875,1.128387451171875,1.504196166992188
201325,0.4994659423828125,1.524887084960938,2.208694458007812
201326,1.474151611328125,1.807785034179688,1.385391235351562
201327,2.058609008789062,2.6002197265625,1.288558959960938
201328,0.74017333984375,2.882965087890625,1.809371948242188
201329,-0.33740234375,2.6514892578125,1.9261474609375
201330,-0.4041900634765625,2.021347045898438,1.943084716796875
201331,-0.2308197021484375,1.421966552734375,1.70013427734375
201332,-0.2908477783203125,1.060150146484375,1.378005981445312
201333,-0.48394775390625,0.850250244140625,1.33502197265625
201334,-0.662109375,0.802093505859375,1.371109008789062
201335,-0.848236083984375,0.7461395263671875,1.324325561523438
201336,-0.9580230712890624,0.7038116455078125,1.206436157226562
201337,-1.00115966796875,0.6361846923828125,1.0205078125
201338,-1.094894409179688,0.4895172119140625,0.85614013671875
201339,-1.223480224609375,0.2892303466796875,0.7425537109375
201340,-1.297409057617188,0.0479736328125,0.591033935546875
201341,-1.205856323242188,-0.0794677734375,0.37689208984375
201342,-0.944671630859375,-0.091064453125,0.1547698974609375
201343,-0.6458587646484375,-0.06597900390625,-0.057464599609375
201344,-0.3624267578125,-0.070159912109375,-0.2051239013671875
201345,-0.12933349609375,-0.1610260009765625,-0.3162841796875
201346,0.0551300048828125,-0.27154541015625,-0.3797760009765625
201347,0.18310546875,-0.3545684814453125,-0.438812255859375
201348,0.2362518310546875,-0.3794403076171875,-0.4330596923828125
201349,0.291473388671875,-0.3360443115234375,-0.22637939453125
201350,0.3652496337890625,-0.1753997802734375,0.1290740966796875
201351,0.40997314453125,0.0333099365234375,0.3084564208984375
201352,0.3820037841796875,0.1183624267578125,0.09912109375
201353,0.29095458984375,0.09710693359375,-0.0861663818359375
201354,0.1464385986328125,0.1414031982421875,-0.01513671875
201355,-0.026641845703125,0.3255462646484375,0.1960296630859375
201356,-0.19390869140625,0.557403564453125,0.4238739013671875
201357,-0.30096435546875,0.799652099609375,0.5994415283203125
201358,-0.27996826171875,0.918975830078125,0.875518798828125
201359,-0.0830078125,0.92791748046875,1.782363891601562
201360,0.9306488037109376,1.196029663085938,1.583023071289062
201361,2.304611206054688,2.440963745117188,1.194091796875
201362,1.930374145507812,3.013702392578125,1.984970092773438
201363,0.35906982421875,2.69183349609375,2.116897583007812
201364,-0.1843109130859375,2.057098388671875,2.146713256835938
201365,-0.16375732421875,1.76019287109375,1.81182861328125
201366,-0.336090087890625,1.458663940429688,1.357101440429688
201367,-0.5752716064453125,1.186233520507812,1.3094482421875
201368,-0.528564453125,1.120513916015625,1.484329223632812
201369,-0.4104461669921875,1.14141845703125,1.492996215820312
201370,-0.358001708984375,1.142837524414062,1.389312744140625
201371,-0.350189208984375,1.05914306640625,1.215179443359375
201372,-0.4023590087890625,0.9207916259765624,1.10479736328125
201373,-0.5590057373046875,0.7847747802734375,1.07025146484375
201374,-0.7745513916015625,0.6912689208984375,1.021514892578125
201375,-0.929473876953125,0.6373748779296875,0.922882080078125
201376,-0.956146240234375,0.487335205078125,0.7321319580078125
201377,-0.8724822998046875,0.2694091796875,0.4676971435546875
201378,-0.6825408935546875,0.0814666748046875,0.1620025634765625
201379,-0.4139404296875,-0.0757293701171875,-0.050872802734375
201380,-0.17877197265625,-0.1810455322265625,-0.163330078125
201381,-0.0393829345703125,-0.1753082275390625,-0.229400634765625
201382,0.00091552734375,-0.1456451416015625,-0.324249267578125
201383,-0.040496826171875,-0.1895599365234375,-0.384613037109375
201384,-0.12237548828125,-0.2417144775390625,-0.3831024169921875
201385,-0.171234130859375,-0.2549591064453125,-0.3416595458984375
201386,-0.139312744140625,-0.277984619140625,-0.2520599365234375
201387,-0.0268096923828125,-0.2862396240234375,-0.101837158203125
201388,0.12591552734375,-0.1623077392578125,0.0916290283203125
201389,0.256500244140625,0.135955810546875,0.2168426513671875
201390,0.3236541748046875,0.2874755859375,0.2802886962890625
201391,0.29278564453125,0.2954254150390625,0.440765380859375
201392,0.188690185546875,0.456329345703125,0.6806793212890625
201393,0.1035919189453125,0.819732666015625,1.004638671875
201394,0.1465911865234375,1.110519409179688,1.185684204101562
201395,0.165283203125,1.346282958984375,1.611526489257812
201396,0.6134033203125,1.344223022460938,1.315902709960938
201397,1.933273315429688,1.654342651367188,1.150787353515625
201398,1.561080932617188,2.346603393554688,1.724029541015625
201399,0.0747833251953125,2.619796752929688,1.869308471679688
201400,-0.59332275390625,2.381668090820312,1.835174560546875
201401,-0.588165283203125,1.725662231445312,1.55059814453125
201402,-0.4651031494140625,1.107894897460938,1.196807861328125
201403,-0.4502716064453125,0.86724853515625,1.048080444335938
201404,-0.4404449462890625,1.017181396484375,1.138458251953125
201405,-0.413177490234375,1.125579833984375,1.29791259765625
201406,-0.364898681640625,1.074951171875,1.394195556640625
201407,-0.2761688232421875,0.993316650390625,1.355621337890625
201408,-0.273406982421875,0.8910369873046875,1.269287109375
201409,-0.49249267578125,0.7660064697265625,1.17718505859375
201410,-0.8923492431640625,0.6239776611328125,1.033218383789062
201411,-1.263717651367188,0.4263763427734375,0.840301513671875
201412,-1.396697998046875,0.3145599365234375,0.6647796630859375
201413,-1.232940673828125,0.2639923095703125,0.453948974609375
201414,-0.91168212890625,0.196990966796875,0.127227783203125
201415,-0.569091796875,0.100799560546875,-0.1790924072265625
201416,-0.2554779052734375,-0.0013885498046875,-0.2841796875
201417,-0.035980224609375,-0.089752197265625,-0.3353271484375
201418,0.079315185546875,-0.1847076416015625,-0.367950439453125
201419,0.0994720458984375,-0.300872802734375,-0.34027099609375
201420,0.0750274658203125,-0.398101806640625,-0.204132080078125
201421,0.1399383544921875,-0.3523406982421875,0.044189453125
201422,0.2908477783203125,-0.1317138671875,0.346038818359375
201423,0.4149627685546875,0.1103973388671875,0.46185302734375
201424,0.3558807373046875,0.1567230224609375,0.0120391845703125
201425,0.204620361328125,0.0361328125,-0.3988189697265625
201426,0.0386962890625,-0.0186309814453125,-0.2867279052734375
201427,-0.165985107421875,0.055145263671875,0.0178070068359375
201428,-0.347900390625,0.2123260498046875,0.2513275146484375
201429,-0.3755340576171875,0.4208831787109375,0.3554840087890625
201430,-0.1843109130859375,0.7110443115234375,0.552398681640625
201431,0.200836181640625,0.97064208984375,1.02227783203125
201432,0.9628143310546876,1.1650390625,2.170028686523438
201433,2.399551391601562,1.701553344726562,1.424713134765625
201434,2.86749267578125,2.960525512695312,1.121246337890625
201435,1.432205200195312,3.34979248046875,2.198135375976562
201436,-0.241607666015625,2.5267333984375,2.436752319335938
201437,-0.6867828369140625,1.942184448242188,1.957992553710938
201438,-0.6350250244140625,1.735595703125,1.34197998046875
201439,-0.873077392578125,1.398468017578125,1.192855834960938
201440,-0.924896240234375,1.178955078125,1.46014404296875
201441,-0.702606201171875,1.096420288085938,1.596206665039062
201442,-0.532135009765625,1.107009887695312,1.609146118164062
201443,-0.3354949951171875,1.075408935546875,1.486572265625
201444,-0.227447509765625,0.8341522216796875,1.304779052734375
201445,-0.43646240234375,0.6242523193359375,1.201797485351562
201446,-0.84014892578125,0.59039306640625,1.126205444335938
201447,-1.149185180664062,0.5476531982421875,1.083694458007812
201448,-1.270889282226562,0.3803558349609375,0.96240234375
201449,-1.1614990234375,0.1776580810546875,0.6612396240234375
201450,-0.8888397216796875,0.0801849365234375,0.25885009765625
201451,-0.56842041015625,0.0428466796875,-0.073638916015625
201452,-0.2747955322265625,-0.0267181396484375,-0.24163818359375
201453,-0.0745086669921875,-0.09259033203125,-0.3485870361328125
201454,-0.05291748046875,-0.1445465087890625,-0.505523681640625
201455,-0.151336669921875,-0.1768951416015625,-0.5465240478515625
201456,-0.24945068359375,-0.22113037109375,-0.466400146484375
201457,-0.2817230224609375,-0.2822418212890625,-0.3487701416015625
201458,-0.21630859375,-0.3511505126953125,-0.2108917236328125
201459,-0.0531158447265625,-0.3797607421875,-0.0621795654296875
201460,0.1523590087890625,-0.2816314697265625,0.061004638671875
201461,0.28143310546875,-0.0096893310546875,0.0807647705078125
201462,0.290130615234375,0.159942626953125,0.0384063720703125
201463,0.232940673828125,0.167724609375,0.074554443359375
201464,0.10614013671875,0.263519287109375,0.2744293212890625
201465,-0.0839996337890625,0.543975830078125,0.692138671875
201466,-0.1925201416015625,0.9436798095703124,1.210952758789062
201467,-0.1141815185546875,1.20379638671875,1.585128784179688
201468,0.0001373291015625,1.4105224609375,2.101654052734375
201469,1.44366455078125,1.420120239257812,0.6812591552734375
201470,2.61309814453125,2.339675903320312,1.021896362304688
201471,1.180038452148438,2.747940063476562,2.056869506835938
201472,-0.172027587890625,2.60601806640625,1.871719360351562
201473,-0.307708740234375,2.094451904296875,1.662704467773438
201474,-0.1656341552734375,1.455108642578125,1.36126708984375
201475,-0.1655731201171875,0.9636077880859376,1.2230224609375
201476,-0.305908203125,0.9281158447265624,1.276351928710938
201477,-0.3797760009765625,1.121795654296875,1.420822143554688
201478,-0.363250732421875,1.22247314453125,1.522537231445312
201479,-0.3727874755859375,1.238189697265625,1.429763793945312
201480,-0.493743896484375,1.093734741210938,1.24053955078125
201481,-0.7004547119140625,0.8888397216796875,1.1593017578125
201482,-0.9724578857421876,0.72576904296875,1.135757446289062
201483,-1.281707763671875,0.572906494140625,1.036483764648438
201484,-1.4197998046875,0.518341064453125,0.8887786865234375
201485,-1.2919921875,0.51629638671875,0.725860595703125
201486,-1.040756225585938,0.3732757568359375,0.416351318359375
201487,-0.75537109375,0.20672607421875,0.028778076171875
201488,-0.4298248291015625,0.029815673828125,-0.1925201416015625
201489,-0.138824462890625,-0.133544921875,-0.2318572998046875
201490,0.052978515625,-0.271881103515625,-0.2500762939453125
201491,0.1745758056640625,-0.3435516357421875,-0.2384033203125
201492,0.207763671875,-0.3689422607421875,-0.2051544189453125
201493,0.2296142578125,-0.3205108642578125,-0.05303955078125
201494,0.289581298828125,-0.1573486328125,0.1513824462890625
201495,0.4190521240234375,0.071533203125,0.2403564453125
201496,0.4978179931640625,0.198577880859375,-0.10137939453125
201497,0.40582275390625,0.065704345703125,-0.40167236328125
201498,0.2258453369140625,-0.0288848876953125,-0.3016204833984375
201499,0.0362091064453125,0.1051177978515625,0.029022216796875
201500,-0.068572998046875,0.324676513671875,0.3295745849609375
201501,0.0460357666015625,0.48040771484375,0.4865264892578125
201502,0.3249053955078125,0.641845703125,0.5091705322265625
201503,0.517822265625,0.7080535888671875,0.5549163818359375
201504,0.7996673583984375,0.721405029296875,1.357254028320312
201505,1.417388916015625,1.370834350585938,1.33856201171875
201506,1.864593505859375,2.50518798828125,1.520095825195312
201507,1.345794677734375,2.926498413085938,1.957061767578125
201508,0.072265625,2.321380615234375,2.047012329101562
201509,-0.7477569580078125,1.781890869140625,1.822174072265625
201510,-0.9127197265625,1.668624877929688,1.553482055664062
201511,-0.996826171875,1.453353881835938,1.4853515625
201512,-0.859344482421875,1.256317138671875,1.655990600585938
201513,-0.589935302734375,1.144927978515625,1.733291625976562
201514,-0.499420166015625,1.119735717773438,1.671310424804688
201515,-0.446380615234375,1.072982788085938,1.597610473632812
201516,-0.4883270263671875,0.905426025390625,1.448806762695312
201517,-0.7657623291015625,0.802276611328125,1.3223876953125
201518,-1.1318359375,0.839019775390625,1.242034912109375
201519,-1.39031982421875,0.8152008056640625,1.118804931640625
201520,-1.474075317382812,0.6891326904296875,0.928436279296875
201521,-1.393173217773438,0.60369873046875,0.6822662353515625
201522,-1.124786376953125,0.53192138671875,0.4271697998046875
201523,-0.7541961669921875,0.3805389404296875,0.1605377197265625
201524,-0.4131317138671875,0.1666107177734375,-0.1273956298828125
201525,-0.1471405029296875,-0.0665435791015625,-0.2904205322265625
201526,0.0238800048828125,-0.241607666015625,-0.2915802001953125
201527,0.12359619140625,-0.2947235107421875,-0.209625244140625
201528,0.1982574462890625,-0.26458740234375,-0.163238525390625
201529,0.31353759765625,-0.1971282958984375,0.000823974609375
201530,0.49951171875,-0.112945556640625,-0.073150634765625
201531,0.542572021484375,0.049102783203125,-0.3773956298828125
201532,0.4071197509765625,0.12158203125,-0.3876800537109375
201533,0.3124542236328125,0.075927734375,-0.222137451171875
201534,0.273712158203125,0.13812255859375,-0.150634765625
201535,0.2228240966796875,0.2331085205078125,-0.1259307861328125
201536,0.18048095703125,0.4016265869140625,0.050506591796875
201537,0.1158447265625,0.6669769287109375,0.4458465576171875
201538,0.124237060546875,1.027923583984375,0.874969482421875
201539,0.44537353515625,1.382186889648438,1.258041381835938
201540,1.097076416015625,1.386993408203125,1.195510864257812
201541,1.878936767578125,1.394683837890625,1.089996337890625
201542,1.674942016601562,1.777877807617188,1.565353393554688
201543,0.6296539306640625,1.9364013671875,1.787033081054688
201544,-0.222625732421875,1.824554443359375,1.693954467773438
201545,-0.5887298583984375,1.65301513671875,1.405548095703125
201546,-0.503570556640625,1.33880615234375,1.293289184570312
201547,-0.357269287109375,1.064407348632812,1.359573364257812
201548,-0.3255767822265625,1.056747436523438,1.507354736328125
201549,-0.304901123046875,1.158859252929688,1.576248168945312
201550,-0.308441162109375,1.106307983398438,1.51470947265625
201551,-0.3954620361328125,0.9345550537109376,1.441482543945312
201552,-0.5752410888671875,0.8349761962890625,1.406600952148438
201553,-0.8276214599609375,0.8008880615234375,1.329116821289062
201554,-1.142974853515625,0.7373046875,1.266159057617188
201555,-1.41912841796875,0.699462890625,1.179611206054688
201556,-1.485427856445312,0.6408538818359375,1.003326416015625
201557,-1.376007080078125,0.46002197265625,0.794036865234375
201558,-1.159637451171875,0.390411376953125,0.594024658203125
201559,-0.8305206298828125,0.403076171875,0.3288726806640625
201560,-0.462066650390625,0.3281402587890625,0.0523834228515625
201561,-0.0923614501953125,0.2013397216796875,-0.1361846923828125
201562,0.2213134765625,-0.00823974609375,-0.2477264404296875
201563,0.421844482421875,-0.284393310546875,-0.27301025390625
201564,0.515899658203125,-0.430450439453125,-0.1725311279296875
201565,0.56390380859375,-0.4019927978515625,-0.0482635498046875
201566,0.601287841796875,-0.2411651611328125,-0.0140533447265625
201567,0.626312255859375,-0.0769805908203125,-0.029022216796875
201568,0.5521087646484375,-0.0063018798828125,-0.0731048583984375
201569,0.3931732177734375,-0.0637969970703125,-0.1525726318359375
201570,0.1803436279296875,-0.11419677734375,-0.2114715576171875
201571,0.01922607421875,0.02978515625,-0.1695098876953125
201572,-0.022552490234375,0.1974639892578125,-0.032562255859375
201573,0.0030364990234375,0.3320770263671875,0.2294921875
201574,0.01446533203125,0.41876220703125,0.4334716796875
201575,0.0148773193359375,0.5027618408203125,0.5188446044921875
201576,0.052154541015625,0.7479705810546875,0.534515380859375
201577,0.0286712646484375,1.034957885742188,1.018707275390625
201578,0.1451263427734375,1.334197998046875,1.851531982421875
201579,1.279937744140625,1.516677856445312,1.578292846679688
201580,1.911697387695312,2.285476684570312,1.491928100585938
201581,0.8342742919921875,2.9718017578125,1.907882690429688
201582,-0.4084930419921875,2.824005126953125,2.304885864257812
201583,-0.8702545166015625,2.290512084960938,2.026443481445312
201584,-0.836181640625,1.70458984375,1.46221923828125
201585,-0.81036376953125,1.260238647460938,1.3673095703125
201586,-0.7691497802734375,1.023239135742188,1.474624633789062
201587,-0.6029510498046875,1.037704467773438,1.525787353515625
201588,-0.344482421875,1.09033203125,1.495147705078125
201589,-0.159027099609375,1.03680419921875,1.377471923828125
201590,-0.1593170166015625,0.8906097412109375,1.208023071289062
201591,-0.371673583984375,0.750152587890625,1.081390380859375
201592,-0.6312255859375,0.6318511962890625,0.975189208984375
201593,-0.7929229736328125,0.5383453369140625,0.802154541015625
201594,-0.7839202880859375,0.421356201171875,0.564208984375
201595,-0.6304473876953125,0.2832183837890625,0.2809295654296875
201596,-0.420928955078125,0.1492156982421875,0.026885986328125
201597,-0.2126922607421875,0.0146026611328125,-0.1726837158203125
201598,-0.0676116943359375,-0.0467987060546875,-0.2819976806640625
201599,-0.0247039794921875,-0.08905029296875,-0.3253173828125
201600,-0.0592193603515625,-0.2024688720703125,-0.3634033203125
201601,-0.0839385986328125,-0.2951202392578125,-0.3609466552734375
201602,-0.0817718505859375,-0.36572265625,-0.3081207275390625
201603,-0.0240325927734375,-0.4275970458984375,-0.1746063232421875
201604,0.0685272216796875,-0.382293701171875,0.00494384765625
201605,0.207275390625,-0.158538818359375,0.1482391357421875
201606,0.30084228515625,0.085968017578125,0.11993408203125
201607,0.2505950927734375,0.1253814697265625,0.071319580078125
201608,0.08343505859375,0.1453857421875,0.162109375
201609,-0.1066436767578125,0.3120574951171875,0.438232421875
201610,-0.277679443359375,0.5981903076171875,0.7401580810546875
201611,-0.2648468017578125,0.96734619140625,1.244964599609375
201612,0.2671661376953125,1.521697998046875,2.116775512695312
201613,2.00665283203125,1.761459350585938,1.485549926757812
201614,3.371246337890625,2.55450439453125,1.195648193359375
201615,1.638275146484375,2.816070556640625,1.599853515625
201616,-0.3978729248046875,2.12005615234375,1.680023193359375
201617,-1.05364990234375,1.7147216796875,1.679306030273438
201618,-0.843353271484375,1.336456298828125,1.283645629882812
201619,-0.40008544921875,1.012130737304688,1.009185791015625
201620,-0.205230712890625,1.044570922851562,1.139907836914062
201621,-0.0868988037109375,1.196609497070312,1.448776245117188
201622,0.077239990234375,1.256500244140625,1.521591186523438
201623,0.172210693359375,1.184783935546875,1.35528564453125
201624,0.209442138671875,1.019287109375,1.198272705078125
201625,0.1265869140625,0.8590240478515625,1.159530639648438
201626,-0.19891357421875,0.7925567626953125,1.190567016601562
201627,-0.6846923828125,0.78753662109375,1.179916381835938
201628,-1.141082763671875,0.77667236328125,1.104156494140625
201629,-1.409622192382812,0.7626190185546875,0.9412689208984376
201630,-1.355331420898438,0.68365478515625,0.685821533203125
201631,-1.107772827148438,0.47601318359375,0.4029541015625
201632,-0.798980712890625,0.284942626953125,0.0926513671875
201633,-0.4565582275390625,0.138214111328125,-0.1453094482421875
201634,-0.1571807861328125,0.0205078125,-0.2535400390625
201635,0.0294647216796875,-0.15045166015625,-0.279144287109375
201636,0.11773681640625,-0.337249755859375,-0.262237548828125
201637,0.1282501220703125,-0.4300689697265625,-0.2413177490234375
201638,0.146484375,-0.367889404296875,-0.1295013427734375
201639,0.2260284423828125,-0.1916046142578125,0.096405029296875
201640,0.35198974609375,0.0234527587890625,0.2540435791015625
201641,0.39752197265625,0.124359130859375,0.01751708984375
201642,0.2505035400390625,0.02154541015625,-0.2536163330078125
201643,0.0543212890625,-0.040924072265625,-0.1974029541015625
201644,-0.1080169677734375,0.0471649169921875,0.0518035888671875
201645,-0.2619171142578125,0.2384033203125,0.3684844970703125
201646,-0.327667236328125,0.4887542724609375,0.575408935546875
201647,-0.225250244140625,0.8269805908203125,0.6243896484375
201648,0.0739898681640625,1.038116455078125,0.8591766357421875
201649,0.6398162841796875,0.9882354736328124,1.870208740234375
201650,2.041244506835938,0.9842376708984376,1.2431640625
201651,2.682327270507812,2.078109741210938,1.337554931640625
201652,1.304443359375,2.704116821289062,2.079483032226562
201653,-0.0352935791015625,2.439849853515625,2.241867065429688
201654,-0.383056640625,2.05755615234375,1.955047607421875
201655,-0.4276580810546875,1.729690551757812,1.448806762695312
201656,-0.7353973388671875,1.3084716796875,1.282073974609375
201657,-0.792633056640625,1.023590087890625,1.429107666015625
201658,-0.640533447265625,0.9127655029296876,1.530303955078125
201659,-0.5112762451171875,0.9558258056640624,1.497161865234375
201660,-0.291534423828125,0.986724853515625,1.427215576171875
201661,-0.165985107421875,0.8889923095703125,1.330718994140625
201662,-0.3153839111328125,0.8167572021484375,1.243392944335938
201663,-0.5974578857421875,0.8224029541015625,1.120407104492188
201664,-0.7774200439453125,0.795745849609375,0.9970855712890624
201665,-0.8371734619140625,0.6131744384765625,0.812255859375
201666,-0.7938995361328125,0.40435791015625,0.5825958251953125
201667,-0.6671142578125,0.28411865234375,0.2914276123046875
201668,-0.50177001953125,0.1811676025390625,0.027618408203125
201669,-0.315185546875,0.0108642578125,-0.13140869140625
201670,-0.1346435546875,-0.1491546630859375,-0.226898193359375
201671,-0.0407257080078125,-0.236053466796875,-0.277923583984375
201672,-0.0045318603515625,-0.23138427734375,-0.250457763671875
201673,0.0196685791015625,-0.1910552978515625,-0.2140960693359375
201674,0.025115966796875,-0.20220947265625,-0.2015838623046875
201675,0.0242156982421875,-0.2640533447265625,-0.14947509765625
201676,0.0502471923828125,-0.2935333251953125,-0.119110107421875
201677,0.1208038330078125,-0.1875152587890625,-0.099212646484375
201678,0.1882171630859375,0.0670166015625,-0.0669097900390625
201679,0.1998443603515625,0.1867218017578125,-0.03253173828125
201680,0.131317138671875,0.1805572509765625,0.0539703369140625
201681,-0.0224609375,0.3067474365234375,0.2469940185546875
201682,-0.2081146240234375,0.5635528564453125,0.5513153076171875
201683,-0.3113555908203125,0.8310089111328125,0.8257904052734375
201684,-0.17523193359375,1.105560302734375,1.4393310546875
201685,0.394561767578125,1.364120483398438,2.090240478515625
201686,2.23309326171875,1.415740966796875,1.06817626953125
201687,2.99688720703125,2.209915161132812,1.182479858398438
201688,1.264785766601562,2.601181030273438,1.669296264648438
201689,-0.285675048828125,2.28546142578125,1.817611694335938
201690,-0.6746368408203125,1.832382202148438,1.626388549804688
201691,-0.47314453125,1.288742065429688,1.255355834960938
201692,-0.3645172119140625,1.005111694335938,1.126510620117188
201693,-0.4550323486328125,1.137969970703125,1.25311279296875
201694,-0.435638427734375,1.264144897460938,1.5216064453125
201695,-0.307373046875,1.240158081054688,1.67620849609375
201696,-0.1894378662109375,1.161972045898438,1.571182250976562
201697,-0.1661529541015625,1.017105102539062,1.398239135742188
201698,-0.313446044921875,0.8709259033203125,1.262710571289062
201699,-0.6329193115234375,0.765411376953125,1.172500610351562
201700,-1.009979248046875,0.68206787109375,1.065353393554688
201701,-1.266265869140625,0.6746978759765625,0.9466400146484376
201702,-1.21588134765625,0.6754150390625,0.777923583984375
201703,-0.941009521484375,0.4781341552734375,0.5292510986328125
201704,-0.6259002685546875,0.2188873291015625,0.1646881103515625
201705,-0.328887939453125,0.0184478759765625,-0.129791259765625
201706,-0.08892822265625,-0.1012725830078125,-0.22784423828125
201707,0.0648040771484375,-0.2111968994140625,-0.2659149169921875
201708,0.136566162109375,-0.3314971923828125,-0.3198089599609375
201709,0.157989501953125,-0.3546295166015625,-0.30206298828125
201710,0.1710205078125,-0.3298492431640625,-0.2021331787109375
201711,0.2028656005859375,-0.23052978515625,-0.077667236328125
201712,0.2606658935546875,-0.018707275390625,0.042022705078125
201713,0.326080322265625,0.144561767578125,0.109405517578125
201714,0.3153228759765625,0.1395721435546875,0.0071563720703125
201715,0.2082672119140625,0.082794189453125,0.000518798828125
201716,0.0411529541015625,0.134979248046875,0.2190399169921875
201717,-0.1201324462890625,0.3220977783203125,0.420166015625
201718,-0.1489105224609375,0.6172943115234375,0.547821044921875
201719,-0.0077362060546875,0.866607666015625,0.5004119873046875
201720,0.2073211669921875,0.9939422607421876,0.9585113525390624
201721,0.97955322265625,1.16717529296875,1.584197998046875
201722,2.336685180664062,2.185226440429688,1.705764770507812
201723,2.347061157226562,3.06060791015625,1.816024780273438
201724,0.7938995361328125,2.654190063476562,1.69696044921875
201725,-0.3227386474609375,1.766326904296875,1.79248046875
201726,-0.63775634765625,1.562301635742188,1.705047607421875
201727,-0.6631011962890625,1.321365356445312,1.382568359375
201728,-0.7622833251953125,1.108261108398438,1.292236328125
201729,-0.8152008056640625,1.061691284179688,1.393600463867188
201730,-0.6681671142578125,1.032333374023438,1.489151000976562
201731,-0.483062744140625,1.044509887695312,1.497634887695312
201732,-0.3113555908203125,1.035202026367188,1.510025024414062
201733,-0.2917938232421875,0.968048095703125,1.47283935546875
201734,-0.4955291748046875,0.9007720947265624,1.376068115234375
201735,-0.79119873046875,0.8615875244140625,1.2220458984375
201736,-1.03045654296875,0.8504486083984375,1.137451171875
201737,-1.147384643554688,0.74688720703125,1.078292846679688
201738,-1.119674682617188,0.483917236328125,0.8754119873046875
201739,-0.990234375,0.26397705078125,0.561126708984375
201740,-0.7743988037109375,0.139068603515625,0.2636566162109375
201741,-0.52972412109375,0.0454254150390625,0.0569000244140625
201742,-0.312652587890625,-0.026275634765625,-0.13323974609375
201743,-0.136444091796875,-0.091949462890625,-0.31536865234375
201744,-0.0424041748046875,-0.169586181640625,-0.431854248046875
201745,-0.02337646484375,-0.2243194580078125,-0.4556884765625
201746,-0.026275634765625,-0.232391357421875,-0.45013427734375
201747,-0.03155517578125,-0.2425384521484375,-0.4335479736328125
201748,-0.0084228515625,-0.29962158203125,-0.336700439453125
201749,0.0625152587890625,-0.31298828125,-0.1507568359375
201750,0.19622802734375,-0.13922119140625,0.0843353271484375
201751,0.3415985107421875,0.2014007568359375,0.1734161376953125
201752,0.3444976806640625,0.3374481201171875,0.1682891845703125
201753,0.22332763671875,0.325653076171875,0.2886962890625
201754,0.0575103759765625,0.4216461181640625,0.4965362548828125
201755,-0.1179962158203125,0.713623046875,0.69952392578125
201756,-0.159637451171875,0.9702911376953124,0.8133697509765625
201757,0.0911712646484375,1.14581298828125,1.338912963867188
201758,0.85296630859375,1.13287353515625,1.373260498046875
201759,2.094863891601562,1.558746337890625,1.074310302734375
201760,2.015350341796875,2.558425903320312,1.673629760742188
201761,0.6272735595703125,2.736404418945312,1.913101196289062
201762,-0.222442626953125,2.2061767578125,1.730880737304688
201763,-0.3274078369140625,1.630203247070312,1.445541381835938
201764,-0.2276458740234375,1.126373291015625,1.202865600585938
201765,-0.21929931640625,0.880889892578125,1.206329345703125
201766,-0.2169647216796875,0.90948486328125,1.299606323242188
201767,-0.147918701171875,0.9528961181640624,1.405303955078125
201768,-0.065032958984375,0.9277496337890624,1.441909790039062
201769,-0.037139892578125,0.8956756591796875,1.400558471679688
201770,-0.0904998779296875,0.854705810546875,1.376617431640625
201771,-0.324737548828125,0.796173095703125,1.355438232421875
201772,-0.77252197265625,0.754425048828125,1.35345458984375
201773,-1.208755493164062,0.6664581298828125,1.2230224609375
201774,-1.41796875,0.5586090087890625,1.025833129882812
201775,-1.369964599609375,0.45416259765625,0.8033294677734375
201776,-1.180130004882812,0.334259033203125,0.52960205078125
201777,-0.87298583984375,0.2502593994140625,0.2250213623046875
201778,-0.5377960205078125,0.160614013671875,-0.032989501953125
201779,-0.265960693359375,0.04718017578125,-0.18328857421875
201780,-0.065887451171875,-0.140899658203125,-0.3199310302734375
201781,0.0189056396484375,-0.3171234130859375,-0.3905487060546875
201782,0.0267181396484375,-0.392852783203125,-0.273193359375
201783,0.074676513671875,-0.3509979248046875,-0.0663299560546875
201784,0.2177886962890625,-0.220733642578125,0.1466217041015625
201785,0.3734588623046875,-0.0555572509765625,0.3509674072265625
201786,0.4569549560546875,0.0602569580078125,0.3161773681640625
201787,0.380889892578125,0.1102752685546875,-0.2078094482421875
201788,0.1781158447265625,0.0998687744140625,-0.383941650390625
201789,-0.13238525390625,0.149688720703125,-0.0603485107421875
201790,-0.4044647216796875,0.3617706298828125,0.29779052734375
201791,-0.506195068359375,0.7259063720703125,0.5159912109375
201792,-0.30255126953125,1.050125122070312,0.74267578125
201793,0.2958526611328125,1.101150512695312,1.318588256835938
201794,1.418365478515625,0.9664306640625,1.810302734375
201795,2.656219482421875,1.714584350585938,0.8802947998046875
201796,2.398422241210938,2.632904052734375,1.500381469726562
201797,0.7651214599609375,2.599517822265625,2.114517211914062
201798,-0.3661041259765625,1.982696533203125,1.99273681640625
201799,-0.553680419921875,1.611923217773438,1.542694091796875
201800,-0.6300811767578125,1.397720336914062,1.283050537109375
201801,-0.86651611328125,1.197418212890625,1.214553833007812
201802,-0.888641357421875,1.15478515625,1.298141479492188
201803,-0.719024658203125,1.177154541015625,1.365081787109375
201804,-0.57989501953125,1.164077758789062,1.341064453125
201805,-0.4603424072265625,1.063873291015625,1.290802001953125
201806,-0.4470062255859375,0.918212890625,1.219863891601562
201807,-0.5879364013671875,0.8518218994140625,1.0960693359375
201808,-0.755889892578125,0.814849853515625,0.9997100830078124
201809,-0.8658599853515625,0.7457733154296875,0.9059295654296876
201810,-0.95904541015625,0.61138916015625,0.769927978515625
201811,-0.9869537353515624,0.4515838623046875,0.5672149658203125
201812,-0.860595703125,0.3126220703125,0.2963714599609375
201813,-0.6195220947265625,0.1529083251953125,0.0705108642578125
201814,-0.3634796142578125,-0.049713134765625,-0.095794677734375
201815,-0.1497802734375,-0.2060394287109375,-0.2419281005859375
201816,-0.0395660400390625,-0.2346649169921875,-0.289764404296875
201817,0.0050506591796875,-0.1883087158203125,-0.235137939453125
201818,0.0728759765625,-0.1683807373046875,-0.135986328125
201819,0.1567230224609375,-0.1580657958984375,-0.026702880859375
201820,0.2172698974609375,-0.10137939453125,-0.0079803466796875
201821,0.225860595703125,-0.03363037109375,-0.0817108154296875
201822,0.171844482421875,-0.03564453125,-0.115631103515625
201823,0.120513916015625,0.03887939453125,-0.0290985107421875
201824,0.0994415283203125,0.1945648193359375,0.1832122802734375
201825,0.1216888427734375,0.468841552734375,0.5122222900390625
201826,0.1314544677734375,0.7712249755859375,0.869049072265625
201827,0.157318115234375,0.9456024169921876,1.061416625976562
201828,0.297760009765625,1.009323120117188,1.10198974609375
201829,0.8255157470703125,1.037521362304688,0.849334716796875
201830,1.579437255859375,1.46649169921875,0.920074462890625
201831,1.529022216796875,2.027313232421875,1.3660888671875
201832,0.740692138671875,2.073623657226562,1.321197509765625
201833,0.0148162841796875,1.730819702148438,1.324661254882812
201834,-0.475860595703125,1.286376953125,1.28216552734375
201835,-0.7388153076171875,1.042343139648438,1.0771484375
201836,-0.7858123779296875,1.033172607421875,0.967926025390625
201837,-0.636444091796875,1.19818115234375,1.156112670898438
201838,-0.3801727294921875,1.233901977539062,1.404815673828125
201839,-0.137237548828125,1.186630249023438,1.464279174804688
201840,-0.013458251953125,1.119613647460938,1.37225341796875
201841,-0.0110321044921875,1.000137329101562,1.247787475585938
201842,-0.1493988037109375,0.903350830078125,1.204132080078125
201843,-0.49102783203125,0.85052490234375,1.267044067382812
201844,-0.8779296875,0.913238525390625,1.272552490234375
201845,-1.149673461914062,0.9757080078125,1.13421630859375
201846,-1.227996826171875,0.8641815185546875,0.9814605712890624
201847,-1.128555297851562,0.590667724609375,0.8355865478515625
201848,-0.895904541015625,0.37799072265625,0.630279541015625
201849,-0.5294189453125,0.2951812744140625,0.402923583984375
201850,-0.1248321533203125,0.1767578125,0.1936187744140625
201851,0.2458953857421875,-0.0125732421875,-0.0163421630859375
201852,0.520965576171875,-0.204925537109375,-0.147705078125
201853,0.625701904296875,-0.352630615234375,-0.1744384765625
201854,0.6061553955078125,-0.339874267578125,-0.1349639892578125
201855,0.5761566162109375,-0.1893310546875,-0.1032562255859375
201856,0.527099609375,-0.0660552978515625,-0.1436309814453125
201857,0.38458251953125,-0.083251953125,-0.251251220703125
201858,0.185821533203125,-0.2084197998046875,-0.2374114990234375
201859,-0.0200653076171875,-0.2036285400390625,-0.0074615478515625
201860,-0.2222900390625,-0.066986083984375,0.223541259765625
201861,-0.387725830078125,0.1739349365234375,0.3063507080078125
201862,-0.4769744873046875,0.482696533203125,0.2876129150390625
201863,-0.4609527587890625,0.741943359375,0.3271026611328125
201864,-0.321502685546875,0.866607666015625,0.50048828125
201865,0.09259033203125,1.056350708007812,1.233261108398438
201866,1.042648315429688,1.207382202148438,2.008468627929688
201867,2.163009643554688,1.942520141601562,1.508895874023438
201868,2.048538208007812,2.714370727539062,1.196624755859375
201869,0.7564697265625,2.586502075195312,1.688278198242188
201870,-0.445587158203125,2.124481201171875,2.157150268554688
201871,-0.8574981689453125,1.819747924804688,1.88323974609375
201872,-0.798095703125,1.410552978515625,1.277618408203125
201873,-0.7745208740234375,1.081436157226562,1.166213989257812
201874,-0.6800079345703125,0.9893798828125,1.390716552734375
201875,-0.523162841796875,1.057022094726562,1.550933837890625
201876,-0.438140869140625,1.155731201171875,1.598953247070312
201877,-0.373291015625,1.186721801757812,1.534576416015625
201878,-0.4176025390625,1.141159057617188,1.331924438476562
201879,-0.6004638671875,0.9964752197265624,1.141159057617188
201880,-0.85406494140625,0.8040008544921875,1.04705810546875
201881,-1.017974853515625,0.6069183349609375,0.9730072021484376
201882,-1.037628173828125,0.4373626708984375,0.7879638671875
201883,-0.930572509765625,0.3318328857421875,0.55902099609375
201884,-0.6949462890625,0.2581024169921875,0.376312255859375
201885,-0.3730010986328125,0.223297119140625,0.2957916259765625
201886,-0.046661376953125,0.1258392333984375,0.1997528076171875
201887,0.179901123046875,-0.071929931640625,0.056304931640625
201888,0.304046630859375,-0.2662506103515625,-0.072723388671875
201889,0.290130615234375,-0.374114990234375,-0.16796875
201890,0.1987152099609375,-0.3704986572265625,-0.208038330078125
201891,0.0835418701171875,-0.3401031494140625,-0.2543792724609375
201892,-0.0276641845703125,-0.347869873046875,-0.3435821533203125
201893,-0.0994720458984375,-0.33135986328125,-0.3961029052734375
201894,-0.121734619140625,-0.2654571533203125,-0.3303985595703125
201895,-0.1151885986328125,-0.1942291259765625,-0.1960601806640625
201896,-0.101104736328125,-0.1651611328125,-0.0684051513671875
201897,-0.088531494140625,-0.138702392578125,0.0283660888671875
201898,-0.101318359375,-0.073760986328125,0.0925445556640625
201899,-0.1573028564453125,0.076995849609375,0.171875
201900,-0.2509002685546875,0.2390289306640625,0.2625579833984375
201901,-0.2672119140625,0.345611572265625,0.56829833984375
201902,-0.1080322265625,0.4640655517578125,0.8849334716796875
201903,0.0941162109375,0.709869384765625,1.117568969726562
201904,0.4013519287109375,1.141815185546875,1.564834594726562
201905,1.088394165039062,1.44146728515625,1.449874877929688
201906,2.006744384765625,1.75518798828125,1.422225952148438
201907,1.565658569335938,2.120132446289062,1.3756103515625
201908,0.2402496337890625,2.287490844726562,1.538330078125
201909,-0.691314697265625,2.115020751953125,1.86920166015625
201910,-1.035858154296875,1.673858642578125,1.8349609375
201911,-0.8995513916015625,1.254501342773438,1.504196166992188
201912,-0.7697601318359375,1.087631225585938,1.392318725585938
201913,-0.739776611328125,1.228912353515625,1.663436889648438
201914,-0.6782989501953125,1.385894775390625,1.86212158203125
201915,-0.654998779296875,1.369857788085938,1.850906372070312
201916,-0.703948974609375,1.171356201171875,1.728424072265625
201917,-0.8763885498046875,0.8549041748046875,1.4176025390625
201918,-1.164306640625,0.5245513916015625,1.09417724609375
201919,-1.410263061523438,0.223876953125,0.9385528564453124
201920,-1.402511596679688,0.0526885986328125,0.8295440673828125
201921,-1.085205078125,0.1530303955078125,0.718963623046875
201922,-0.679931640625,0.3891448974609375,0.6027069091796875
201923,-0.334228515625,0.5160369873046875,0.42498779296875
201924,-0.0224456787109375,0.43963623046875,0.2024688720703125
201925,0.236968994140625,0.173675537109375,0.0300445556640625
201926,0.4109344482421875,-0.2112274169921875,-0.0832061767578125
201927,0.5094146728515625,-0.5124969482421875,-0.2271575927734375
201928,0.609466552734375,-0.5286102294921875,-0.3932037353515625
201929,0.72088623046875,-0.3309783935546875,-0.41204833984375
201930,0.6881561279296875,-0.224639892578125,-0.2896270751953125
201931,0.560546875,-0.107025146484375,-0.1719512939453125
201932,0.385833740234375,0.0553131103515625,-0.14166259765625
201933,0.17303466796875,0.1234283447265625,-0.1067047119140625
201934,0.04119873046875,0.15618896484375,-0.080047607421875
201935,0.008758544921875,0.2265625,-0.0295867919921875
201936,0.0237884521484375,0.3227691650390625,0.0886688232421875
201937,0.0879058837890625,0.462554931640625,0.3072357177734375
201938,0.1981658935546875,0.765899658203125,0.577117919921875
201939,0.3429412841796875,1.137741088867188,0.9773406982421876
201940,0.4693145751953125,1.50543212890625,1.979812622070312
201941,0.7135009765625,1.820602416992188,2.632186889648438
201942,1.384078979492188,1.976715087890625,1.588333129882812
