time_idx,accelerometerAccelerationX(G),accelerometerAccelerationY(G),accelerometerAccelerationZ(G)
60000,-0.214630126953125,0.5749664306640625,0.787017822265625
60001,-0.245086669921875,0.42132568359375,0.6655731201171875
60002,-0.2297515869140625,0.2386932373046875,0.5350189208984375
60003,-0.1343841552734375,0.084625244140625,0.5049591064453125
60004,-0.040496826171875,-0.047760009765625,0.4049835205078125
60005,-0.2558746337890625,-0.245635986328125,0.2542877197265625
60006,-0.6710968017578125,-0.3712158203125,0.211761474609375
60007,-0.882720947265625,-0.446197509765625,0.142913818359375
60008,-0.8697052001953125,-0.3994293212890625,0.0772857666015625
60009,-0.742156982421875,-0.267242431640625,0.104278564453125
60010,-0.559814453125,-0.189300537109375,0.0814666748046875
60011,-0.322296142578125,-0.1930999755859375,-0.01849365234375
60012,-0.111236572265625,-0.2313995361328125,-0.143768310546875
60013,-0.029083251953125,-0.24969482421875,-0.2184906005859375
60014,-0.03411865234375,-0.1259307861328125,-0.137969970703125
60015,0.0017852783203125,0.050384521484375,0.0160980224609375
60016,0.1219024658203125,0.142120361328125,0.1696319580078125
60017,0.240966796875,0.1675872802734375,0.2923126220703125
60018,0.28826904296875,0.25238037109375,0.37066650390625
60019,0.239471435546875,0.39471435546875,0.4575653076171875
60020,0.102264404296875,0.561920166015625,0.6265869140625
60021,-0.0932159423828125,0.7598724365234375,0.906158447265625
60022,-0.28533935546875,1.047958374023438,1.300857543945312
60023,-0.308563232421875,1.380172729492188,1.92218017578125
60024,-0.161895751953125,1.65679931640625,2.50140380859375
60025,-0.2441864013671875,1.883316040039062,2.699234008789062
60026,-0.43231201171875,2.09417724609375,2.508438110351562
60027,-0.3730926513671875,2.295394897460938,2.07659912109375
60028,-0.241058349609375,2.185821533203125,2.1109619140625
60029,-0.377105712890625,1.7698974609375,2.240493774414062
60030,-0.53125,1.243423461914062,2.127761840820312
60031,-0.553985595703125,0.9715423583984376,1.888275146484375
60032,-0.65484619140625,0.916229248046875,1.67633056640625
60033,-0.7529754638671875,0.815887451171875,1.49322509765625
60034,-0.785491943359375,0.6377410888671875,1.299896240234375
60035,-0.75921630859375,0.46881103515625,1.115646362304688
60036,-0.724945068359375,0.3431854248046875,0.9175262451171876
60037,-0.670654296875,0.2017822265625,0.720672607421875
60038,-0.5562286376953125,0.0950164794921875,0.54656982421875
60039,-0.3937530517578125,0.0339508056640625,0.3923187255859375
60040,-0.2149505615234375,-0.045074462890625,0.242462158203125
60041,-0.0500030517578125,-0.1760711669921875,0.164581298828125
60042,0.065887451171875,-0.3040313720703125,0.0832061767578125
60043,0.1352386474609375,-0.3580474853515625,0.0174407958984375
60044,0.1865081787109375,-0.34954833984375,0.0039825439453125
60045,0.22314453125,-0.3158416748046875,0.0257568359375
60046,0.2368927001953125,-0.2379608154296875,0.0946197509765625
60047,0.1748046875,-0.1652984619140625,0.130523681640625
60048,0.0341644287109375,-0.1611175537109375,0.11346435546875
60049,-0.10986328125,-0.17572021484375,0.064300537109375
60050,-0.1846923828125,-0.200714111328125,0.1025238037109375
60051,-0.1676025390625,-0.1565093994140625,0.2084808349609375
60052,-0.04498291015625,0.0804901123046875,0.32244873046875
60053,0.1136016845703125,0.4490814208984375,0.4143524169921875
60054,0.2083740234375,0.66876220703125,0.600830078125
60055,0.2563934326171875,0.762603759765625,0.779693603515625
60056,0.291168212890625,0.8501129150390625,0.7967376708984375
60057,0.360748291015625,1.015121459960938,0.6613006591796875
60058,0.4639434814453125,1.477523803710938,0.578521728515625
60059,0.595367431640625,2.158935546875,0.7072296142578125
60060,0.5988311767578125,2.71038818359375,0.920440673828125
60061,0.626068115234375,2.627471923828125,1.0401611328125
60062,0.7878875732421875,2.213546752929688,1.048019409179688
60063,0.797637939453125,1.943008422851562,1.128158569335938
60064,0.6595001220703125,1.940032958984375,1.126663208007812
60065,0.522369384765625,1.9580078125,0.89971923828125
60066,0.4420166015625,1.686279296875,0.778839111328125
60067,0.393218994140625,1.33404541015625,0.671539306640625
60068,0.3193511962890625,1.04656982421875,0.624908447265625
60069,0.1886444091796875,0.8349761962890625,0.6581268310546875
60070,0.011199951171875,0.7731475830078125,0.691375732421875
60071,-0.163116455078125,0.70233154296875,0.683319091796875
60072,-0.319183349609375,0.5448455810546875,0.6182861328125
60073,-0.4234161376953125,0.334930419921875,0.5241851806640625
60074,-0.447784423828125,0.085296630859375,0.4559173583984375
60075,-0.4055023193359375,-0.1402740478515625,0.5215606689453125
60076,-0.3314666748046875,-0.22509765625,0.5348358154296875
60077,-0.4376373291015625,-0.2079010009765625,0.361663818359375
60078,-0.674774169921875,-0.2056732177734375,0.275665283203125
60079,-0.7079010009765625,-0.26104736328125,0.15704345703125
60080,-0.583953857421875,-0.226409912109375,0.106201171875
60081,-0.4979248046875,-0.13580322265625,0.157196044921875
60082,-0.448455810546875,-0.08685302734375,0.120880126953125
60083,-0.3548126220703125,-0.131072998046875,-0.03045654296875
60084,-0.25177001953125,-0.2285919189453125,-0.1676483154296875
60085,-0.144775390625,-0.2501220703125,-0.165985107421875
60086,0.00799560546875,-0.1489715576171875,0.00213623046875
60087,0.1795501708984375,0.0465850830078125,0.2893524169921875
60088,0.29510498046875,0.2437896728515625,0.470855712890625
60089,0.3233489990234375,0.3509368896484375,0.5013580322265625
60090,0.278778076171875,0.3935089111328125,0.487579345703125
60091,0.14990234375,0.4613800048828125,0.593231201171875
60092,-0.0351715087890625,0.6203460693359375,0.8568878173828125
60093,-0.1362762451171875,0.9767303466796876,1.257308959960938
60094,-0.06365966796875,1.493423461914062,1.728240966796875
60095,0.1011505126953125,1.877975463867188,2.167037963867188
60096,-0.020965576171875,1.983001708984375,2.426864624023438
60097,-0.28302001953125,2.022430419921875,2.328323364257812
60098,-0.369415283203125,2.296295166015625,2.070755004882812
60099,-0.4000701904296875,2.161697387695312,2.13507080078125
60100,-0.5355682373046875,1.515625,2.101409912109375
60101,-0.5676727294921875,1.140869140625,1.964920043945312
60102,-0.5789031982421875,0.9881134033203124,1.813812255859375
60103,-0.6245574951171875,0.9133453369140624,1.685302734375
60104,-0.65618896484375,0.84405517578125,1.502365112304688
60105,-0.6309661865234375,0.7071990966796875,1.315750122070312
60106,-0.53289794921875,0.54229736328125,1.08538818359375
60107,-0.4288787841796875,0.3957672119140625,0.889678955078125
60108,-0.371124267578125,0.286956787109375,0.7731170654296875
60109,-0.357635498046875,0.1939239501953125,0.647247314453125
60110,-0.333526611328125,0.1170196533203125,0.507659912109375
60111,-0.2494659423828125,0.05108642578125,0.343017578125
60112,-0.1294403076171875,-0.04241943359375,0.1891326904296875
60113,-0.003021240234375,-0.1434173583984375,0.0935516357421875
60114,0.0826416015625,-0.2134246826171875,-0.0181884765625
60115,0.16497802734375,-0.2378692626953125,-0.0561676025390625
60116,0.22991943359375,-0.2467803955078125,-0.090301513671875
60117,0.253265380859375,-0.2190704345703125,-0.0049285888671875
60118,0.1791534423828125,-0.1671295166015625,0.1072540283203125
60119,0.0416412353515625,-0.1269989013671875,0.1547088623046875
60120,-0.1026763916015625,-0.159881591796875,0.1755523681640625
60121,-0.1952972412109375,-0.1675872802734375,0.2113494873046875
60122,-0.2021026611328125,-0.12188720703125,0.3088836669921875
60123,-0.0903778076171875,0.1155548095703125,0.378662109375
60124,0.0838165283203125,0.5340423583984375,0.4491119384765625
60125,0.1951751708984375,0.813995361328125,0.620574951171875
60126,0.2272796630859375,0.9316864013671876,0.8494415283203125
60127,0.2421722412109375,1.000946044921875,0.8651123046875
60128,0.3786468505859375,1.090988159179688,0.6433258056640625
60129,0.6918792724609375,1.403915405273438,0.6143951416015625
60130,1.00238037109375,1.917068481445312,0.818572998046875
60131,1.048965454101562,2.44696044921875,0.953765869140625
60132,1.065338134765625,2.561782836914062,0.964447021484375
60133,1.173995971679688,2.359100341796875,1.049285888671875
60134,1.095428466796875,2.17291259765625,1.188583374023438
60135,0.78265380859375,2.072357177734375,1.191818237304688
60136,0.458709716796875,1.819992065429688,1.02642822265625
60137,0.2595672607421875,1.478073120117188,0.8543853759765625
60138,0.22930908203125,1.237258911132812,0.7350311279296875
60139,0.186370849609375,1.09466552734375,0.6420440673828125
60140,-0.027862548828125,0.9544219970703124,0.666107177734375
60141,-0.30938720703125,0.8138580322265625,0.780548095703125
60142,-0.495849609375,0.7062225341796875,0.7838897705078125
60143,-0.5666961669921875,0.5496978759765625,0.620025634765625
60144,-0.57489013671875,0.3515625,0.4739990234375
60145,-0.470123291015625,0.091796875,0.525970458984375
60146,-0.2097320556640625,-0.1943206787109375,0.5927886962890625
60147,-0.4124755859375,-0.1804351806640625,0.35223388671875
60148,-0.8152313232421875,-0.217437744140625,0.4429473876953125
60149,-1.180618286132812,-0.3257293701171875,0.27972412109375
60150,-1.191192626953125,-0.393798828125,0.2854461669921875
60151,-0.8412017822265625,-0.198150634765625,0.2722930908203125
60152,-0.40313720703125,-0.0946044921875,0.09912109375
60153,0.0134735107421875,-0.1750640869140625,0.00933837890625
60154,0.232421875,-0.2606048583984375,-0.0965423583984375
60155,0.1761627197265625,-0.270477294921875,-0.0815277099609375
60156,0.0256195068359375,-0.164154052734375,0.0631561279296875
60157,-0.1213531494140625,-0.0235137939453125,0.19122314453125
60158,-0.1569061279296875,0.0786895751953125,0.2804412841796875
60159,-0.0350494384765625,0.1270751953125,0.283203125
60160,0.08807373046875,0.1680450439453125,0.277008056640625
60161,0.1045989990234375,0.2609405517578125,0.319854736328125
60162,0.0484771728515625,0.392120361328125,0.4343414306640625
60163,-0.021697998046875,0.578521728515625,0.6702880859375
60164,-0.0578765869140625,0.88006591796875,1.02978515625
60165,0.0349578857421875,1.25567626953125,1.469146728515625
60166,0.228424072265625,1.589981079101562,1.834182739257812
60167,0.1914825439453125,1.83685302734375,2.245819091796875
60168,0.0300140380859375,2.024139404296875,2.539642333984375
60169,0.0992279052734375,2.236480712890625,2.170578002929688
60170,0.1245269775390625,2.27044677734375,1.916732788085938
60171,-0.25152587890625,1.766357421875,1.886154174804688
60172,-0.681182861328125,1.291976928710938,2.099456787109375
60173,-0.8322601318359375,1.106231689453125,2.110626220703125
60174,-0.827301025390625,0.9230499267578124,1.911285400390625
60175,-0.8202056884765625,0.8019866943359375,1.717926025390625
60176,-0.8154144287109375,0.6867523193359375,1.507537841796875
60177,-0.762115478515625,0.531585693359375,1.27264404296875
60178,-0.7148895263671875,0.3738555908203125,1.074859619140625
60179,-0.704193115234375,0.266387939453125,0.979217529296875
60180,-0.7021484375,0.1994171142578125,0.9342193603515624
60181,-0.668914794921875,0.1458587646484375,0.791656494140625
60182,-0.552398681640625,0.08135986328125,0.5833282470703125
60183,-0.3817138671875,0.0076904296875,0.365875244140625
60184,-0.200958251953125,-0.05267333984375,0.214263916015625
60185,-0.055877685546875,-0.087127685546875,0.0970611572265625
60186,0.0430450439453125,-0.120635986328125,-0.0057830810546875
60187,0.11846923828125,-0.1667633056640625,-0.0933074951171875
60188,0.1694793701171875,-0.227447509765625,-0.155517578125
60189,0.2317352294921875,-0.2475433349609375,-0.0616607666015625
60190,0.2687225341796875,-0.1888275146484375,0.1592559814453125
60191,0.2272491455078125,-0.1198883056640625,0.23187255859375
60192,0.1420440673828125,-0.145294189453125,0.252410888671875
60193,0.0547332763671875,-0.17919921875,0.254425048828125
60194,0.0343780517578125,-0.008697509765625,0.2702178955078125
60195,0.124603271484375,0.344512939453125,0.3915557861328125
60196,0.2434539794921875,0.595062255859375,0.5096282958984375
60197,0.2476043701171875,0.714111328125,0.6213836669921875
60198,0.1157684326171875,0.701995849609375,0.766082763671875
60199,0.03240966796875,0.7457427978515625,0.734466552734375
60200,0.121490478515625,0.995269775390625,0.5326995849609375
60201,0.3378143310546875,1.567642211914062,0.54925537109375
60202,0.6908111572265625,2.268585205078125,0.7732086181640625
60203,1.008575439453125,2.812957763671875,0.9804840087890624
60204,1.295608520507812,2.726226806640625,1.148910522460938
60205,1.38037109375,2.093063354492188,1.316253662109375
60206,0.9666748046875,1.774444580078125,1.241226196289062
60207,0.4736328125,1.625198364257812,1.08563232421875
60208,0.2067718505859375,1.439926147460938,1.120162963867188
60209,-0.0022430419921875,1.228973388671875,1.071197509765625
60210,-0.116973876953125,1.0404052734375,0.87664794921875
60211,-0.1722564697265625,0.915924072265625,0.765472412109375
60212,-0.290863037109375,0.8116455078125,0.7049102783203125
60213,-0.354949951171875,0.662139892578125,0.6979827880859375
60214,-0.2742767333984375,0.5208282470703125,0.6732025146484375
60215,-0.18939208984375,0.3658905029296875,0.5779266357421875
60216,-0.17742919921875,0.177978515625,0.516204833984375
60217,-0.190277099609375,0.0216064453125,0.500091552734375
60218,-0.17034912109375,-0.0855560302734375,0.5031585693359375
60219,-0.1241455078125,-0.22088623046875,0.45501708984375
60220,-0.11431884765625,-0.3363800048828125,0.326171875
60221,-0.1208953857421875,-0.4317626953125,0.1948394775390625
60222,-0.254669189453125,-0.415740966796875,0.0114593505859375
60223,-0.3810882568359375,-0.34613037109375,-0.0573883056640625
60224,-0.4371490478515625,-0.259613037109375,-0.1074066162109375
60225,-0.3732452392578125,-0.1704864501953125,-0.0796356201171875
60226,-0.253265380859375,-0.114990234375,-0.0533294677734375
60227,-0.1216583251953125,-0.1095428466796875,-0.03094482421875
60228,0.0237274169921875,-0.0383758544921875,0.0028839111328125
60229,0.0925750732421875,0.0950927734375,0.1021270751953125
60230,0.099853515625,0.2549285888671875,0.2829742431640625
60231,0.1303558349609375,0.4032440185546875,0.563629150390625
60232,0.21380615234375,0.593841552734375,0.8824462890625
60233,0.30682373046875,0.811004638671875,1.152923583984375
60234,0.4426422119140625,1.047454833984375,1.365814208984375
60235,0.5245361328125,1.274017333984375,1.469680786132812
60236,0.5895233154296875,1.39886474609375,1.698944091796875
60237,0.6330413818359375,1.4078369140625,1.878631591796875
60238,0.5538482666015625,1.812347412109375,1.800491333007812
60239,0.3257904052734375,2.25494384765625,1.891311645507812
60240,-0.2214202880859375,2.211837768554688,1.962921142578125
60241,-0.7566375732421875,1.636398315429688,1.842727661132812
60242,-0.917755126953125,1.148773193359375,1.784759521484375
60243,-0.8942718505859375,0.9941864013671876,1.765090942382812
60244,-0.82183837890625,0.9151611328125,1.713409423828125
60245,-0.737762451171875,0.85833740234375,1.63165283203125
60246,-0.704132080078125,0.8089599609375,1.550674438476562
60247,-0.709869384765625,0.755859375,1.42364501953125
60248,-0.7577972412109375,0.69775390625,1.249465942382812
60249,-0.8364410400390625,0.62176513671875,1.077392578125
60250,-0.9058074951171876,0.5143280029296875,0.949493408203125
60251,-0.92266845703125,0.38275146484375,0.8114166259765625
60252,-0.8574676513671875,0.267730712890625,0.6186370849609375
60253,-0.715576171875,0.187042236328125,0.4237518310546875
60254,-0.5255584716796875,0.1248321533203125,0.256378173828125
60255,-0.33599853515625,0.05621337890625,0.1605377197265625
60256,-0.171630859375,-0.0276031494140625,0.10308837890625
60257,-0.0293426513671875,-0.1154327392578125,0.0228271484375
60258,0.13323974609375,-0.1788330078125,-0.0068206787109375
60259,0.31524658203125,-0.1961669921875,0.0399322509765625
60260,0.4444122314453125,-0.16162109375,0.10894775390625
60261,0.5027008056640625,-0.092620849609375,0.198760986328125
60262,0.461639404296875,-0.027374267578125,0.245819091796875
60263,0.381683349609375,0.030914306640625,0.2239990234375
60264,0.3213348388671875,0.106414794921875,0.21722412109375
60265,0.2490234375,0.1842041015625,0.257568359375
60266,0.16790771484375,0.25421142578125,0.3420257568359375
60267,0.1144561767578125,0.3094482421875,0.4486083984375
60268,0.006011962890625,0.3529510498046875,0.496246337890625
60269,-0.178253173828125,0.5843505859375,0.5435333251953125
60270,-0.257843017578125,0.9373321533203124,0.5473785400390625
60271,-0.0419769287109375,1.249832153320312,0.5728302001953125
60272,0.454193115234375,1.677719116210938,0.6845550537109375
60273,0.7709808349609375,2.202316284179688,0.837432861328125
60274,0.962310791015625,2.395355224609375,1.106155395507812
60275,1.395919799804688,2.139541625976562,1.534591674804688
60276,1.408248901367188,1.896194458007812,1.629730224609375
60277,0.7386932373046875,1.800552368164062,1.295196533203125
60278,0.17730712890625,1.531753540039062,0.9974822998046876
60279,0.0071258544921875,1.237442016601562,0.9899444580078124
60280,-0.109222412109375,1.02325439453125,0.8726959228515625
60281,-0.255340576171875,0.9522857666015624,0.6948699951171875
60282,-0.2282257080078125,0.968475341796875,0.62109375
60283,-0.069427490234375,0.9111328125,0.59185791015625
60284,0.061065673828125,0.8222503662109375,0.60882568359375
60285,0.0763397216796875,0.718292236328125,0.649200439453125
60286,0.031951904296875,0.526153564453125,0.6041107177734375
60287,-0.067474365234375,0.295806884765625,0.500030517578125
60288,-0.169158935546875,0.081146240234375,0.38165283203125
60289,-0.2245330810546875,-0.058990478515625,0.2773895263671875
60290,-0.2471160888671875,-0.1488494873046875,0.2419586181640625
60291,-0.1612396240234375,-0.2510528564453125,0.290191650390625
60292,-0.1301422119140625,-0.3168182373046875,0.2198333740234375
60293,-0.3008270263671875,-0.269134521484375,0.1348419189453125
60294,-0.4933013916015625,-0.2279815673828125,0.073455810546875
60295,-0.522369384765625,-0.1854705810546875,0.023590087890625
60296,-0.4162139892578125,-0.1000823974609375,0.01727294921875
60297,-0.3138580322265625,-0.0406646728515625,-0.007476806640625
60298,-0.1776580810546875,-0.0697784423828125,-0.1005401611328125
60299,0.024261474609375,-0.1064910888671875,-0.1217193603515625
60300,0.132293701171875,-0.0431976318359375,-0.0284271240234375
60301,0.1294403076171875,0.19305419921875,0.181610107421875
60302,0.1069183349609375,0.4523162841796875,0.53399658203125
60303,0.1613006591796875,0.6089630126953125,0.969696044921875
60304,0.30389404296875,0.7179718017578125,1.22314453125
60305,0.35028076171875,0.87908935546875,1.2728271484375
60306,0.272216796875,1.071334838867188,1.37518310546875
60307,0.287322998046875,1.255844116210938,1.630874633789062
60308,0.3984527587890625,1.454559326171875,1.889312744140625
60309,0.432647705078125,1.506561279296875,1.940841674804688
60310,0.14599609375,1.577316284179688,1.804946899414062
60311,-0.3705291748046875,1.732940673828125,1.76348876953125
60312,-0.8206939697265625,1.714691162109375,1.869842529296875
60313,-1.0301513671875,1.387161254882812,1.913894653320312
60314,-1.0330810546875,1.11724853515625,1.813568115234375
60315,-0.9820404052734376,0.9752655029296876,1.706497192382812
60316,-0.9785919189453124,0.874725341796875,1.630874633789062
60317,-1.002685546875,0.789215087890625,1.562789916992188
60318,-1.035308837890625,0.689056396484375,1.48089599609375
60319,-1.043777465820312,0.554473876953125,1.344192504882812
60320,-1.026382446289062,0.4076690673828125,1.154327392578125
60321,-0.970367431640625,0.2629241943359375,0.990142822265625
60322,-0.8583984375,0.1623992919921875,0.8209991455078125
60323,-0.691680908203125,0.1354217529296875,0.6714324951171875
60324,-0.503662109375,0.1700897216796875,0.531463623046875
60325,-0.330413818359375,0.1806182861328125,0.391448974609375
60326,-0.1819915771484375,0.123565673828125,0.2667388916015625
60327,-0.0402374267578125,0.0233306884765625,0.189300537109375
60328,0.0924835205078125,-0.037200927734375,0.0868072509765625
60329,0.18109130859375,-0.0496368408203125,-0.00018310546875
60330,0.2132110595703125,-0.04705810546875,-0.0216064453125
60331,0.209930419921875,-0.069000244140625,0.0377197265625
60332,0.1931304931640625,-0.09906005859375,0.114715576171875
60333,0.162872314453125,-0.08447265625,0.133758544921875
60334,0.1229400634765625,-0.045135498046875,0.1094970703125
60335,0.1377716064453125,-0.0033416748046875,0.0959930419921875
60336,0.2086029052734375,0.0501556396484375,0.0975189208984375
60337,0.275604248046875,0.15283203125,0.12652587890625
60338,0.2991790771484375,0.2906036376953125,0.2586669921875
60339,0.2996826171875,0.3653717041015625,0.3228759765625
60340,0.25750732421875,0.5034637451171875,0.39080810546875
60341,0.1423187255859375,0.7502593994140625,0.521636962890625
60342,0.045318603515625,1.034255981445312,0.600006103515625
60343,0.1787872314453125,1.35699462890625,0.6266632080078125
60344,0.56353759765625,1.859725952148438,0.672515869140625
60345,1.073471069335938,2.343887329101562,0.8514404296875
60346,1.406524658203125,2.5260009765625,1.15887451171875
60347,1.1988525390625,2.18829345703125,1.360626220703125
60348,0.60546875,1.814071655273438,1.452545166015625
60349,0.0722503662109375,1.605117797851562,1.397232055664062
60350,-0.345703125,1.449737548828125,1.06500244140625
60351,-0.2688446044921875,1.258392333984375,0.8598175048828125
60352,0.159088134765625,1.168045043945312,0.7479248046875
60353,0.4248046875,1.111846923828125,0.7043914794921875
60354,0.3829345703125,1.04644775390625,0.740936279296875
60355,0.2833709716796875,0.8814239501953125,0.76934814453125
60356,0.2198486328125,0.67169189453125,0.837066650390625
60357,0.21807861328125,0.462982177734375,0.896026611328125
60358,0.1933135986328125,0.301727294921875,0.935302734375
60359,0.0381927490234375,0.1436767578125,1.018569946289062
60360,-0.2114105224609375,0.1009368896484375,0.91943359375
60361,-0.450897216796875,0.0263824462890625,0.6676483154296875
60362,-0.772674560546875,-0.1071624755859375,0.476806640625
60363,-1.071258544921875,-0.2157135009765625,0.3192596435546875
60364,-1.0634765625,-0.2342376708984375,0.1236724853515625
60365,-0.756500244140625,-0.1126556396484375,0.0949249267578125
60366,-0.49407958984375,-0.0063629150390625,0.0720977783203125
60367,-0.316741943359375,0.029205322265625,-0.00189208984375
60368,-0.274078369140625,-0.046966552734375,-0.0799102783203125
60369,-0.285186767578125,-0.1010894775390625,-0.134552001953125
60370,-0.25341796875,-0.093048095703125,-0.1651611328125
60371,-0.19256591796875,-0.060028076171875,-0.120025634765625
60372,-0.079681396484375,-0.0232086181640625,-0.0172119140625
60373,0.1017913818359375,0.0538177490234375,0.10516357421875
60374,0.2639923095703125,0.2328033447265625,0.1857452392578125
60375,0.2789459228515625,0.3533477783203125,0.3673248291015625
60376,0.2840728759765625,0.469482421875,0.6972198486328125
60377,0.3367919921875,0.7220001220703125,0.9715576171875
60378,0.4127349853515625,1.055496215820312,1.225814819335938
60379,0.468048095703125,1.294357299804688,1.5428466796875
60380,0.3553924560546875,1.3453369140625,1.971893310546875
60381,0.1573944091796875,1.27215576171875,2.09368896484375
60382,0.1541900634765625,1.42852783203125,2.11419677734375
60383,-0.0552520751953125,1.958419799804688,2.147506713867188
60384,-0.4542999267578125,2.113555908203125,2.0859375
60385,-0.7526092529296875,1.634765625,2.120010375976562
60386,-0.9422454833984376,1.0609130859375,2.038253784179688
60387,-0.944549560546875,0.7136077880859375,1.81634521484375
60388,-0.8567047119140625,0.5765533447265625,1.684097290039062
60389,-0.8185272216796875,0.543609619140625,1.598358154296875
60390,-0.8365020751953125,0.5035858154296875,1.501846313476562
60391,-0.804168701171875,0.4655609130859375,1.382843017578125
60392,-0.7510223388671875,0.4311676025390625,1.244674682617188
60393,-0.7035064697265625,0.358001708984375,1.035263061523438
60394,-0.639495849609375,0.2332305908203125,0.7817230224609375
60395,-0.55792236328125,0.0942840576171875,0.5305023193359375
60396,-0.433685302734375,0.03564453125,0.3626556396484375
60397,-0.300689697265625,0.0493011474609375,0.289947509765625
60398,-0.1850128173828125,0.0389404296875,0.2296142578125
60399,-0.080047607421875,0.0087127685546875,0.11639404296875
60400,0.0395965576171875,-0.01531982421875,0.021270751953125
60401,0.147552490234375,-0.053466796875,-0.075531005859375
60402,0.2100372314453125,-0.1039581298828125,-0.0641021728515625
60403,0.230712890625,-0.1300506591796875,0.0272216796875
60404,0.2265777587890625,-0.1104888916015625,0.1349945068359375
60405,0.1606903076171875,-0.094879150390625,0.1540679931640625
60406,0.0627593994140625,-0.0865020751953125,0.1302947998046875
60407,0.02325439453125,-0.04364013671875,0.1246337890625
60408,0.10870361328125,0.0962371826171875,0.13677978515625
60409,0.23736572265625,0.377197265625,0.226959228515625
60410,0.33319091796875,0.6081085205078125,0.392913818359375
60411,0.3497161865234375,0.7290191650390625,0.4928741455078125
60412,0.308502197265625,0.8502655029296875,0.63897705078125
60413,0.2741546630859375,1.019683837890625,0.7200927734375
60414,0.358428955078125,1.255294799804688,0.691864013671875
60415,0.6676177978515625,1.632156372070312,0.7619476318359375
60416,0.944000244140625,2.033035278320312,0.8324432373046875
60417,0.8394775390625,2.378631591796875,0.8699951171875
60418,0.662933349609375,2.266754150390625,1.041732788085938
60419,0.6516571044921875,2.056121826171875,1.297073364257812
60420,0.593414306640625,2.02996826171875,1.561309814453125
60421,0.3739166259765625,1.978744506835938,1.529800415039062
60422,0.080078125,1.741607666015625,1.037216186523438
60423,-0.0717010498046875,1.3604736328125,0.751739501953125
60424,0.0373687744140625,1.017440795898438,0.769927978515625
60425,0.0492095947265625,0.9029388427734376,0.7528839111328125
60426,-0.0890350341796875,0.8620758056640625,0.797271728515625
60427,-0.2264556884765625,0.780364990234375,0.7337646484375
60428,-0.3282318115234375,0.5640716552734375,0.62152099609375
60429,-0.3042755126953125,0.2730865478515625,0.5106048583984375
60430,-0.244293212890625,0.0878753662109375,0.4269561767578125
60431,-0.15728759765625,0.0185699462890625,0.498291015625
60432,-0.0714874267578125,-0.093902587890625,0.5123138427734375
60433,-0.291839599609375,-0.2390289306640625,0.3910064697265625
60434,-0.6414794921875,-0.421417236328125,0.269775390625
60435,-0.7716064453125,-0.4788818359375,0.0842132568359375
60436,-0.615570068359375,-0.3187103271484375,0.057464599609375
60437,-0.405914306640625,-0.1747894287109375,0.131591796875
60438,-0.2206573486328125,-0.147003173828125,0.058502197265625
60439,-0.0023345947265625,-0.2541961669921875,-0.0909271240234375
60440,0.10308837890625,-0.3011474609375,-0.192291259765625
60441,0.1088104248046875,-0.2409210205078125,-0.11871337890625
60442,0.05242919921875,-0.1331024169921875,0.0891571044921875
60443,0.0056915283203125,-0.007110595703125,0.317169189453125
60444,0.043243408203125,0.1073455810546875,0.419219970703125
60445,0.081787109375,0.22821044921875,0.407073974609375
60446,0.039459228515625,0.324737548828125,0.4347381591796875
60447,0.007171630859375,0.4078521728515625,0.5862579345703125
60448,-0.014923095703125,0.545684814453125,0.736541748046875
60449,-0.09063720703125,0.8033905029296875,0.874603271484375
60450,-0.203125,1.186050415039062,1.163375854492188
60451,-0.222869873046875,1.62286376953125,1.784896850585938
60452,-0.132110595703125,1.945220947265625,2.42755126953125
60453,0.1049041748046875,2.0025634765625,2.345138549804688
60454,0.4792938232421875,2.10247802734375,1.867843627929688
60455,0.5648956298828125,2.1429443359375,1.732650756835938
60456,0.229217529296875,1.82452392578125,1.825210571289062
60457,-0.1214447021484375,1.344161987304688,1.94573974609375
60458,-0.343719482421875,1.081207275390625,1.878677368164062
60459,-0.4847412109375,1.038360595703125,1.732681274414062
60460,-0.5968170166015625,1.000701904296875,1.549880981445312
60461,-0.6354522705078125,0.8859710693359375,1.375518798828125
60462,-0.5977630615234375,0.75421142578125,1.225326538085938
60463,-0.5584869384765625,0.6453704833984375,1.085906982421875
60464,-0.568023681640625,0.547149658203125,0.97332763671875
60465,-0.6119842529296875,0.429656982421875,0.8748931884765625
60466,-0.637847900390625,0.2852935791015625,0.717193603515625
60467,-0.6077423095703125,0.141845703125,0.5040283203125
60468,-0.5303802490234375,0.0175018310546875,0.307861328125
60469,-0.4072265625,-0.0774993896484375,0.1788787841796875
60470,-0.2975006103515625,-0.1243896484375,0.11376953125
60471,-0.2067718505859375,-0.150360107421875,0.0650177001953125
60472,-0.129638671875,-0.1723785400390625,0.0258636474609375
60473,-0.0741424560546875,-0.191925048828125,0.0005950927734375
60474,0.0312957763671875,-0.1924896240234375,0.1375274658203125
60475,0.1682586669921875,-0.15728759765625,0.256256103515625
60476,0.248260498046875,-0.1371307373046875,0.3054656982421875
60477,0.242950439453125,-0.1637115478515625,0.266571044921875
60478,0.1801300048828125,-0.12786865234375,0.2005767822265625
60479,0.11553955078125,-0.038818359375,0.191375732421875
60480,0.0600433349609375,0.11614990234375,0.295684814453125
60481,0.023895263671875,0.4070587158203125,0.52923583984375
60482,-0.03277587890625,0.6428375244140625,0.7623748779296875
60483,-0.092926025390625,0.8101959228515625,0.8975982666015625
60484,-0.0504302978515625,0.9674072265625,0.783050537109375
60485,0.1112060546875,1.190170288085938,0.561431884765625
60486,0.3528594970703125,1.65789794921875,0.615386962890625
60487,0.525848388671875,2.2625732421875,0.836395263671875
60488,0.5555267333984375,2.666213989257812,1.110671997070312
60489,0.725860595703125,2.620407104492188,1.289688110351562
60490,1.04559326171875,2.184844970703125,1.215927124023438
60491,1.037185668945312,1.968124389648438,1.048263549804688
60492,0.7708587646484375,1.904647827148438,0.9568328857421876
60493,0.601806640625,1.611923217773438,0.9101409912109376
60494,0.500640869140625,1.319931030273438,0.828704833984375
60495,0.404052734375,1.090469360351562,0.7685089111328125
60496,0.2733917236328125,0.9102630615234376,0.763031005859375
60497,0.065277099609375,0.750640869140625,0.7016754150390625
60498,-0.12261962890625,0.59722900390625,0.650299072265625
60499,-0.2113189697265625,0.499359130859375,0.5991363525390625
60500,-0.263671875,0.37823486328125,0.50347900390625
60501,-0.2692718505859375,0.2393341064453125,0.448760986328125
60502,-0.2547454833984375,0.110992431640625,0.41455078125
60503,-0.2292938232421875,-0.1036529541015625,0.4059906005859375
60504,-0.348114013671875,-0.2854156494140625,0.3469696044921875
60505,-0.55914306640625,-0.3966217041015625,0.3009185791015625
60506,-0.71624755859375,-0.456146240234375,0.1913909912109375
60507,-0.69122314453125,-0.4337921142578125,0.1699676513671875
60508,-0.5389556884765625,-0.303802490234375,0.20928955078125
60509,-0.374664306640625,-0.2266693115234375,0.1231536865234375
60510,-0.176971435546875,-0.228271484375,-0.02398681640625
60511,-0.0212554931640625,-0.2638702392578125,-0.091156005859375
60512,0.049591064453125,-0.23095703125,-0.0881805419921875
60513,0.0317230224609375,-0.1089324951171875,0.019287109375
60514,-0.0293731689453125,0.059417724609375,0.1971588134765625
60515,-0.065521240234375,0.19293212890625,0.3518829345703125
60516,-0.0452117919921875,0.266021728515625,0.4490966796875
60517,-0.012847900390625,0.3295440673828125,0.537750244140625
60518,-0.0045013427734375,0.4411773681640625,0.7529754638671875
60519,-0.0225982666015625,0.6529083251953125,1.004852294921875
60520,-0.082305908203125,0.9745330810546876,1.290679931640625
60521,-0.251190185546875,1.320175170898438,1.634902954101562
60522,-0.4567718505859375,1.590438842773438,2.03521728515625
60523,-0.3831787109375,1.63232421875,2.217880249023438
60524,-0.0707855224609375,1.880111694335938,1.9700927734375
60525,0.2554779052734375,2.274215698242188,1.7386474609375
60526,0.2639007568359375,2.279541015625,1.892898559570312
60527,0.0320587158203125,1.84210205078125,2.0633544921875
60528,-0.1929931640625,1.331436157226562,1.899337768554688
60529,-0.3326568603515625,1.148468017578125,1.63330078125
60530,-0.4396514892578125,1.103744506835938,1.426605224609375
60531,-0.5258331298828125,1.000961303710938,1.287139892578125
60532,-0.5602569580078125,0.855377197265625,1.170089721679688
60533,-0.5556640625,0.7149658203125,1.043594360351562
60534,-0.5265960693359375,0.6017913818359375,0.910980224609375
60535,-0.49285888671875,0.5230865478515625,0.7635650634765625
60536,-0.462432861328125,0.4037933349609375,0.652008056640625
60537,-0.4120635986328125,0.2822723388671875,0.50299072265625
60538,-0.36822509765625,0.139312744140625,0.291046142578125
60539,-0.28717041015625,0.0137939453125,0.127532958984375
60540,-0.1844940185546875,-0.0548248291015625,0.055572509765625
60541,-0.1688385009765625,-0.096282958984375,-0.0305023193359375
60542,-0.210723876953125,-0.117095947265625,-0.0980987548828125
60543,-0.1063232421875,-0.0884552001953125,-0.03045654296875
60544,0.04632568359375,-0.091339111328125,0.0424041748046875
60545,0.1865692138671875,-0.093353271484375,0.192779541015625
60546,0.272674560546875,-0.1073150634765625,0.2626495361328125
60547,0.2293853759765625,-0.204681396484375,0.1840667724609375
60548,0.0449981689453125,-0.313079833984375,0.1586151123046875
60549,-0.148284912109375,-0.308624267578125,0.24298095703125
60550,-0.2797698974609375,-0.12554931640625,0.348236083984375
60551,-0.301513671875,0.1486358642578125,0.50042724609375
60552,-0.150787353515625,0.3847808837890625,0.7460479736328125
60553,0.1240997314453125,0.6300201416015625,0.8279266357421875
60554,0.3665313720703125,1.157363891601562,0.84014892578125
60555,0.4776611328125,1.735031127929688,0.8410491943359375
60556,0.49517822265625,2.313735961914062,1.019927978515625
60557,0.559112548828125,2.692031860351562,1.171600341796875
60558,0.6741943359375,2.586105346679688,1.055709838867188
60559,0.7749481201171875,2.172637939453125,0.77203369140625
60560,0.88092041015625,1.927078247070312,0.8201751708984375
60561,0.9319915771484376,1.914291381835938,1.078201293945312
60562,0.9040374755859376,1.866119384765625,1.176620483398438
60563,0.8532867431640625,1.6136474609375,1.08575439453125
60564,0.7184906005859375,1.330276489257812,1.016799926757812
60565,0.4767913818359375,1.118606567382812,0.910491943359375
60566,0.22796630859375,0.938629150390625,0.6825103759765625
60567,-0.0139007568359375,0.716796875,0.51214599609375
60568,-0.225311279296875,0.5038909912109375,0.49005126953125
60569,-0.3540191650390625,0.349517822265625,0.47662353515625
60570,-0.419647216796875,0.2642822265625,0.3805084228515625
60571,-0.466949462890625,0.2258453369140625,0.2675933837890625
60572,-0.4610443115234375,0.0985565185546875,0.256072998046875
60573,-0.385955810546875,-0.121673583984375,0.313385009765625
60574,-0.265655517578125,-0.3333892822265625,0.3598175048828125
60575,-0.3386993408203125,-0.4293365478515625,0.30743408203125
60576,-0.5079803466796875,-0.3575286865234375,0.23602294921875
60577,-0.4925994873046875,-0.33172607421875,0.1308135986328125
60578,-0.3541259765625,-0.316680908203125,0.108245849609375
60579,-0.199432373046875,-0.278717041015625,0.1595001220703125
60580,-0.020477294921875,-0.2686614990234375,0.1734771728515625
60581,0.1754913330078125,-0.2597198486328125,0.138702392578125
60582,0.3605499267578125,-0.1649932861328125,0.184844970703125
60583,0.46502685546875,-0.0313568115234375,0.316131591796875
60584,0.4565277099609375,0.1401214599609375,0.488922119140625
60585,0.3802490234375,0.3188934326171875,0.6134490966796875
60586,0.30828857421875,0.431671142578125,0.7435760498046875
60587,0.2069549560546875,0.5683746337890625,0.7664642333984375
60588,0.1220245361328125,0.78472900390625,0.70367431640625
60589,0.105621337890625,0.968170166015625,0.8424072265625
60590,0.13397216796875,1.186233520507812,1.299652099609375
60591,0.2743988037109375,1.435073852539062,1.917678833007812
60592,0.490325927734375,1.71209716796875,2.367431640625
60593,0.515289306640625,2.125869750976562,2.282318115234375
60594,0.3334808349609375,2.370010375976562,2.0931396484375
60595,0.040802001953125,2.146957397460938,1.965957641601562
60596,-0.287200927734375,1.528533935546875,1.907958984375
60597,-0.5306396484375,1.12310791015625,1.855300903320312
60598,-0.7037353515625,1.087905883789062,1.753997802734375
60599,-0.8662567138671875,1.091354370117188,1.658218383789062
60600,-0.9922027587890624,0.993133544921875,1.5235595703125
60601,-1.0150146484375,0.818695068359375,1.339370727539062
60602,-0.932830810546875,0.6378631591796875,1.193206787109375
60603,-0.8187408447265625,0.5011444091796875,1.09783935546875
60604,-0.74810791015625,0.37652587890625,0.9899749755859376
60605,-0.688140869140625,0.2446441650390625,0.89202880859375
60606,-0.606231689453125,0.14385986328125,0.717559814453125
60607,-0.4698944091796875,0.07818603515625,0.4812164306640625
60608,-0.328582763671875,0.0221099853515625,0.2958831787109375
60609,-0.2306365966796875,-0.0254974365234375,0.1757049560546875
60610,-0.1410675048828125,-0.072967529296875,0.054534912109375
60611,-0.04510498046875,-0.114654541015625,-0.02532958984375
60612,0.0621795654296875,-0.1676177978515625,-0.0205535888671875
60613,0.1636810302734375,-0.230072021484375,0.0323638916015625
60614,0.2802886962890625,-0.2335205078125,0.1342010498046875
60615,0.3825225830078125,-0.1466522216796875,0.174530029296875
60616,0.36602783203125,-0.03619384765625,0.166748046875
60617,0.186370849609375,-0.0347442626953125,0.1281280517578125
60618,-0.030059814453125,-0.054229736328125,0.06390380859375
60619,-0.1653594970703125,-0.0143280029296875,0.113372802734375
60620,-0.20208740234375,0.1711578369140625,0.2580413818359375
60621,-0.1563568115234375,0.3864898681640625,0.46307373046875
60622,-0.1493377685546875,0.557220458984375,0.5697174072265625
60623,-0.200469970703125,0.7746734619140625,0.64501953125
60624,-0.09375,1.059127807617188,0.7057037353515625
60625,0.33917236328125,1.28326416015625,0.737701416015625
60626,0.881866455078125,1.611099243164062,0.840667724609375
60627,1.043441772460938,2.075469970703125,0.920562744140625
60628,0.9888458251953124,2.418167114257812,1.121246337890625
60629,1.052703857421875,2.36041259765625,1.378311157226562
60630,1.053146362304688,2.136810302734375,1.473861694335938
60631,0.737091064453125,2.09686279296875,1.381484985351562
60632,0.3525848388671875,1.97943115234375,1.335220336914062
60633,0.0007781982421875,1.659011840820312,1.247406005859375
60634,-0.243743896484375,1.342437744140625,0.9459228515625
60635,-0.17327880859375,1.115249633789062,0.82244873046875
60636,-0.0463409423828125,1.036331176757812,0.7528533935546875
60637,-0.1284637451171875,0.979034423828125,0.7147064208984375
60638,-0.2924041748046875,0.8886871337890625,0.7180633544921875
60639,-0.394012451171875,0.683319091796875,0.660736083984375
60640,-0.4235382080078125,0.39788818359375,0.602691650390625
60641,-0.3756103515625,0.098663330078125,0.5935821533203125
60642,-0.25091552734375,-0.055694580078125,0.5634918212890625
60643,-0.133209228515625,-0.0932769775390625,0.552581787109375
60644,-0.0135498046875,-0.2359466552734375,0.4660186767578125
60645,-0.127960205078125,-0.4187469482421875,0.25323486328125
60646,-0.264190673828125,-0.5297393798828125,0.1077880859375
60647,-0.3594207763671875,-0.4975738525390625,-0.0980377197265625
60648,-0.372802734375,-0.2890777587890625,-0.067291259765625
60649,-0.332611083984375,-0.0588836669921875,0.014129638671875
60650,-0.2213592529296875,-0.0714111328125,-0.033905029296875
60651,0.005828857421875,-0.1769561767578125,-0.1351470947265625
60652,0.1613311767578125,-0.1772918701171875,-0.1400909423828125
60653,0.203704833984375,-0.0654296875,-0.03082275390625
60654,0.2034149169921875,0.10662841796875,0.142669677734375
60655,0.13409423828125,0.29400634765625,0.328277587890625
60656,0.0424652099609375,0.3780059814453125,0.4843597412109375
60657,0.0302734375,0.369171142578125,0.6266937255859375
60658,0.0373382568359375,0.395843505859375,0.767059326171875
60659,0.0174713134765625,0.5312042236328125,0.9476318359375
60660,-0.0371246337890625,0.7817840576171875,1.142730712890625
60661,-0.22674560546875,1.098342895507812,1.42486572265625
60662,-0.4657135009765625,1.404205322265625,1.992782592773438
60663,-0.408416748046875,1.614517211914062,2.471664428710938
60664,-0.1393280029296875,1.862762451171875,2.16729736328125
60665,-0.0463409423828125,2.192886352539062,1.89337158203125
60666,-0.2057952880859375,2.132247924804688,1.860092163085938
60667,-0.4738006591796875,1.617568969726562,1.973724365234375
60668,-0.712860107421875,1.167922973632812,2.012481689453125
60669,-0.89178466796875,0.9417724609375,1.866165161132812
60670,-0.9614105224609376,0.839691162109375,1.692001342773438
60671,-0.9957733154296876,0.773956298828125,1.522430419921875
60672,-0.9768524169921876,0.6933441162109375,1.34765625
60673,-0.9096527099609376,0.5998687744140625,1.186569213867188
60674,-0.88275146484375,0.51336669921875,1.034561157226562
60675,-0.856414794921875,0.4163970947265625,0.8983154296875
60676,-0.7732086181640625,0.306732177734375,0.7271575927734375
60677,-0.63763427734375,0.2207794189453125,0.4827880859375
60678,-0.48724365234375,0.1406707763671875,0.256072998046875
60679,-0.3269500732421875,0.0457611083984375,0.123291015625
60680,-0.144317626953125,-0.044281005859375,0.007843017578125
60681,-0.003387451171875,-0.11962890625,-0.1101837158203125
60682,0.106475830078125,-0.231689453125,-0.1509552001953125
60683,0.2010345458984375,-0.3186187744140625,-0.0322723388671875
60684,0.29962158203125,-0.2727203369140625,0.17181396484375
60685,0.398101806640625,-0.0779876708984375,0.26690673828125
60686,0.4162139892578125,0.107086181640625,0.2186737060546875
60687,0.3211212158203125,0.1788482666015625,0.165740966796875
60688,0.18475341796875,0.1428375244140625,0.0827484130859375
60689,0.0885772705078125,0.0454254150390625,0.082977294921875
60690,0.0381622314453125,0.05572509765625,0.19146728515625
60691,0.0424957275390625,0.161651611328125,0.328765869140625
60692,0.0467987060546875,0.2428741455078125,0.362640380859375
60693,0.02294921875,0.4406585693359375,0.479766845703125
60694,0.0176544189453125,0.759033203125,0.6773529052734375
60695,0.2104034423828125,1.039840698242188,0.8096923828125
60696,0.63507080078125,1.440261840820312,0.82745361328125
60697,1.06683349609375,1.876052856445312,0.658599853515625
60698,1.12371826171875,2.266250610351562,0.6926422119140625
60699,0.9958343505859376,2.205657958984375,0.93804931640625
60700,0.8978118896484375,1.957183837890625,1.227142333984375
60701,0.6294708251953125,1.974044799804688,1.369903564453125
60702,0.44451904296875,1.989578247070312,1.449432373046875
60703,0.2072296142578125,1.846847534179688,1.19903564453125
60704,-0.05267333984375,1.600250244140625,0.80181884765625
60705,-0.0141754150390625,1.364898681640625,0.624542236328125
60706,0.11041259765625,1.148681640625,0.6376800537109375
60707,-0.0308074951171875,0.9668731689453124,0.764892578125
60708,-0.2941436767578125,0.8599853515625,0.8902130126953125
60709,-0.40875244140625,0.7511444091796875,0.8520050048828125
60710,-0.3319854736328125,0.5794525146484375,0.69024658203125
60711,-0.191802978515625,0.4012298583984375,0.5120391845703125
60712,-0.0946502685546875,0.270111083984375,0.4176025390625
60713,-0.0772705078125,0.1973876953125,0.4490814208984375
60714,-0.0848541259765625,0.007965087890625,0.56488037109375
60715,-0.090850830078125,-0.2135467529296875,0.5834197998046875
60716,-0.22149658203125,-0.3198089599609375,0.3851165771484375
60717,-0.5308837890625,-0.3232879638671875,0.164764404296875
60718,-0.76507568359375,-0.3360443115234375,-0.01171875
60719,-0.743072509765625,-0.300537109375,-0.0431365966796875
60720,-0.54833984375,-0.1490936279296875,0.070587158203125
60721,-0.391693115234375,-0.0529632568359375,0.1215972900390625
60722,-0.226287841796875,-0.0566253662109375,0.0814971923828125
60723,0.0137786865234375,-0.109954833984375,0.017303466796875
60724,0.2049713134765625,-0.126068115234375,-0.0170745849609375
60725,0.2971649169921875,-0.057830810546875,0.0655517578125
60726,0.2794952392578125,0.1488800048828125,0.30303955078125
60727,0.209197998046875,0.4098358154296875,0.5913543701171875
60728,0.1893157958984375,0.5287933349609375,0.795135498046875
60729,0.246063232421875,0.565460205078125,0.941619873046875
60730,0.3644256591796875,0.603912353515625,1.162643432617188
60731,0.414886474609375,0.7646331787109375,1.337799072265625
60732,0.266632080078125,1.083465576171875,1.484222412109375
60733,-0.0399169921875,1.395523071289062,1.764877319335938
60734,-0.2463836669921875,1.605697631835938,1.955307006835938
60735,-0.4162750244140625,1.927871704101562,2.161361694335938
60736,-0.686614990234375,2.2099609375,2.42962646484375
60737,-0.898468017578125,1.909408569335938,2.161346435546875
60738,-0.94195556640625,1.265518188476562,1.753021240234375
60739,-0.957275390625,0.934112548828125,1.625106811523438
60740,-1.0509033203125,0.8123931884765625,1.639205932617188
60741,-1.110610961914062,0.7890472412109375,1.625625610351562
60742,-1.110382080078125,0.7835540771484375,1.587692260742188
60743,-1.017852783203125,0.70263671875,1.441741943359375
60744,-0.8782806396484375,0.5423736572265625,1.244491577148438
60745,-0.7849578857421875,0.3860626220703125,1.025741577148438
60746,-0.7637786865234375,0.2566070556640625,0.8321990966796875
60747,-0.7312774658203125,0.16168212890625,0.6746368408203125
60748,-0.6163787841796875,0.1368408203125,0.530853271484375
60749,-0.435699462890625,0.1449432373046875,0.40155029296875
60750,-0.22760009765625,0.1327056884765625,0.27783203125
60751,-0.0269927978515625,0.087310791015625,0.1260986328125
60752,0.12445068359375,0.0104522705078125,-0.0326385498046875
60753,0.21282958984375,-0.1070709228515625,-0.15283203125
60754,0.25506591796875,-0.2069091796875,-0.1991119384765625
60755,0.2661895751953125,-0.2555389404296875,-0.13421630859375
60756,0.2728729248046875,-0.237640380859375,0.02618408203125
60757,0.2591400146484375,-0.1553955078125,0.1607513427734375
60758,0.201385498046875,-0.054412841796875,0.2250213623046875
60759,0.101898193359375,0.0146636962890625,0.173614501953125
60760,0.0447998046875,0.0442352294921875,0.1507415771484375
60761,0.004150390625,0.024383544921875,0.222076416015625
60762,-0.02301025390625,0.1193389892578125,0.3067626953125
60763,-0.02099609375,0.263671875,0.3929290771484375
60764,-0.0533599853515625,0.3533172607421875,0.4493865966796875
60765,-0.0771942138671875,0.4670867919921875,0.4557647705078125
60766,0.0210723876953125,0.619232177734375,0.487396240234375
60767,0.2527313232421875,0.8089141845703125,0.5205841064453125
60768,0.511505126953125,1.236801147460938,0.7386932373046875
60769,0.78546142578125,1.905487060546875,0.9161529541015624
60770,1.153030395507812,2.468368530273438,0.9934539794921876
60771,1.439956665039062,2.656570434570312,1.104354858398438
60772,1.236343383789062,2.314422607421875,1.167373657226562
60773,0.622406005859375,2.032928466796875,1.380569458007812
60774,0.1417083740234375,1.957382202148438,1.599212646484375
60775,-0.3135223388671875,1.854202270507812,1.322769165039062
60776,-0.444610595703125,1.601242065429688,0.978057861328125
60777,-0.184295654296875,1.342880249023438,0.7277984619140625
60778,0.0565643310546875,1.119430541992188,0.6652069091796875
60779,0.064605712890625,0.994476318359375,0.697845458984375
60780,-0.0247344970703125,0.97369384765625,0.7231597900390625
60781,-0.083953857421875,0.84124755859375,0.6661224365234375
60782,-0.064483642578125,0.6157684326171875,0.5782318115234375
60783,0.0151519775390625,0.3612823486328125,0.5004425048828125
60784,0.0797271728515625,0.131011962890625,0.5532073974609375
60785,-0.0144805908203125,0.0593719482421875,0.5906219482421875
60786,-0.0941162109375,-0.0976715087890625,0.7603912353515625
60787,-0.3388519287109375,-0.2684326171875,0.5714263916015625
60788,-0.8101654052734375,-0.40106201171875,0.341888427734375
60789,-1.0323486328125,-0.37310791015625,0.065521240234375
60790,-0.7942657470703125,-0.191925048828125,-0.0708160400390625
60791,-0.48016357421875,-0.045013427734375,-0.0535125732421875
60792,-0.3144989013671875,-0.090789794921875,-0.091583251953125
60793,-0.11407470703125,-0.15283203125,-0.21417236328125
60794,0.08990478515625,-0.170166015625,-0.2206878662109375
60795,0.20123291015625,-0.1194305419921875,-0.0010986328125
60796,0.2232666015625,-0.0049591064453125,0.2370758056640625
60797,0.1670684814453125,0.2327880859375,0.3662109375
60798,0.1002044677734375,0.3932037353515625,0.4391632080078125
60799,0.082427978515625,0.388885498046875,0.54095458984375
60800,0.060760498046875,0.391845703125,0.7225799560546875
60801,-0.006561279296875,0.5055999755859375,0.9569244384765624
60802,-0.1355438232421875,0.7881622314453125,1.19818115234375
60803,-0.245208740234375,1.120193481445312,1.564727783203125
60804,-0.2034759521484375,1.323211669921875,1.806655883789062
60805,-0.075469970703125,1.5157470703125,1.663665771484375
60806,0.06939697265625,1.712203979492188,1.771575927734375
60807,0.1552581787109375,1.885787963867188,1.853240966796875
60808,0.1404876708984375,1.925918579101562,1.874114990234375
60809,-0.0445709228515625,1.592056274414062,1.749343872070312
60810,-0.4026031494140625,1.168746948242188,1.69976806640625
60811,-0.7866058349609375,0.915496826171875,1.694015502929688
60812,-1.074676513671875,0.8220672607421875,1.681442260742188
60813,-1.190887451171875,0.806243896484375,1.6572265625
60814,-1.135879516601562,0.7513580322265625,1.562057495117188
60815,-0.99139404296875,0.648956298828125,1.405853271484375
60816,-0.8536224365234375,0.5111083984375,1.236740112304688
60817,-0.78045654296875,0.3455047607421875,1.0740966796875
60818,-0.7384185791015625,0.207122802734375,0.9203033447265624
60819,-0.67437744140625,0.1374359130859375,0.751007080078125
60820,-0.5712738037109375,0.1235809326171875,0.5832977294921875
60821,-0.41259765625,0.1229248046875,0.4069366455078125
60822,-0.220306396484375,0.08355712890625,0.234619140625
60823,-0.0455780029296875,0.010284423828125,0.1164398193359375
60824,0.07806396484375,-0.0589447021484375,0.0425567626953125
60825,0.1457672119140625,-0.1202545166015625,-0.01568603515625
60826,0.183746337890625,-0.180633544921875,-0.004058837890625
60827,0.164642333984375,-0.202972412109375,0.040557861328125
60828,0.1280364990234375,-0.2172393798828125,0.1742706298828125
60829,0.121063232421875,-0.2207794189453125,0.2733001708984375
60830,0.1222381591796875,-0.182373046875,0.2230224609375
60831,0.118408203125,-0.102752685546875,0.148773193359375
60832,0.1312713623046875,0.0648193359375,0.103912353515625
60833,0.155670166015625,0.2812042236328125,0.121856689453125
60834,0.15625,0.426849365234375,0.2601470947265625
60835,0.0965576171875,0.5405731201171875,0.4504241943359375
60836,-0.0111541748046875,0.6038360595703125,0.4515533447265625
60837,0.029449462890625,0.794525146484375,0.385650634765625
60838,0.3854827880859375,1.16217041015625,0.4229736328125
60839,0.9241943359375,1.660690307617188,0.689910888671875
60840,1.291976928710938,2.258010864257812,1.037200927734375
60841,1.405899047851562,2.646575927734375,1.162734985351562
60842,1.713363647460938,2.434249877929688,1.179977416992188
60843,1.580642700195312,2.163040161132812,1.162139892578125
60844,1.12921142578125,2.122207641601562,1.36785888671875
60845,0.65081787109375,2.168670654296875,1.406723022460938
60846,-0.1320648193359375,2.027618408203125,0.9661407470703124
60847,-0.5615081787109375,1.496536254882812,0.6529388427734375
60848,-0.324066162109375,0.895843505859375,0.5469207763671875
60849,-0.010040283203125,0.66302490234375,0.6378173828125
60850,-0.0673370361328125,0.7487030029296875,0.8536529541015625
60851,-0.28271484375,0.9270782470703124,0.971832275390625
60852,-0.373382568359375,0.883819580078125,0.828460693359375
60853,-0.358123779296875,0.5978851318359375,0.4876708984375
60854,-0.3169708251953125,0.22119140625,0.3368682861328125
60855,-0.2175445556640625,-0.072265625,0.3748321533203125
60856,-0.0186614990234375,-0.27838134765625,0.49285888671875
60857,-0.037689208984375,-0.4071197509765625,0.4438629150390625
60858,-0.252777099609375,-0.4781341552734375,0.4646148681640625
60859,-0.662506103515625,-0.46551513671875,0.1994476318359375
60860,-0.9024505615234376,-0.4456024169921875,0.0366363525390625
60861,-0.7918243408203125,-0.33746337890625,0.0594329833984375
60862,-0.4952545166015625,-0.190399169921875,0.027435302734375
60863,-0.2126617431640625,-0.16595458984375,-0.07684326171875
60864,-0.044189453125,-0.2325897216796875,-0.1761322021484375
60865,0.0076904296875,-0.269805908203125,-0.2242584228515625
60866,-0.0015106201171875,-0.2053680419921875,-0.095672607421875
60867,-0.0350494384765625,-0.041717529296875,0.173187255859375
60868,-0.0185394287109375,0.157562255859375,0.3583984375
60869,0.0539093017578125,0.2631072998046875,0.396484375
60870,0.0771484375,0.249359130859375,0.3670196533203125
60871,0.008697509765625,0.2364501953125,0.4552764892578125
60872,-0.1321563720703125,0.373443603515625,0.6708221435546875
60873,-0.3249359130859375,0.751922607421875,0.99176025390625
60874,-0.40728759765625,1.32061767578125,1.554672241210938
60875,-0.1934661865234375,1.846603393554688,2.263442993164062
60876,0.266845703125,1.997955322265625,2.604141235351562
60877,0.541778564453125,1.914138793945312,2.281112670898438
60878,0.389556884765625,2.0391845703125,1.925949096679688
60879,0.0384521484375,2.045074462890625,1.8880615234375
60880,-0.33343505859375,1.726364135742188,1.965744018554688
60881,-0.6824798583984375,1.339141845703125,1.9063720703125
60882,-0.944488525390625,1.062362670898438,1.751373291015625
60883,-1.091690063476562,0.9009552001953124,1.655014038085938
60884,-1.110458374023438,0.8035430908203125,1.590744018554688
60885,-1.0032958984375,0.7048797607421875,1.473739624023438
60886,-0.8127288818359375,0.623321533203125,1.321304321289062
60887,-0.6438446044921875,0.5337982177734375,1.133041381835938
60888,-0.56658935546875,0.43035888671875,0.9645843505859376
60889,-0.557159423828125,0.333251953125,0.8157196044921875
60890,-0.5481109619140625,0.25360107421875,0.6139068603515625
60891,-0.4857330322265625,0.1977081298828125,0.3956451416015625
60892,-0.368316650390625,0.146514892578125,0.240081787109375
60893,-0.214691162109375,0.0750579833984375,0.1304779052734375
60894,-0.0350494384765625,-0.007537841796875,0.04150390625
60895,0.1531982421875,-0.060577392578125,0.0143890380859375
60896,0.2815399169921875,-0.0619964599609375,0.0177154541015625
60897,0.30072021484375,-0.0599822998046875,0.0100250244140625
60898,0.2735595703125,-0.08099365234375,0.084197998046875
60899,0.2163848876953125,-0.1131439208984375,0.16961669921875
60900,0.1155853271484375,-0.1273345947265625,0.241607666015625
60901,0.030426025390625,-0.0425872802734375,0.2089080810546875
60902,0.018341064453125,0.073394775390625,0.1752166748046875
60903,0.025665283203125,0.1327667236328125,0.1357574462890625
60904,0.049102783203125,0.1178741455078125,0.12054443359375
60905,0.105987548828125,0.102996826171875,0.1745452880859375
60906,0.11163330078125,0.16827392578125,0.29833984375
60907,-0.016082763671875,0.3367462158203125,0.4556121826171875
60908,-0.136871337890625,0.5291900634765625,0.616302490234375
60909,0.0020751953125,0.7130279541015625,0.6619873046875
60910,0.435455322265625,0.92333984375,0.5660858154296875
60911,0.829132080078125,1.369537353515625,0.602874755859375
60912,0.8358001708984375,2.103713989257812,0.7829742431640625
60913,0.5691070556640625,2.661087036132812,1.042800903320312
60914,0.4136199951171875,2.895233154296875,1.499786376953125
60915,0.3229827880859375,2.79754638671875,1.769851684570312
60916,0.1842803955078125,2.334091186523438,1.710861206054688
60917,-0.0047760009765625,1.914505004882812,1.275421142578125
60918,-0.0869140625,1.571990966796875,0.8525848388671875
60919,0.0074920654296875,1.293685913085938,0.7977447509765625
60920,0.13525390625,1.103286743164062,0.8543243408203125
60921,0.224517822265625,1.014617919921875,0.924224853515625
60922,0.1650543212890625,0.8835906982421875,0.8810272216796875
60923,-0.00750732421875,0.547119140625,0.705169677734375
60924,-0.1426849365234375,0.2003021240234375,0.5756683349609375
60925,-0.149627685546875,0.0440521240234375,0.547821044921875
60926,0.0155181884765625,-0.01715087890625,0.5567474365234375
60927,0.0168609619140625,-0.0388336181640625,0.3787841796875
60928,-0.3818817138671875,-0.173675537109375,0.191070556640625
60929,-0.7202606201171875,-0.389617919921875,0.0252227783203125
60930,-0.7977142333984375,-0.3572235107421875,-0.0577392578125
60931,-0.707122802734375,-0.0291900634765625,0.0016021728515625
60932,-0.51995849609375,0.1702728271484375,-0.00811767578125
60933,-0.2269287109375,0.0298919677734375,-0.2137451171875
60934,0.0557098388671875,-0.2024383544921875,-0.34588623046875
60935,0.23870849609375,-0.19671630859375,-0.31414794921875
60936,0.29327392578125,-0.07806396484375,-0.104400634765625
60937,0.2974395751953125,0.094268798828125,0.222869873046875
60938,0.3047637939453125,0.2134857177734375,0.4609222412109375
60939,0.332855224609375,0.2179412841796875,0.4978179931640625
60940,0.2651519775390625,0.224578857421875,0.467071533203125
60941,0.087066650390625,0.2808990478515625,0.59051513671875
60942,-0.026214599609375,0.3545379638671875,0.8370208740234375
60943,-0.09954833984375,0.4934844970703125,1.017349243164062
60944,-0.21575927734375,0.683837890625,1.250869750976562
60945,-0.37744140625,0.9665069580078124,1.591201782226562
60946,-0.535369873046875,1.215377807617188,2.106582641601562
60947,-0.57427978515625,1.33880615234375,2.358840942382812
60948,-0.4476165771484375,1.511749267578125,2.186203002929688
60949,-0.285003662109375,1.752639770507812,1.787887573242188
60950,-0.2926483154296875,1.855972290039062,1.68701171875
60951,-0.528656005859375,1.684341430664062,1.9873046875
60952,-0.824737548828125,1.29693603515625,2.107498168945312
60953,-0.9638519287109376,0.9691162109375,1.899017333984375
60954,-0.96246337890625,0.8190155029296875,1.665191650390625
60955,-0.9620208740234376,0.7617034912109375,1.513259887695312
60956,-0.8803253173828125,0.696746826171875,1.4039306640625
60957,-0.7082977294921875,0.61846923828125,1.224822998046875
60958,-0.593292236328125,0.508270263671875,1.050277709960938
60959,-0.5186767578125,0.3575897216796875,0.8887939453125
60960,-0.4687652587890625,0.244781494140625,0.6625213623046875
60961,-0.4186859130859375,0.2128753662109375,0.468597412109375
60962,-0.3159332275390625,0.2060699462890625,0.2914886474609375
60963,-0.1751708984375,0.166046142578125,0.13232421875
60964,-0.034637451171875,0.1105804443359375,0.0368804931640625
60965,0.068817138671875,0.0700836181640625,-0.0530242919921875
60966,0.13336181640625,0.0101165771484375,-0.0690460205078125
60967,0.14324951171875,-0.045196533203125,-0.05859375
60968,0.13580322265625,-0.072906494140625,0.0458984375
60969,0.132598876953125,-0.097198486328125,0.147003173828125
60970,0.086669921875,-0.10699462890625,0.138824462890625
60971,0.034912109375,-0.11981201171875,0.088470458984375
60972,-0.0071868896484375,-0.0901641845703125,0.0153961181640625
60973,-0.023101806640625,-0.0522613525390625,-0.0177154541015625
60974,-0.0155487060546875,-0.04937744140625,0.0391998291015625
60975,0.0213165283203125,0.0101165771484375,0.178924560546875
60976,0.0810394287109375,0.238250732421875,0.3638916015625
60977,0.0774078369140625,0.5389251708984375,0.597259521484375
60978,-0.0355377197265625,0.8865203857421875,0.850830078125
60979,-0.10577392578125,1.25799560546875,0.94781494140625
60980,-0.0240325927734375,1.632797241210938,0.8108062744140625
60981,0.226806640625,2.078216552734375,0.7388763427734375
60982,0.3899383544921875,2.591583251953125,0.91741943359375
60983,0.435028076171875,2.739349365234375,1.28875732421875
60984,0.5807342529296875,2.329574584960938,1.628082275390625
60985,0.61492919921875,1.888534545898438,1.761444091796875
60986,0.6060028076171875,1.6121826171875,1.517715454101562
60987,0.6095428466796875,1.552902221679688,1.081039428710938
60988,0.650909423828125,1.461013793945312,0.8607330322265625
60989,0.7111663818359375,1.287582397460938,0.7354583740234375
60990,0.5296783447265625,1.132598876953125,0.713104248046875
60991,0.19183349609375,0.8828125,0.746673583984375
60992,-0.0557403564453125,0.553436279296875,0.6609954833984375
60993,-0.1820220947265625,0.2973175048828125,0.5423736572265625
60994,-0.21612548828125,0.2019500732421875,0.495513916015625
60995,-0.3474884033203125,0.2581939697265625,0.413116455078125
60996,-0.3829803466796875,0.276702880859375,0.5948944091796875
60997,-0.4716339111328125,0.1659698486328125,0.4763641357421875
60998,-0.7966461181640625,-0.081756591796875,0.3697967529296875
60999,-1.139129638671875,-0.282958984375,0.3003387451171875
61000,-1.067474365234375,-0.2397003173828125,0.1383819580078125
61001,-0.856781005859375,-0.0198822021484375,0.0384063720703125
61002,-0.7496337890625,0.07635498046875,-0.012359619140625
61003,-0.5302276611328125,-0.04241943359375,-0.142333984375
61004,-0.219024658203125,-0.2910919189453125,-0.2444000244140625
61005,-0.013916015625,-0.3210296630859375,-0.203826904296875
61006,0.0363311767578125,-0.1587066650390625,-0.0236968994140625
61007,0.024688720703125,0.01995849609375,0.3204803466796875
61008,0.02276611328125,0.1030120849609375,0.5572967529296875
61009,0.0783538818359375,0.0662841796875,0.58087158203125
61010,0.17144775390625,0.0120391845703125,0.5068359375
61011,0.275054931640625,-0.0016632080078125,0.480377197265625
61012,0.371978759765625,0.0829315185546875,0.6023712158203125
61013,0.433258056640625,0.2942047119140625,0.856048583984375
61014,0.507110595703125,0.6136627197265625,1.161026000976562
61015,0.728851318359375,0.89288330078125,1.49993896484375
61016,1.074081420898438,1.134567260742188,1.771102905273438
61017,1.17047119140625,1.395187377929688,1.751846313476562
61018,0.927459716796875,1.865142822265625,1.414199829101562
61019,0.5400390625,2.335952758789062,1.407852172851562
61020,0.064056396484375,2.487640380859375,1.954391479492188
61021,-0.5277557373046875,2.336700439453125,2.270706176757812
61022,-0.9073028564453124,1.7801513671875,2.032577514648438
61023,-0.9881439208984376,1.467742919921875,1.614669799804688
61024,-0.9379730224609376,1.428253173828125,1.478378295898438
61025,-0.8759765625,1.340744018554688,1.591995239257812
61026,-0.7733306884765625,1.204696655273438,1.592620849609375
61027,-0.597991943359375,1.013168334960938,1.378311157226562
61028,-0.3589324951171875,0.7236175537109375,1.046890258789062
61029,-0.2199554443359375,0.457489013671875,0.8094635009765625
61030,-0.2270050048828125,0.2955322265625,0.696746826171875
61031,-0.2799224853515625,0.194366455078125,0.588470458984375
61032,-0.300201416015625,0.1248779296875,0.37701416015625
61033,-0.279327392578125,0.056182861328125,0.1025238037109375
61034,-0.2677459716796875,-0.001495361328125,-0.025543212890625
61035,-0.2763671875,-0.0545654296875,-0.07012939453125
61036,-0.2593536376953125,-0.1173095703125,-0.0148773193359375
61037,-0.0779876708984375,-0.143646240234375,0.1119232177734375
61038,0.062469482421875,-0.1322174072265625,0.077667236328125
61039,0.1153106689453125,-0.1537322998046875,0.074798583984375
61040,0.13409423828125,-0.2513427734375,0.0720977783203125
61041,0.0913543701171875,-0.370147705078125,0.022491455078125
61042,0.0594329833984375,-0.4692535400390625,0.05401611328125
61043,0.108428955078125,-0.46551513671875,0.1551971435546875
61044,0.272491455078125,-0.3269805908203125,0.3255615234375
61045,0.4030914306640625,0.0055084228515625,0.4161376953125
61046,0.3764190673828125,0.3444671630859375,0.4378204345703125
61047,0.3095703125,0.575958251953125,0.5791168212890625
61048,0.3608856201171875,0.651641845703125,0.647430419921875
61049,0.439605712890625,0.69610595703125,0.6533355712890625
61050,0.32867431640625,1.006546020507812,0.71142578125
61051,-0.0968017578125,1.67584228515625,0.873443603515625
61052,-0.2749176025390625,2.49468994140625,1.102386474609375
61053,0.0237579345703125,2.897293090820312,1.177886962890625
61054,0.203521728515625,2.651260375976562,1.334732055664062
61055,0.1549224853515625,2.298843383789062,1.597000122070312
61056,0.02056884765625,2.132797241210938,1.42535400390625
61057,-0.12677001953125,2.060531616210938,1.062118530273438
61058,-0.0701751708984375,1.796340942382812,0.9622039794921876
61059,0.1366729736328125,1.305862426757812,0.9131927490234376
61060,0.2904815673828125,0.93804931640625,0.8778839111328125
61061,0.3068084716796875,0.699676513671875,0.731414794921875
61062,0.226104736328125,0.4746246337890625,0.674774169921875
61063,0.1850128173828125,0.267913818359375,0.7420654296875
61064,-0.1119232177734375,0.2080535888671875,0.780426025390625
61065,-0.765411376953125,0.2826690673828125,0.772369384765625
61066,-1.168075561523438,0.1556854248046875,0.8480682373046875
61067,-0.969268798828125,-0.0454254150390625,0.7449493408203125
61068,-0.7666015625,-0.1031951904296875,0.4675750732421875
61069,-0.5913848876953125,-0.0494384765625,0.259429931640625
61070,-0.16925048828125,-0.101776123046875,0.0063934326171875
61071,0.25390625,-0.214080810546875,-0.223388671875
61072,0.4574432373046875,-0.185760498046875,-0.3478546142578125
61073,0.3705902099609375,-0.015625,-0.2962646484375
61074,0.23028564453125,0.117767333984375,-0.1584625244140625
61075,0.120880126953125,0.0248260498046875,-0.1775970458984375
61076,0.01873779296875,-0.1195526123046875,-0.1828460693359375
61077,-0.0221710205078125,-0.170989990234375,-0.0633392333984375
61078,0.010589599609375,-0.1109466552734375,0.103790283203125
61079,0.07183837890625,0.0099945068359375,0.2339324951171875
61080,0.0726470947265625,0.1428070068359375,0.313812255859375
61081,0.0243072509765625,0.293426513671875,0.4395904541015625
61082,-0.0335540771484375,0.4398193359375,0.5910797119140625
61083,-0.1374359130859375,0.5776824951171875,0.7439727783203125
61084,-0.3221282958984375,0.758941650390625,0.965911865234375
61085,-0.5333404541015625,1.030685424804688,1.2076416015625
61086,-0.7361907958984375,1.365142822265625,1.401199340820312
61087,-0.886810302734375,1.672592163085938,1.89190673828125
61088,-0.950469970703125,1.764846801757812,2.569793701171875
61089,-0.9156494140625,1.848220825195312,2.7872314453125
61090,-0.7736358642578125,2.154495239257812,2.509429931640625
61091,-0.692596435546875,2.242599487304688,2.29364013671875
61092,-0.79052734375,1.75244140625,2.050445556640625
61093,-0.82275390625,1.179367065429688,1.762619018554688
61094,-0.7676849365234375,0.90185546875,1.60888671875
61095,-0.7161102294921875,0.7841796875,1.539520263671875
61096,-0.7012939453125,0.7263641357421875,1.422775268554688
61097,-0.6746673583984375,0.625701904296875,1.245391845703125
61098,-0.599090576171875,0.4780120849609375,1.020339965820312
61099,-0.526092529296875,0.3729705810546875,0.785247802734375
61100,-0.4629974365234375,0.3182220458984375,0.60760498046875
61101,-0.395050048828125,0.251983642578125,0.399200439453125
61102,-0.30718994140625,0.1670684814453125,0.221435546875
61103,-0.21148681640625,0.037353515625,0.0562286376953125
61104,-0.0853118896484375,-0.061767578125,-0.037445068359375
61105,0.0450897216796875,-0.091644287109375,-0.1178131103515625
61106,0.164581298828125,-0.1380767822265625,-0.1541900634765625
61107,0.3082275390625,-0.231414794921875,-0.1173248291015625
61108,0.37603759765625,-0.2667388916015625,-0.07708740234375
61109,0.373504638671875,-0.224517822265625,0.088409423828125
61110,0.3104705810546875,-0.1769256591796875,0.1397247314453125
61111,0.2101593017578125,-0.101043701171875,0.075286865234375
61112,0.119598388671875,-0.0989990234375,0.062530517578125
61113,0.0622406005859375,-0.126708984375,0.090667724609375
61114,0.049530029296875,-0.07562255859375,0.162628173828125
61115,0.0652618408203125,0.091583251953125,0.2879638671875
61116,0.078582763671875,0.2383270263671875,0.4904632568359375
61117,-0.0032958984375,0.3406829833984375,0.6786651611328125
61118,-0.1713714599609375,0.6516876220703125,0.757843017578125
61119,-0.2787017822265625,1.088394165039062,0.6814117431640625
61120,-0.3221588134765625,1.4072265625,0.5131988525390625
61121,-0.3461151123046875,1.825729370117188,0.55609130859375
61122,-0.2689056396484375,2.340072631835938,0.8016357421875
61123,-0.0866546630859375,2.791763305664062,1.170242309570312
61124,0.043914794921875,3.127609252929688,1.292343139648438
61125,0.122589111328125,3.139419555664062,1.228225708007812
61126,0.28314208984375,2.728240966796875,0.8903350830078125
61127,0.62762451171875,2.045318603515625,0.62762451171875
61128,1.0147705078125,1.282669067382812,0.5464324951171875
61129,1.168991088867188,0.7742156982421875,0.6605682373046875
61130,1.104751586914062,0.5207366943359375,0.9909515380859376
61131,0.9156036376953124,0.5106048583984375,1.078048706054688
61132,0.6586456298828125,0.507537841796875,1.094024658203125
61133,0.403350830078125,0.410797119140625,0.973602294921875
61134,0.178466796875,0.269866943359375,0.71136474609375
61135,-0.1101531982421875,0.1540679931640625,0.5579071044921875
61136,-0.4853668212890625,-0.029510498046875,0.482757568359375
61137,-0.8851318359375,-0.172119140625,0.3428955078125
61138,-1.138107299804688,-0.23187255859375,0.248321533203125
61139,-1.112045288085938,-0.2745208740234375,0.1467132568359375
61140,-0.753143310546875,-0.2032012939453125,0.08819580078125
61141,-0.418548583984375,-0.0836181640625,0.1299591064453125
61142,-0.298675537109375,-0.0206298828125,0.1409454345703125
61143,-0.2613677978515625,0.0014801025390625,0.1118621826171875
61144,-0.1712646484375,-0.0164947509765625,-0.0142822265625
61145,-0.195556640625,-0.0260162353515625,0.0001068115234375
61146,-0.22320556640625,0.05242919921875,0.0164642333984375
61147,-0.216278076171875,0.1323089599609375,0.0238037109375
61148,-0.226318359375,0.1653900146484375,0.086090087890625
61149,-0.211029052734375,0.179656982421875,0.1564178466796875
61150,-0.1958465576171875,0.2246551513671875,0.2885894775390625
61151,-0.3110198974609375,0.3531341552734375,0.459625244140625
61152,-0.515045166015625,0.5579376220703125,0.6484375
61153,-0.6249847412109375,0.740081787109375,0.792633056640625
61154,-0.5371551513671875,0.8603363037109375,0.927642822265625
61155,-0.135894775390625,1.002609252929688,1.4310302734375
61156,0.59979248046875,1.092193603515625,2.234542846679688
61157,1.53448486328125,1.132644653320312,2.388229370117188
61158,2.046829223632812,1.3743896484375,1.842605590820312
61159,1.928024291992188,1.853805541992188,1.320907592773438
61160,1.215164184570312,2.0257568359375,1.384445190429688
61161,0.4008026123046875,1.834091186523438,1.748733520507812
61162,-0.3515472412109375,1.367462158203125,1.830841064453125
61163,-0.7437286376953125,1.1082763671875,1.762115478515625
61164,-0.8725433349609375,1.146209716796875,1.57086181640625
61165,-0.9402313232421876,1.155441284179688,1.447341918945312
61166,-0.89508056640625,1.122024536132812,1.46136474609375
61167,-0.8074951171875,1.089385986328125,1.446487426757812
61168,-0.77276611328125,1.051727294921875,1.247512817382812
61169,-0.7775115966796875,0.9300689697265624,0.97943115234375
61170,-0.77069091796875,0.732635498046875,0.7391204833984375
61171,-0.7376861572265625,0.5384063720703125,0.5048828125
61172,-0.63677978515625,0.342132568359375,0.2978973388671875
61173,-0.4765777587890625,0.1761627197265625,0.105010986328125
61174,-0.312591552734375,0.076263427734375,-0.0217742919921875
61175,-0.210357666015625,0.0232391357421875,-0.060699462890625
61176,-0.2562103271484375,-0.046142578125,-0.11767578125
61177,-0.3406219482421875,-0.1305084228515625,-0.09136962890625
61178,-0.2831573486328125,-0.1693572998046875,0.0377960205078125
61179,-0.12078857421875,-0.1638641357421875,0.1956787109375
61180,0.0550689697265625,-0.13262939453125,0.30059814453125
61181,0.1793975830078125,-0.112579345703125,0.28436279296875
61182,0.2165679931640625,-0.1411895751953125,0.1974639892578125
61183,0.189788818359375,-0.1817779541015625,0.181884765625
61184,0.1613311767578125,-0.2114410400390625,0.294647216796875
61185,0.1395263671875,-0.070465087890625,0.4089813232421875
61186,0.1270294189453125,0.1771087646484375,0.545501708984375
61187,0.1540374755859375,0.379974365234375,0.5612640380859375
61188,0.268707275390625,0.5823211669921875,0.60003662109375
61189,0.470977783203125,0.750732421875,0.6541900634765625
61190,0.4277801513671875,1.155838012695312,0.6492919921875
61191,0.0197296142578125,1.82452392578125,0.71527099609375
61192,-0.14501953125,2.48577880859375,0.80731201171875
61193,0.242218017578125,2.916641235351562,1.035980224609375
61194,0.6020660400390625,2.87396240234375,1.159652709960938
61195,0.476806640625,2.495590209960938,1.19970703125
61196,0.1220703125,2.220596313476562,1.075775146484375
61197,-0.059600830078125,2.014541625976562,0.7889251708984375
61198,0.10064697265625,1.694503784179688,0.694610595703125
61199,0.3854217529296875,1.298370361328125,0.812774658203125
61200,0.462982177734375,1.068649291992188,0.9783172607421876
61201,0.271697998046875,0.909088134765625,1.128616333007812
61202,-0.0449981689453125,0.721282958984375,1.102386474609375
61203,-0.270904541015625,0.43634033203125,1.004470825195312
61204,-0.287841796875,0.111236572265625,0.81365966796875
61205,-0.54608154296875,-0.0662994384765625,0.4912872314453125
61206,-1.055679321289062,-0.1327056884765625,0.331573486328125
61207,-1.274505615234375,-0.2816925048828125,0.3077545166015625
61208,-1.3402099609375,-0.32257080078125,0.2973175048828125
61209,-1.242156982421875,-0.26702880859375,0.2423553466796875
61210,-0.8885345458984375,-0.2191162109375,-0.074432373046875
61211,-0.36663818359375,-0.1467132568359375,-0.1843719482421875
61212,0.0961151123046875,-0.081756591796875,-0.235198974609375
61213,0.3363037109375,-0.172576904296875,-0.260955810546875
61214,0.3529052734375,-0.1558380126953125,-0.173797607421875
61215,0.2728729248046875,-0.1247100830078125,-0.0438995361328125
61216,0.257080078125,-0.1491851806640625,0.138427734375
61217,0.32958984375,-0.121978759765625,0.289642333984375
61218,0.443084716796875,-0.0161590576171875,0.39892578125
61219,0.4855499267578125,0.0502471923828125,0.514007568359375
61220,0.4235992431640625,-0.0161590576171875,0.4998931884765625
61221,0.3985748291015625,0.0355987548828125,0.3428497314453125
61222,0.366119384765625,0.2615966796875,0.2342529296875
61223,0.19427490234375,0.440185546875,0.40399169921875
61224,-0.022064208984375,0.5060272216796875,0.6654052734375
61225,-0.229248046875,0.5715484619140625,1.044876098632812
61226,-0.3941192626953125,0.779327392578125,1.565536499023438
61227,-0.5938568115234375,1.214263916015625,2.158798217773438
61228,-0.8000946044921875,1.810043334960938,2.43023681640625
61229,-0.8830718994140625,2.35687255859375,2.101348876953125
61230,-0.7798919677734375,2.402069091796875,1.95477294921875
61231,-0.7720947265625,2.074600219726562,2.267654418945312
61232,-0.7945709228515625,1.71771240234375,2.201675415039062
61233,-0.7837982177734375,1.41387939453125,1.841705322265625
61234,-0.916107177734375,1.247955322265625,1.507034301757812
61235,-1.126754760742188,1.18511962890625,1.342086791992188
61236,-1.1981201171875,1.113250732421875,1.279586791992188
61237,-1.046676635742188,0.9875946044921876,1.247116088867188
61238,-0.763580322265625,0.8294219970703125,1.15228271484375
61239,-0.438995361328125,0.6828460693359375,0.891448974609375
61240,-0.2073974609375,0.53582763671875,0.5675811767578125
61241,-0.1407318115234375,0.4303131103515625,0.33441162109375
61242,-0.1653900146484375,0.3569793701171875,0.159271240234375
61243,-0.1830902099609375,0.2862548828125,0.0261688232421875
61244,-0.17059326171875,0.168670654296875,-0.0749359130859375
61245,-0.145538330078125,0.0143585205078125,-0.13482666015625
61246,-0.1271514892578125,-0.0986785888671875,-0.108917236328125
61247,-0.07879638671875,-0.11297607421875,-0.0375823974609375
61248,0.0744476318359375,-0.0277862548828125,0.065765380859375
61249,0.1758575439453125,0.010223388671875,0.058746337890625
61250,0.179595947265625,-0.0711212158203125,-0.024139404296875
61251,0.1701507568359375,-0.2316131591796875,-0.0126190185546875
61252,0.1069488525390625,-0.34222412109375,0.038970947265625
61253,0.0706939697265625,-0.3237152099609375,0.1476898193359375
61254,0.09857177734375,-0.14483642578125,0.2936248779296875
61255,0.110992431640625,0.1490936279296875,0.451019287109375
61256,0.0362701416015625,0.4368743896484375,0.655029296875
61257,0.027801513671875,0.6347503662109375,0.8163909912109375
61258,0.15582275390625,0.832611083984375,0.74468994140625
61259,0.1721954345703125,1.167373657226562,0.6823577880859375
61260,0.2010955810546875,1.709732055664062,0.6576385498046875
61261,0.5063323974609375,2.337738037109375,0.8258056640625
61262,0.68408203125,2.609390258789062,1.194122314453125
61263,0.61175537109375,2.293853759765625,1.53802490234375
61264,0.31329345703125,1.949844360351562,1.71185302734375
61265,-0.0218658447265625,1.850830078125,1.526123046875
61266,-0.060333251953125,1.8126220703125,1.135299682617188
61267,0.0941925048828125,1.684188842773438,0.813232421875
61268,0.2537078857421875,1.382598876953125,0.781707763671875
61269,0.2380828857421875,1.145721435546875,0.815277099609375
61270,-0.0500946044921875,0.9928436279296876,0.816009521484375
61271,-0.39105224609375,0.7349700927734375,0.6982574462890625
61272,-0.544891357421875,0.49774169921875,0.6003265380859375
61273,-0.501922607421875,0.3958892822265625,0.549591064453125
61274,-0.225799560546875,0.1846771240234375,0.5603485107421875
61275,0.1794281005859375,-0.1125335693359375,0.631439208984375
61276,0.213653564453125,-0.3314361572265625,0.437896728515625
61277,-0.264984130859375,-0.511138916015625,0.219940185546875
61278,-0.696624755859375,-0.6753082275390625,0.0540618896484375
61279,-0.8040313720703125,-0.2581634521484375,0.001312255859375
61280,-0.54315185546875,0.1084442138671875,0.110260009765625
61281,-0.21282958984375,0.067352294921875,0.0583953857421875
61282,0.057037353515625,0.0267486572265625,-0.1244964599609375
61283,0.284332275390625,-0.1068267822265625,-0.2638702392578125
61284,0.41033935546875,-0.1004180908203125,-0.186431884765625
61285,0.3779449462890625,0.118133544921875,0.064971923828125
61286,0.2960357666015625,0.3635406494140625,0.4285430908203125
61287,0.242034912109375,0.4444122314453125,0.640289306640625
61288,0.2374725341796875,0.3961334228515625,0.5936431884765625
61289,0.15997314453125,0.3701019287109375,0.456390380859375
61290,-0.0392913818359375,0.400970458984375,0.5475616455078125
61291,-0.2173919677734375,0.4489898681640625,0.76959228515625
61292,-0.2970123291015625,0.553558349609375,0.9151611328125
61293,-0.3639373779296875,0.75189208984375,1.08782958984375
61294,-0.4870758056640625,1.028671264648438,1.326522827148438
61295,-0.680511474609375,1.298477172851562,1.633514404296875
61296,-0.98162841796875,1.427688598632812,1.8582763671875
61297,-1.194122314453125,1.402542114257812,1.96624755859375
61298,-1.094268798828125,1.246627807617188,2.038589477539062
61299,-0.85919189453125,1.188385009765625,1.970565795898438
61300,-0.875213623046875,1.246322631835938,1.926773071289062
61301,-1.202972412109375,1.229217529296875,1.860153198242188
61302,-1.414291381835938,1.008560180664062,1.646347045898438
61303,-1.401046752929688,0.7470245361328125,1.4873046875
61304,-1.281585693359375,0.58837890625,1.509765625
61305,-1.1328125,0.526397705078125,1.460708618164062
61306,-0.92584228515625,0.5041046142578125,1.303329467773438
61307,-0.660186767578125,0.454132080078125,1.11083984375
61308,-0.4160003662109375,0.3924102783203125,0.87420654296875
61309,-0.2505645751953125,0.3476409912109375,0.594940185546875
61310,-0.151336669921875,0.319183349609375,0.3321533203125
61311,-0.0428466796875,0.2520294189453125,0.116973876953125
61312,0.0630035400390625,0.18658447265625,-0.016632080078125
61313,0.0959930419921875,0.0736846923828125,-0.0461883544921875
61314,0.0542755126953125,-0.034393310546875,-0.0634002685546875
61315,0.0018768310546875,-0.1014404296875,-0.09375
61316,0.06927490234375,-0.1479034423828125,-0.0288238525390625
61317,0.2408599853515625,-0.1472015380859375,0.0078887939453125
61318,0.2816162109375,-0.1904296875,-0.0127716064453125
61319,0.237823486328125,-0.2220916748046875,0.0386505126953125
61320,0.23779296875,-0.21087646484375,0.0373382568359375
61321,0.2652740478515625,-0.2237548828125,-0.0547943115234375
61322,0.28076171875,-0.0843658447265625,0.0520782470703125
61323,0.296783447265625,0.1285247802734375,0.274627685546875
61324,0.32855224609375,0.2852325439453125,0.6331024169921875
61325,0.2910003662109375,0.546844482421875,0.9564056396484376
61326,0.190277099609375,0.9775543212890624,0.8820953369140625
61327,0.144866943359375,1.394073486328125,0.698638916015625
61328,0.2923431396484375,1.829086303710938,0.6074676513671875
61329,0.4692840576171875,2.43017578125,0.717803955078125
61330,0.262786865234375,2.778030395507812,1.306793212890625
61331,-0.19256591796875,2.4979248046875,1.641189575195312
61332,-0.5644073486328125,2.263076782226562,1.564102172851562
61333,-0.6403961181640625,2.179107666015625,1.336746215820312
61334,-0.413848876953125,2.062652587890625,0.96563720703125
61335,-0.071533203125,1.845947265625,0.8908843994140625
61336,0.3243865966796875,1.428421020507812,0.9590911865234376
61337,0.52435302734375,1.054229736328125,0.9324798583984376
61338,0.4119873046875,0.779144287109375,0.9940032958984376
61339,0.2261199951171875,0.5258026123046875,1.058486938476562
61340,0.1304473876953125,0.3004913330078125,0.9108123779296876
61341,0.118011474609375,0.10052490234375,0.6215057373046875
61342,0.062744140625,-0.0556640625,0.3897705078125
61343,-0.038726806640625,-0.1304931640625,0.2505035400390625
61344,-0.088470458984375,-0.1562652587890625,0.29779052734375
61345,-0.119415283203125,-0.1663055419921875,0.2906951904296875
61346,-0.29071044921875,-0.208740234375,0.19525146484375
61347,-0.4105072021484375,-0.2494659423828125,0.19439697265625
61348,-0.2618865966796875,-0.295379638671875,0.138580322265625
61349,0.005859375,-0.2922821044921875,0.0928497314453125
61350,0.1398468017578125,-0.216552734375,0.0574951171875
61351,0.1852569580078125,-0.1319732666015625,0.0949859619140625
61352,0.2242584228515625,-0.0522003173828125,0.1280975341796875
61353,0.2120819091796875,-0.0167694091796875,0.166900634765625
61354,0.1533966064453125,0.067169189453125,0.1853790283203125
61355,0.0821380615234375,0.1919403076171875,0.2238006591796875
61356,-0.0288848876953125,0.2916412353515625,0.2978057861328125
61357,-0.1361846923828125,0.38067626953125,0.3821258544921875
61358,-0.220672607421875,0.477264404296875,0.4917755126953125
61359,-0.345123291015625,0.58233642578125,0.676177978515625
61360,-0.5557861328125,0.743927001953125,0.715087890625
61361,-0.7200469970703125,1.075775146484375,0.8609466552734375
61362,-0.5830078125,1.439926147460938,1.377410888671875
61363,-0.1410980224609375,1.68402099609375,1.754165649414062
61364,0.2633819580078125,1.856765747070312,1.836746215820312
61365,0.3387298583984375,2.003005981445312,1.807846069335938
61366,0.1010894775390625,2.000686645507812,1.851608276367188
61367,-0.0918426513671875,1.782501220703125,1.900604248046875
61368,-0.176513671875,1.39825439453125,1.814102172851562
61369,-0.2520751953125,1.126296997070312,1.786056518554688
61370,-0.3559417724609375,0.9866485595703124,1.79632568359375
61371,-0.4688568115234375,0.860107421875,1.711837768554688
61372,-0.51397705078125,0.7170257568359375,1.499114990234375
61373,-0.583465576171875,0.5701446533203125,1.271530151367188
61374,-0.6844329833984375,0.457550048828125,1.112869262695312
61375,-0.75750732421875,0.3880157470703125,0.970733642578125
61376,-0.75189208984375,0.3164215087890625,0.819244384765625
61377,-0.6552886962890625,0.228515625,0.65869140625
61378,-0.50506591796875,0.1357879638671875,0.4962158203125
61379,-0.3209686279296875,0.05047607421875,0.302764892578125
61380,-0.1319427490234375,-0.0239715576171875,0.1154327392578125
61381,0.0257110595703125,-0.05999755859375,0.0034637451171875
61382,0.0953826904296875,-0.0858154296875,-0.00701904296875
61383,0.0724334716796875,-0.137847900390625,-0.0054168701171875
61384,-0.014617919921875,-0.2264556884765625,0.0589447021484375
61385,-0.1237030029296875,-0.2718505859375,0.1590118408203125
61386,-0.1267547607421875,-0.282958984375,0.284149169921875
61387,-0.0457763671875,-0.2535400390625,0.2957611083984375
61388,0.0528564453125,-0.16253662109375,0.27691650390625
61389,0.1656646728515625,-0.1020660400390625,0.2571563720703125
61390,0.1998443603515625,0.048736572265625,0.2180633544921875
61391,0.145660400390625,0.29644775390625,0.3312530517578125
61392,-0.0491790771484375,0.5999603271484375,0.4747161865234375
61393,-0.3523406982421875,0.897491455078125,0.51519775390625
61394,-0.4840240478515625,1.118820190429688,0.4006195068359375
61395,-0.3410797119140625,1.5198974609375,0.303009033203125
61396,0.225830078125,2.054962158203125,0.599090576171875
61397,1.088241577148438,2.574111938476562,1.1544189453125
61398,1.629302978515625,2.863677978515625,1.455703735351562
61399,1.397186279296875,2.584716796875,1.410675048828125
61400,0.9596405029296876,2.143569946289062,1.476547241210938
61401,0.80218505859375,2.0089111328125,1.37109375
61402,0.628997802734375,1.87139892578125,1.269027709960938
61403,0.38818359375,1.368743896484375,1.179229736328125
61404,0.2418975830078125,0.845489501953125,1.048553466796875
61405,0.2162322998046875,0.6480560302734375,0.9149932861328124
61406,0.1836395263671875,0.6309814453125,0.9057464599609376
61407,0.1197509765625,0.6120758056640625,0.9075164794921876
61408,0.0262451171875,0.5099334716796875,0.83087158203125
61409,-0.0926055908203125,0.350860595703125,0.6547393798828125
61410,-0.1804962158203125,0.1963348388671875,0.532958984375
61411,-0.360443115234375,0.0730133056640625,0.410552978515625
61412,-0.694976806640625,-0.1509552001953125,0.327728271484375
61413,-1.009048461914062,-0.406585693359375,0.1588287353515625
61414,-1.1248779296875,-0.443267822265625,-0.01702880859375
61415,-1.030838012695312,-0.29876708984375,-0.073974609375
61416,-0.8892364501953125,-0.2020721435546875,-0.1712646484375
61417,-0.73822021484375,-0.1439666748046875,-0.205535888671875
61418,-0.5300140380859375,-0.0546875,-0.1164703369140625
61419,-0.3140716552734375,0.024688720703125,-0.002105712890625
61420,-0.19476318359375,0.019989013671875,0.109649658203125
61421,-0.2227020263671875,-0.01751708984375,0.16082763671875
61422,-0.3551788330078125,-0.022003173828125,0.2423553466796875
61423,-0.483642578125,0.0733795166015625,0.288787841796875
61424,-0.546905517578125,0.1856689453125,0.4117889404296875
61425,-0.509429931640625,0.378387451171875,0.5299224853515625
61426,-0.234375,0.621978759765625,0.73516845703125
61427,0.296630859375,0.933837890625,0.9005584716796875
61428,1.14642333984375,1.278488159179688,1.136184692382812
61429,2.468475341796875,1.615493774414062,1.2802734375
61430,3.695663452148438,1.943466186523438,1.492477416992188
61431,3.94183349609375,2.339675903320312,1.716644287109375
61432,2.675033569335938,2.084197998046875,1.563583374023438
61433,1.013336181640625,1.33868408203125,1.4066162109375
61434,-0.0960693359375,1.0135498046875,1.215667724609375
61435,-0.7664337158203125,0.87054443359375,1.120315551757812
61436,-1.323211669921875,0.8261871337890625,1.121444702148438
61437,-1.697662353515625,0.9601898193359376,1.304153442382812
61438,-1.497787475585938,1.230514526367188,1.436630249023438
61439,-0.898529052734375,1.326461791992188,1.396194458007812
61440,-0.3811492919921875,1.233505249023438,1.22161865234375
61441,-0.119781494140625,1.08123779296875,1.0272216796875
61442,-0.0531768798828125,0.944427490234375,0.9001007080078125
61443,-0.0857391357421875,0.787384033203125,0.743072509765625
61444,-0.1410064697265625,0.56927490234375,0.574310302734375
61445,-0.1709442138671875,0.3611602783203125,0.4494171142578125
61446,-0.181671142578125,0.20208740234375,0.280364990234375
61447,-0.2130126953125,0.0343780517578125,0.0888671875
61448,-0.248046875,-0.142974853515625,-0.01776123046875
61449,-0.27618408203125,-0.3130950927734375,-0.0316314697265625
61450,-0.2854766845703125,-0.4264678955078125,0.0166168212890625
61451,-0.1965179443359375,-0.3656463623046875,0.1087493896484375
61452,0.00653076171875,-0.1165008544921875,0.194580078125
61453,0.31182861328125,0.1846923828125,0.2530670166015625
61454,0.6070098876953125,0.319854736328125,0.164642333984375
61455,0.71929931640625,0.1669464111328125,0.14422607421875
61456,0.6866455078125,-0.0616912841796875,0.1858062744140625
61457,0.6440887451171875,-0.1091766357421875,0.247100830078125
61458,0.59619140625,0.1201019287109375,0.485809326171875
61459,0.4867401123046875,0.5311279296875,0.66973876953125
61460,0.3852691650390625,0.8929443359375,0.8601226806640625
61461,0.3014068603515625,1.147354125976562,0.879791259765625
61462,0.2267608642578125,1.403961181640625,0.7792510986328125
61463,0.226043701171875,1.690322875976562,0.520294189453125
61464,0.3759918212890625,1.729782104492188,0.3887176513671875
61465,0.7502899169921875,1.71160888671875,0.6708984375
61466,1.077789306640625,1.979476928710938,0.8914947509765625
61467,0.959259033203125,2.329681396484375,1.068679809570312
61468,0.6947021484375,2.367523193359375,1.094284057617188
61469,0.380523681640625,2.12847900390625,0.8120269775390625
61470,0.0939483642578125,1.761703491210938,0.4408721923828125
61471,0.0920257568359375,1.284011840820312,0.3305206298828125
61472,0.2689971923828125,1.014572143554688,0.5471649169921875
61473,0.3025054931640625,0.95989990234375,0.9162445068359376
61474,-0.0411376953125,1.021469116210938,1.061874389648438
61475,-0.527069091796875,0.963531494140625,0.9644775390625
61476,-0.6757659912109375,0.608306884765625,0.4129791259765625
61477,-0.4576416015625,0.2775115966796875,0.0878143310546875
61478,-0.2317352294921875,0.0325775146484375,0.246185302734375
61479,-0.1580657958984375,-0.0865325927734375,0.5402679443359375
61480,-0.2401123046875,-0.0933990478515625,0.7118072509765625
61481,-0.333099365234375,-0.09271240234375,0.607513427734375
61482,-0.40765380859375,-0.0940399169921875,0.297210693359375
61483,-0.38519287109375,-0.1517486572265625,0.0958251953125
61484,-0.283599853515625,-0.19610595703125,-0.009735107421875
61485,-0.164764404296875,-0.2234954833984375,-0.043365478515625
61486,-0.107452392578125,-0.2437896728515625,-0.046417236328125
61487,-0.092315673828125,-0.2608489990234375,0.05340576171875
61488,-0.063995361328125,-0.216339111328125,0.270355224609375
61489,-0.0125274658203125,-0.08465576171875,0.4062652587890625
61490,0.0292205810546875,-0.02520751953125,0.3318939208984375
61491,0.034881591796875,-0.0119781494140625,0.2249908447265625
61492,-0.048980712890625,0.0785064697265625,0.20367431640625
61493,-0.1337890625,0.2720489501953125,0.368194580078125
61494,-0.121978759765625,0.4840087890625,0.674530029296875
61495,-0.0733642578125,0.7818145751953125,0.9840087890625
61496,-0.0589599609375,1.264083862304688,1.347930908203125
61497,0.0875701904296875,1.852508544921875,2.07696533203125
61498,0.3560943603515625,2.402389526367188,2.5343017578125
61499,0.4173431396484375,2.488449096679688,2.224395751953125
61500,0.1763153076171875,2.090988159179688,1.804962158203125
61501,-0.2877197265625,1.841629028320312,1.8106689453125
61502,-0.69927978515625,1.654449462890625,1.89984130859375
61503,-0.96014404296875,1.26861572265625,1.758834838867188
61504,-1.05487060546875,0.9613037109375,1.60076904296875
61505,-1.029281616210938,0.8712310791015625,1.421615600585938
61506,-0.9079132080078124,0.8327789306640625,1.369720458984375
61507,-0.70318603515625,0.7962799072265625,1.357711791992188
61508,-0.4526824951171875,0.6915130615234375,1.196319580078125
61509,-0.2854461669921875,0.4524383544921875,0.891754150390625
61510,-0.2608795166015625,0.20721435546875,0.640533447265625
61511,-0.321502685546875,0.06976318359375,0.486358642578125
61512,-0.3408050537109375,0.033782958984375,0.4088897705078125
61513,-0.25726318359375,0.021636962890625,0.3172760009765625
61514,-0.1147003173828125,-0.0282135009765625,0.1752166748046875
61515,0.02947998046875,-0.0313568115234375,0.0567626953125
61516,0.09808349609375,-0.0080718994140625,-0.0153961181640625
61517,0.03826904296875,-0.03082275390625,-0.0510406494140625
61518,-0.111541748046875,-0.0845947265625,-0.02313232421875
61519,-0.2137908935546875,-0.168182373046875,0.123077392578125
61520,-0.1977691650390625,-0.229736328125,0.2237701416015625
61521,-0.1310882568359375,-0.218231201171875,0.2281646728515625
61522,-0.070709228515625,-0.1488189697265625,0.158355712890625
61523,-0.0616302490234375,-0.07421875,0.104461669921875
61524,-0.1004638671875,-0.03717041015625,0.2416229248046875
61525,-0.168914794921875,0.0777130126953125,0.421417236328125
61526,-0.1676483154296875,0.4130401611328125,0.608642578125
61527,-0.0890655517578125,0.773284912109375,0.8040771484375
61528,0.051605224609375,1.07232666015625,0.918304443359375
61529,0.3102569580078125,1.34381103515625,0.9882965087890624
61530,0.609405517578125,1.553359985351562,0.9537200927734376
61531,0.7621002197265625,1.75567626953125,0.938323974609375
61532,0.6661376953125,2.142486572265625,0.9254150390625
61533,0.5573883056640625,2.420989990234375,0.8713531494140625
61534,0.680816650390625,2.509765625,0.933837890625
61535,0.6642608642578125,2.437545776367188,1.09722900390625
61536,0.6087188720703125,2.225616455078125,1.184783935546875
61537,0.6526336669921875,1.990692138671875,1.032379150390625
61538,0.561004638671875,1.67138671875,0.7356719970703125
61539,0.443084716796875,1.184921264648438,0.579864501953125
61540,0.3753509521484375,0.736328125,0.5368804931640625
61541,0.1781158447265625,0.5155029296875,0.6336517333984375
61542,-0.1508636474609375,0.499237060546875,0.8484649658203125
61543,-0.4369049072265625,0.4794769287109375,0.8684539794921875
61544,-0.4672393798828125,0.2966156005859375,0.788543701171875
61545,-0.3421173095703125,0.122894287109375,0.5900726318359375
61546,-0.550811767578125,-0.085357666015625,0.420074462890625
61547,-0.977783203125,-0.360198974609375,0.387298583984375
61548,-1.298263549804688,-0.4994049072265625,0.258544921875
61549,-1.351791381835938,-0.45306396484375,0.3491058349609375
61550,-1.05743408203125,-0.2155303955078125,0.26593017578125
61551,-0.564910888671875,-0.08831787109375,-0.0274810791015625
61552,-0.019287109375,-0.1651458740234375,-0.2689361572265625
61553,0.135955810546875,-0.260528564453125,-0.3046875
61554,-0.0121307373046875,-0.30401611328125,-0.26275634765625
61555,-0.20159912109375,-0.2099761962890625,-0.0963592529296875
61556,-0.353546142578125,-0.0656585693359375,0.1207275390625
61557,-0.3974609375,0.0310516357421875,0.2147216796875
61558,-0.2942047119140625,0.013641357421875,0.20501708984375
61559,-0.1507568359375,-0.041229248046875,0.213592529296875
61560,-0.0745391845703125,-0.0111541748046875,0.2818603515625
61561,-0.10400390625,0.1660919189453125,0.4523773193359375
61562,-0.184295654296875,0.3948974609375,0.7099151611328125
61563,-0.26434326171875,0.6173553466796875,0.9866790771484376
61564,-0.2064971923828125,0.908172607421875,1.386062622070312
61565,0.1928863525390625,1.135574340820312,2.055892944335938
61566,0.8524932861328125,1.160369873046875,2.6131591796875
61567,1.310684204101562,1.217926025390625,2.656524658203125
61568,1.616073608398438,1.626510620117188,2.177825927734375
61569,1.759292602539062,2.432388305664062,1.763961791992188
61570,1.246963500976562,2.574676513671875,1.977996826171875
61571,0.5408782958984375,1.906143188476562,2.107757568359375
61572,0.048797607421875,1.114776611328125,1.913070678710938
61573,-0.3375244140625,0.8161773681640625,1.684921264648438
61574,-0.732940673828125,0.82281494140625,1.454864501953125
61575,-1.063949584960938,0.8421478271484375,1.332473754882812
61576,-1.228179931640625,0.816619873046875,1.33917236328125
61577,-1.233566284179688,0.7353515625,1.260299682617188
61578,-1.138916015625,0.6462554931640625,1.093154907226562
61579,-0.989654541015625,0.4997100830078125,0.9240875244140624
61580,-0.79241943359375,0.3017730712890625,0.7535400390625
61581,-0.6193084716796875,0.145477294921875,0.557952880859375
61582,-0.4782867431640625,0.0515289306640625,0.4198760986328125
61583,-0.36737060546875,-0.0384063720703125,0.2747802734375
61584,-0.2901153564453125,-0.1288909912109375,0.1200714111328125
61585,-0.216339111328125,-0.18621826171875,0.022857666015625
61586,-0.1400604248046875,-0.2352294921875,-0.039794921875
61587,-0.0767669677734375,-0.259674072265625,-0.0391845703125
61588,0.029083251953125,-0.20196533203125,0.048492431640625
61589,0.090179443359375,-0.0617218017578125,0.0700836181640625
61590,0.1038970947265625,0.071807861328125,0.15081787109375
61591,0.12640380859375,0.093780517578125,0.2892608642578125
61592,0.1722564697265625,0.031402587890625,0.3662872314453125
61593,0.3119964599609375,-0.0221710205078125,0.3614501953125
61594,0.513763427734375,0.1695709228515625,0.2805328369140625
61595,0.554534912109375,0.504547119140625,0.28326416015625
61596,0.32379150390625,0.6951141357421875,0.4505767822265625
61597,-0.0089263916015625,0.7456512451171875,0.553436279296875
61598,-0.1820831298828125,0.88385009765625,0.547698974609375
61599,-0.1466217041015625,1.295379638671875,0.5204315185546875
61600,0.17535400390625,1.75946044921875,0.574493408203125
61601,0.606689453125,2.302719116210938,0.651275634765625
61602,0.993499755859375,2.883056640625,0.9015045166015624
61603,1.34112548828125,2.896072387695312,1.098159790039062
61604,1.368576049804688,2.446609497070312,1.010116577148438
61605,1.00665283203125,2.212249755859375,0.9439239501953124
61606,0.621429443359375,2.043991088867188,0.8773345947265625
61607,0.36962890625,1.623764038085938,0.725341796875
61608,0.3529510498046875,1.16552734375,0.5696563720703125
61609,0.3320770263671875,0.8988189697265625,0.462738037109375
61610,0.118865966796875,0.717803955078125,0.50921630859375
61611,-0.2245635986328125,0.5771636962890625,0.640533447265625
61612,-0.443145751953125,0.4130401611328125,0.7805328369140625
61613,-0.46624755859375,0.285186767578125,0.820770263671875
61614,-0.5440826416015625,0.142913818359375,0.7159881591796875
61615,-0.6529693603515625,-0.03546142578125,0.59326171875
61616,-0.637054443359375,-0.3198699951171875,0.4224395751953125
61617,-0.5220947265625,-0.5837860107421875,0.29754638671875
61618,-0.489471435546875,-0.7043914794921875,0.233184814453125
61619,-0.502655029296875,-0.62872314453125,0.124908447265625
61620,-0.436920166015625,-0.4188385009765625,-0.2731475830078125
61621,-0.3877410888671875,-0.2425994873046875,-0.395751953125
61622,-0.3960113525390625,-0.2046661376953125,-0.17333984375
61623,-0.4062957763671875,-0.266998291015625,0.0696563720703125
61624,-0.3580169677734375,-0.2914276123046875,0.0969085693359375
61625,0.3459930419921875,-0.225006103515625,0.207183837890625
61626,1.396148681640625,0.1748504638671875,0.055084228515625
61627,-0.048980712890625,0.5670623779296875,0.2099151611328125
61628,-0.5260467529296875,0.0236968994140625,0.21942138671875
61629,-0.6389007568359375,-0.1986541748046875,0.187835693359375
61630,-0.6290740966796875,-0.070220947265625,0.389129638671875
61631,-0.6085662841796875,0.4218292236328125,0.6876373291015625
61632,-0.770599365234375,0.9308624267578124,1.048019409179688
61633,-1.058563232421875,1.754669189453125,1.467269897460938
61634,-1.107620239257812,2.137771606445312,1.727081298828125
61635,-1.136383056640625,1.95172119140625,2.1890869140625
61636,-0.4669036865234375,1.858123779296875,2.630706787109375
61637,0.327392578125,2.069580078125,2.58203125
61638,0.6533966064453125,2.495834350585938,2.342544555664062
61639,0.3608551025390625,2.6666259765625,2.323379516601562
61640,-0.284210205078125,2.165237426757812,2.151702880859375
61641,-0.6985321044921875,1.238571166992188,1.804977416992188
61642,-0.8331451416015625,0.8663787841796875,1.638961791992188
61643,-0.797393798828125,0.6950836181640625,1.544662475585938
61644,-0.6130523681640625,0.5977020263671875,1.355926513671875
61645,-0.44268798828125,0.4910430908203125,1.160751342773438
61646,-0.2877655029296875,0.361358642578125,0.9136199951171876
61647,-0.230438232421875,0.2615814208984375,0.689849853515625
61648,-0.2623748779296875,0.1882781982421875,0.49078369140625
61649,-0.2912750244140625,0.102996826171875,0.33489990234375
61650,-0.27410888671875,0.0081939697265625,0.2050933837890625
61651,-0.2144012451171875,-0.1225128173828125,0.111907958984375
61652,-0.1251068115234375,-0.2519378662109375,0.04583740234375
61653,-0.039306640625,-0.355743408203125,0.0001678466796875
61654,0.0699462890625,-0.4192962646484375,0.061370849609375
61655,0.1533660888671875,-0.4899139404296875,0.1262054443359375
61656,0.1540069580078125,-0.4909210205078125,0.12408447265625
61657,0.1563873291015625,-0.3284454345703125,0.22607421875
61658,0.0686492919921875,-0.128875732421875,0.1941375732421875
61659,-0.0613555908203125,-0.0496826171875,0.0974273681640625
61660,-0.133575439453125,-0.060028076171875,0.0835113525390625
61661,-0.09906005859375,-0.0983734130859375,0.13348388671875
61662,-0.03765869140625,-0.09368896484375,0.1816864013671875
61663,-0.0118560791015625,0.083251953125,0.341522216796875
61664,-0.018890380859375,0.3905487060546875,0.562957763671875
61665,-0.053131103515625,0.7380828857421875,0.784820556640625
61666,0.006011962890625,1.117477416992188,0.9762725830078124
61667,0.257293701171875,1.485488891601562,0.952301025390625
61668,0.6524505615234375,1.81085205078125,0.794464111328125
61669,0.82757568359375,2.364288330078125,0.628448486328125
61670,0.6547698974609375,2.757110595703125,0.552215576171875
61671,0.5695343017578125,2.632278442382812,0.5209197998046875
61672,0.6316986083984375,2.3521728515625,0.6668243408203125
61673,0.759918212890625,2.214309692382812,0.8780975341796875
61674,0.9065704345703124,2.168563842773438,1.00457763671875
61675,0.98480224609375,1.966583251953125,0.97357177734375
61676,0.9574432373046876,1.5555419921875,0.8443450927734375
61677,0.82244873046875,1.171035766601562,0.7468109130859375
61678,0.5420989990234375,0.927886962890625,0.75762939453125
61679,0.1021881103515625,0.7277069091796875,0.7892913818359375
61680,-0.3548736572265625,0.58233642578125,0.836578369140625
61681,-0.703460693359375,0.515350341796875,0.78594970703125
61682,-0.8541412353515625,0.416534423828125,0.6375732421875
61683,-0.80487060546875,0.281341552734375,0.4300384521484375
61684,-0.6832122802734375,0.00640869140625,0.1674957275390625
61685,-0.5204620361328125,-0.3653411865234375,0.0500335693359375
61686,-0.3898468017578125,-0.625396728515625,0.06951904296875
61687,-0.38677978515625,-0.671783447265625,0.0568695068359375
61688,-0.46240234375,-0.53802490234375,0.065704345703125
61689,-0.4604949951171875,-0.34490966796875,0.0356903076171875
61690,-0.35894775390625,-0.2398834228515625,-0.00994873046875
61691,-0.240692138671875,-0.227447509765625,-0.0023345947265625
61692,-0.18011474609375,-0.20941162109375,0.04180908203125
61693,-0.1257781982421875,-0.1357574462890625,0.1537628173828125
61694,-0.0142822265625,-0.0398101806640625,0.2227935791015625
61695,0.12408447265625,0.0355072021484375,0.2819061279296875
61696,0.248291015625,0.09417724609375,0.3497467041015625
61697,0.29742431640625,0.19140625,0.4163970947265625
61698,0.2364501953125,0.3133544921875,0.5146026611328125
61699,0.111053466796875,0.4072265625,0.6985626220703125
61700,-0.096160888671875,0.55731201171875,0.9181060791015624
61701,-0.319488525390625,0.8591156005859375,1.200927734375
61702,-0.381195068359375,1.177841186523438,1.514556884765625
61703,-0.211700439453125,1.329315185546875,1.902450561523438
61704,0.0380096435546875,1.382492065429688,2.2413330078125
61705,0.2805938720703125,1.752365112304688,2.1976318359375
61706,0.511932373046875,2.339492797851562,2.105819702148438
61707,0.49981689453125,2.601272583007812,2.188339233398438
61708,0.242919921875,2.178298950195312,2.187347412109375
61709,-0.1606903076171875,1.40936279296875,1.984603881835938
61710,-0.565826416015625,1.032546997070312,1.885086059570312
61711,-0.87799072265625,0.9678802490234376,1.88055419921875
61712,-1.03570556640625,0.87835693359375,1.769973754882812
61713,-0.943267822265625,0.7404022216796875,1.568572998046875
61714,-0.75006103515625,0.5660400390625,1.361740112304688
61715,-0.6153717041015625,0.4332275390625,1.1671142578125
61716,-0.5611724853515625,0.359222412109375,0.9479827880859376
61717,-0.544036865234375,0.298828125,0.7361602783203125
61718,-0.5125732421875,0.239471435546875,0.5513458251953125
61719,-0.42718505859375,0.194488525390625,0.382476806640625
61720,-0.3110198974609375,0.1349334716796875,0.2782745361328125
61721,-0.1797637939453125,0.02044677734375,0.1664581298828125
61722,-0.06268310546875,-0.1127471923828125,0.04376220703125
61723,0.0528564453125,-0.2588348388671875,-0.02813720703125
61724,0.1727447509765625,-0.371856689453125,-0.000213623046875
61725,0.2871246337890625,-0.3289947509765625,0.087249755859375
61726,0.336944580078125,-0.1707000732421875,0.2100830078125
61727,0.3079376220703125,-0.062042236328125,0.2537078857421875
61728,0.1921234130859375,-0.0653533935546875,0.131927490234375
61729,0.0881195068359375,-0.1160430908203125,0.026336669921875
61730,0.040313720703125,-0.1862030029296875,0.05059814453125
61731,0.0524444580078125,-0.2386474609375,0.16326904296875
61732,0.086090087890625,-0.0832366943359375,0.311279296875
61733,0.0826263427734375,0.283538818359375,0.4776458740234375
61734,0.0545196533203125,0.5717926025390625,0.55267333984375
61735,0.087158203125,0.8039093017578125,0.680633544921875
61736,0.2056732177734375,1.086929321289062,0.7550506591796875
61737,0.4286346435546875,1.424163818359375,0.7796478271484375
61738,0.7091217041015625,1.880081176757812,0.780029296875
61739,0.556671142578125,2.53155517578125,0.7203216552734375
61740,0.28558349609375,2.850738525390625,0.833770751953125
61741,0.5398101806640625,2.8306884765625,0.9948883056640624
61742,0.6759033203125,2.674209594726562,1.289657592773438
61743,0.5244140625,2.419219970703125,1.41143798828125
61744,0.38470458984375,2.138153076171875,1.035186767578125
61745,0.340789794921875,1.749298095703125,0.598114013671875
61746,0.4330291748046875,1.32537841796875,0.5037994384765625
61747,0.457611083984375,0.9897308349609376,0.5628662109375
61748,0.2677154541015625,0.7622222900390625,0.6898345947265625
61749,0.0406494140625,0.6512603759765625,0.7852325439453125
61750,-0.132293701171875,0.53240966796875,0.7519683837890625
61751,-0.2716217041015625,0.367645263671875,0.6521148681640625
61752,-0.3732757568359375,0.150146484375,0.465911865234375
61753,-0.39276123046875,0.00048828125,0.3530426025390625
61754,-0.3828125,-0.1851806640625,0.2953033447265625
61755,-0.63995361328125,-0.3000030517578125,0.24200439453125
61756,-0.97186279296875,-0.355926513671875,0.3288116455078125
61757,-0.9513397216796876,-0.32635498046875,0.2588958740234375
61758,-0.5885772705078125,-0.24371337890625,0.128631591796875
61759,-0.2452392578125,-0.1909332275390625,0.0632476806640625
61760,-0.1007843017578125,-0.1588592529296875,0.043548583984375
61761,-0.03875732421875,-0.2027587890625,0.0123138427734375
61762,-0.0394439697265625,-0.241790771484375,0.0194244384765625
61763,-0.0678558349609375,-0.220458984375,0.0351409912109375
61764,-0.0630340576171875,-0.14068603515625,0.145843505859375
61765,0.0177459716796875,-0.02178955078125,0.34967041015625
61766,0.1643524169921875,0.112213134765625,0.51312255859375
61767,0.2780914306640625,0.257080078125,0.5871734619140625
61768,0.306915283203125,0.3654327392578125,0.629119873046875
61769,0.2526092529296875,0.477783203125,0.6817779541015625
61770,0.0552825927734375,0.6784515380859375,0.9100189208984376
61771,-0.2380828857421875,1.03173828125,1.316009521484375
61772,-0.5061492919921875,1.464920043945312,1.851577758789062
61773,-0.5298309326171875,1.776351928710938,2.336563110351562
61774,-0.142974853515625,1.830429077148438,2.3375244140625
61775,0.377227783203125,1.9808349609375,1.954788208007812
61776,0.55120849609375,2.2982177734375,2.010147094726562
61777,0.312042236328125,2.328201293945312,2.224502563476562
61778,-0.1357574462890625,1.910400390625,2.17718505859375
61779,-0.390411376953125,1.404937744140625,1.876724243164062
61780,-0.4537811279296875,1.078689575195312,1.613723754882812
61781,-0.510986328125,0.8771820068359375,1.445846557617188
61782,-0.5416107177734375,0.732757568359375,1.339035034179688
61783,-0.495330810546875,0.626708984375,1.272811889648438
61784,-0.4054107666015625,0.5728607177734375,1.144805908203125
61785,-0.388336181640625,0.485687255859375,0.9442901611328124
61786,-0.4333343505859375,0.3570556640625,0.7579803466796875
61787,-0.469635009765625,0.221405029296875,0.5535888671875
61788,-0.46051025390625,0.0972137451171875,0.3631134033203125
61789,-0.387725830078125,-0.034576416015625,0.2333221435546875
61790,-0.262298583984375,-0.14141845703125,0.16534423828125
61791,-0.1360015869140625,-0.225006103515625,0.112396240234375
61792,-0.0473480224609375,-0.2730865478515625,0.005126953125
61793,0.0286865234375,-0.2845916748046875,-0.03607177734375
61794,0.1201171875,-0.2889404296875,0.026885986328125
61795,0.1582794189453125,-0.24859619140625,0.090728759765625
61796,0.0852203369140625,-0.2584991455078125,0.13287353515625
61797,-0.06927490234375,-0.3328094482421875,0.1114044189453125
61798,-0.1936492919921875,-0.3711090087890625,0.1038360595703125
61799,-0.211517333984375,-0.33477783203125,0.22161865234375
61800,-0.0843963623046875,-0.1850738525390625,0.38885498046875
61801,0.1448822021484375,0.0919647216796875,0.497344970703125
61802,0.405364990234375,0.33782958984375,0.583831787109375
61803,0.593994140625,0.5418701171875,0.78076171875
61804,0.5993499755859375,0.7666168212890625,0.85662841796875
61805,0.48992919921875,0.98736572265625,0.8297576904296875
61806,0.517974853515625,1.290679931640625,0.84521484375
61807,0.642181396484375,1.854232788085938,0.7103118896484375
61808,0.641204833984375,2.4649658203125,0.715118408203125
61809,0.7198638916015625,2.56756591796875,0.9208984375
61810,0.938629150390625,2.3209228515625,1.08331298828125
61811,0.80596923828125,2.155075073242188,0.973114013671875
61812,0.4156951904296875,2.069686889648438,0.9799957275390624
61813,0.2652587890625,1.995025634765625,0.8680267333984375
61814,0.3866119384765625,1.82012939453125,0.6854095458984375
61815,0.5883331298828125,1.487136840820312,0.6203155517578125
61816,0.6468505859375,1.146865844726562,0.6056976318359375
61817,0.5150604248046875,0.920623779296875,0.682952880859375
61818,0.24334716796875,0.8058624267578125,0.8081817626953125
61819,-0.038787841796875,0.699310302734375,0.898590087890625
61820,-0.2638092041015625,0.5680084228515625,0.82305908203125
61821,-0.4423065185546875,0.3610992431640625,0.661102294921875
61822,-0.51531982421875,0.1086883544921875,0.53924560546875
61823,-0.532012939453125,-0.124969482421875,0.3875885009765625
61824,-0.5357513427734375,-0.2743988037109375,0.3575592041015625
61825,-0.6952667236328125,-0.3639373779296875,0.268218994140625
61826,-0.9569244384765624,-0.3742828369140625,0.1357269287109375
61827,-1.05419921875,-0.292327880859375,0.0146331787109375
61828,-0.88323974609375,-0.1103973388671875,0.011474609375
61829,-0.6298980712890625,0.011016845703125,0.1548614501953125
61830,-0.55767822265625,0.0323638916015625,0.1872406005859375
61831,-0.52386474609375,0.017333984375,0.1754302978515625
61832,-0.389862060546875,-0.0383453369140625,0.1299591064453125
61833,-0.2368927001953125,-0.073272705078125,0.063232421875
61834,-0.112335205078125,-0.041015625,0.1330413818359375
61835,0.02471923828125,0.0525970458984375,0.325958251953125
61836,0.176177978515625,0.1890716552734375,0.500701904296875
61837,0.3338623046875,0.342681884765625,0.7167816162109375
61838,0.4645843505859375,0.482940673828125,0.90570068359375
61839,0.492218017578125,0.640899658203125,0.97503662109375
61840,0.4412689208984375,0.8224945068359375,0.9384002685546876
61841,0.454315185546875,0.8816375732421875,1.1129150390625
61842,0.79705810546875,0.902618408203125,1.422195434570312
61843,1.138168334960938,1.242950439453125,1.746963500976562
61844,1.311920166015625,1.879806518554688,2.05157470703125
61845,1.262420654296875,2.439178466796875,2.048095703125
61846,0.7856292724609375,2.531295776367188,2.04681396484375
61847,0.02288818359375,1.990707397460938,1.85382080078125
61848,-0.7381134033203125,1.374374389648438,1.663650512695312
61849,-1.159347534179688,1.228836059570312,1.61236572265625
61850,-1.208419799804688,1.205718994140625,1.582489013671875
61851,-0.99847412109375,1.093215942382812,1.49871826171875
61852,-0.7120361328125,0.9431304931640624,1.425796508789062
61853,-0.50909423828125,0.8663330078125,1.354156494140625
61854,-0.40191650390625,0.835113525390625,1.238189697265625
61855,-0.3610687255859375,0.72650146484375,1.07403564453125
61856,-0.3596038818359375,0.5158538818359375,0.85504150390625
61857,-0.3520660400390625,0.2835845947265625,0.59454345703125
61858,-0.3340606689453125,0.0900115966796875,0.389678955078125
61859,-0.2851715087890625,-0.0209197998046875,0.2384185791015625
61860,-0.186798095703125,-0.0722808837890625,0.12548828125
61861,-0.1045379638671875,-0.0977630615234375,0.018646240234375
61862,-0.0698089599609375,-0.15594482421875,-0.0542755126953125
61863,-0.0394439697265625,-0.25494384765625,-0.060394287109375
61864,9.1552734375e-05,-0.3289337158203125,0.0043792724609375
61865,0.030914306640625,-0.328399658203125,0.0478668212890625
61866,0.0874786376953125,-0.242919921875,0.152587890625
61867,0.1726226806640625,-0.1048126220703125,0.2294769287109375
61868,0.215545654296875,-0.0016632080078125,0.1640167236328125
61869,0.18798828125,-0.067169189453125,0.0924072265625
61870,0.068878173828125,-0.22479248046875,0.072540283203125
61871,-0.07135009765625,-0.241119384765625,0.159881591796875
61872,-0.1031646728515625,0.024505615234375,0.3950653076171875
61873,0.0010528564453125,0.472412109375,0.6555938720703125
61874,0.2317047119140625,0.8609771728515625,0.875213623046875
61875,0.559661865234375,1.099884033203125,1.068771362304688
61876,0.923736572265625,1.183181762695312,1.10595703125
61877,1.05560302734375,1.45526123046875,0.9732513427734376
61878,1.003997802734375,1.987899780273438,1.034530639648438
61879,1.024520874023438,2.435470581054688,1.382843017578125
61880,1.00762939453125,2.55511474609375,1.50958251953125
61881,0.750457763671875,2.36260986328125,1.231399536132812
61882,0.4696502685546875,2.071640014648438,1.212051391601562
61883,0.093597412109375,1.778762817382812,1.315475463867188
61884,-0.339935302734375,1.39080810546875,0.966644287109375
61885,-0.3584136962890625,0.944732666015625,0.755767822265625
61886,-0.0458984375,0.7012176513671875,0.870574951171875
61887,0.0816802978515625,0.684844970703125,0.994384765625
61888,-0.0470123291015625,0.708587646484375,1.047958374023438
61889,-0.207794189453125,0.655242919921875,1.003829956054688
61890,-0.2612762451171875,0.4846343994140625,0.8907318115234375
61891,-0.2749176025390625,0.2696075439453125,0.63037109375
61892,-0.3031768798828125,0.070068359375,0.47357177734375
61893,-0.5270843505859375,-0.050872802734375,0.305999755859375
61894,-0.798126220703125,-0.1038665771484375,0.2881622314453125
61895,-0.782257080078125,-0.08221435546875,0.2071685791015625
61896,-0.6296539306640625,-0.0165557861328125,0.209564208984375
61897,-0.4796142578125,-0.000732421875,0.1959991455078125
61898,-0.3269805908203125,-0.0663909912109375,0.08734130859375
61899,-0.2361602783203125,-0.12451171875,0.000946044921875
61900,-0.294097900390625,-0.12640380859375,-0.047454833984375
61901,-0.418853759765625,-0.0825042724609375,0.04376220703125
61902,-0.4765167236328125,-0.0326995849609375,0.110748291015625
61903,-0.408660888671875,7.62939453125e-05,0.1605377197265625
61904,-0.2206268310546875,0.043182373046875,0.2652435302734375
61905,-0.019317626953125,0.1000823974609375,0.3949127197265625
61906,0.07861328125,0.187713623046875,0.5692596435546875
61907,0.1163177490234375,0.340179443359375,0.790802001953125
61908,0.0756988525390625,0.5621337890625,0.908721923828125
61909,0.046630859375,0.77734375,1.035690307617188
61910,0.1948089599609375,1.0045166015625,1.170425415039062
61911,0.7566986083984375,1.135711669921875,1.294204711914062
61912,1.600326538085938,1.13458251953125,1.519332885742188
61913,1.890396118164062,1.412673950195312,1.615325927734375
61914,1.554702758789062,1.6678466796875,1.693374633789062
61915,1.158782958984375,1.674896240234375,1.732925415039062
61916,0.82427978515625,1.591415405273438,1.795333862304688
61917,0.4797210693359375,1.465621948242188,1.582122802734375
61918,0.2110595703125,1.258224487304688,1.248260498046875
61919,0.134307861328125,1.046722412109375,1.084945678710938
61920,0.2738800048828125,0.8901214599609375,1.14453125
61921,0.4906158447265625,0.8869476318359375,1.187347412109375
61922,0.653289794921875,0.9289703369140624,1.183731079101562
61923,0.7364959716796875,0.918792724609375,1.1533203125
61924,0.70751953125,0.827606201171875,1.030471801757812
61925,0.5656280517578125,0.651641845703125,0.902618408203125
61926,0.3512420654296875,0.51165771484375,0.7900543212890625
61927,0.0872955322265625,0.4399261474609375,0.591033935546875
61928,-0.2130126953125,0.370025634765625,0.479949951171875
61929,-0.4605865478515625,0.2782745361328125,0.4321441650390625
61930,-0.5387420654296875,0.162353515625,0.3639068603515625
61931,-0.5227508544921875,0.0363311767578125,0.242034912109375
61932,-0.5338592529296875,-0.0596923828125,0.1470184326171875
61933,-0.577789306640625,-0.0637054443359375,0.16717529296875
61934,-0.5925140380859375,-0.0117034912109375,0.2465667724609375
61935,-0.5120849609375,0.0027923583984375,0.323822021484375
61936,-0.336151123046875,-0.0552520751953125,0.28509521484375
61937,-0.1582794189453125,-0.1381378173828125,0.177337646484375
61938,-0.000640869140625,-0.21258544921875,0.08233642578125
61939,0.1538238525390625,-0.3154449462890625,0.010284423828125
61940,0.302642822265625,-0.3642120361328125,0.098052978515625
61941,0.4434356689453125,-0.14459228515625,0.3007049560546875
61942,0.58087158203125,0.2782745361328125,0.5136260986328125
61943,0.7205810546875,0.62628173828125,0.70648193359375
61944,0.883819580078125,0.88055419921875,0.7948150634765625
61945,1.068649291992188,1.055313110351562,0.961151123046875
61946,1.225051879882812,1.04339599609375,1.13385009765625
61947,1.193618774414062,1.227325439453125,0.9273834228515624
61948,0.923583984375,1.814178466796875,0.7614898681640625
61949,0.7361297607421875,2.409072875976562,0.8620758056640625
61950,0.7225341796875,2.766738891601562,1.064422607421875
61951,0.7346954345703125,2.552642822265625,1.272659301757812
61952,0.620330810546875,1.947830200195312,1.21905517578125
61953,0.3601837158203125,1.498794555664062,0.96038818359375
61954,0.11431884765625,1.204299926757812,0.786407470703125
61955,0.189239501953125,1.020294189453125,0.69696044921875
61956,0.391265869140625,0.9378509521484376,0.8994140625
61957,0.421600341796875,0.7887420654296875,1.006851196289062
61958,0.3540191650390625,0.5837249755859375,0.9247894287109376
61959,0.2436676025390625,0.439178466796875,0.8344573974609375
61960,0.13848876953125,0.3345489501953125,0.73748779296875
61961,0.046722412109375,0.2483062744140625,0.6815185546875
61962,-0.16912841796875,0.17047119140625,0.5292205810546875
61963,-0.42486572265625,0.004364013671875,0.4041290283203125
61964,-0.626434326171875,-0.1352386474609375,0.290435791015625
61965,-0.6949462890625,-0.226593017578125,0.255523681640625
61966,-0.6395721435546875,-0.263885498046875,0.1965179443359375
61967,-0.5978546142578125,-0.20697021484375,0.10333251953125
61968,-0.483673095703125,-0.16729736328125,0.1159820556640625
61969,-0.2647247314453125,-0.1342315673828125,0.096466064453125
61970,-0.0494842529296875,-0.0911407470703125,0.049285888671875
61971,0.0743255615234375,-0.0784912109375,-0.008544921875
61972,0.108367919921875,-0.11468505859375,-0.062774658203125
61973,0.126678466796875,-0.1344146728515625,-0.067230224609375
61974,0.1628570556640625,-0.03778076171875,0.0438079833984375
61975,0.1630096435546875,0.136962890625,0.2838134765625
61976,0.110626220703125,0.28656005859375,0.5814056396484375
