time_idx,accelerometerAccelerationX(G),accelerometerAccelerationY(G),accelerometerAccelerationZ(G)
240000,-0.4283905029296875,-0.69573974609375,1.4000244140625
240001,-0.6327362060546875,-0.9622650146484376,1.265792846679688
240002,-0.8184967041015625,-1.170333862304688,0.90380859375
240003,-0.8806915283203125,-1.336685180664062,0.688018798828125
240004,-0.8571319580078125,-1.485702514648438,0.4655914306640625
240005,-0.8046417236328125,-1.841079711914062,0.3493194580078125
240006,-0.7296905517578125,-2.7764892578125,0.0657196044921875
240007,-0.5930023193359375,-3.651840209960938,0.046630859375
240008,-0.5106658935546875,-3.39190673828125,0.2884521484375
240009,-0.57135009765625,-2.326370239257812,0.7896728515625
240010,-0.3674468994140625,-1.548736572265625,1.209945678710938
240011,-0.4536590576171875,-1.392837524414062,1.005752563476562
240012,-0.728057861328125,-1.442779541015625,0.7850494384765625
240013,-0.9181060791015624,-1.374343872070312,0.7109527587890625
240014,-0.88623046875,-1.106048583984375,0.65234375
240015,-0.7188720703125,-0.8967742919921875,0.539154052734375
240016,-0.5377044677734375,-0.7436065673828125,0.3262481689453125
240017,-0.3392791748046875,-0.6020965576171875,0.1091461181640625
240018,-0.1668548583984375,-0.4443817138671875,-0.0077972412109375
240019,-0.10540771484375,-0.2154693603515625,-0.0774993896484375
240020,-0.0407562255859375,-0.0272674560546875,0.0236053466796875
240021,0.179718017578125,0.0701141357421875,0.209808349609375
240022,0.5218963623046875,0.214691162109375,0.48309326171875
240023,0.9044036865234376,0.400726318359375,0.67498779296875
240024,1.0482177734375,0.66583251953125,0.5866851806640625
240025,1.057662963867188,0.8266448974609375,0.4437255859375
240026,1.047088623046875,0.739288330078125,0.446990966796875
240027,1.070343017578125,0.5167236328125,0.6392364501953125
240028,1.016555786132812,0.3892822265625,0.817626953125
240029,0.9212646484375,0.324920654296875,0.701446533203125
240030,0.8328704833984375,0.3063812255859375,0.3724365234375
240031,0.71392822265625,0.2027130126953125,0.151031494140625
240032,0.5212554931640625,0.002716064453125,0.1474456787109375
240033,0.3372802734375,-0.2453155517578125,0.0082550048828125
240034,0.2219390869140625,-0.3800506591796875,-0.2061920166015625
240035,0.1781005859375,-0.390838623046875,-0.031829833984375
240036,0.1949615478515625,-0.3599853515625,0.350006103515625
240037,0.2523651123046875,-0.3925018310546875,0.594451904296875
240038,0.2754058837890625,-0.49542236328125,0.77593994140625
240039,0.17205810546875,-0.630401611328125,1.154281616210938
240040,-0.0531005859375,-0.8239898681640625,1.829269409179688
240041,-0.231414794921875,-1.130096435546875,2.592727661132812
240042,-0.256561279296875,-1.527694702148438,3.021560668945312
240043,-0.0849456787109375,-1.734390258789062,2.929595947265625
240044,0.1096038818359375,-1.81878662109375,2.562530517578125
240045,0.260589599609375,-1.977340698242188,1.97711181640625
240046,0.3823699951171875,-2.209060668945312,1.450927734375
240047,0.29901123046875,-2.22076416015625,1.197723388671875
240048,0.274932861328125,-1.931304931640625,1.48248291015625
240049,0.4601593017578125,-1.52093505859375,1.841934204101562
240050,0.5978851318359375,-1.188156127929688,1.993408203125
240051,0.690887451171875,-1.012527465820312,2.0513916015625
240052,0.7996063232421875,-0.909423828125,2.060577392578125
240053,0.92608642578125,-0.7469482421875,1.976974487304688
240054,1.03375244140625,-0.5110321044921875,1.7391357421875
240055,1.097824096679688,-0.2728424072265625,1.4305419921875
240056,1.116348266601562,-0.0817718505859375,1.12847900390625
240057,1.0689697265625,0.0548553466796875,0.8919219970703125
240058,0.9715118408203124,0.1290130615234375,0.7147674560546875
240059,0.8504180908203125,0.1491241455078125,0.5489349365234375
240060,0.69720458984375,0.1197662353515625,0.4084320068359375
240061,0.5028533935546875,0.0728912353515625,0.3180999755859375
240062,0.3294219970703125,0.06121826171875,0.2745208740234375
240063,0.2225799560546875,0.0736846923828125,0.24652099609375
240064,0.170440673828125,0.0955352783203125,0.21112060546875
240065,0.1447601318359375,0.098602294921875,0.1636505126953125
240066,0.1363677978515625,0.05792236328125,0.1216583251953125
240067,0.15936279296875,-0.00494384765625,0.1043853759765625
240068,0.1245574951171875,-0.0206451416015625,0.022308349609375
240069,0.0241546630859375,0.026885986328125,-0.09881591796875
240070,-0.0637969970703125,0.1010894775390625,-0.150665283203125
240071,-0.0965118408203125,0.1809844970703125,-0.127899169921875
240072,-0.0243377685546875,0.2596435546875,-0.0458221435546875
240073,0.0657501220703125,0.3569488525390625,0.0065460205078125
240074,0.124114990234375,0.4352569580078125,0.0902099609375
240075,0.1789398193359375,0.4226226806640625,0.2070465087890625
240076,0.1685333251953125,0.3178253173828125,0.3098297119140625
240077,0.0714263916015625,0.148284912109375,0.4242095947265625
240078,-0.0888519287109375,-0.100921630859375,0.5716705322265625
240079,-0.2707977294921875,-0.4192962646484375,0.864013671875
240080,-0.4646759033203125,-0.7604217529296875,1.199798583984375
240081,-0.71075439453125,-1.039871215820312,1.208663940429688
240082,-0.867401123046875,-1.168685913085938,1.089096069335938
240083,-0.847015380859375,-1.249984741210938,0.9368896484375
240084,-0.795166015625,-1.356796264648438,0.558746337890625
240085,-0.7880401611328125,-1.687591552734375,0.4897308349609375
240086,-0.7470855712890625,-2.553512573242188,0.3563995361328125
240087,-0.6165924072265625,-3.814590454101562,0.0274810791015625
240088,-0.9098663330078124,-3.971572875976562,0.0742645263671875
240089,-1.286712646484375,-2.870223999023438,0.6573944091796875
240090,-0.99822998046875,-1.885513305664062,0.89288330078125
240091,-0.8297271728515625,-1.46771240234375,0.87677001953125
240092,-0.9347686767578124,-1.34027099609375,0.8079833984375
240093,-1.069656372070312,-1.283233642578125,0.633056640625
240094,-0.98675537109375,-1.1376953125,0.4629974365234375
240095,-0.65020751953125,-1.010223388671875,0.41949462890625
240096,-0.33636474609375,-0.9282379150390624,0.3348388671875
240097,-0.1396484375,-0.8161773681640625,0.2140655517578125
240098,0.0080108642578125,-0.65484619140625,0.2190093994140625
240099,0.1854400634765625,-0.44940185546875,0.3570098876953125
240100,0.3559112548828125,-0.211151123046875,0.4553985595703125
240101,0.3924560546875,0.0717620849609375,0.3723907470703125
240102,0.452056884765625,0.4078826904296875,0.41680908203125
240103,0.8010101318359375,0.61126708984375,0.6183013916015625
240104,1.114013671875,0.7643890380859375,0.63885498046875
240105,1.2572021484375,0.8773651123046875,0.5431365966796875
240106,1.226821899414062,0.79693603515625,0.443023681640625
240107,1.155319213867188,0.625762939453125,0.452239990234375
240108,0.9677276611328124,0.4919891357421875,0.4315948486328125
240109,0.7275848388671875,0.4217529296875,0.415313720703125
240110,0.5168914794921875,0.283721923828125,0.448516845703125
240111,0.3679656982421875,0.071380615234375,0.224090576171875
240112,0.28485107421875,-0.1260528564453125,-0.0138092041015625
240113,0.2579498291015625,-0.2382354736328125,-0.0819244384765625
240114,0.242645263671875,-0.31646728515625,0.0119781494140625
240115,0.249176025390625,-0.38653564453125,0.0187225341796875
240116,0.235443115234375,-0.3866729736328125,0.140625
240117,0.2342529296875,-0.3620147705078125,0.4597930908203125
240118,0.2836761474609375,-0.3553314208984375,0.805419921875
240119,0.278106689453125,-0.421295166015625,1.0828857421875
240120,0.1362457275390625,-0.5869293212890625,1.350631713867188
240121,-0.09918212890625,-0.8360595703125,1.749359130859375
240122,-0.3455963134765625,-1.063079833984375,2.10321044921875
240123,-0.6457977294921875,-1.126129150390625,2.17242431640625
240124,-0.936920166015625,-1.202865600585938,1.97991943359375
240125,-1.130035400390625,-1.416793823242188,1.867507934570312
240126,-0.8771209716796875,-1.617935180664062,1.702529907226562
240127,-0.269805908203125,-1.988662719726562,1.32586669921875
240128,0.1127166748046875,-2.375579833984375,0.8156280517578125
240129,0.1485443115234375,-2.544113159179688,0.774627685546875
240130,0.01080322265625,-2.1712646484375,1.371322631835938
240131,-0.0327301025390625,-1.65643310546875,1.916763305664062
240132,0.1331787109375,-1.300003051757812,2.202850341796875
240133,0.4083709716796875,-1.09710693359375,2.170211791992188
240134,0.6921844482421875,-1.041107177734375,1.991714477539062
240135,0.91839599609375,-1.058334350585938,1.886123657226562
240136,1.166488647460938,-1.052749633789062,1.762725830078125
240137,1.314834594726562,-0.950592041015625,1.401596069335938
240138,1.346389770507812,-0.8218994140625,1.075088500976562
240139,1.273773193359375,-0.6088104248046875,0.848419189453125
240140,1.144561767578125,-0.3586883544921875,0.7183380126953125
240141,1.033126831054688,-0.18878173828125,0.7182769775390625
240142,0.9203643798828124,-0.1264190673828125,0.686248779296875
240143,0.773712158203125,-0.147216796875,0.5743560791015625
240144,0.60845947265625,-0.16729736328125,0.46923828125
240145,0.452911376953125,-0.13690185546875,0.376922607421875
240146,0.3209686279296875,-0.1119537353515625,0.312652587890625
240147,0.225860595703125,-0.08935546875,0.255889892578125
240148,0.171417236328125,-0.0579071044921875,0.2317962646484375
240149,0.190216064453125,-0.0382843017578125,0.244873046875
240150,0.2686309814453125,-0.043182373046875,0.2162017822265625
240151,0.360321044921875,-0.034423828125,0.1761474609375
240152,0.3500823974609375,-0.022979736328125,0.063751220703125
240153,0.24090576171875,-0.001220703125,-0.0718536376953125
240154,0.099945068359375,0.092498779296875,-0.13385009765625
240155,0.0666656494140625,0.1981353759765625,-0.06732177734375
240156,0.1168365478515625,0.3105621337890625,0.0483245849609375
240157,0.1651763916015625,0.397216796875,0.108795166015625
240158,0.1739044189453125,0.421417236328125,0.1168212890625
240159,0.132720947265625,0.4070587158203125,0.1468353271484375
240160,0.046875,0.329498291015625,0.2019500732421875
240161,-0.0825958251953125,0.178466796875,0.289825439453125
240162,-0.2165679931640625,-0.1021728515625,0.4820709228515625
240163,-0.400665283203125,-0.51019287109375,0.7605133056640625
240164,-0.628936767578125,-0.9353790283203124,1.111251831054688
240165,-0.9072265625,-1.267562866210938,1.221847534179688
240166,-1.250900268554688,-1.415252685546875,1.126632690429688
240167,-1.484848022460938,-1.4180908203125,1.148330688476562
240168,-1.57513427734375,-1.391494750976562,0.4919891357421875
240169,-1.558792114257812,-1.948013305664062,-0.00030517578125
240170,-1.289230346679688,-3.533554077148438,-0.0303497314453125
240171,-1.09375,-4.188827514648438,-0.185302734375
240172,-1.060745239257812,-3.218902587890625,-0.188934326171875
240173,-0.54718017578125,-2.175277709960938,0.543609619140625
240174,-0.1712646484375,-1.555831909179688,1.168365478515625
240175,-0.4735870361328125,-1.195419311523438,1.4462890625
240176,-0.84686279296875,-1.092803955078125,1.450729370117188
240177,-0.877410888671875,-1.138168334960938,1.111923217773438
240178,-0.5327606201171875,-1.16790771484375,0.887603759765625
240179,-0.0984649658203125,-0.901947021484375,0.7441253662109375
240180,0.04010009765625,-0.6664276123046875,0.4616241455078125
240181,0.00079345703125,-0.5130157470703125,0.3042755126953125
240182,-0.042388916015625,-0.260833740234375,0.2570343017578125
240183,-0.11346435546875,-0.053375244140625,0.1190338134765625
240184,0.212432861328125,0.00726318359375,0.380279541015625
240185,0.7138671875,0.0684661865234375,0.50152587890625
240186,1.055511474609375,0.2747955322265625,0.5499114990234375
240187,1.208480834960938,0.52410888671875,0.5423736572265625
240188,1.2626953125,0.7045440673828125,0.5480804443359375
240189,1.357162475585938,0.5830078125,0.8730010986328125
240190,1.341567993164062,0.3243408203125,1.100051879882812
240191,1.150192260742188,0.2436981201171875,1.01776123046875
240192,0.8779144287109375,0.3099212646484375,0.46417236328125
240193,0.710418701171875,0.2458038330078125,0.112213134765625
240194,0.5470428466796875,0.1135101318359375,-0.126190185546875
240195,0.333251953125,-0.0399932861328125,-0.5063018798828125
240196,0.1263885498046875,-0.107086181640625,-0.57464599609375
240197,0.004425048828125,-0.09375,-0.203216552734375
240198,-0.00384521484375,-0.0508270263671875,0.2307586669921875
240199,0.1273345947265625,-0.048095703125,0.3905181884765625
240200,0.2942047119140625,-0.075347900390625,0.3154144287109375
240201,0.406768798828125,-0.1584014892578125,0.2454376220703125
240202,0.429290771484375,-0.2311553955078125,0.3228912353515625
240203,0.33575439453125,-0.321746826171875,0.5880889892578125
240204,0.089752197265625,-0.4679718017578125,1.022918701171875
240205,-0.1759796142578125,-0.639190673828125,1.544952392578125
240206,-0.339447021484375,-0.9586029052734376,2.175979614257812
240207,-0.64703369140625,-1.478408813476562,2.794387817382812
240208,-1.07177734375,-1.934066772460938,2.913482666015625
240209,-1.24755859375,-2.168350219726562,2.560440063476562
240210,-0.9025115966796876,-2.1141357421875,2.104583740234375
240211,-0.272003173828125,-2.42608642578125,1.349777221679688
240212,0.0968780517578125,-2.796005249023438,0.5457763671875
240213,-0.0514984130859375,-2.444854736328125,0.4324951171875
240214,-0.0367431640625,-1.983795166015625,1.221298217773438
240215,0.13232421875,-1.460540771484375,1.950271606445312
240216,0.3619842529296875,-1.029647827148438,2.361801147460938
240217,0.70941162109375,-0.91168212890625,2.430023193359375
240218,1.02947998046875,-0.9642791748046876,2.411727905273438
240219,1.275527954101562,-0.974029541015625,2.2122802734375
240220,1.418701171875,-0.7439117431640625,1.731430053710938
240221,1.4744873046875,-0.473663330078125,1.24237060546875
240222,1.4783935546875,-0.3283843994140625,0.967315673828125
240223,1.39996337890625,-0.229766845703125,0.87286376953125
240224,1.26226806640625,-0.0945587158203125,0.7779541015625
240225,1.11187744140625,0.00469970703125,0.71832275390625
240226,0.927215576171875,-0.00872802734375,0.6455230712890625
240227,0.7092437744140625,-0.0852508544921875,0.5587921142578125
240228,0.53076171875,-0.116943359375,0.4920654296875
240229,0.4144439697265625,-0.09747314453125,0.409423828125
240230,0.33160400390625,-0.05975341796875,0.314971923828125
240231,0.2440643310546875,-0.0173187255859375,0.2632904052734375
240232,0.1863861083984375,0.013458251953125,0.2561187744140625
240233,0.229644775390625,0.021087646484375,0.297332763671875
240234,0.3246612548828125,0.013671875,0.3097991943359375
240235,0.2907562255859375,0.0451202392578125,0.2163848876953125
240236,0.171051025390625,0.0804595947265625,0.0909271240234375
240237,-0.025054931640625,0.1186065673828125,-0.1094207763671875
240238,-0.157928466796875,0.222381591796875,-0.1576385498046875
240239,-0.141357421875,0.314300537109375,-0.09326171875
240240,-0.0696258544921875,0.3648223876953125,-0.0628204345703125
240241,-0.000274658203125,0.383514404296875,-0.05670166015625
240242,0.0313568115234375,0.3330535888671875,-0.022216796875
240243,0.018310546875,0.2149200439453125,0.03082275390625
240244,-0.033660888671875,0.0774078369140625,0.14630126953125
240245,-0.1277008056640625,-0.075958251953125,0.28985595703125
240246,-0.2621002197265625,-0.2863616943359375,0.49322509765625
240247,-0.3961944580078125,-0.5682373046875,0.86517333984375
240248,-0.508544921875,-0.8413238525390625,1.279541015625
240249,-0.60528564453125,-1.026931762695312,1.431884765625
240250,-0.76739501953125,-1.153060913085938,1.095199584960938
240251,-0.976226806640625,-1.284744262695312,0.7641143798828125
240252,-1.15863037109375,-1.299545288085938,0.295318603515625
240253,-1.107315063476562,-1.498046875,-0.1604156494140625
240254,-0.8295135498046875,-2.5733642578125,-0.2915191650390625
240255,-0.567291259765625,-3.482955932617188,-0.00567626953125
240256,-0.5303802490234375,-3.089096069335938,0.25042724609375
240257,-0.4375152587890625,-2.527877807617188,0.831024169921875
240258,-0.3365478515625,-2.130615234375,1.450149536132812
240259,-0.5472412109375,-1.780044555664062,1.340057373046875
240260,-0.8342742919921875,-1.704925537109375,1.113998413085938
240261,-0.8474273681640625,-1.581390380859375,1.03173828125
240262,-0.7469482421875,-1.282791137695312,0.911590576171875
240263,-0.6272125244140625,-1.010406494140625,0.7290496826171875
240264,-0.478302001953125,-0.911376953125,0.514678955078125
240265,-0.4524078369140625,-0.9133453369140624,0.3310089111328125
240266,-0.422027587890625,-0.8480682373046875,0.27471923828125
240267,-0.277130126953125,-0.721923828125,0.2979888916015625
240268,-0.0776824951171875,-0.553924560546875,0.3220672607421875
240269,0.1363067626953125,-0.326507568359375,0.3022003173828125
240270,0.293731689453125,-0.0949859619140625,0.3117828369140625
240271,0.378692626953125,0.1910552978515625,0.2575531005859375
240272,0.332122802734375,0.5362548828125,0.1841583251953125
240273,0.44744873046875,0.67437744140625,0.3368988037109375
240274,0.611083984375,0.6209564208984375,0.4003448486328125
240275,0.6983184814453125,0.5321502685546875,0.388946533203125
240276,0.729522705078125,0.4768524169921875,0.3115692138671875
240277,0.7129058837890625,0.4591064453125,0.2436676025390625
240278,0.6841278076171875,0.4847869873046875,0.23455810546875
240279,0.6741943359375,0.444091796875,0.282867431640625
240280,0.6879425048828125,0.2562103271484375,0.4115753173828125
240281,0.6767578125,0.0416107177734375,0.304290771484375
240282,0.6251220703125,-0.1374969482421875,0.076202392578125
240283,0.5525360107421875,-0.2401123046875,0.0706787109375
240284,0.4630126953125,-0.2926788330078125,0.26190185546875
240285,0.40087890625,-0.30389404296875,0.4741973876953125
240286,0.385528564453125,-0.283447265625,0.6354827880859375
240287,0.4347381591796875,-0.3235931396484375,0.7693634033203125
240288,0.478607177734375,-0.4662628173828125,1.01220703125
240289,0.3704071044921875,-0.7230377197265625,1.451004028320312
240290,0.0371246337890625,-1.040771484375,1.990432739257812
240291,-0.51434326171875,-1.403228759765625,2.436920166015625
240292,-1.126693725585938,-1.777267456054688,2.844329833984375
240293,-1.358993530273438,-1.734603881835938,2.91290283203125
240294,-0.9771728515625,-1.243927001953125,2.040740966796875
240295,-0.3549652099609375,-1.06304931640625,1.054244995117188
240296,-0.0101776123046875,-1.19281005859375,0.51715087890625
240297,0.1002044677734375,-1.193679809570312,0.355377197265625
240298,0.1435699462890625,-1.09832763671875,0.498199462890625
240299,0.2297515869140625,-0.984283447265625,0.8622894287109375
240300,0.3226318359375,-0.932037353515625,1.331268310546875
240301,0.4062347412109375,-0.9095001220703124,1.798583984375
240302,0.4800262451171875,-0.7369384765625,2.123703002929688
240303,0.7861328125,-0.60577392578125,2.298141479492188
240304,1.106704711914062,-0.68731689453125,2.327957153320312
240305,1.114959716796875,-0.80963134765625,2.239761352539062
240306,0.983856201171875,-0.78472900390625,1.94134521484375
240307,0.87237548828125,-0.6544342041015625,1.486038208007812
240308,0.7096099853515625,-0.6043853759765625,1.130828857421875
240309,0.5192108154296875,-0.6045989990234375,0.9100799560546876
240310,0.3773345947265625,-0.560699462890625,0.8192138671875
240311,0.288787841796875,-0.474090576171875,0.7847137451171875
240312,0.2144775390625,-0.4003753662109375,0.7530670166015625
240313,0.1573944091796875,-0.35992431640625,0.687164306640625
240314,0.1320648193359375,-0.3229522705078125,0.6418914794921875
240315,0.1217803955078125,-0.271392822265625,0.59796142578125
240316,0.0898284912109375,-0.220428466796875,0.5354461669921875
240317,0.0565185546875,-0.1814117431640625,0.47259521484375
240318,0.0294647216796875,-0.1394805908203125,0.4210357666015625
240319,0.00604248046875,-0.083343505859375,0.384185791015625
240320,0.008575439453125,-0.0287322998046875,0.3545684814453125
240321,0.0235443115234375,0.021942138671875,0.3041229248046875
240322,0.035003662109375,0.0731201171875,0.228271484375
240323,0.039642333984375,0.111724853515625,0.143829345703125
240324,0.0368804931640625,0.131439208984375,0.0765228271484375
240325,0.0210113525390625,0.126495361328125,0.0093536376953125
240326,-0.001708984375,0.093414306640625,-0.0660858154296875
240327,-0.0235748291015625,0.0264739990234375,-0.1310882568359375
240328,-0.026519775390625,-0.071044921875,-0.1690673828125
240329,-0.0320587158203125,-0.1978302001953125,-0.20703125
240330,-0.0536346435546875,-0.327117919921875,-0.2144927978515625
240331,-0.0672607421875,-0.430633544921875,-0.175506591796875
240332,-0.094329833984375,-0.541107177734375,-0.0993804931640625
240333,-0.1714019775390625,-0.7320556640625,-0.0192108154296875
240334,-0.3202972412109375,-1.059600830078125,0.0885162353515625
240335,-0.526641845703125,-1.412521362304688,0.2848052978515625
240336,-0.7260284423828125,-1.669815063476562,0.7457122802734375
240337,-1.093963623046875,-1.500244140625,1.132308959960938
240338,-1.294830322265625,-0.96929931640625,1.634765625
240339,-1.110702514648438,-0.7560577392578125,2.142044067382812
240340,-0.8494415283203125,-0.99212646484375,2.269363403320312
240341,-0.416717529296875,-1.270980834960938,1.62603759765625
240342,0.0768280029296875,-1.425033569335938,0.9892425537109376
240343,0.486968994140625,-1.4205322265625,0.9130401611328124
240344,0.73223876953125,-1.1854248046875,1.018264770507812
240345,0.9316864013671876,-0.8796539306640625,1.174346923828125
240346,1.025299072265625,-0.56689453125,1.392959594726562
240347,1.029266357421875,-0.308013916015625,1.543243408203125
240348,1.088180541992188,-0.1655120849609375,1.627029418945312
240349,1.148223876953125,-0.1065673828125,1.679641723632812
240350,1.176528930664062,-0.19830322265625,1.725921630859375
240351,1.241241455078125,-0.3680572509765625,1.760040283203125
240352,1.313491821289062,-0.4637298583984375,1.71002197265625
240353,1.28955078125,-0.443267822265625,1.555633544921875
240354,1.22509765625,-0.3690948486328125,1.343429565429688
240355,1.154510498046875,-0.2950897216796875,1.107757568359375
240356,1.053924560546875,-0.23309326171875,0.92779541015625
240357,0.937896728515625,-0.1898956298828125,0.8263092041015625
240358,0.8225555419921875,-0.169097900390625,0.736053466796875
240359,0.7232513427734375,-0.146392822265625,0.6416473388671875
240360,0.64093017578125,-0.112396240234375,0.5649261474609375
240361,0.5815887451171875,-0.1097259521484375,0.529754638671875
240362,0.5522003173828125,-0.142791748046875,0.5241241455078125
240363,0.5268096923828125,-0.173797607421875,0.5491943359375
240364,0.4832000732421875,-0.196258544921875,0.6136322021484375
240365,0.4132232666015625,-0.2225494384765625,0.6949005126953125
240366,0.3047943115234375,-0.2584228515625,0.759613037109375
240367,0.1720428466796875,-0.2858428955078125,0.7742156982421875
240368,-0.0064544677734375,-0.2864990234375,0.7183380126953125
240369,-0.2086639404296875,-0.265167236328125,0.65570068359375
240370,-0.347198486328125,-0.228851318359375,0.61285400390625
240371,-0.468536376953125,-0.193878173828125,0.5218048095703125
240372,-0.5582733154296875,-0.1968231201171875,0.4385223388671875
240373,-0.6109619140625,-0.178924560546875,0.3444976806640625
240374,-0.64404296875,-0.1522216796875,0.199920654296875
240375,-0.6536865234375,-0.175201416015625,-0.0067138671875
240376,-0.6247100830078125,-0.2942657470703125,-0.1713714599609375
240377,-0.578887939453125,-0.497802734375,-0.257049560546875
240378,-0.563232421875,-0.7843475341796875,-0.25311279296875
240379,-0.5985107421875,-1.039413452148438,-0.070953369140625
240380,-0.7679595947265625,-1.101760864257812,0.006622314453125
240381,-1.00262451171875,-1.140731811523438,0.08758544921875
240382,-1.101715087890625,-1.258010864257812,0.22320556640625
240383,-1.016845703125,-1.361068725585938,0.4884033203125
240384,-0.8244476318359375,-1.451675415039062,0.748046875
240385,-0.65240478515625,-1.549606323242188,0.91217041015625
240386,-0.584808349609375,-1.575515747070312,0.979339599609375
240387,-0.544830322265625,-1.531005859375,1.019439697265625
240388,-0.4085693359375,-1.330886840820312,1.075119018554688
240389,-0.2017822265625,-1.121139526367188,1.15325927734375
240390,0.0225982666015625,-0.9381866455078124,1.252838134765625
240391,0.1976470947265625,-0.79498291015625,1.31005859375
240392,0.3102874755859375,-0.672027587890625,1.412841796875
240393,0.396209716796875,-0.594818115234375,1.533218383789062
240394,0.451904296875,-0.5804595947265625,1.608108520507812
240395,0.6402587890625,-0.609100341796875,1.678741455078125
240396,0.8695831298828125,-0.5657501220703125,1.646453857421875
240397,1.123733520507812,-0.5398406982421875,1.5614013671875
240398,1.348983764648438,-0.5187225341796875,1.490219116210938
240399,1.529190063476562,-0.4662017822265625,1.437911987304688
240400,1.701339721679688,-0.390716552734375,1.389617919921875
240401,1.745468139648438,-0.2485504150390625,1.362777709960938
240402,1.6240234375,-0.0598907470703125,1.299026489257812
240403,1.444961547851562,0.13226318359375,1.248321533203125
240404,1.30810546875,0.1931915283203125,1.254409790039062
240405,1.190093994140625,0.128997802734375,1.21246337890625
240406,1.022552490234375,0.054962158203125,1.097183227539062
240407,0.813507080078125,-0.005340576171875,0.9636688232421876
240408,0.62274169921875,-0.066986083984375,0.852386474609375
240409,0.4618682861328125,-0.11187744140625,0.74761962890625
240410,0.296600341796875,-0.14202880859375,0.6153717041015625
240411,0.1053314208984375,-0.169097900390625,0.441131591796875
240412,-0.06011962890625,-0.2203521728515625,0.248504638671875
240413,-0.1892852783203125,-0.2945404052734375,0.065216064453125
240414,-0.289093017578125,-0.370361328125,-0.0670318603515625
240415,-0.342315673828125,-0.4585723876953125,-0.1704559326171875
240416,-0.3675537109375,-0.542724609375,-0.3043670654296875
240417,-0.382720947265625,-0.5934600830078125,-0.3941802978515625
240418,-0.37957763671875,-0.58349609375,-0.400238037109375
240419,-0.3670196533203125,-0.5036468505859375,-0.3424072265625
240420,-0.31500244140625,-0.402496337890625,-0.2269744873046875
240421,-0.2639617919921875,-0.3749237060546875,-0.106048583984375
240422,-0.237091064453125,-0.26220703125,-0.04400634765625
240423,-0.1844482421875,-0.17962646484375,0.0274810791015625
240424,-0.105072021484375,-0.29156494140625,0.1491241455078125
240425,-0.1467132568359375,-0.4736328125,0.2774200439453125
240426,-0.4459381103515625,-0.8040313720703125,0.356048583984375
240427,-0.7101898193359375,-1.191085815429688,0.464691162109375
240428,-0.89752197265625,-1.278900146484375,0.6895751953125
240429,-0.7236785888671875,-1.241348266601562,1.461044311523438
240430,-0.738555908203125,-1.202957153320312,2.050827026367188
240431,-0.957061767578125,-1.308914184570312,2.143447875976562
240432,-0.8980560302734375,-1.564468383789062,1.951889038085938
240433,-0.703399658203125,-1.522415161132812,1.522705078125
240434,-0.3602142333984375,-0.996124267578125,1.044265747070312
240435,0.0726470947265625,-0.519195556640625,0.7971649169921875
240436,0.4812774658203125,-0.404449462890625,0.647979736328125
240437,0.80462646484375,-0.405975341796875,0.5988616943359375
240438,0.9891357421875,-0.3499908447265625,0.69720458984375
240439,1.0150146484375,-0.2379150390625,0.8876495361328125
240440,1.035110473632812,-0.1566314697265625,1.148971557617188
240441,1.203704833984375,-0.1616363525390625,1.466842651367188
240442,1.368118286132812,-0.222503662109375,1.555145263671875
240443,1.446395874023438,-0.2987060546875,1.3460693359375
240444,1.4786376953125,-0.3302764892578125,1.052474975585938
240445,1.558746337890625,-0.2906646728515625,0.8654937744140625
240446,1.634674072265625,-0.207489013671875,0.6960601806640625
240447,1.555984497070312,-0.0895233154296875,0.6161041259765625
240448,1.340164184570312,-0.0200042724609375,0.705535888671875
240449,1.119430541992188,-0.123809814453125,0.8972320556640625
240450,0.932220458984375,-0.3435211181640625,1.039764404296875
240451,0.73736572265625,-0.5220794677734375,1.026641845703125
240452,0.5914459228515625,-0.65020751953125,0.867462158203125
240453,0.524017333984375,-0.7473297119140625,0.6263275146484375
240454,0.494842529296875,-0.8094635009765625,0.4739227294921875
240455,0.485748291015625,-0.8540802001953125,0.507720947265625
240456,0.4712677001953125,-0.8647918701171875,0.6755828857421875
240457,0.4595947265625,-0.8020782470703125,0.837554931640625
240458,0.47357177734375,-0.6868896484375,0.8599853515625
240459,0.4923095703125,-0.5828094482421875,0.7730255126953125
240460,0.5469512939453125,-0.534881591796875,0.6849365234375
240461,0.6460418701171875,-0.546783447265625,0.63311767578125
240462,0.7375030517578125,-0.607452392578125,0.6450958251953125
240463,0.7603759765625,-0.6662750244140625,0.7187957763671875
240464,0.6771392822265625,-0.6948089599609375,0.8198089599609375
240465,0.4878692626953125,-0.694854736328125,0.9045562744140624
240466,0.2478485107421875,-0.6595458984375,0.9378814697265624
240467,0.0274658203125,-0.60882568359375,0.9537811279296876
240468,-0.1298370361328125,-0.5784759521484375,0.946807861328125
240469,-0.218597412109375,-0.5367431640625,0.8901214599609375
240470,-0.23956298828125,-0.4656982421875,0.811614990234375
240471,-0.2527923583984375,-0.4206695556640625,0.739471435546875
240472,-0.317626953125,-0.4303436279296875,0.6730804443359375
240473,-0.44927978515625,-0.451141357421875,0.5851287841796875
240474,-0.5790557861328125,-0.5140838623046875,0.490509033203125
240475,-0.6884765625,-0.6612701416015625,0.375518798828125
240476,-0.7979278564453125,-0.84552001953125,0.2317962646484375
240477,-0.8748779296875,-0.980224609375,0.1310882568359375
240478,-0.8682861328125,-0.9430389404296876,0.1549835205078125
240479,-0.7930755615234375,-0.8472900390625,0.2724609375
240480,-0.695709228515625,-0.7837371826171875,0.3672332763671875
240481,-0.554931640625,-0.7232818603515625,0.4515380859375
240482,-0.3003997802734375,-0.6900482177734375,0.5771636962890625
240483,0.00372314453125,-0.6814117431640625,0.699615478515625
240484,0.3184814453125,-0.6942596435546875,0.8208160400390625
240485,0.605316162109375,-0.6850433349609375,0.9172821044921876
240486,0.8838653564453125,-0.661407470703125,0.9684295654296876
240487,1.083038330078125,-0.6099395751953125,0.9408721923828124
240488,1.213851928710938,-0.5826263427734375,0.929229736328125
240489,1.285934448242188,-0.49920654296875,0.9315185546875
240490,1.356155395507812,-0.361907958984375,0.959075927734375
240491,1.41204833984375,-0.2259063720703125,0.9593658447265624
240492,1.42840576171875,-0.1211090087890625,0.9055938720703124
240493,1.462646484375,-0.07330322265625,0.8431549072265625
240494,1.51947021484375,-0.0775146484375,0.75274658203125
240495,1.547714233398438,-0.1285247802734375,0.6334381103515625
240496,1.532516479492188,-0.230743408203125,0.5419158935546875
240497,1.492507934570312,-0.3369293212890625,0.526641845703125
240498,1.424270629882812,-0.4132080078125,0.587310791015625
240499,1.314682006835938,-0.469879150390625,0.6494903564453125
240500,1.1871337890625,-0.498321533203125,0.6952667236328125
240501,1.085891723632812,-0.484039306640625,0.7433929443359375
240502,1.012969970703125,-0.42913818359375,0.814117431640625
240503,0.9632415771484376,-0.357391357421875,0.9015045166015624
240504,0.9362335205078124,-0.3058013916015625,0.9605560302734376
240505,0.91815185546875,-0.292724609375,0.9545440673828124
240506,0.8874359130859375,-0.3081817626953125,0.9178009033203124
240507,0.83599853515625,-0.3301239013671875,0.9090423583984376
240508,0.7648468017578125,-0.371124267578125,0.93792724609375
240509,0.6841583251953125,-0.392730712890625,0.9990234375
240510,0.6218719482421875,-0.3980865478515625,1.051025390625
240511,0.5840911865234375,-0.3656768798828125,1.022811889648438
240512,0.510345458984375,-0.360321044921875,0.9302825927734376
240513,0.4007720947265625,-0.3814239501953125,0.8406219482421875
240514,0.294525146484375,-0.3768768310546875,0.7894134521484375
240515,0.1867523193359375,-0.3688507080078125,0.7524261474609375
240516,0.0618896484375,-0.3733367919921875,0.7025146484375
240517,-0.0703887939453125,-0.385894775390625,0.6633453369140625
240518,-0.2020263671875,-0.4286651611328125,0.6165313720703125
240519,-0.3011932373046875,-0.498046875,0.5723419189453125
240520,-0.3827362060546875,-0.574127197265625,0.5187225341796875
240521,-0.4761199951171875,-0.6609954833984375,0.4457855224609375
240522,-0.5472259521484375,-0.740570068359375,0.413665771484375
240523,-0.549530029296875,-0.7602386474609375,0.422882080078125
240524,-0.492279052734375,-0.77593994140625,0.4690093994140625
240525,-0.4199066162109375,-0.8667755126953125,0.5137176513671875
240526,-0.370880126953125,-0.9697723388671876,0.5586090087890625
240527,-0.3708648681640625,-1.059906005859375,0.6342315673828125
240528,-0.42279052734375,-1.105194091796875,0.7468414306640625
240529,-0.510498046875,-1.123123168945312,0.845489501953125
240530,-0.650299072265625,-1.171554565429688,0.8963623046875
240531,-0.8096160888671875,-1.160476684570312,0.911163330078125
240532,-0.9315643310546876,-1.035903930664062,0.8778228759765625
240533,-0.9715576171875,-0.8426971435546875,0.852691650390625
240534,-0.9342803955078124,-0.7080841064453125,0.8148651123046875
240535,-0.891998291015625,-0.7034149169921875,0.70623779296875
240536,-0.8575286865234375,-0.68896484375,0.5306549072265625
240537,-0.7730865478515625,-0.6224212646484375,0.34576416015625
240538,-0.6610870361328125,-0.548919677734375,0.21746826171875
240539,-0.5053253173828125,-0.4778900146484375,0.1812896728515625
240540,-0.3256378173828125,-0.375,0.2028350830078125
240541,-0.1172637939453125,-0.2769317626953125,0.2686004638671875
240542,0.10052490234375,-0.193389892578125,0.400482177734375
240543,0.3042144775390625,-0.133941650390625,0.564453125
240544,0.4952850341796875,-0.132476806640625,0.7174835205078125
240545,0.639312744140625,-0.1574249267578125,0.855438232421875
240546,0.759765625,-0.1723785400390625,0.9427642822265624
240547,0.8914337158203125,-0.18463134765625,0.9947357177734376
240548,1.134292602539062,-0.2205810546875,1.04052734375
240549,1.4100341796875,-0.240325927734375,1.052017211914062
240550,1.678665161132812,-0.2555999755859375,1.05767822265625
240551,1.91357421875,-0.2578125,1.070022583007812
240552,2.019485473632812,-0.2373504638671875,1.007843017578125
240553,1.981781005859375,-0.135162353515625,0.8964691162109375
240554,1.806076049804688,0.0265960693359375,0.7610626220703125
240555,1.54693603515625,0.1219482421875,0.70452880859375
240556,1.271484375,0.106903076171875,0.7333984375
240557,1.019775390625,0.01898193359375,0.795562744140625
240558,0.8369293212890625,-0.0764312744140625,0.830963134765625
240559,0.7554168701171875,-0.160675048828125,0.8173065185546875
240560,0.7333221435546875,-0.2641754150390625,0.7805328369140625
240561,0.7062530517578125,-0.3849029541015625,0.8039398193359375
240562,0.644439697265625,-0.4964599609375,0.8783111572265625
240563,0.573699951171875,-0.5833282470703125,0.9559173583984376
240564,0.5159454345703125,-0.62591552734375,1.006484985351562
240565,0.4799346923828125,-0.6173858642578125,1.01556396484375
240566,0.454437255859375,-0.5662078857421875,0.9779510498046876
240567,0.4194183349609375,-0.50543212890625,0.91424560546875
240568,0.37335205078125,-0.47003173828125,0.8432769775390625
240569,0.3260040283203125,-0.4735107421875,0.79522705078125
240570,0.273956298828125,-0.5012969970703125,0.7698822021484375
240571,0.21942138671875,-0.549713134765625,0.71783447265625
240572,0.1772918701171875,-0.6298980712890625,0.6367645263671875
240573,0.1662750244140625,-0.7498931884765625,0.570831298828125
240574,0.1639556884765625,-0.8923187255859375,0.56182861328125
240575,0.136260986328125,-1.039413452148438,0.6352691650390625
240576,0.0564727783203125,-1.147598266601562,0.7445220947265625
240577,-0.0580902099609375,-1.175872802734375,0.87030029296875
240578,-0.1787109375,-1.10198974609375,0.9897003173828124
240579,-0.2946929931640625,-0.96356201171875,1.024917602539062
240580,-0.3643035888671875,-0.80865478515625,0.941375732421875
240581,-0.3792266845703125,-0.6811065673828125,0.7653350830078125
240582,-0.3506317138671875,-0.6148529052734375,0.589630126953125
240583,-0.3173675537109375,-0.6124420166015625,0.4904937744140625
240584,-0.3227386474609375,-0.64593505859375,0.449371337890625
240585,-0.3579254150390625,-0.688385009765625,0.453125
240586,-0.419189453125,-0.729583740234375,0.51055908203125
240587,-0.5009002685546875,-0.772857666015625,0.5886993408203125
240588,-0.5805206298828125,-0.805908203125,0.614501953125
240589,-0.6417236328125,-0.8045501708984375,0.573211669921875
240590,-0.6501617431640625,-0.783599853515625,0.5370941162109375
240591,-0.607177734375,-0.76251220703125,0.52056884765625
240592,-0.529144287109375,-0.7452545166015625,0.5058135986328125
240593,-0.419219970703125,-0.739349365234375,0.4688262939453125
240594,-0.2881317138671875,-0.733154296875,0.436767578125
240595,-0.135528564453125,-0.71527099609375,0.469024658203125
240596,0.0255279541015625,-0.6795196533203125,0.54913330078125
240597,0.18524169921875,-0.63873291015625,0.648223876953125
240598,0.3355255126953125,-0.5812225341796875,0.7389068603515625
240599,0.48382568359375,-0.529449462890625,0.837005615234375
240600,0.610687255859375,-0.488128662109375,0.9207611083984376
240601,0.751495361328125,-0.452850341796875,1.006546020507812
240602,0.9101409912109376,-0.42767333984375,1.087173461914062
240603,1.072311401367188,-0.427093505859375,1.195648193359375
240604,1.211776733398438,-0.421112060546875,1.197280883789062
240605,1.381576538085938,-0.352203369140625,1.04376220703125
240606,1.5689697265625,-0.1902008056640625,0.867279052734375
240607,1.75054931640625,-0.0754547119140625,0.6768035888671875
240608,1.848876953125,-0.03924560546875,0.555206298828125
240609,1.788360595703125,-0.0529327392578125,0.5142364501953125
240610,1.655548095703125,-0.0777435302734375,0.52679443359375
240611,1.527587890625,-0.0626220703125,0.546661376953125
240612,1.394607543945312,-0.0926513671875,0.5731048583984375
240613,1.274032592773438,-0.17987060546875,0.5885162353515625
240614,1.161758422851562,-0.2680206298828125,0.59808349609375
240615,1.047073364257812,-0.340423583984375,0.5947113037109375
240616,0.94610595703125,-0.391815185546875,0.588897705078125
240617,0.862823486328125,-0.399505615234375,0.5920867919921875
240618,0.8107452392578125,-0.3745574951171875,0.6109161376953125
240619,0.7779693603515625,-0.337890625,0.6112823486328125
240620,0.73504638671875,-0.2920684814453125,0.596923828125
240621,0.6756744384765625,-0.2189788818359375,0.6192474365234375
240622,0.6074066162109375,-0.1558380126953125,0.6835479736328125
240623,0.55303955078125,-0.1343231201171875,0.75323486328125
240624,0.5103302001953125,-0.1313629150390625,0.824737548828125
240625,0.4583587646484375,-0.1341705322265625,0.887908935546875
240626,0.3915557861328125,-0.1472320556640625,0.9373016357421876
240627,0.3148345947265625,-0.19903564453125,0.9998626708984376
240628,0.2391357421875,-0.2882232666015625,1.04022216796875
240629,0.1467437744140625,-0.36151123046875,1.037384033203125
240630,0.04974365234375,-0.4145050048828125,1.031906127929688
240631,-0.0378875732421875,-0.470245361328125,1.036163330078125
240632,-0.0924224853515625,-0.5111846923828125,1.028121948242188
240633,-0.1022796630859375,-0.528594970703125,0.9726104736328124
240634,-0.10113525390625,-0.545318603515625,0.8722686767578125
240635,-0.0815887451171875,-0.55615234375,0.749786376953125
240636,-0.033966064453125,-0.5904388427734375,0.63323974609375
240637,0.0446929931640625,-0.6796875,0.5467987060546875
240638,0.119384765625,-0.800048828125,0.52423095703125
240639,0.1662445068359375,-0.9163665771484376,0.585968017578125
240640,0.17095947265625,-1.019027709960938,0.7159423828125
240641,0.107421875,-1.105209350585938,0.8669891357421875
240642,-0.009002685546875,-1.192108154296875,0.9823150634765624
240643,-0.109710693359375,-1.238250732421875,1.031158447265625
240644,-0.211273193359375,-1.226959228515625,1.018478393554688
240645,-0.3292694091796875,-1.17852783203125,0.9550323486328124
240646,-0.444366455078125,-1.118377685546875,0.845123291015625
240647,-0.5357818603515625,-1.04913330078125,0.728973388671875
240648,-0.618133544921875,-0.9720611572265624,0.6247711181640625
240649,-0.6817626953125,-0.90386962890625,0.5408477783203125
240650,-0.6657257080078125,-0.8558502197265625,0.4682464599609375
240651,-0.575408935546875,-0.8142852783203125,0.407684326171875
240652,-0.4730377197265625,-0.7493896484375,0.369140625
240653,-0.371002197265625,-0.684539794921875,0.3699951171875
240654,-0.2782440185546875,-0.63409423828125,0.4026336669921875
240655,-0.1833038330078125,-0.5973358154296875,0.4702301025390625
240656,-0.0446929931640625,-0.54156494140625,0.543304443359375
240657,0.09063720703125,-0.4429931640625,0.6150054931640625
240658,0.1798095703125,-0.3684234619140625,0.7177276611328125
240659,0.25469970703125,-0.3444366455078125,0.80743408203125
240660,0.339874267578125,-0.3466644287109375,0.865081787109375
240661,0.4155426025390625,-0.317169189453125,0.85052490234375
240662,0.48175048828125,-0.2446441650390625,0.8534393310546875
240663,0.549530029296875,-0.1711273193359375,0.900970458984375
240664,0.6749114990234375,-0.1437530517578125,0.95184326171875
240665,0.81146240234375,-0.1066741943359375,0.9921112060546876
240666,0.925750732421875,-0.0357666015625,0.9729156494140624
240667,1.046234130859375,0.0360260009765625,0.9217681884765624
240668,1.158157348632812,0.0929412841796875,0.8593902587890625
240669,1.258651733398438,0.153289794921875,0.7926788330078125
240670,1.3404541015625,0.203399658203125,0.7461395263671875
240671,1.368606567382812,0.1899566650390625,0.6837005615234375
240672,1.278030395507812,0.1000518798828125,0.637786865234375
240673,1.077651977539062,-0.04150390625,0.7036895751953125
240674,0.8994903564453125,-0.157745361328125,0.853546142578125
240675,0.7965545654296875,-0.2198028564453125,0.982391357421875
240676,0.7406768798828125,-0.255401611328125,1.064468383789062
240677,0.690826416015625,-0.289764404296875,1.11395263671875
240678,0.637115478515625,-0.33502197265625,1.132949829101562
240679,0.578643798828125,-0.39605712890625,1.125930786132812
240680,0.5213623046875,-0.4687347412109375,1.093826293945312
240681,0.4333953857421875,-0.5351409912109375,1.051773071289062
240682,0.3008270263671875,-0.5870208740234375,1.037109375
240683,0.1337890625,-0.6186676025390625,1.039260864257812
240684,-0.0334320068359375,-0.634674072265625,1.03033447265625
240685,-0.1674652099609375,-0.6590576171875,1.00189208984375
240686,-0.24774169921875,-0.7124786376953125,0.93145751953125
240687,-0.2924041748046875,-0.789947509765625,0.778839111328125
240688,-0.2825927734375,-0.8593902587890625,0.5906829833984375
240689,-0.1897430419921875,-0.8706207275390625,0.47454833984375
240690,-0.066375732421875,-0.84503173828125,0.4841156005859375
240691,0.0518341064453125,-0.8271484375,0.5383758544921875
240692,0.1739654541015625,-0.7985687255859375,0.6103363037109375
240693,0.290313720703125,-0.753662109375,0.71551513671875
240694,0.35540771484375,-0.6922454833984375,0.8335113525390625
240695,0.35760498046875,-0.62542724609375,0.9545745849609376
240696,0.2818603515625,-0.5684814453125,1.056167602539062
240697,0.1402587890625,-0.5180206298828125,1.09912109375
240698,0.006256103515625,-0.4388885498046875,1.0811767578125
240699,-0.0486907958984375,-0.336029052734375,1.043228149414062
240700,-0.0539703369140625,-0.262603759765625,0.9611053466796876
240701,-0.0764923095703125,-0.2537384033203125,0.8378753662109375
240702,-0.1209259033203125,-0.291046142578125,0.7325439453125
240703,-0.198150634765625,-0.345428466796875,0.642425537109375
240704,-0.307891845703125,-0.4119415283203125,0.5611572265625
240705,-0.40679931640625,-0.4949493408203125,0.5294189453125
240706,-0.46142578125,-0.606903076171875,0.5384521484375
240707,-0.470062255859375,-0.7058868408203125,0.551910400390625
240708,-0.4575653076171875,-0.7772674560546875,0.5395050048828125
240709,-0.4189453125,-0.8357086181640625,0.4990386962890625
240710,-0.3200531005859375,-0.88458251953125,0.4839324951171875
240711,-0.163909912109375,-0.8994903564453125,0.5318145751953125
240712,0.0306396484375,-0.8916473388671875,0.6547088623046875
240713,0.270965576171875,-0.8485260009765625,0.8090362548828125
240714,0.52655029296875,-0.7664031982421875,0.98291015625
240715,0.7652740478515625,-0.6341705322265625,1.2432861328125
240716,0.968109130859375,-0.47247314453125,1.547775268554688
240717,1.072219848632812,-0.347869873046875,1.7076416015625
240718,1.169021606445312,-0.278472900390625,1.555557250976562
240719,1.322097778320312,-0.1676483154296875,1.305938720703125
240720,1.505599975585938,-0.053802490234375,1.095855712890625
240721,1.638580322265625,0.0385284423828125,0.923370361328125
240722,1.66534423828125,0.14984130859375,0.7522735595703125
240723,1.601959228515625,0.21856689453125,0.5842742919921875
240724,1.461166381835938,0.1923065185546875,0.4268646240234375
240725,1.2847900390625,0.04937744140625,0.3933563232421875
240726,1.131729125976562,-0.0804443359375,0.447967529296875
240727,0.9907073974609376,-0.14739990234375,0.4991912841796875
240728,0.85052490234375,-0.1929168701171875,0.54180908203125
240729,0.722808837890625,-0.234893798828125,0.5780029296875
240730,0.6227264404296875,-0.2663116455078125,0.5883941650390625
240731,0.5456085205078125,-0.2651824951171875,0.572296142578125
240732,0.503692626953125,-0.239227294921875,0.55963134765625
240733,0.4985809326171875,-0.1963653564453125,0.5646514892578125
240734,0.51141357421875,-0.1635284423828125,0.566680908203125
240735,0.54132080078125,-0.1659698486328125,0.583526611328125
240736,0.5728302001953125,-0.1888580322265625,0.627655029296875
240737,0.587249755859375,-0.218658447265625,0.7025146484375
240738,0.5912017822265625,-0.2539215087890625,0.8043060302734375
240739,0.582061767578125,-0.2927703857421875,0.901275634765625
240740,0.5469207763671875,-0.34967041015625,0.9750213623046876
240741,0.4907073974609375,-0.4234771728515625,1.049819946289062
240742,0.4183807373046875,-0.4977569580078125,1.147842407226562
240743,0.307037353515625,-0.530120849609375,1.24017333984375
240744,0.1822509765625,-0.5104827880859375,1.287460327148438
240745,0.07891845703125,-0.4784088134765625,1.249908447265625
240746,-0.001190185546875,-0.457611083984375,1.136184692382812
240747,-0.045501708984375,-0.4565277099609375,0.98138427734375
240748,-0.0678863525390625,-0.475830078125,0.8130340576171875
240749,-0.08880615234375,-0.5045623779296875,0.676513671875
240750,-0.1045379638671875,-0.530426025390625,0.579254150390625
240751,-0.1171112060546875,-0.567840576171875,0.5270538330078125
240752,-0.118743896484375,-0.6305694580078125,0.526641845703125
240753,-0.123687744140625,-0.710296630859375,0.5655517578125
240754,-0.1635284423828125,-0.7819366455078125,0.62554931640625
240755,-0.2190399169921875,-0.8215789794921875,0.6980743408203125
240756,-0.253631591796875,-0.8287200927734375,0.7820587158203125
240757,-0.2548065185546875,-0.8220062255859375,0.85009765625
240758,-0.2249755859375,-0.82293701171875,0.8958892822265625
240759,-0.17327880859375,-0.84027099609375,0.9189453125
240760,-0.12945556640625,-0.8559722900390625,0.90594482421875
240761,-0.0899658203125,-0.856597900390625,0.86968994140625
240762,-0.0515289306640625,-0.85211181640625,0.8337249755859375
240763,-0.0261077880859375,-0.8131256103515625,0.8028411865234375
240764,-0.0496826171875,-0.8170013427734375,0.8095855712890625
240765,-0.0610809326171875,-0.7760467529296875,0.8094024658203125
240766,-0.0926971435546875,-0.785247802734375,0.8059539794921875
240767,-0.1209564208984375,-0.77410888671875,0.8182220458984375
240768,-0.1465301513671875,-0.7371826171875,0.8616790771484375
240769,-0.1476593017578125,-0.681640625,0.9004058837890625
240770,-0.108612060546875,-0.6148529052734375,0.8980255126953125
240771,-0.05145263671875,-0.5528106689453125,0.8981781005859375
240772,-0.0048675537109375,-0.4969940185546875,0.8931732177734375
240773,0.0444793701171875,-0.4451446533203125,0.853668212890625
240774,0.1215667724609375,-0.3870849609375,0.7851715087890625
240775,0.23150634765625,-0.3234710693359375,0.727752685546875
240776,0.3368072509765625,-0.2501373291015625,0.711700439453125
240777,0.43438720703125,-0.1757049560546875,0.724090576171875
240778,0.5478363037109375,-0.1080322265625,0.7610015869140625
240779,0.687408447265625,-0.0476226806640625,0.8183135986328125
240780,0.870880126953125,-0.02301025390625,0.854461669921875
240781,1.079132080078125,-0.0331268310546875,0.8438262939453125
240782,1.254150390625,-0.0370330810546875,0.8290252685546875
240783,1.354736328125,-0.013580322265625,0.8147125244140625
240784,1.380172729492188,0.039520263671875,0.7591705322265625
240785,1.3427734375,0.0830535888671875,0.6347198486328125
240786,1.228500366210938,0.0616912841796875,0.4657440185546875
240787,1.052963256835938,-0.0412750244140625,0.3653411865234375
240788,0.880096435546875,-0.152069091796875,0.391632080078125
240789,0.762664794921875,-0.1909027099609375,0.4733734130859375
240790,0.6963958740234375,-0.194915771484375,0.558349609375
240791,0.658294677734375,-0.2063751220703125,0.642242431640625
240792,0.6331634521484375,-0.2453765869140625,0.7193756103515625
240793,0.617889404296875,-0.3135986328125,0.76226806640625
240794,0.614410400390625,-0.3961181640625,0.8218231201171875
240795,0.600433349609375,-0.4586334228515625,0.90081787109375
240796,0.556121826171875,-0.4897308349609375,0.9890594482421876
240797,0.4865570068359375,-0.501617431640625,1.081268310546875
240798,0.3895111083984375,-0.51544189453125,1.16656494140625
240799,0.2709197998046875,-0.5299835205078125,1.211624145507812
240800,0.157501220703125,-0.5665130615234375,1.199798583984375
240801,0.04290771484375,-0.6229248046875,1.148086547851562
240802,-0.044342041015625,-0.6925048828125,1.050872802734375
240803,-0.0864410400390625,-0.749908447265625,0.945587158203125
240804,-0.093109130859375,-0.787017822265625,0.856842041015625
240805,-0.0692596435546875,-0.836456298828125,0.80645751953125
240806,-0.016021728515625,-0.9092254638671876,0.7938385009765625
240807,0.05230712890625,-1.007919311523438,0.81414794921875
240808,0.114044189453125,-1.0916748046875,0.8597564697265625
240809,0.14141845703125,-1.11822509765625,0.9119110107421876
240810,0.1520233154296875,-1.0709228515625,0.9695281982421876
240811,0.1258392333984375,-0.963470458984375,1.012466430664062
240812,0.041015625,-0.80078125,0.9850311279296876
240813,-0.0339508056640625,-0.6431884765625,0.9124908447265624
240814,-0.0705718994140625,-0.561859130859375,0.8450927734375
240815,-0.09259033203125,-0.52740478515625,0.773406982421875
240816,-0.1083221435546875,-0.492767333984375,0.68499755859375
240817,-0.114532470703125,-0.44134521484375,0.614776611328125
240818,-0.10009765625,-0.4004974365234375,0.56964111328125
240819,-0.0737457275390625,-0.40399169921875,0.5259246826171875
240820,-0.0436248779296875,-0.4440155029296875,0.5020599365234375
240821,-0.0097198486328125,-0.4921875,0.50604248046875
240822,-0.019866943359375,-0.53985595703125,0.5325469970703125
240823,-0.0561370849609375,-0.58258056640625,0.598968505859375
240824,-0.0816802978515625,-0.6143341064453125,0.69732666015625
240825,-0.0794219970703125,-0.6172943115234375,0.791107177734375
240826,-0.0359344482421875,-0.591644287109375,0.8688201904296875
240827,0.02777099609375,-0.555755615234375,0.9181365966796876
240828,0.1069488525390625,-0.5322113037109375,0.92584228515625
240829,0.19384765625,-0.525390625,0.906463623046875
240830,0.2638397216796875,-0.531341552734375,0.866943359375
240831,0.3345489501953125,-0.5521697998046875,0.8202972412109375
240832,0.418304443359375,-0.57086181640625,0.7813873291015625
240833,0.501739501953125,-0.5856781005859375,0.76953125
240834,0.588653564453125,-0.59893798828125,0.7932281494140625
240835,0.65350341796875,-0.580657958984375,0.8558807373046875
240836,0.687408447265625,-0.50860595703125,0.9319915771484376
240837,0.68328857421875,-0.4034881591796875,0.9913177490234376
240838,0.675994873046875,-0.316925048828125,0.9881134033203124
240839,0.6969146728515625,-0.262451171875,0.919525146484375
240840,0.7530364990234375,-0.24456787109375,0.8108062744140625
240841,0.82122802734375,-0.2415924072265625,0.7262725830078125
240842,0.8760986328125,-0.238983154296875,0.685150146484375
240843,0.8943634033203125,-0.223663330078125,0.6896514892578125
240844,0.8937530517578125,-0.2126007080078125,0.70343017578125
240845,0.858642578125,-0.191802978515625,0.7161712646484375
240846,0.809539794921875,-0.1694488525390625,0.712890625
240847,0.77447509765625,-0.170013427734375,0.669342041015625
240848,0.7537078857421875,-0.1950531005859375,0.5944671630859375
240849,0.7412567138671875,-0.23876953125,0.5177001953125
240850,0.7355499267578125,-0.282440185546875,0.4777069091796875
240851,0.7342529296875,-0.30682373046875,0.4683837890625
240852,0.70892333984375,-0.3297576904296875,0.48895263671875
240853,0.687042236328125,-0.391937255859375,0.5731048583984375
240854,0.665985107421875,-0.4632568359375,0.689117431640625
240855,0.6367950439453125,-0.5230255126953125,0.81396484375
240856,0.5992584228515625,-0.579315185546875,0.9517974853515624
240857,0.546844482421875,-0.61920166015625,1.073089599609375
240858,0.494537353515625,-0.646484375,1.192611694335938
240859,0.4167633056640625,-0.6717681884765625,1.300018310546875
240860,0.306182861328125,-0.6740875244140625,1.367340087890625
240861,0.188262939453125,-0.636871337890625,1.374374389648438
240862,0.0948486328125,-0.573944091796875,1.2869873046875
240863,0.049468994140625,-0.507110595703125,1.153106689453125
240864,0.0130615234375,-0.458251953125,1.01068115234375
240865,-0.0433502197265625,-0.4486236572265625,0.8666229248046875
240866,-0.091278076171875,-0.450439453125,0.74365234375
240867,-0.108367919921875,-0.457244873046875,0.664154052734375
240868,-0.1016693115234375,-0.4893646240234375,0.5982208251953125
240869,-0.090301513671875,-0.5475006103515625,0.550689697265625
240870,-0.0646514892578125,-0.59930419921875,0.5625152587890625
240871,-0.0050506591796875,-0.6326751708984375,0.6387786865234375
240872,0.06103515625,-0.6309967041015625,0.7355804443359375
240873,0.131317138671875,-0.6310577392578125,0.8018951416015625
240874,0.199554443359375,-0.6509857177734375,0.8217315673828125
240875,0.2628936767578125,-0.648406982421875,0.844024658203125
240876,0.310760498046875,-0.6343231201171875,0.8640594482421875
240877,0.32208251953125,-0.6272735595703125,0.8660430908203125
240878,0.2916107177734375,-0.627227783203125,0.8430328369140625
240879,0.216094970703125,-0.6287078857421875,0.831512451171875
240880,0.1122589111328125,-0.632415771484375,0.8336944580078125
240881,-0.0041961669921875,-0.6575775146484375,0.79193115234375
240882,-0.107177734375,-0.7025604248046875,0.7453460693359375
240883,-0.179534912109375,-0.735198974609375,0.7224273681640625
240884,-0.26177978515625,-0.758148193359375,0.68896484375
240885,-0.367095947265625,-0.7585906982421875,0.67901611328125
240886,-0.4539031982421875,-0.7426910400390625,0.673309326171875
240887,-0.47662353515625,-0.7164764404296875,0.6510009765625
240888,-0.4374237060546875,-0.675567626953125,0.621826171875
240889,-0.36627197265625,-0.64483642578125,0.6162567138671875
240890,-0.2832183837890625,-0.6199951171875,0.638427734375
240891,-0.2002410888671875,-0.552520751953125,0.6808929443359375
240892,-0.120758056640625,-0.481842041015625,0.7424163818359375
240893,-0.0288238525390625,-0.4170379638671875,0.8015289306640625
240894,0.06658935546875,-0.3739166259765625,0.845001220703125
240895,0.1722564697265625,-0.3569488525390625,0.8841400146484375
240896,0.27288818359375,-0.3441009521484375,0.9170379638671876
240897,0.3845062255859375,-0.3331298828125,0.9334869384765624
240898,0.505523681640625,-0.32781982421875,0.916107177734375
240899,0.6171417236328125,-0.2949371337890625,0.876617431640625
240900,0.6981048583984375,-0.2383575439453125,0.842010498046875
240901,0.750335693359375,-0.1843719482421875,0.802520751953125
240902,0.7776641845703125,-0.134185791015625,0.7458953857421875
240903,0.7975006103515625,-0.1027374267578125,0.692413330078125
240904,0.818206787109375,-0.0829620361328125,0.6477508544921875
240905,0.843048095703125,-0.0684661865234375,0.6063079833984375
240906,0.8594512939453125,-0.0673065185546875,0.5724639892578125
240907,0.8597259521484375,-0.0956878662109375,0.5840911865234375
240908,0.844696044921875,-0.16302490234375,0.6555633544921875
240909,0.809783935546875,-0.26251220703125,0.7592010498046875
240910,0.7635498046875,-0.366607666015625,0.8696746826171875
240911,0.730010986328125,-0.4331512451171875,0.9718780517578124
240912,0.6985015869140625,-0.469970703125,1.057174682617188
240913,0.655181884765625,-0.4945068359375,1.120620727539062
240914,0.60003662109375,-0.5142822265625,1.161270141601562
240915,0.5449676513671875,-0.5273284912109375,1.169174194335938
240916,0.491790771484375,-0.5224761962890625,1.14715576171875
240917,0.429290771484375,-0.5132293701171875,1.097885131835938
240918,0.3592681884765625,-0.5030517578125,1.031997680664062
240919,0.2825469970703125,-0.50732421875,0.9620513916015624
240920,0.205963134765625,-0.54168701171875,0.8996124267578125
240921,0.1406402587890625,-0.5891265869140625,0.8409271240234375
240922,0.0804595947265625,-0.62628173828125,0.77764892578125
240923,0.0228424072265625,-0.646759033203125,0.714385986328125
240924,-0.0042877197265625,-0.6578826904296875,0.6583251953125
240925,0.010223388671875,-0.6650848388671875,0.620941162109375
240926,0.0728607177734375,-0.6628875732421875,0.6109161376953125
240927,0.180084228515625,-0.647796630859375,0.6125946044921875
240928,0.2840728759765625,-0.6384429931640625,0.627227783203125
240929,0.3733978271484375,-0.62921142578125,0.66192626953125
240930,0.4427490234375,-0.6212615966796875,0.716094970703125
240931,0.4881744384765625,-0.6058807373046875,0.7990264892578125
240932,0.49298095703125,-0.6100311279296875,0.88916015625
240933,0.4574127197265625,-0.6115264892578125,0.9918975830078124
240934,0.38079833984375,-0.585968017578125,1.091995239257812
240935,0.2742156982421875,-0.569580078125,1.123077392578125
240936,0.1536102294921875,-0.5674896240234375,1.105758666992188
240937,0.0523681640625,-0.5847015380859375,1.019271850585938
240938,-0.019439697265625,-0.6005401611328125,0.875030517578125
240939,-0.0673828125,-0.581695556640625,0.7509613037109375
240940,-0.105194091796875,-0.553131103515625,0.6293792724609375
240941,-0.1318359375,-0.51690673828125,0.5399627685546875
240942,-0.15020751953125,-0.4977569580078125,0.476104736328125
240943,-0.164764404296875,-0.49627685546875,0.42071533203125
240944,-0.1512908935546875,-0.5099639892578125,0.406280517578125
240945,-0.1099853515625,-0.5377655029296875,0.449676513671875
240946,-0.0967254638671875,-0.5570068359375,0.53265380859375
240947,-0.1004791259765625,-0.592742919921875,0.662872314453125
240948,-0.0941314697265625,-0.6096954345703125,0.8119354248046875
240949,-0.070281982421875,-0.598114013671875,0.9301605224609376
240950,-0.00994873046875,-0.56744384765625,0.9881439208984376
240951,0.10888671875,-0.5384979248046875,0.991668701171875
240952,0.2850494384765625,-0.5302734375,0.981414794921875
240953,0.4773712158203125,-0.5336151123046875,0.9938507080078124
240954,0.6361236572265625,-0.5399627685546875,1.007598876953125
240955,0.7430419921875,-0.5342254638671875,0.996795654296875
240956,0.7904510498046875,-0.492584228515625,0.972137451171875
240957,0.796112060546875,-0.430511474609375,0.9558563232421876
240958,0.767852783203125,-0.36541748046875,0.92864990234375
240959,0.73260498046875,-0.30914306640625,0.8866729736328125
240960,0.7435150146484375,-0.26434326171875,0.8248138427734375
240961,0.7747039794921875,-0.2137603759765625,0.7642364501953125
240962,0.80194091796875,-0.1821136474609375,0.7234954833984375
240963,0.81878662109375,-0.1786956787109375,0.7028350830078125
240964,0.8239898681640625,-0.1872711181640625,0.6984100341796875
240965,0.835662841796875,-0.1952972412109375,0.71575927734375
240966,0.852203369140625,-0.1878204345703125,0.74151611328125
240967,0.86468505859375,-0.1796875,0.74700927734375
240968,0.8496551513671875,-0.18695068359375,0.7186431884765625
240969,0.8079376220703125,-0.2255706787109375,0.680206298828125
240970,0.7493896484375,-0.2625732421875,0.6540374755859375
240971,0.7011566162109375,-0.2926788330078125,0.6525421142578125
240972,0.6728057861328125,-0.3408355712890625,0.672821044921875
240973,0.6487884521484375,-0.4092254638671875,0.7254791259765625
240974,0.6236572265625,-0.5032958984375,0.813995361328125
240975,0.5982666015625,-0.6287689208984375,0.9071807861328124
240976,0.5570068359375,-0.7605133056640625,0.9976043701171876
240977,0.4869232177734375,-0.857421875,1.0792236328125
240978,0.4073638916015625,-0.8996124267578125,1.13409423828125
240979,0.33154296875,-0.860321044921875,1.169677734375
240980,0.2365875244140625,-0.7209625244140625,1.152511596679688
240981,0.1569671630859375,-0.53369140625,1.063308715820312
240982,0.1304931640625,-0.41229248046875,0.956207275390625
240983,0.111968994140625,-0.371734619140625,0.85357666015625
240984,0.0850372314453125,-0.37115478515625,0.7676849365234375
240985,0.0698699951171875,-0.38580322265625,0.7193756103515625
240986,0.072174072265625,-0.407684326171875,0.7077178955078125
240987,0.0706024169921875,-0.4313507080078125,0.72662353515625
240988,0.065460205078125,-0.4652252197265625,0.7650909423828125
240989,0.058929443359375,-0.494140625,0.81890869140625
240990,0.0371551513671875,-0.5069427490234375,0.846038818359375
240991,0.01043701171875,-0.501007080078125,0.838470458984375
240992,-0.0145111083984375,-0.4874725341796875,0.8046417236328125
240993,-0.0347442626953125,-0.4705352783203125,0.772003173828125
240994,-0.044891357421875,-0.4603424072265625,0.7365264892578125
240995,-0.0370025634765625,-0.46380615234375,0.7017822265625
240996,-0.0321044921875,-0.487152099609375,0.6686248779296875
240997,-0.02264404296875,-0.5103912353515625,0.6649169921875
240998,0.0035552978515625,-0.5291900634765625,0.68756103515625
240999,0.0395355224609375,-0.576263427734375,0.7003936767578125
241000,0.056884765625,-0.640289306640625,0.7109832763671875
241001,0.0449066162109375,-0.70928955078125,0.763885498046875
241002,0.003936767578125,-0.7842254638671875,0.85833740234375
241003,-0.0638275146484375,-0.8603973388671875,0.9835205078125
241004,-0.1497650146484375,-0.930633544921875,1.0989990234375
241005,-0.243255615234375,-0.96270751953125,1.132369995117188
241006,-0.3626556396484375,-0.917999267578125,1.100982666015625
241007,-0.453216552734375,-0.8678436279296875,1.033172607421875
241008,-0.4327545166015625,-0.8296661376953125,0.9490509033203124
241009,-0.3894195556640625,-0.8072357177734375,0.877471923828125
241010,-0.3738250732421875,-0.7022857666015625,0.8555755615234375
241011,-0.3674774169921875,-0.4597930908203125,0.8183441162109375
241012,-0.3028717041015625,-0.3707427978515625,0.7274932861328125
241013,-0.1932830810546875,-0.386505126953125,0.655364990234375
241014,-0.0819854736328125,-0.341827392578125,0.6004791259765625
241015,0.028289794921875,-0.291229248046875,0.5859375
241016,0.1548309326171875,-0.264190673828125,0.6186370849609375
241017,0.2801971435546875,-0.2347869873046875,0.655181884765625
241018,0.41162109375,-0.2216339111328125,0.696685791015625
241019,0.5607757568359375,-0.2030029296875,0.7476959228515625
241020,0.7072601318359375,-0.182952880859375,0.78857421875
241021,0.831634521484375,-0.1651763916015625,0.8247833251953125
241022,0.9243621826171876,-0.1458282470703125,0.8610992431640625
241023,0.99603271484375,-0.125732421875,0.8677978515625
241024,1.035781860351562,-0.09539794921875,0.8404388427734375
241025,1.047225952148438,-0.061431884765625,0.793853759765625
241026,1.073684692382812,-0.0462493896484375,0.753509521484375
241027,1.108474731445312,-0.0500335693359375,0.7293243408203125
241028,1.1046142578125,-0.082427978515625,0.72308349609375
241029,1.036651611328125,-0.1473388671875,0.7422332763671875
241030,0.9228973388671876,-0.1883697509765625,0.78448486328125
241031,0.7984466552734375,-0.194488525390625,0.832427978515625
241032,0.69287109375,-0.1964874267578125,0.8746795654296875
241033,0.6027679443359375,-0.2032928466796875,0.9169464111328124
241034,0.503326416015625,-0.209503173828125,0.9512939453125
241035,0.4055023193359375,-0.2251739501953125,0.973602294921875
241036,0.3270416259765625,-0.2568817138671875,0.9955291748046876
241037,0.2674713134765625,-0.3091278076171875,1.026260375976562
241038,0.2389373779296875,-0.3968658447265625,1.042633056640625
241039,0.210662841796875,-0.4796295166015625,1.013153076171875
241040,0.177154541015625,-0.5454559326171875,0.9805145263671876
241041,0.145751953125,-0.62274169921875,0.964630126953125
241042,0.1201934814453125,-0.710174560546875,0.9379730224609376
241043,0.1221923828125,-0.7866668701171875,0.9041748046875
241044,0.14520263671875,-0.82135009765625,0.8709564208984375
241045,0.180633544921875,-0.8147735595703125,0.8498687744140625
241046,0.239654541015625,-0.79058837890625,0.8394317626953125
241047,0.2956695556640625,-0.782684326171875,0.839141845703125
241048,0.3293609619140625,-0.7960968017578125,0.8538970947265625
241049,0.33111572265625,-0.82281494140625,0.870849609375
241050,0.3013916015625,-0.850189208984375,0.8909149169921875
241051,0.2377166748046875,-0.857818603515625,0.9244384765625
241052,0.1418914794921875,-0.8359527587890625,0.9751739501953124
241053,0.0547637939453125,-0.7794342041015625,1.00970458984375
241054,-0.0164642333984375,-0.714935302734375,0.9874420166015624
241055,-0.087249755859375,-0.6542510986328125,0.90167236328125
241056,-0.1240692138671875,-0.6012420654296875,0.7812042236328125
241057,-0.113555908203125,-0.572174072265625,0.648834228515625
241058,-0.0812530517578125,-0.568359375,0.5333709716796875
241059,-0.0770416259765625,-0.5688934326171875,0.46185302734375
241060,-0.105743408203125,-0.572906494140625,0.4407501220703125
241061,-0.1510467529296875,-0.579193115234375,0.4630279541015625
241062,-0.1905975341796875,-0.582061767578125,0.5029449462890625
241063,-0.21441650390625,-0.5877685546875,0.5328521728515625
241064,-0.2245330810546875,-0.61273193359375,0.5463714599609375
241065,-0.2239227294921875,-0.64019775390625,0.54840087890625
241066,-0.203277587890625,-0.651519775390625,0.5570220947265625
241067,-0.161773681640625,-0.6495819091796875,0.571868896484375
241068,-0.0998382568359375,-0.642822265625,0.5865631103515625
241069,-0.01068115234375,-0.6383819580078125,0.616485595703125
241070,0.0978546142578125,-0.64642333984375,0.651702880859375
241071,0.215728759765625,-0.658599853515625,0.6869659423828125
241072,0.3280181884765625,-0.6613006591796875,0.7223968505859375
241073,0.4163360595703125,-0.6468505859375,0.760101318359375
241074,0.4827117919921875,-0.614227294921875,0.819610595703125
241075,0.5547943115234375,-0.5487823486328125,0.9029693603515624
241076,0.63104248046875,-0.445404052734375,0.982086181640625
241077,0.7276153564453125,-0.3377838134765625,1.028030395507812
241078,0.8398590087890625,-0.238006591796875,1.030105590820312
241079,0.967437744140625,-0.174652099609375,0.99664306640625
241080,1.07708740234375,-0.15911865234375,0.916900634765625
241081,1.11883544921875,-0.1654510498046875,0.8427581787109375
241082,1.138748168945312,-0.1730804443359375,0.8105621337890625
241083,1.17242431640625,-0.1975250244140625,0.8102874755859375
241084,1.193557739257812,-0.2347869873046875,0.8224334716796875
241085,1.172393798828125,-0.2632904052734375,0.8289031982421875
241086,1.11871337890625,-0.2764129638671875,0.824676513671875
241087,1.06109619140625,-0.2861175537109375,0.79541015625
241088,1.01202392578125,-0.302978515625,0.74676513671875
241089,0.9755096435546876,-0.319000244140625,0.708282470703125
241090,0.9364776611328124,-0.3277740478515625,0.7026519775390625
241091,0.8766632080078125,-0.333740234375,0.70989990234375
241092,0.8176422119140625,-0.35272216796875,0.7277374267578125
241093,0.763397216796875,-0.3707427978515625,0.7643890380859375
241094,0.702667236328125,-0.372161865234375,0.8156585693359375
241095,0.63946533203125,-0.35174560546875,0.8856353759765625
241096,0.5778656005859375,-0.3195037841796875,0.971954345703125
241097,0.5089263916015625,-0.3027191162109375,1.047744750976562
241098,0.42803955078125,-0.301239013671875,1.088134765625
241099,0.343719482421875,-0.2986602783203125,1.0814208984375
241100,0.2811431884765625,-0.3173980712890625,1.057464599609375
241101,0.2594757080078125,-0.3363189697265625,1.024185180664062
241102,0.254364013671875,-0.3366546630859375,0.982421875
241103,0.2308349609375,-0.3357696533203125,0.94281005859375
241104,0.1986846923828125,-0.320343017578125,0.8875274658203125
241105,0.203338623046875,-0.3160858154296875,0.83636474609375
241106,0.2238922119140625,-0.308807373046875,0.8054962158203125
241107,0.2470550537109375,-0.29205322265625,0.7881011962890625
241108,0.240386962890625,-0.2941131591796875,0.7794342041015625
241109,0.2221221923828125,-0.312408447265625,0.787353515625
241110,0.2074432373046875,-0.363433837890625,0.8094024658203125
241111,0.197509765625,-0.441497802734375,0.834381103515625
241112,0.20550537109375,-0.5083770751953125,0.851318359375
241113,0.2240753173828125,-0.5584564208984375,0.860076904296875
241114,0.23577880859375,-0.6209869384765625,0.82763671875
241115,0.2349853515625,-0.714111328125,0.7793426513671875
241116,0.1813812255859375,-0.8091583251953125,0.71697998046875
241117,0.058258056640625,-0.868560791015625,0.6999359130859375
241118,-0.12213134765625,-0.831390380859375,0.7937469482421875
241119,-0.2915496826171875,-0.8156890869140625,0.869476318359375
241120,-0.429656982421875,-0.8336639404296875,0.874603271484375
241121,-0.57232666015625,-0.8326263427734375,0.8408355712890625
241122,-0.70843505859375,-0.8582305908203125,0.79888916015625
241123,-0.838043212890625,-0.866058349609375,0.76800537109375
241124,-0.84210205078125,-0.8148040771484375,0.7415313720703125
241125,-0.781280517578125,-0.7282562255859375,0.6649627685546875
241126,-0.735015869140625,-0.6532440185546875,0.522064208984375
241127,-0.6602630615234375,-0.613525390625,0.3895721435546875
241128,-0.565765380859375,-0.615570068359375,0.3228912353515625
241129,-0.4549713134765625,-0.6112518310546875,0.3571929931640625
241130,-0.3372039794921875,-0.57781982421875,0.47698974609375
241131,-0.2100067138671875,-0.5316009521484375,0.6348724365234375
241132,-0.1013641357421875,-0.5172119140625,0.79107666015625
241133,0.007293701171875,-0.496826171875,0.948333740234375
241134,0.186798095703125,-0.4146728515625,1.094085693359375
241135,0.4188079833984375,-0.3137664794921875,1.171737670898438
241136,0.635223388671875,-0.17828369140625,1.250579833984375
241137,0.81243896484375,-0.0814666748046875,1.258773803710938
241138,0.839324951171875,0.0062713623046875,1.169296264648438
241139,0.7412872314453125,0.0065155029296875,1.072021484375
241140,0.601654052734375,-0.08099365234375,0.9287567138671876
241141,0.525360107421875,-0.16510009765625,0.824859619140625
241142,0.46136474609375,-0.2021484375,0.728546142578125
241143,0.373687744140625,-0.253082275390625,0.6401214599609375
241144,0.2804412841796875,-0.3010406494140625,0.595367431640625
241145,0.1776580810546875,-0.3295135498046875,0.5982666015625
241146,0.0678863525390625,-0.3617401123046875,0.6240997314453125
241147,-0.0552825927734375,-0.400360107421875,0.645721435546875
241148,-0.1778564453125,-0.4381256103515625,0.653350830078125
241149,-0.2813873291015625,-0.4809112548828125,0.6638641357421875
241150,-0.3645477294921875,-0.53277587890625,0.7022705078125
241151,-0.41790771484375,-0.58477783203125,0.775115966796875
241152,-0.4089813232421875,-0.6158599853515625,0.8784637451171875
241153,-0.3625335693359375,-0.6078033447265625,0.981170654296875
241154,-0.2601470947265625,-0.6261749267578125,1.054092407226562
241155,-0.129730224609375,-0.6897735595703125,1.091720581054688
241156,0.044647216796875,-0.7891693115234375,1.099166870117188
241157,0.2388763427734375,-0.8733978271484375,1.083786010742188
241158,0.4193878173828125,-0.9074859619140624,1.046066284179688
241159,0.533782958984375,-0.8672637939453125,1.011611938476562
241160,0.569793701171875,-0.7949066162109375,0.9933929443359376
241161,0.5484771728515625,-0.7050018310546875,0.9786834716796876
241162,0.4920654296875,-0.6170196533203125,0.956817626953125
241163,0.41253662109375,-0.5574951171875,0.9156951904296876
241164,0.33636474609375,-0.5252227783203125,0.877349853515625
241165,0.3114471435546875,-0.5142822265625,0.8643951416015625
241166,0.3393096923828125,-0.522613525390625,0.855804443359375
241167,0.3916473388671875,-0.541259765625,0.860321044921875
241168,0.4212493896484375,-0.5808563232421875,0.8791046142578125
241169,0.3967132568359375,-0.6331787109375,0.901214599609375
241170,0.330474853515625,-0.682861328125,0.907012939453125
241171,0.2368316650390625,-0.718719482421875,0.9214019775390624
241172,0.1201171875,-0.7464141845703125,0.9501495361328124
241173,-0.038330078125,-0.740325927734375,0.954315185546875
241174,-0.2356109619140625,-0.6985015869140625,0.9098968505859376
241175,-0.429229736328125,-0.61578369140625,0.85247802734375
241176,-0.5545654296875,-0.51007080078125,0.7964019775390625
241177,-0.599212646484375,-0.443817138671875,0.729034423828125
241178,-0.5722503662109375,-0.4660186767578125,0.595916748046875
241179,-0.5179443359375,-0.5000152587890625,0.4559783935546875
241180,-0.4575042724609375,-0.5226593017578125,0.3393402099609375
241181,-0.3774261474609375,-0.5341033935546875,0.2888946533203125
241182,-0.28875732421875,-0.5083465576171875,0.31622314453125
241183,-0.209197998046875,-0.4968414306640625,0.384124755859375
241184,-0.1608428955078125,-0.521820068359375,0.4972991943359375
241185,-0.151092529296875,-0.554229736328125,0.6100921630859375
241186,-0.1702728271484375,-0.5671234130859375,0.69561767578125
241187,-0.1961212158203125,-0.569366455078125,0.762969970703125
241188,-0.2022857666015625,-0.581390380859375,0.797576904296875
241189,-0.1815338134765625,-0.6122894287109375,0.7921295166015625
241190,-0.1485595703125,-0.6671600341796875,0.7694549560546875
241191,-0.1181640625,-0.7333831787109375,0.7456512451171875
241192,-0.0815277099609375,-0.7833099365234375,0.7046051025390625
241193,-0.0239410400390625,-0.79730224609375,0.6639556884765625
241194,0.0589599609375,-0.782928466796875,0.63641357421875
241195,0.161865234375,-0.7619476318359375,0.6331024169921875
241196,0.3029022216796875,-0.76019287109375,0.6659088134765625
241197,0.423004150390625,-0.6932373046875,0.732025146484375
241198,0.542510986328125,-0.6003570556640625,0.8182830810546875
241199,0.663543701171875,-0.542388916015625,0.9065704345703124
241200,0.788360595703125,-0.5301971435546875,0.946197509765625
241201,0.890777587890625,-0.4865264892578125,0.9525146484375
241202,0.9702606201171876,-0.41229248046875,0.9534149169921876
241203,1.019027709960938,-0.3119049072265625,0.951416015625
241204,1.0406494140625,-0.207275390625,0.9547576904296876
241205,1.050201416015625,-0.1404571533203125,0.963348388671875
241206,1.040847778320312,-0.1576690673828125,0.9528656005859376
241207,1.007247924804688,-0.263275146484375,0.9248809814453124
241208,0.9775848388671876,-0.3846435546875,0.8962249755859375
241209,0.9623260498046876,-0.4827117919921875,0.861236572265625
241210,0.935455322265625,-0.5666046142578125,0.8387298583984375
241211,0.8907623291015625,-0.639923095703125,0.8414764404296875
241212,0.8412628173828125,-0.702972412109375,0.8870391845703125
241213,0.80078125,-0.75482177734375,0.9768524169921876
241214,0.7678985595703125,-0.78521728515625,1.0787353515625
241215,0.7380523681640625,-0.78643798828125,1.187850952148438
241216,0.7009429931640625,-0.7648773193359375,1.273788452148438
241217,0.65692138671875,-0.71649169921875,1.295394897460938
241218,0.616943359375,-0.6357421875,1.251556396484375
241219,0.5808258056640625,-0.5577392578125,1.154098510742188
241220,0.5360870361328125,-0.504730224609375,1.045883178710938
241221,0.4898223876953125,-0.47308349609375,0.95880126953125
241222,0.4340362548828125,-0.4443359375,0.8798370361328125
241223,0.359954833984375,-0.398406982421875,0.793548583984375
241224,0.2695159912109375,-0.3695526123046875,0.7246246337890625
241225,0.1779937744140625,-0.36456298828125,0.662384033203125
241226,0.106658935546875,-0.3825225830078125,0.5959320068359375
241227,0.051666259765625,-0.391998291015625,0.5448150634765625
241228,0.00872802734375,-0.40167236328125,0.504364013671875
241229,-0.03900146484375,-0.4204864501953125,0.4703521728515625
241230,-0.0810699462890625,-0.455322265625,0.4554443359375
241231,-0.106414794921875,-0.503997802734375,0.4307861328125
241232,-0.124603271484375,-0.559722900390625,0.3980865478515625
241233,-0.128936767578125,-0.6024322509765625,0.3765716552734375
241234,-0.109375,-0.641448974609375,0.3779449462890625
241235,-0.0842437744140625,-0.7064056396484375,0.4063873291015625
241236,-0.0586700439453125,-0.8084564208984375,0.4545745849609375
241237,-0.03118896484375,-0.9293670654296876,0.494873046875
241238,0.0153961181640625,-1.056640625,0.4882659912109375
241239,0.063385009765625,-1.177352905273438,0.470458984375
241240,0.0457000732421875,-1.254409790039062,0.5333251953125
241241,-0.163543701171875,-1.158279418945312,0.64874267578125
241242,-0.51507568359375,-0.9814910888671876,0.71197509765625
241243,-0.8880767822265625,-0.9590911865234376,0.807861328125
241244,-1.167495727539062,-1.107345581054688,0.969024658203125
241245,-1.219879150390625,-1.267669677734375,1.033645629882812
241246,-1.113616943359375,-1.134841918945312,0.8661346435546875
241247,-0.974639892578125,-1.063217163085938,0.68658447265625
241248,-0.8429412841796875,-0.9738922119140624,0.5701751708984375
241249,-0.6829986572265625,-0.790283203125,0.4492950439453125
241250,-0.53131103515625,-0.65887451171875,0.417266845703125
241251,-0.377899169921875,-0.5368194580078125,0.4459228515625
241252,-0.2176055908203125,-0.4442596435546875,0.485382080078125
241253,-0.08184814453125,-0.336273193359375,0.537109375
241254,0.057647705078125,-0.2336578369140625,0.66455078125
241255,0.223419189453125,-0.1443939208984375,0.8192138671875
241256,0.4018707275390625,-0.0839080810546875,0.9504852294921876
241257,0.6102294921875,-0.0795440673828125,1.072906494140625
241258,0.8540802001953125,-0.125640869140625,1.145660400390625
241259,1.050994873046875,-0.1526336669921875,1.217056274414062
241260,1.14422607421875,-0.140533447265625,1.19989013671875
241261,1.190414428710938,-0.11822509765625,1.07562255859375
241262,1.255279541015625,-0.1139678955078125,0.896636962890625
241263,1.317474365234375,-0.101409912109375,0.717132568359375
241264,1.315887451171875,-0.0797576904296875,0.4704742431640625
241265,1.255538940429688,-0.1001739501953125,0.343353271484375
241266,1.121719360351562,-0.1282958984375,0.413848876953125
241267,0.937957763671875,-0.1394500732421875,0.609771728515625
241268,0.7884368896484375,-0.15435791015625,0.82684326171875
241269,0.7458038330078125,-0.1642913818359375,0.9936981201171876
241270,0.7568511962890625,-0.186187744140625,1.082534790039062
241271,0.7241973876953125,-0.252777099609375,1.14996337890625
241272,0.6580352783203125,-0.3314208984375,1.18731689453125
241273,0.591583251953125,-0.4055938720703125,1.175048828125
241274,0.544219970703125,-0.45745849609375,1.081817626953125
241275,0.518524169921875,-0.4892730712890625,0.9498291015625
241276,0.5085906982421875,-0.5079193115234375,0.8563385009765625
241277,0.4907379150390625,-0.53826904296875,0.8178863525390625
241278,0.4511871337890625,-0.5887298583984375,0.8189697265625
241279,0.38653564453125,-0.662384033203125,0.8264617919921875
241280,0.290069580078125,-0.7411651611328125,0.8374481201171875
241281,0.1703948974609375,-0.835357666015625,0.847991943359375
241282,0.05926513671875,-0.9401702880859376,0.85369873046875
241283,-0.0256195068359375,-1.013595581054688,0.8600921630859375
241284,-0.0720062255859375,-1.004623413085938,0.87188720703125
241285,-0.052703857421875,-0.9074859619140624,0.89654541015625
241286,0.0260009765625,-0.7724609375,0.86981201171875
241287,0.1088409423828125,-0.676910400390625,0.8072967529296875
241288,0.1644287109375,-0.6367950439453125,0.7618865966796875
241289,0.18798828125,-0.63348388671875,0.757965087890625
241290,0.185333251953125,-0.637725830078125,0.787384033203125
241291,0.1438446044921875,-0.6282501220703125,0.828887939453125
241292,0.0393829345703125,-0.5994873046875,0.891326904296875
241293,-0.0953521728515625,-0.5587310791015625,0.945068359375
241294,-0.1649017333984375,-0.53497314453125,0.9607696533203124
241295,-0.1839447021484375,-0.5162811279296875,0.9105987548828124
241296,-0.1846160888671875,-0.507659912109375,0.814666748046875
241297,-0.174224853515625,-0.520660400390625,0.6894989013671875
241298,-0.1551666259765625,-0.52752685546875,0.577239990234375
241299,-0.1132049560546875,-0.5030059814453125,0.507781982421875
241300,-0.0699615478515625,-0.4669342041015625,0.4947662353515625
241301,-0.0248870849609375,-0.4647216796875,0.5336456298828125
241302,0.0262298583984375,-0.484710693359375,0.592041015625
241303,0.072418212890625,-0.5170135498046875,0.6516571044921875
241304,0.1125335693359375,-0.5483551025390625,0.7098388671875
241305,0.144287109375,-0.564483642578125,0.761688232421875
241306,0.1682891845703125,-0.5570220947265625,0.7951507568359375
241307,0.2229156494140625,-0.529937744140625,0.8132171630859375
241308,0.3068389892578125,-0.5034027099609375,0.8217010498046875
241309,0.39166259765625,-0.4689178466796875,0.82257080078125
241310,0.4652099609375,-0.44085693359375,0.8221588134765625
241311,0.5253753662109375,-0.435211181640625,0.81781005859375
241312,0.579742431640625,-0.437957763671875,0.8117828369140625
241313,0.6354217529296875,-0.4430389404296875,0.812835693359375
241314,0.682464599609375,-0.4356231689453125,0.825469970703125
241315,0.72259521484375,-0.4279327392578125,0.8536529541015625
241316,0.76361083984375,-0.4089202880859375,0.8988800048828125
241317,0.820709228515625,-0.380157470703125,0.9425811767578124
241318,0.8884429931640625,-0.35614013671875,0.9507293701171876
241319,0.94866943359375,-0.34503173828125,0.9373016357421876
241320,0.974029541015625,-0.3251800537109375,0.9141082763671876
241321,0.961273193359375,-0.2990570068359375,0.9062042236328124
241322,0.9342498779296876,-0.2884521484375,0.913299560546875
241323,0.889404296875,-0.2845916748046875,0.918609619140625
241324,0.8223419189453125,-0.2873077392578125,0.8972320556640625
241325,0.7554779052734375,-0.314117431640625,0.862945556640625
241326,0.68365478515625,-0.3567657470703125,0.8293609619140625
241327,0.611907958984375,-0.40228271484375,0.79693603515625
241328,0.556915283203125,-0.4478302001953125,0.7674560546875
241329,0.5133819580078125,-0.495513916015625,0.7508697509765625
241330,0.4741058349609375,-0.531524658203125,0.7491302490234375
241331,0.435943603515625,-0.5471343994140625,0.7625732421875
241332,0.421478271484375,-0.555023193359375,0.8005828857421875
241333,0.425994873046875,-0.5465545654296875,0.8687896728515625
241334,0.4371490478515625,-0.5178375244140625,0.9515838623046876
241335,0.441314697265625,-0.4825897216796875,1.02313232421875
241336,0.417633056640625,-0.463592529296875,1.077911376953125
241337,0.408050537109375,-0.432159423828125,1.103302001953125
241338,0.395233154296875,-0.3966522216796875,1.096466064453125
241339,0.37554931640625,-0.3995361328125,1.078445434570312
241340,0.3506622314453125,-0.4250946044921875,1.051589965820312
241341,0.3194122314453125,-0.4305572509765625,1.002044677734375
241342,0.2778472900390625,-0.4083099365234375,0.94122314453125
241343,0.2291717529296875,-0.3758697509765625,0.8798065185546875
241344,0.1862945556640625,-0.345062255859375,0.8188629150390625
241345,0.1379547119140625,-0.32598876953125,0.7494964599609375
241346,0.088958740234375,-0.320648193359375,0.7030181884765625
241347,0.0516815185546875,-0.341339111328125,0.668426513671875
241348,0.0256500244140625,-0.383880615234375,0.641204833984375
241349,0.015289306640625,-0.4437255859375,0.629058837890625
241350,0.0017852783203125,-0.5289154052734375,0.61419677734375
241351,-0.0093994140625,-0.6215057373046875,0.6153564453125
241352,-0.0315704345703125,-0.713287353515625,0.6310272216796875
241353,-0.0695648193359375,-0.8109893798828125,0.6508941650390625
241354,-0.1125335693359375,-0.908721923828125,0.6408843994140625
241355,-0.1415557861328125,-0.999237060546875,0.61053466796875
241356,-0.1754913330078125,-1.084716796875,0.5843963623046875
241357,-0.2094879150390625,-1.168106079101562,0.587677001953125
241358,-0.24755859375,-1.217483520507812,0.600799560546875
241359,-0.316436767578125,-1.186386108398438,0.638031005859375
241360,-0.4062957763671875,-1.104598999023438,0.672882080078125
241361,-0.4695892333984375,-1.0050048828125,0.71502685546875
241362,-0.485626220703125,-0.8689422607421875,0.7603759765625
241363,-0.4770050048828125,-0.775146484375,0.7452392578125
241364,-0.4452972412109375,-0.7802581787109375,0.6706390380859375
241365,-0.388885498046875,-0.802093505859375,0.619384765625
241366,-0.320068359375,-0.7675018310546875,0.6249237060546875
241367,-0.26641845703125,-0.7076568603515625,0.645782470703125
241368,-0.214385986328125,-0.6385345458984375,0.6846466064453125
241369,-0.1516265869140625,-0.563995361328125,0.7249908447265625
241370,-0.0786285400390625,-0.4958343505859375,0.7895965576171875
241371,0.01312255859375,-0.444976806640625,0.847625732421875
241372,0.1308441162109375,-0.409576416015625,0.9166259765625
241373,0.2495880126953125,-0.3587646484375,0.9404144287109376
241374,0.36175537109375,-0.3388519287109375,0.9366302490234376
241375,0.4811859130859375,-0.31719970703125,0.9042816162109376
241376,0.6085205078125,-0.2935791015625,0.8944854736328125
241377,0.7111663818359375,-0.2498779296875,0.869140625
241378,0.7606353759765625,-0.1974639892578125,0.804229736328125
241379,0.7819976806640625,-0.160552978515625,0.72503662109375
241380,0.8143157958984375,-0.1590118408203125,0.6471710205078125
241381,0.8496551513671875,-0.1498260498046875,0.5916595458984375
241382,0.9062347412109376,-0.1426239013671875,0.5802459716796875
241383,0.9646759033203124,-0.140533447265625,0.5953521728515625
241384,0.989471435546875,-0.171966552734375,0.6300506591796875
241385,0.9402008056640624,-0.218109130859375,0.709686279296875
241386,0.8404083251953125,-0.2605743408203125,0.838958740234375
241387,0.7475738525390625,-0.29541015625,0.984344482421875
241388,0.6766204833984375,-0.319244384765625,1.106475830078125
241389,0.6078338623046875,-0.3342132568359375,1.19976806640625
241390,0.5421295166015625,-0.36029052734375,1.258743286132812
241391,0.468475341796875,-0.403045654296875,1.27093505859375
241392,0.3707275390625,-0.4407958984375,1.229522705078125
241393,0.258575439453125,-0.453094482421875,1.167587280273438
241394,0.1600494384765625,-0.45556640625,1.101364135742188
241395,0.091278076171875,-0.473480224609375,1.053497314453125
241396,0.017333984375,-0.4942474365234375,1.012359619140625
241397,-0.0605316162109375,-0.522918701171875,0.96051025390625
241398,-0.120147705078125,-0.581878662109375,0.9134979248046876
241399,-0.16058349609375,-0.649688720703125,0.84149169921875
241400,-0.17486572265625,-0.7006988525390625,0.761627197265625
241401,-0.1518402099609375,-0.7271881103515625,0.7172698974609375
241402,-0.0901641845703125,-0.72332763671875,0.6716156005859375
241403,-0.0010223388671875,-0.7001190185546875,0.6444549560546875
241404,0.1093292236328125,-0.66766357421875,0.65863037109375
241405,0.2335968017578125,-0.65069580078125,0.709381103515625
241406,0.3331756591796875,-0.6338958740234375,0.786041259765625
241407,0.3772735595703125,-0.615875244140625,0.8844757080078125
241408,0.3726654052734375,-0.6153564453125,0.98004150390625
241409,0.3130645751953125,-0.6240692138671875,1.03662109375
241410,0.193817138671875,-0.63916015625,1.053192138671875
241411,0.018280029296875,-0.654632568359375,1.047836303710938
241412,-0.1624298095703125,-0.661376953125,1.033767700195312
241413,-0.2917938232421875,-0.6560821533203125,0.99847412109375
241414,-0.3597412109375,-0.6375274658203125,0.9310150146484376
241415,-0.3829498291015625,-0.62493896484375,0.81085205078125
241416,-0.379730224609375,-0.633575439453125,0.656463623046875
241417,-0.3607025146484375,-0.6472015380859375,0.5110321044921875
241418,-0.3331146240234375,-0.647430419921875,0.39678955078125
241419,-0.3000946044921875,-0.6393585205078125,0.3242950439453125
241420,-0.258575439453125,-0.6116180419921875,0.30126953125
241421,-0.21270751953125,-0.5625457763671875,0.319305419921875
241422,-0.1752166748046875,-0.518707275390625,0.3639373779296875
241423,-0.1418304443359375,-0.49969482421875,0.433135986328125
241424,-0.1091766357421875,-0.5071868896484375,0.521087646484375
241425,-0.079620361328125,-0.5194854736328125,0.617095947265625
241426,-0.0554962158203125,-0.525634765625,0.714324951171875
241427,-0.0264129638671875,-0.527801513671875,0.8121490478515625
241428,0.023956298828125,-0.5252227783203125,0.901397705078125
241429,0.1041412353515625,-0.5157318115234375,0.9785614013671876
241430,0.2077789306640625,-0.503692626953125,1.041107177734375
241431,0.33233642578125,-0.510894775390625,1.085250854492188
241432,0.4679107666015625,-0.5398712158203125,1.1029052734375
241433,0.6025238037109375,-0.546142578125,1.081512451171875
241434,0.7149658203125,-0.5222625732421875,1.028213500976562
241435,0.80572509765625,-0.5191497802734375,0.950836181640625
241436,0.8699951171875,-0.5390167236328125,0.884002685546875
241437,0.903656005859375,-0.5351104736328125,0.8636627197265625
241438,0.9178619384765624,-0.4814910888671875,0.8799285888671875
241439,0.912109375,-0.4057159423828125,0.880126953125
241440,0.90948486328125,-0.33526611328125,0.846221923828125
241441,0.9317169189453124,-0.278961181640625,0.8079986572265625
241442,0.9643402099609376,-0.25152587890625,0.78448486328125
241443,0.990753173828125,-0.249359130859375,0.781036376953125
241444,0.9987945556640624,-0.2554473876953125,0.7869873046875
241445,0.9945068359375,-0.2667236328125,0.79754638671875
241446,0.9803466796875,-0.28546142578125,0.7963714599609375
241447,0.9487152099609376,-0.318634033203125,0.7682647705078125
241448,0.90594482421875,-0.3563690185546875,0.7192535400390625
241449,0.857513427734375,-0.3939208984375,0.666015625
241450,0.8010406494140625,-0.4263763427734375,0.6204833984375
241451,0.7338409423828125,-0.4525146484375,0.59600830078125
241452,0.6675262451171875,-0.4737091064453125,0.60205078125
241453,0.605987548828125,-0.4960479736328125,0.63824462890625
241454,0.5428314208984375,-0.5107421875,0.6985626220703125
241455,0.48681640625,-0.515777587890625,0.7801513671875
241456,0.43914794921875,-0.50830078125,0.862579345703125
241457,0.3984222412109375,-0.495361328125,0.9544219970703124
241458,0.35894775390625,-0.477691650390625,1.0511474609375
241459,0.312896728515625,-0.4569244384765625,1.155502319335938
241460,0.2630767822265625,-0.4409942626953125,1.26116943359375
241461,0.194610595703125,-0.43048095703125,1.315292358398438
241462,0.10015869140625,-0.4345550537109375,1.298782348632812
241463,-0.0063323974609375,-0.4396514892578125,1.220733642578125
241464,-0.08392333984375,-0.4392852783203125,1.112686157226562
241465,-0.1454620361328125,-0.43853759765625,0.9996337890625
241466,-0.196319580078125,-0.4253082275390625,0.8582305908203125
241467,-0.22271728515625,-0.405517578125,0.69775390625
241468,-0.224700927734375,-0.4188385009765625,0.5807037353515625
241469,-0.232666015625,-0.4528045654296875,0.516387939453125
241470,-0.253753662109375,-0.5084686279296875,0.49713134765625
241471,-0.2671966552734375,-0.56268310546875,0.5126190185546875
241472,-0.252044677734375,-0.60357666015625,0.5799713134765625
241473,-0.2115478515625,-0.6287841796875,0.6864776611328125
241474,-0.15625,-0.63201904296875,0.7820892333984375
241475,-0.0926666259765625,-0.6382293701171875,0.8384246826171875
241476,-0.0322113037109375,-0.672943115234375,0.8675384521484375
241477,0.012115478515625,-0.7369842529296875,0.876678466796875
241478,0.0113067626953125,-0.820648193359375,0.881072998046875
241479,-0.0390777587890625,-0.9043121337890624,0.8896942138671875
241480,-0.1097259521484375,-0.9609222412109376,0.8964080810546875
241481,-0.17584228515625,-0.94720458984375,0.8887176513671875
241482,-0.2226715087890625,-0.876007080078125,0.8615570068359375
241483,-0.2426300048828125,-0.777191162109375,0.814361572265625
241484,-0.249969482421875,-0.6700592041015625,0.75079345703125
241485,-0.2519989013671875,-0.6011810302734375,0.6845245361328125
241486,-0.258544921875,-0.6441192626953125,0.6250457763671875
241487,-0.2860107421875,-0.6936798095703125,0.6049041748046875
241488,-0.3331451416015625,-0.66064453125,0.67218017578125
241489,-0.3706817626953125,-0.630340576171875,0.70037841796875
241490,-0.4097900390625,-0.6124420166015625,0.6178436279296875
241491,-0.334259033203125,-0.61346435546875,0.45916748046875
241492,-0.17034912109375,-0.5772857666015625,0.3628387451171875
241493,-0.020355224609375,-0.5056304931640625,0.3932342529296875
241494,0.0921478271484375,-0.4048614501953125,0.4935760498046875
241495,0.2100067138671875,-0.30010986328125,0.5982513427734375
241496,0.31756591796875,-0.1934967041015625,0.703155517578125
241497,0.4229278564453125,-0.1534881591796875,0.7821502685546875
241498,0.5401763916015625,-0.1805877685546875,0.839447021484375
241499,0.656829833984375,-0.226470947265625,0.8834075927734375
241500,0.777008056640625,-0.24951171875,0.9070892333984376
241501,0.9178924560546876,-0.27880859375,0.909881591796875
241502,1.054946899414062,-0.2690582275390625,0.918701171875
241503,1.1246337890625,-0.2368927001953125,0.9171600341796876
241504,1.143814086914062,-0.196502685546875,0.88885498046875
241505,1.165863037109375,-0.16217041015625,0.8495025634765625
241506,1.208023071289062,-0.14111328125,0.8460540771484375
241507,1.233642578125,-0.1252288818359375,0.83087158203125
241508,1.209014892578125,-0.10626220703125,0.818267822265625
241509,1.132110595703125,-0.0928955078125,0.8155059814453125
241510,1.012054443359375,-0.0607452392578125,0.8009490966796875
241511,0.88690185546875,-0.0231475830078125,0.8020782470703125
241512,0.7755584716796875,0.006866455078125,0.794921875
241513,0.6745147705078125,0.023284912109375,0.775665283203125
241514,0.5992584228515625,0.0146942138671875,0.761474609375
241515,0.5370025634765625,-0.014190673828125,0.7644195556640625
241516,0.4788360595703125,-0.0671234130859375,0.7920379638671875
241517,0.4415435791015625,-0.144317626953125,0.8295440673828125
241518,0.4158172607421875,-0.2585601806640625,0.8670501708984375
241519,0.3864288330078125,-0.424560546875,0.90203857421875
241520,0.3516693115234375,-0.616485595703125,0.9441070556640624
241521,0.2927703857421875,-0.78692626953125,0.9782257080078124
241522,0.21990966796875,-0.9201202392578124,0.983123779296875
241523,0.1583251953125,-1.010543823242188,0.9637298583984376
241524,0.129119873046875,-1.064544677734375,0.94342041015625
241525,0.1333465576171875,-1.075164794921875,0.9136810302734376
241526,0.184234619140625,-1.059280395507812,0.8695068359375
241527,0.2641754150390625,-1.029067993164062,0.816497802734375
241528,0.313446044921875,-0.9725341796875,0.7847137451171875
241529,0.3177337646484375,-0.9035491943359376,0.791961669921875
241530,0.310760498046875,-0.859954833984375,0.81036376953125
241531,0.293548583984375,-0.8344879150390625,0.823486328125
241532,0.2335052490234375,-0.8397674560546875,0.856842041015625
241533,0.12872314453125,-0.8725738525390625,0.8808746337890625
241534,0.003082275390625,-0.89459228515625,0.8905029296875
241535,-0.1222991943359375,-0.877685546875,0.9038238525390624
241536,-0.2219390869140625,-0.8158111572265625,0.9074249267578124
241537,-0.2855224609375,-0.7324981689453125,0.89715576171875
241538,-0.3300018310546875,-0.681488037109375,0.8615875244140625
241539,-0.35546875,-0.6584930419921875,0.8018951416015625
241540,-0.3570098876953125,-0.643829345703125,0.7221221923828125
241541,-0.3350067138671875,-0.626434326171875,0.6422576904296875
241542,-0.2828369140625,-0.6012420654296875,0.5745697021484375
241543,-0.223785400390625,-0.5770721435546875,0.509490966796875
241544,-0.170989990234375,-0.5430908203125,0.463531494140625
241545,-0.12396240234375,-0.4993438720703125,0.4413299560546875
241546,-0.0741729736328125,-0.457305908203125,0.4279022216796875
241547,-0.0242767333984375,-0.411224365234375,0.430877685546875
241548,0.0099639892578125,-0.367218017578125,0.4417877197265625
241549,0.030029296875,-0.33447265625,0.4506378173828125
241550,0.040069580078125,-0.308624267578125,0.455596923828125
241551,0.03857421875,-0.289276123046875,0.473602294921875
241552,0.0440673828125,-0.2813262939453125,0.517059326171875
241553,0.0655517578125,-0.2770843505859375,0.57940673828125
241554,0.09893798828125,-0.283966064453125,0.6496124267578125
241555,0.144500732421875,-0.316253662109375,0.719390869140625
241556,0.2100677490234375,-0.3705291748046875,0.7860565185546875
241557,0.3048095703125,-0.439178466796875,0.833404541015625
241558,0.4167938232421875,-0.501861572265625,0.8562164306640625
241559,0.5172271728515625,-0.5412139892578125,0.8694000244140625
241560,0.6105499267578125,-0.561370849609375,0.8692169189453125
241561,0.7155914306640625,-0.559539794921875,0.8734893798828125
241562,0.8401336669921875,-0.54052734375,0.8643341064453125
241563,0.9569244384765624,-0.50128173828125,0.8311767578125
241564,1.0172119140625,-0.4361572265625,0.77716064453125
241565,1.01678466796875,-0.3572998046875,0.7469024658203125
241566,0.9843597412109376,-0.282501220703125,0.774444580078125
241567,0.943572998046875,-0.222381591796875,0.822479248046875
241568,0.91619873046875,-0.1827239990234375,0.8541717529296875
241569,0.905181884765625,-0.1811676025390625,0.8691253662109375
241570,0.879058837890625,-0.203826904296875,0.8808746337890625
241571,0.8466644287109375,-0.25067138671875,0.89886474609375
241572,0.82928466796875,-0.32012939453125,0.917633056640625
241573,0.8299560546875,-0.402801513671875,0.942962646484375
241574,0.8389434814453125,-0.4896087646484375,0.9701690673828124
241575,0.842437744140625,-0.580474853515625,1.0010986328125
241576,0.8083038330078125,-0.6602783203125,1.029251098632812
241577,0.725616455078125,-0.73016357421875,1.0673828125
241578,0.609710693359375,-0.7650604248046875,1.08270263671875
241579,0.4919891357421875,-0.767730712890625,1.112274169921875
241580,0.3767547607421875,-0.7259063720703125,1.14373779296875
241581,0.29461669921875,-0.669342041015625,1.170928955078125
241582,0.236602783203125,-0.6222991943359375,1.15350341796875
241583,0.1934661865234375,-0.60845947265625,1.084915161132812
241584,0.1575164794921875,-0.6177825927734375,1.006210327148438
241585,0.14129638671875,-0.5997161865234375,0.9559326171875
241586,0.1582183837890625,-0.5565032958984375,0.9268951416015624
241587,0.1922760009765625,-0.5119476318359375,0.8941802978515625
241588,0.228668212890625,-0.45660400390625,0.8395538330078125
241589,0.2652740478515625,-0.39910888671875,0.7827301025390625
241590,0.31011962890625,-0.3503875732421875,0.7322845458984375
241591,0.3516387939453125,-0.3009185791015625,0.6879119873046875
241592,0.3946685791015625,-0.2623138427734375,0.66644287109375
241593,0.4196014404296875,-0.25616455078125,0.65496826171875
241594,0.4099273681640625,-0.2966156005859375,0.65283203125
241595,0.349609375,-0.3839111328125,0.6602630615234375
241596,0.2967987060546875,-0.4670562744140625,0.691131591796875
241597,0.2618408203125,-0.520263671875,0.7180023193359375
241598,0.22967529296875,-0.560089111328125,0.74237060546875
241599,0.2126007080078125,-0.61541748046875,0.7456207275390625
241600,0.1894683837890625,-0.704620361328125,0.7139892578125
241601,0.1536407470703125,-0.830078125,0.651397705078125
241602,0.0800323486328125,-0.9649810791015624,0.6101226806640625
241603,-0.040863037109375,-1.080062866210938,0.6208343505859375
241604,-0.1949615478515625,-1.125518798828125,0.678436279296875
241605,-0.347198486328125,-1.099655151367188,0.7701568603515625
241606,-0.476837158203125,-1.040725708007812,0.8370361328125
241607,-0.5964202880859375,-0.9702911376953124,0.8549957275390625
241608,-0.679107666015625,-0.8571319580078125,0.815277099609375
241609,-0.7060089111328125,-0.7152862548828125,0.7053680419921875
241610,-0.692901611328125,-0.6661224365234375,0.55804443359375
241611,-0.6621856689453125,-0.7306365966796875,0.436004638671875
241612,-0.6389007568359375,-0.7752685546875,0.3694915771484375
241613,-0.6038818359375,-0.7777252197265625,0.3673248291015625
241614,-0.5423126220703125,-0.7672119140625,0.386962890625
241615,-0.458343505859375,-0.744598388671875,0.4080047607421875
241616,-0.3600006103515625,-0.6866302490234375,0.436676025390625
241617,-0.26751708984375,-0.6058349609375,0.4891357421875
241618,-0.177337646484375,-0.52325439453125,0.5727691650390625
241619,-0.08892822265625,-0.4426727294921875,0.6580810546875
241620,0.00341796875,-0.381591796875,0.725494384765625
241621,0.095123291015625,-0.3553619384765625,0.7714080810546875
241622,0.2209625244140625,-0.355377197265625,0.8016204833984375
241623,0.3755950927734375,-0.338592529296875,0.8002166748046875
241624,0.517364501953125,-0.3142242431640625,0.7688446044921875
241625,0.681854248046875,-0.28729248046875,0.77850341796875
241626,0.86700439453125,-0.246978759765625,0.8295745849609375
241627,1.00823974609375,-0.1800537109375,0.8894500732421875
241628,1.084075927734375,-0.1041717529296875,0.917755126953125
241629,1.11468505859375,-0.070037841796875,0.901763916015625
241630,1.111740112304688,-0.0619049072265625,0.864166259765625
241631,1.085784912109375,-0.0525360107421875,0.8241729736328125
241632,1.01153564453125,-0.0300445556640625,0.7517852783203125
241633,0.8898162841796875,-0.031494140625,0.7028350830078125
241634,0.7615966796875,-0.0829925537109375,0.6944732666015625
241635,0.6263885498046875,-0.1381378173828125,0.753570556640625
241636,0.49627685546875,-0.187042236328125,0.847015380859375
241637,0.39385986328125,-0.2486724853515625,0.95574951171875
241638,0.328582763671875,-0.3377227783203125,1.080902099609375
241639,0.2947235107421875,-0.4640655517578125,1.199050903320312
241640,0.2958526611328125,-0.608367919921875,1.292495727539062
241641,0.3213653564453125,-0.73297119140625,1.330230712890625
241642,0.3528900146484375,-0.8170166015625,1.307342529296875
241643,0.3936004638671875,-0.8672332763671875,1.228652954101562
241644,0.4270477294921875,-0.8664093017578125,1.122024536132812
241645,0.449127197265625,-0.80816650390625,1.0050048828125
241646,0.4737091064453125,-0.74981689453125,0.8766326904296875
241647,0.50701904296875,-0.705535888671875,0.7568511962890625
241648,0.5486907958984375,-0.67340087890625,0.674041748046875
241649,0.5796051025390625,-0.6498565673828125,0.6373443603515625
241650,0.5883941650390625,-0.636871337890625,0.6458587646484375
241651,0.5770111083984375,-0.607269287109375,0.689422607421875
241652,0.54302978515625,-0.58966064453125,0.7462005615234375
241653,0.5047760009765625,-0.6021881103515625,0.7979736328125
241654,0.477508544921875,-0.630889892578125,0.8276214599609375
241655,0.463836669921875,-0.66864013671875,0.8415069580078125
241656,0.43988037109375,-0.6908111572265625,0.841552734375
241657,0.381805419921875,-0.6999053955078125,0.835113525390625
241658,0.2781219482421875,-0.707183837890625,0.8264312744140625
241659,0.1516876220703125,-0.7197113037109375,0.8460693359375
241660,0.02001953125,-0.7237548828125,0.890655517578125
241661,-0.123626708984375,-0.7292938232421875,0.9300079345703124
241662,-0.2667388916015625,-0.7440948486328125,0.9474639892578124
241663,-0.3697967529296875,-0.7414703369140625,0.9490203857421876
241664,-0.44732666015625,-0.6909942626953125,0.9202728271484376
241665,-0.49237060546875,-0.6217193603515625,0.864837646484375
241666,-0.5288543701171875,-0.5836181640625,0.7580718994140625
241667,-0.538421630859375,-0.5662384033203125,0.5865478515625
241668,-0.499176025390625,-0.580322265625,0.393218994140625
241669,-0.437469482421875,-0.6206817626953125,0.244598388671875
241670,-0.389251708984375,-0.65936279296875,0.20037841796875
241671,-0.3718719482421875,-0.6738739013671875,0.2379608154296875
241672,-0.368377685546875,-0.6710968017578125,0.3059539794921875
241673,-0.346343994140625,-0.6588897705078125,0.3852386474609375
241674,-0.301483154296875,-0.626739501953125,0.4552764892578125
241675,-0.2483978271484375,-0.5828704833984375,0.5096282958984375
241676,-0.1932373046875,-0.553253173828125,0.5503692626953125
241677,-0.126800537109375,-0.5596466064453125,0.5883941650390625
241678,-0.0502777099609375,-0.5888671875,0.6417694091796875
241679,0.05908203125,-0.6364593505859375,0.7051849365234375
241680,0.1831207275390625,-0.6617431640625,0.7644805908203125
241681,0.31689453125,-0.655548095703125,0.8343963623046875
241682,0.47998046875,-0.63104248046875,0.898101806640625
241683,0.656005859375,-0.5878753662109375,0.93463134765625
241684,0.844268798828125,-0.5328826904296875,0.9307098388671876
241685,1.049179077148438,-0.4865875244140625,0.9099578857421876
241686,1.218246459960938,-0.4300994873046875,0.9178466796875
241687,1.313446044921875,-0.3499755859375,0.9586639404296876
241688,1.327285766601562,-0.2529754638671875,0.9874420166015624
241689,1.286041259765625,-0.1562652587890625,0.9718780517578124
241690,1.176666259765625,-0.0668792724609375,0.90936279296875
241691,1.042129516601562,-0.0186614990234375,0.8641204833984375
241692,0.9431610107421876,-0.034088134765625,0.8324432373046875
241693,0.870513916015625,-0.0743408203125,0.790863037109375
241694,0.8148345947265625,-0.1038360595703125,0.73651123046875
241695,0.7782440185546875,-0.1242218017578125,0.696533203125
241696,0.7579193115234375,-0.153839111328125,0.68707275390625
241697,0.7470703125,-0.210479736328125,0.696685791015625
241698,0.732330322265625,-0.2930450439453125,0.7147979736328125
241699,0.712646484375,-0.3975830078125,0.7362823486328125
241700,0.6875457763671875,-0.5191802978515625,0.7610015869140625
241701,0.660430908203125,-0.637939453125,0.8184814453125
241702,0.6240692138671875,-0.70709228515625,0.9002685546875
241703,0.5683746337890625,-0.7266998291015625,1.01446533203125
241704,0.492462158203125,-0.684478759765625,1.153518676757812
241705,0.4339447021484375,-0.60174560546875,1.269973754882812
241706,0.40655517578125,-0.486968994140625,1.287521362304688
241707,0.3977813720703125,-0.40081787109375,1.203414916992188
241708,0.3650054931640625,-0.37841796875,1.083236694335938
241709,0.2920989990234375,-0.3919677734375,0.975341796875
241710,0.1871490478515625,-0.4256591796875,0.9134063720703124
241711,0.099395751953125,-0.487884521484375,0.884307861328125
241712,0.0280303955078125,-0.5584869384765625,0.8548431396484375
241713,-0.0450592041015625,-0.632415771484375,0.8380889892578125
241714,-0.1286468505859375,-0.71795654296875,0.8213958740234375
241715,-0.2082061767578125,-0.8089599609375,0.8131256103515625
241716,-0.2699432373046875,-0.896270751953125,0.80743408203125
241717,-0.32171630859375,-0.965301513671875,0.804962158203125
241718,-0.33721923828125,-1.00604248046875,0.800262451171875
241719,-0.3261566162109375,-1.02337646484375,0.765899658203125
241720,-0.294464111328125,-1.02667236328125,0.71002197265625
241721,-0.2521820068359375,-1.004730224609375,0.662750244140625
241722,-0.223175048828125,-0.959869384765625,0.6070098876953125
241723,-0.198333740234375,-0.922637939453125,0.5673980712890625
241724,-0.16754150390625,-0.8918304443359375,0.5627288818359375
241725,-0.144287109375,-0.8602294921875,0.5702056884765625
241726,-0.1368865966796875,-0.8367919921875,0.601318359375
241727,-0.1422271728515625,-0.7957916259765625,0.6416015625
241728,-0.1803436279296875,-0.7456207275390625,0.64849853515625
241729,-0.2400665283203125,-0.7035369873046875,0.632110595703125
241730,-0.27276611328125,-0.668975830078125,0.6117095947265625
241731,-0.2718963623046875,-0.6347808837890625,0.592681884765625
241732,-0.2604522705078125,-0.5841522216796875,0.5830078125
241733,-0.2570953369140625,-0.532806396484375,0.5799407958984375
241734,-0.25054931640625,-0.50628662109375,0.573486328125
241735,-0.2204742431640625,-0.5268707275390625,0.5799713134765625
241736,-0.191680908203125,-0.568511962890625,0.584014892578125
241737,-0.1766510009765625,-0.5933837890625,0.591522216796875
241738,-0.155181884765625,-0.591339111328125,0.6180572509765625
241739,-0.103424072265625,-0.57147216796875,0.6652069091796875
241740,-0.019073486328125,-0.5116424560546875,0.70794677734375
241741,0.074554443359375,-0.4280853271484375,0.7480010986328125
241742,0.1519775390625,-0.374664306640625,0.739959716796875
241743,0.2977752685546875,-0.364898681640625,0.7136688232421875
241744,0.452728271484375,-0.327484130859375,0.691925048828125
241745,0.5894775390625,-0.294647216796875,0.6908721923828125
241746,0.7277984619140625,-0.2820587158203125,0.697845458984375
241747,0.8355560302734375,-0.2645111083984375,0.695770263671875
241748,0.9241180419921876,-0.2330474853515625,0.6954193115234375
241749,0.9798736572265624,-0.1973419189453125,0.6995086669921875
241750,1.004440307617188,-0.1468658447265625,0.705169677734375
241751,1.018661499023438,-0.115203857421875,0.715728759765625
241752,1.019577026367188,-0.1245880126953125,0.743865966796875
241753,0.9883880615234376,-0.1276397705078125,0.7845916748046875
241754,0.92999267578125,-0.1251678466796875,0.8382720947265625
241755,0.8581085205078125,-0.13714599609375,0.8922576904296875
241756,0.76824951171875,-0.1614227294921875,0.957489013671875
241757,0.6671905517578125,-0.197509765625,1.049270629882812
241758,0.59210205078125,-0.251129150390625,1.150604248046875
241759,0.5398406982421875,-0.3211669921875,1.22613525390625
241760,0.5069122314453125,-0.413665771484375,1.24444580078125
241761,0.470672607421875,-0.498260498046875,1.19586181640625
241762,0.4212493896484375,-0.5586700439453125,1.103302001953125
241763,0.367340087890625,-0.5928192138671875,1.023574829101562
241764,0.3285064697265625,-0.61004638671875,0.971038818359375
241765,0.2953033447265625,-0.612213134765625,0.9346160888671876
241766,0.26605224609375,-0.584686279296875,0.8903961181640625
241767,0.2550506591796875,-0.5526275634765625,0.8446044921875
241768,0.2634124755859375,-0.546417236328125,0.7803955078125
241769,0.2909088134765625,-0.5786895751953125,0.7090606689453125
241770,0.3469390869140625,-0.6319122314453125,0.650421142578125
241771,0.411346435546875,-0.6727142333984375,0.6271514892578125
241772,0.4721832275390625,-0.7014617919921875,0.6460723876953125
241773,0.5171661376953125,-0.7213134765625,0.689117431640625
241774,0.5524139404296875,-0.7499237060546875,0.7607574462890625
241775,0.58770751953125,-0.793853759765625,0.8588409423828125
241776,0.5779571533203125,-0.8323822021484375,0.953460693359375
241777,0.498046875,-0.8771209716796875,1.03851318359375
241778,0.3731842041015625,-0.9390411376953124,1.121246337890625
241779,0.212066650390625,-0.96429443359375,1.2122802734375
241780,0.00421142578125,-0.9311676025390624,1.287124633789062
241781,-0.198089599609375,-0.8404541015625,1.312591552734375
241782,-0.330841064453125,-0.715057373046875,1.277450561523438
241783,-0.401611328125,-0.6406707763671875,1.143585205078125
241784,-0.4397735595703125,-0.643096923828125,0.9515838623046876
241785,-0.4657440185546875,-0.6452789306640625,0.7122955322265625
241786,-0.475128173828125,-0.6002197265625,0.4769439697265625
241787,-0.4646148681640625,-0.5328521728515625,0.266876220703125
241788,-0.46075439453125,-0.4901275634765625,0.10662841796875
241789,-0.4623260498046875,-0.4812469482421875,0.0591583251953125
241790,-0.4384002685546875,-0.494354248046875,0.0944061279296875
241791,-0.4105987548828125,-0.5011444091796875,0.144317626953125
241792,-0.4209136962890625,-0.522552490234375,0.18914794921875
241793,-0.4180450439453125,-0.5644073486328125,0.282806396484375
241794,-0.3578948974609375,-0.5905609130859375,0.4085540771484375
241795,-0.253997802734375,-0.5778045654296875,0.53253173828125
241796,-0.1410064697265625,-0.5569305419921875,0.63018798828125
241797,-0.027130126953125,-0.5579833984375,0.6917266845703125
241798,0.0844573974609375,-0.5588531494140625,0.7513275146484375
241799,0.2023468017578125,-0.5407867431640625,0.8475799560546875
241800,0.317626953125,-0.49896240234375,0.92791748046875
241801,0.4620819091796875,-0.4757537841796875,0.9920654296875
241802,0.613922119140625,-0.47650146484375,1.077255249023438
241803,0.7410736083984375,-0.4691314697265625,1.130645751953125
241804,0.8053741455078125,-0.3974456787109375,1.1036376953125
241805,0.8306884765625,-0.325897216796875,1.04412841796875
241806,0.8442840576171875,-0.2969818115234375,0.97576904296875
241807,0.86279296875,-0.280426025390625,0.910858154296875
241808,0.8470611572265625,-0.2429046630859375,0.86248779296875
241809,0.824127197265625,-0.1749725341796875,0.8306884765625
241810,0.8409881591796875,-0.0963897705078125,0.775848388671875
241811,0.89385986328125,-0.039947509765625,0.7247467041015625
241812,0.9685821533203124,-0.0409393310546875,0.7128143310546875
241813,1.034805297851562,-0.0960235595703125,0.7324981689453125
241814,1.041748046875,-0.1607818603515625,0.7816925048828125
241815,1.013214111328125,-0.2328338623046875,0.843841552734375
241816,0.9886474609375,-0.3125457763671875,0.8930511474609375
241817,0.963836669921875,-0.392242431640625,0.9312744140625
241818,0.933990478515625,-0.4710693359375,0.97509765625
241819,0.9004364013671875,-0.54638671875,1.014724731445312
241820,0.8505706787109375,-0.6022186279296875,1.054367065429688
241821,0.789581298828125,-0.622222900390625,1.091659545898438
241822,0.703399658203125,-0.626617431640625,1.125274658203125
241823,0.5923004150390625,-0.63006591796875,1.15728759765625
241824,0.458953857421875,-0.62713623046875,1.15509033203125
241825,0.3009185791015625,-0.610565185546875,1.138671875
241826,0.1427154541015625,-0.5810546875,1.128189086914062
241827,0.006134033203125,-0.557769775390625,1.107666015625
241828,-0.1182708740234375,-0.5243072509765625,1.035568237304688
241829,-0.2257080078125,-0.50494384765625,0.9322662353515624
241830,-0.3197479248046875,-0.5105743408203125,0.8362579345703125
241831,-0.3835906982421875,-0.5626220703125,0.76788330078125
241832,-0.43756103515625,-0.5580596923828125,0.720001220703125
241833,-0.4861602783203125,-0.49530029296875,0.686492919921875
241834,-0.5078582763671875,-0.4135894775390625,0.67950439453125
241835,-0.44989013671875,-0.36700439453125,0.6387481689453125
241836,-0.312957763671875,-0.3617706298828125,0.5825653076171875
241837,-0.135498046875,-0.3828277587890625,0.5379180908203125
241838,0.0262298583984375,-0.4188232421875,0.54205322265625
241839,0.145660400390625,-0.4489593505859375,0.5941619873046875
241840,0.2096405029296875,-0.4731292724609375,0.67254638671875
241841,0.2400970458984375,-0.477783203125,0.751678466796875
241842,0.265472412109375,-0.48046875,0.7942352294921875
241843,0.29522705078125,-0.508941650390625,0.825408935546875
241844,0.2998046875,-0.5413055419921875,0.858367919921875
241845,0.2636871337890625,-0.55047607421875,0.871795654296875
241846,0.216552734375,-0.5549468994140625,0.8590087890625
241847,0.1811676025390625,-0.577362060546875,0.846282958984375
241848,0.1387939453125,-0.605621337890625,0.827606201171875
241849,0.075775146484375,-0.64532470703125,0.7972259521484375
241850,-0.010986328125,-0.702239990234375,0.7602081298828125
241851,-0.1279449462890625,-0.7401885986328125,0.7461090087890625
241852,-0.278411865234375,-0.728973388671875,0.801025390625
241853,-0.459930419921875,-0.715789794921875,0.9080047607421876
241854,-0.602294921875,-0.75628662109375,0.99603271484375
241855,-0.686279296875,-0.8613739013671875,0.9608306884765624
241856,-0.74530029296875,-0.9160308837890624,0.84002685546875
241857,-0.7483062744140625,-0.8093414306640625,0.7022857666015625
241858,-0.6403045654296875,-0.7058563232421875,0.52874755859375
241859,-0.457122802734375,-0.6563568115234375,0.415771484375
241860,-0.3054351806640625,-0.613128662109375,0.431488037109375
241861,-0.2006988525390625,-0.568634033203125,0.518646240234375
241862,-0.0945587158203125,-0.5178680419921875,0.6255645751953125
241863,0.0290374755859375,-0.4560394287109375,0.7276153564453125
241864,0.1580810546875,-0.3905792236328125,0.849090576171875
241865,0.278228759765625,-0.3138427734375,0.9771270751953124
241866,0.389068603515625,-0.24261474609375,1.069412231445312
241867,0.5014801025390625,-0.2071533203125,1.100448608398438
241868,0.5986328125,-0.2205352783203125,1.074554443359375
241869,0.6938934326171875,-0.2584075927734375,1.013198852539062
241870,0.7934417724609375,-0.261138916015625,0.9403228759765624
241871,0.86956787109375,-0.2323455810546875,0.8683624267578125
241872,0.910003662109375,-0.189483642578125,0.81671142578125
241873,0.9514923095703124,-0.1531524658203125,0.792724609375
241874,0.9784698486328124,-0.110931396484375,0.77740478515625
241875,0.9968719482421876,-0.081787109375,0.763671875
241876,1.003616333007812,-0.0647735595703125,0.776458740234375
241877,0.9783172607421876,-0.074066162109375,0.7861175537109375
241878,0.919830322265625,-0.122894287109375,0.8156585693359375
241879,0.8305511474609375,-0.2013092041015625,0.864898681640625
241880,0.7316436767578125,-0.288787841796875,0.9340057373046876
241881,0.6482086181640625,-0.3737945556640625,1.01556396484375
241882,0.576812744140625,-0.4464874267578125,1.095291137695312
241883,0.4945068359375,-0.4982147216796875,1.155914306640625
241884,0.420166015625,-0.5346221923828125,1.193328857421875
241885,0.375,-0.56097412109375,1.195785522460938
241886,0.343536376953125,-0.5665740966796875,1.160842895507812
241887,0.320281982421875,-0.5521697998046875,1.095382690429688
241888,0.300018310546875,-0.5272979736328125,1.010406494140625
241889,0.2757415771484375,-0.489532470703125,0.9071197509765624
241890,0.237548828125,-0.460693359375,0.79852294921875
241891,0.1884918212890625,-0.455322265625,0.6984405517578125
241892,0.138092041015625,-0.4717559814453125,0.606109619140625
241893,0.0849609375,-0.502960205078125,0.527801513671875
241894,0.0560760498046875,-0.5568084716796875,0.486480712890625
241895,0.0549774169921875,-0.6248626708984375,0.4875946044921875
241896,0.083221435546875,-0.691864013671875,0.53106689453125
241897,0.1309356689453125,-0.74151611328125,0.5933074951171875
241898,0.19915771484375,-0.76751708984375,0.66461181640625
241899,0.274169921875,-0.764984130859375,0.725860595703125
241900,0.327484130859375,-0.7447967529296875,0.76983642578125
241901,0.3666229248046875,-0.726043701171875,0.818206787109375
241902,0.38385009765625,-0.6961517333984375,0.880767822265625
241903,0.3631744384765625,-0.650909423828125,0.95257568359375
241904,0.29644775390625,-0.5954742431640625,1.019073486328125
241905,0.2043304443359375,-0.5398101806640625,1.06500244140625
241906,0.10791015625,-0.5009765625,1.075302124023438
241907,0.01953125,-0.4943695068359375,1.0279541015625
241908,-0.0521392822265625,-0.5281524658203125,0.92626953125
241909,-0.1009674072265625,-0.5889129638671875,0.7922821044921875
241910,-0.1274871826171875,-0.6440887451171875,0.6768951416015625
241911,-0.1445770263671875,-0.6751861572265625,0.5920867919921875
241912,-0.159637451171875,-0.678436279296875,0.5476837158203125
241913,-0.1749725341796875,-0.6568603515625,0.554290771484375
241914,-0.1694793701171875,-0.62603759765625,0.57659912109375
241915,-0.1591949462890625,-0.5782470703125,0.58697509765625
241916,-0.1759490966796875,-0.525482177734375,0.5927276611328125
241917,-0.2000885009765625,-0.4847412109375,0.6195831298828125
241918,-0.2068023681640625,-0.45013427734375,0.672637939453125
241919,-0.192108154296875,-0.42596435546875,0.73956298828125
241920,-0.159210205078125,-0.41021728515625,0.8058319091796875
241921,-0.1115264892578125,-0.4080810546875,0.834228515625
241922,-0.03778076171875,-0.42431640625,0.8286285400390625
241923,0.0541839599609375,-0.45947265625,0.818359375
241924,0.1752471923828125,-0.5026702880859375,0.80731201171875
241925,0.28631591796875,-0.55126953125,0.82379150390625
241926,0.374755859375,-0.5908050537109375,0.8584136962890625
241927,0.4538726806640625,-0.6148529052734375,0.88482666015625
241928,0.528564453125,-0.6168975830078125,0.9062042236328124
241929,0.5733795166015625,-0.583953857421875,0.916473388671875
