time_idx,accelerometerAccelerationX(G),accelerometerAccelerationY(G),accelerometerAccelerationZ(G)
220000,0.438201904296875,0.105926513671875,0.028076171875
220001,0.797393798828125,0.022186279296875,0.3774566650390625
220002,0.96844482421875,-0.13482666015625,0.969757080078125
220003,0.7333984375,-0.3748931884765625,1.842803955078125
220004,0.1625213623046875,-0.653472900390625,3.270767211914062
220005,0.0004119873046875,-1.032012939453125,4.89019775390625
220006,0.013397216796875,-1.656768798828125,6.461624145507812
220007,-0.3132476806640625,-2.956451416015625,4.90191650390625
220008,-0.471954345703125,-4.397735595703125,3.928985595703125
220009,0.0719146728515625,-4.371688842773438,3.29840087890625
220010,0.2871246337890625,-2.438156127929688,1.518280029296875
220011,0.7147064208984375,-1.760284423828125,1.63623046875
220012,0.695159912109375,-1.372879028320312,2.1019287109375
220013,0.7940826416015625,-0.847686767578125,2.112152099609375
220014,0.9678497314453124,-0.34857177734375,1.819931030273438
220015,1.117965698242188,-0.0616455078125,1.419479370117188
220016,1.153732299804688,0.0908966064453125,1.119064331054688
220017,1.137969970703125,0.204803466796875,1.233062744140625
220018,1.137344360351562,0.2907867431640625,1.2679443359375
220019,1.0762939453125,0.3413238525390625,0.972259521484375
220020,0.894287109375,0.334869384765625,0.714996337890625
220021,0.7385711669921875,0.3183441162109375,0.61737060546875
220022,0.656097412109375,0.3616180419921875,0.41937255859375
220023,0.62310791015625,0.4280548095703125,0.04522705078125
220024,0.59619140625,0.4013824462890625,-0.18536376953125
220025,0.5517425537109375,0.311309814453125,-0.1633758544921875
220026,0.5012664794921875,0.2552947998046875,-0.103485107421875
220027,0.466888427734375,0.2415924072265625,-0.1515045166015625
220028,0.507659912109375,0.1964569091796875,-0.17291259765625
220029,0.58404541015625,0.0931243896484375,-0.1698455810546875
220030,0.4610748291015625,-0.130828857421875,-0.1425933837890625
220031,0.26220703125,-0.501953125,0.1450958251953125
220032,0.16058349609375,-0.9803314208984376,0.7729644775390625
220033,-0.157958984375,-1.882110595703125,1.247222900390625
220034,-1.26751708984375,-3.19085693359375,1.503341674804688
220035,-2.24224853515625,-3.39892578125,1.2684326171875
220036,-1.98236083984375,-2.3953857421875,0.920013427734375
220037,-0.8454437255859375,-1.60369873046875,0.625946044921875
220038,-0.4166107177734375,-1.157180786132812,0.0272064208984375
220039,-0.3811798095703125,-0.717498779296875,-0.49102783203125
220040,-0.037750244140625,-0.766876220703125,-0.3883819580078125
220041,0.2037811279296875,-1.110794067382812,-0.3508148193359375
220042,0.0088043212890625,-1.093948364257812,-0.24102783203125
220043,-0.439666748046875,-0.945709228515625,0.15020751953125
220044,-0.745849609375,-0.893341064453125,0.5213165283203125
220045,-0.6463165283203125,-0.8831787109375,0.559783935546875
220046,-0.5474090576171875,-0.7670745849609375,0.45867919921875
220047,-0.58746337890625,-0.5660552978515625,0.484375
220048,-0.56976318359375,-0.411865234375,0.4760894775390625
220049,-0.45147705078125,-0.29168701171875,0.480712890625
220050,-0.3095855712890625,-0.1385498046875,0.511566162109375
220051,-0.1291656494140625,0.0649871826171875,0.513031005859375
220052,0.1176605224609375,0.254974365234375,0.45587158203125
220053,0.3936309814453125,0.3497314453125,0.4142303466796875
220054,0.59490966796875,0.379608154296875,0.2734527587890625
220055,0.7279815673828125,0.314727783203125,-0.013031005859375
220056,0.832305908203125,0.293670654296875,-0.1506500244140625
220057,0.908843994140625,0.441497802734375,0.0766754150390625
220058,0.853240966796875,0.679443359375,0.160980224609375
220059,0.8026275634765625,0.7812957763671875,-0.10296630859375
220060,0.763214111328125,0.681854248046875,-0.2172393798828125
220061,0.6733856201171875,0.56842041015625,-0.20440673828125
220062,0.7650146484375,0.45587158203125,-0.0636444091796875
220063,1.141571044921875,0.27825927734375,0.1376190185546875
220064,1.458206176757812,-0.0101776123046875,0.3178558349609375
220065,1.518524169921875,-0.194854736328125,1.098861694335938
220066,1.129135131835938,-0.192962646484375,2.208663940429688
220067,0.6720733642578125,-0.2183074951171875,2.717269897460938
220068,0.41015625,-0.634918212890625,2.643753051757812
220069,0.120452880859375,-1.658676147460938,3.579238891601562
220070,-0.2860260009765625,-2.698165893554688,5.033447265625
220071,-0.8347320556640625,-3.553604125976562,4.157058715820312
220072,-0.9689483642578124,-4.37335205078125,2.637466430664062
220073,-0.570709228515625,-3.559158325195312,1.514602661132812
220074,-0.3666839599609375,-2.132614135742188,1.235809326171875
220075,0.0225677490234375,-1.597793579101562,1.362106323242188
220076,0.3531646728515625,-1.388595581054688,1.53369140625
220077,0.566162109375,-1.099578857421875,1.648086547851562
220078,0.8051300048828125,-0.643096923828125,1.6849365234375
220079,0.894927978515625,-0.2502899169921875,1.47149658203125
220080,0.878448486328125,0.006256103515625,1.331954956054688
220081,1.045852661132812,0.0065155029296875,1.553176879882812
220082,1.341827392578125,-0.087738037109375,1.45562744140625
220083,1.362960815429688,0.04302978515625,0.96490478515625
220084,1.31378173828125,0.2479400634765625,0.7056427001953125
220085,1.310562133789062,0.3761444091796875,0.568115234375
220086,1.264938354492188,0.4479217529296875,0.09393310546875
220087,1.121673583984375,0.487945556640625,-0.287841796875
220088,0.9210357666015624,0.4765777587890625,-0.42681884765625
220089,0.7150421142578125,0.434356689453125,-0.39892578125
220090,0.6257781982421875,0.3649139404296875,-0.2462005615234375
220091,0.6150360107421875,0.3264007568359375,-0.1765899658203125
220092,0.469818115234375,0.2647552490234375,-0.2759552001953125
220093,0.32183837890625,0.1260528564453125,-0.2555999755859375
220094,0.20660400390625,0.015228271484375,-0.2052764892578125
220095,0.0871734619140625,0.00958251953125,-0.222137451171875
220096,-0.064300537109375,0.028900146484375,-0.0519561767578125
220097,-0.2680816650390625,0.0413665771484375,0.3036956787109375
220098,-0.5355377197265625,-0.0188446044921875,0.69586181640625
220099,-0.86767578125,-0.2787017822265625,1.186981201171875
220100,-1.241424560546875,-0.9873046875,1.562118530273438
220101,-1.527114868164062,-1.819015502929688,1.438003540039062
220102,-2.078109741210938,-2.465621948242188,1.248809814453125
220103,-2.425186157226562,-2.612335205078125,0.381256103515625
220104,-1.571060180664062,-2.552536010742188,-0.128448486328125
220105,-0.4569549560546875,-2.89117431640625,-0.1190032958984375
220106,0.0740509033203125,-2.780258178710938,-0.3944244384765625
220107,-0.003448486328125,-1.772659301757812,-0.478485107421875
220108,-0.0009307861328125,-0.97149658203125,-0.2010955810546875
220109,0.0381317138671875,-0.928558349609375,0.05499267578125
220110,-0.1208343505859375,-1.079666137695312,0.1668243408203125
220111,-0.266082763671875,-1.071151733398438,0.1948394775390625
220112,-0.353271484375,-1.043746948242188,0.342071533203125
220113,-0.4599609375,-1.061691284179688,0.425994873046875
220114,-0.4898681640625,-1.001251220703125,0.3976898193359375
220115,-0.39404296875,-0.835357666015625,0.2696380615234375
220116,0.0756378173828125,-0.656646728515625,0.458648681640625
220117,0.52801513671875,-0.3063507080078125,0.56207275390625
220118,0.7525177001953125,0.1162872314453125,0.6094512939453125
220119,0.9839019775390624,0.3785400390625,0.7379150390625
220120,1.119110107421875,0.580596923828125,0.6328887939453125
220121,1.095611572265625,0.86370849609375,0.46282958984375
220122,0.9802398681640624,1.078338623046875,0.5083160400390625
220123,0.9512176513671876,1.094345092773438,0.9473114013671876
220124,1.195220947265625,1.007431030273438,0.9889678955078124
220125,1.569000244140625,0.9022674560546876,0.650360107421875
220126,1.611801147460938,0.796234130859375,0.4023284912109375
220127,1.288665771484375,0.627044677734375,0.3260650634765625
220128,0.93603515625,0.34033203125,0.1799163818359375
220129,0.701934814453125,-0.0321502685546875,-0.157012939453125
220130,0.581329345703125,-0.4148406982421875,-0.494171142578125
220131,0.353607177734375,-0.6847381591796875,-0.466552734375
220132,0.1793365478515625,-0.7435302734375,-0.183135986328125
220133,0.2795257568359375,-0.6217498779296875,0.0675048828125
220134,0.5382843017578125,-0.446990966796875,0.212860107421875
220135,0.7652740478515625,-0.361541748046875,0.5265045166015625
220136,0.9141693115234376,-0.4298248291015625,1.04437255859375
220137,0.925140380859375,-0.667877197265625,1.979248046875
220138,0.6196746826171875,-1.146041870117188,3.52685546875
220139,-0.163909912109375,-2.262359619140625,5.152175903320312
220140,-0.904754638671875,-3.251388549804688,5.843704223632812
220141,-0.354095458984375,-3.813034057617188,4.9022216796875
220142,0.434112548828125,-3.990615844726562,2.426422119140625
220143,0.5970916748046875,-3.410980224609375,1.03173828125
220144,0.423004150390625,-1.972549438476562,0.3842620849609375
220145,0.777862548828125,-0.936553955078125,0.700103759765625
220146,1.025192260742188,-0.701324462890625,1.115493774414062
220147,1.072265625,-0.750946044921875,1.660003662109375
220148,1.102859497070312,-0.715301513671875,1.827407836914062
220149,0.94793701171875,-0.6204833984375,1.45538330078125
220150,0.802764892578125,-0.4124298095703125,1.251632690429688
220151,0.8633575439453125,-0.1070098876953125,1.2109375
220152,0.935791015625,0.199127197265625,0.9342193603515624
220153,0.9824066162109376,0.4240875244140625,0.61578369140625
220154,1.049545288085938,0.4698333740234375,0.4250640869140625
220155,1.099594116210938,0.428070068359375,0.152984619140625
220156,1.084671020507812,0.3846282958984375,-0.08392333984375
220157,1.00433349609375,0.3875274658203125,-0.14697265625
220158,0.8146209716796875,0.4412384033203125,-0.2074432373046875
220159,0.5312347412109375,0.4835662841796875,-0.3058624267578125
220160,0.2920074462890625,0.4171905517578125,-0.325531005859375
220161,0.194427490234375,0.285736083984375,-0.2556304931640625
220162,0.1297760009765625,0.2232513427734375,-0.2113037109375
220163,0.053253173828125,0.2745513916015625,-0.2186126708984375
220164,-0.0119781494140625,0.31451416015625,-0.21490478515625
220165,-0.124969482421875,0.2911376953125,-0.1813201904296875
220166,-0.23236083984375,0.26873779296875,-0.105255126953125
220167,-0.360748291015625,0.2563018798828125,0.0538330078125
220168,-0.4975128173828125,0.1765899658203125,0.34808349609375
220169,-0.58099365234375,0.0217132568359375,0.762481689453125
220170,-0.659271240234375,-0.2778778076171875,1.2515869140625
220171,-0.8668975830078125,-0.7039794921875,1.3880615234375
220172,-0.9521484375,-0.8296966552734375,0.9100494384765624
220173,-0.8743896484375,-0.804443359375,0.5583038330078125
220174,-0.827362060546875,-0.919036865234375,0.31304931640625
220175,-0.92730712890625,-1.124282836914062,0.36431884765625
220176,-1.066513061523438,-1.552810668945312,0.51171875
220177,-1.153106689453125,-3.596054077148438,-0.468109130859375
220178,-1.688369750976562,-5.489608764648438,-1.05487060546875
220179,-1.799942016601562,-3.918411254882812,-0.2244720458984375
220180,-0.4541473388671875,-1.902496337890625,0.4008941650390625
220181,0.0640106201171875,-1.05987548828125,0.6804046630859375
220182,-0.201141357421875,-0.6342315673828125,0.704620361328125
220183,-0.3585662841796875,-0.73919677734375,0.7802581787109375
220184,-0.4256134033203125,-1.133743286132812,0.765289306640625
220185,-0.2802734375,-1.286163330078125,0.7159881591796875
220186,-0.0859375,-1.108795166015625,0.574005126953125
220187,0.069671630859375,-0.8440093994140625,0.3402252197265625
220188,0.11444091796875,-0.4956817626953125,0.131988525390625
220189,0.2498321533203125,-0.201171875,0.2091064453125
220190,0.53680419921875,-0.011444091796875,0.318572998046875
220191,0.909423828125,0.1125335693359375,0.5035247802734375
220192,1.249603271484375,0.203582763671875,0.5813446044921875
220193,1.320037841796875,0.364166259765625,0.5778961181640625
220194,1.154510498046875,0.562896728515625,0.515411376953125
220195,0.986968994140625,0.636260986328125,0.4792327880859375
220196,0.8982391357421875,0.59979248046875,0.61053466796875
220197,0.7293243408203125,0.6757965087890625,0.594482421875
220198,0.5488433837890625,0.6841583251953125,0.4275970458984375
220199,0.504852294921875,0.588836669921875,0.2507781982421875
220200,0.4671783447265625,0.494781494140625,-0.192779541015625
220201,0.296112060546875,0.3404388427734375,-0.335723876953125
220202,0.05987548828125,0.1378326416015625,-0.2205047607421875
220203,-0.05364990234375,-0.163330078125,-0.250213623046875
220204,-0.009521484375,-0.5135650634765625,0.0925750732421875
220205,0.0977630615234375,-0.7440032958984375,0.650787353515625
220206,0.220306396484375,-0.81292724609375,1.236770629882812
220207,0.368927001953125,-0.8309173583984375,1.82537841796875
220208,0.523406982421875,-1.011398315429688,2.330032348632812
220209,0.6193695068359375,-1.281646728515625,2.66925048828125
220210,0.5811767578125,-1.503509521484375,2.98004150390625
220211,0.597991943359375,-1.642013549804688,3.245819091796875
220212,0.5417327880859375,-1.8365478515625,2.935958862304688
220213,0.1246795654296875,-2.271255493164062,2.4427490234375
220214,-0.02166748046875,-2.700485229492188,2.211257934570312
220215,0.1682891845703125,-2.775390625,1.573333740234375
220216,0.2889862060546875,-2.485061645507812,1.135650634765625
220217,0.261688232421875,-1.822555541992188,1.287002563476562
220218,0.341583251953125,-1.140304565429688,1.275497436523438
220219,0.4422454833984375,-0.737884521484375,1.329727172851562
220220,0.5243377685546875,-0.5508270263671875,1.406051635742188
220221,0.6566009521484375,-0.4510650634765625,1.33721923828125
220222,0.8019866943359375,-0.2881011962890625,1.137588500976562
220223,0.925201416015625,-0.056182861328125,0.92095947265625
220224,1.0220947265625,0.132568359375,0.7406463623046875
220225,1.0211181640625,0.2015228271484375,0.567047119140625
220226,0.9024658203125,0.1490020751953125,0.4234771728515625
220227,0.7488861083984375,0.05975341796875,0.2946624755859375
220228,0.6479034423828125,0.01971435546875,0.204315185546875
220229,0.621551513671875,0.006134033203125,0.1586151123046875
220230,0.586273193359375,0.0196533203125,0.131744384765625
220231,0.51568603515625,0.057891845703125,0.097076416015625
220232,0.39971923828125,0.1268157958984375,-0.0062255859375
220233,0.23162841796875,0.182373046875,-0.1500091552734375
220234,0.1052398681640625,0.1677703857421875,-0.2049713134765625
220235,0.0820465087890625,0.1477813720703125,-0.18994140625
220236,0.0899810791015625,0.203582763671875,-0.1824188232421875
220237,0.072784423828125,0.2572784423828125,-0.157135009765625
220238,0.0199737548828125,0.2523651123046875,-0.078765869140625
220239,-0.065643310546875,0.1698150634765625,0.133544921875
220240,-0.2019500732421875,-0.0252685546875,0.5127716064453125
220241,-0.4006805419921875,-0.276031494140625,1.0147705078125
220242,-0.6347503662109375,-0.61859130859375,1.40252685546875
220243,-0.923675537109375,-0.9680938720703124,1.358230590820312
220244,-1.087371826171875,-1.004776000976562,1.082305908203125
220245,-1.084503173828125,-1.049835205078125,0.6086273193359375
220246,-1.042129516601562,-1.24688720703125,0.4164886474609375
220247,-0.899169921875,-1.569366455078125,0.344757080078125
220248,-0.604736328125,-2.551406860351562,0.188140869140625
220249,-0.347503662109375,-3.65216064453125,0.0169677734375
220250,-0.4287567138671875,-3.137557983398438,0.2042999267578125
220251,-0.6622467041015625,-2.0806884765625,0.7327880859375
220252,-0.542694091796875,-1.662277221679688,1.037155151367188
220253,-0.272613525390625,-1.511734008789062,0.968353271484375
220254,-0.3900146484375,-1.417282104492188,0.6850128173828125
220255,-0.458709716796875,-1.176712036132812,0.5855560302734375
220256,-0.38800048828125,-0.8947906494140625,0.5579376220703125
220257,-0.2817535400390625,-0.711334228515625,0.4263763427734375
220258,-0.1073760986328125,-0.5735321044921875,0.32867431640625
220259,0.07659912109375,-0.3681640625,0.2961578369140625
220260,0.2452545166015625,-0.161041259765625,0.3332672119140625
220261,0.358673095703125,0.0084381103515625,0.3850555419921875
220262,0.3116302490234375,0.1785888671875,0.284423828125
220263,0.37371826171875,0.2888641357421875,0.4293975830078125
220264,0.5585784912109375,0.3741607666015625,0.511962890625
220265,0.744476318359375,0.4114532470703125,0.683349609375
220266,0.9032440185546876,0.47607421875,0.7278900146484375
220267,0.9420318603515624,0.4796600341796875,0.5433502197265625
220268,0.82000732421875,0.3432464599609375,0.3783111572265625
220269,0.5482635498046875,0.199249267578125,0.299713134765625
220270,0.288360595703125,0.1212615966796875,0.1757354736328125
220271,0.142364501953125,0.059661865234375,0.24261474609375
220272,0.097320556640625,0.0291748046875,0.3177947998046875
220273,0.107666015625,0.0261383056640625,0.3259735107421875
220274,0.131378173828125,-0.013824462890625,0.100006103515625
220275,0.0698699951171875,-0.1592559814453125,-0.0800018310546875
220276,-0.02716064453125,-0.3528289794921875,-0.00213623046875
220277,-0.1075592041015625,-0.5040740966796875,0.106414794921875
220278,-0.1087188720703125,-0.5874786376953125,0.23114013671875
220279,0.0279083251953125,-0.6279296875,0.6146087646484375
220280,0.2209014892578125,-0.608367919921875,1.168182373046875
220281,0.365386962890625,-0.692962646484375,1.823944091796875
220282,0.5289764404296875,-0.87274169921875,2.5755615234375
220283,0.6080474853515625,-1.115447998046875,3.124588012695312
220284,0.68096923828125,-1.437911987304688,3.410598754882812
220285,0.8613433837890625,-1.689041137695312,3.347763061523438
220286,0.7784881591796875,-2.033737182617188,2.668563842773438
220287,0.700592041015625,-2.435150146484375,1.969345092773438
220288,0.640869140625,-2.46514892578125,1.232955932617188
220289,0.6121368408203125,-1.867721557617188,1.039413452148438
220290,0.66644287109375,-1.281906127929688,1.251510620117188
220291,0.6882171630859375,-0.9315948486328124,1.400054931640625
220292,0.703369140625,-0.6792449951171875,1.453857421875
220293,0.7039794921875,-0.5729217529296875,1.508712768554688
220294,0.78546142578125,-0.479705810546875,1.56341552734375
220295,0.933868408203125,-0.24493408203125,1.475677490234375
220296,1.072280883789062,0.119903564453125,1.21490478515625
220297,1.139923095703125,0.3651580810546875,0.90191650390625
220298,1.073638916015625,0.3841400146484375,0.6302947998046875
220299,0.8650360107421875,0.268768310546875,0.41046142578125
220300,0.6016387939453125,0.1098480224609375,0.29034423828125
220301,0.3921051025390625,0.0261993408203125,0.2298736572265625
220302,0.2843017578125,-0.0095367431640625,0.17303466796875
220303,0.2367401123046875,-0.0261383056640625,0.1160430908203125
220304,0.1924285888671875,-0.02227783203125,0.0499114990234375
220305,0.16363525390625,-0.0091705322265625,0.003662109375
220306,0.1419525146484375,0.008880615234375,-0.0724945068359375
220307,0.0314178466796875,0.0597991943359375,-0.2110748291015625
220308,-0.10150146484375,0.081787109375,-0.233154296875
220309,-0.1487579345703125,0.061859130859375,-0.151580810546875
220310,-0.14996337890625,0.08282470703125,-0.064788818359375
220311,-0.13958740234375,0.1199188232421875,0.01580810546875
220312,-0.127777099609375,0.124267578125,0.098907470703125
220313,-0.121856689453125,0.0352935791015625,0.2534942626953125
220314,-0.158355712890625,-0.16461181640625,0.5147857666015625
220315,-0.2607879638671875,-0.4203033447265625,0.83624267578125
220316,-0.404693603515625,-0.6879730224609375,1.07965087890625
220317,-0.5966339111328125,-0.982177734375,1.266250610351562
220318,-0.760833740234375,-1.185546875,1.188796997070312
220319,-0.8692474365234375,-1.346542358398438,0.7857818603515625
220320,-0.790863037109375,-1.620147705078125,0.505889892578125
220321,-0.503143310546875,-2.1729736328125,0.5291290283203125
220322,-0.318115234375,-2.540145874023438,0.4705810546875
220323,-0.215179443359375,-2.641510009765625,0.4957275390625
220324,-0.3360137939453125,-2.412643432617188,0.6380462646484375
220325,-0.687957763671875,-2.091903686523438,0.69720458984375
220326,-0.7111968994140625,-1.856430053710938,0.7599029541015625
220327,-0.471893310546875,-1.649337768554688,0.7449188232421875
220328,-0.3671417236328125,-1.4722900390625,0.619293212890625
220329,-0.2604217529296875,-1.299514770507812,0.6188507080078125
220330,-0.143707275390625,-1.146591186523438,0.55419921875
220331,0.0011749267578125,-0.9338836669921876,0.41802978515625
220332,0.2261199951171875,-0.69183349609375,0.3795166015625
220333,0.4895172119140625,-0.4718475341796875,0.4037628173828125
220334,0.6016998291015625,-0.2348480224609375,0.230499267578125
220335,0.587646484375,0.0391998291015625,0.064453125
220336,0.76031494140625,0.360687255859375,0.237945556640625
220337,0.9356536865234376,0.6157073974609375,0.428863525390625
220338,1.042404174804688,0.75933837890625,0.57794189453125
220339,1.072052001953125,0.774810791015625,0.5545501708984375
220340,0.9381256103515624,0.6806182861328125,0.52569580078125
220341,0.6636199951171875,0.5491180419921875,0.6146392822265625
220342,0.469940185546875,0.4241943359375,0.528656005859375
220343,0.3144989013671875,0.270172119140625,0.321807861328125
220344,0.212860107421875,0.1020965576171875,0.1942291259765625
220345,0.1434783935546875,0.016204833984375,0.1920928955078125
220346,0.0873260498046875,-0.0570526123046875,0.122406005859375
220347,0.036834716796875,-0.129974365234375,-0.0106658935546875
220348,0.0091400146484375,-0.2019500732421875,-0.1634063720703125
220349,-0.0139923095703125,-0.3127593994140625,-0.19403076171875
220350,0.094085693359375,-0.3777313232421875,0.038970947265625
220351,0.396759033203125,-0.34796142578125,0.3094940185546875
220352,0.6663360595703125,-0.25054931640625,0.5668182373046875
220353,0.7223358154296875,-0.226806640625,0.9594573974609376
220354,0.624908447265625,-0.3529510498046875,1.44500732421875
220355,0.545135498046875,-0.579376220703125,1.954010009765625
220356,0.5481109619140625,-0.890899658203125,2.492752075195312
220357,0.576202392578125,-1.225173950195312,2.989303588867188
220358,0.580291748046875,-1.504348754882812,3.185653686523438
220359,0.494903564453125,-1.783203125,2.87939453125
220360,0.3916015625,-2.055099487304688,2.214462280273438
220361,0.348175048828125,-2.626083374023438,1.584976196289062
220362,0.255645751953125,-2.963348388671875,1.107864379882812
220363,0.3484954833984375,-2.456207275390625,1.094940185546875
220364,0.615570068359375,-1.844635009765625,1.449356079101562
220365,0.8591156005859375,-1.350433349609375,1.793380737304688
220366,0.9788818359375,-0.9538726806640624,2.016250610351562
220367,1.16534423828125,-0.798492431640625,1.893310546875
220368,1.390457153320312,-0.6664886474609375,1.504837036132812
220369,1.469573974609375,-0.3679351806640625,1.08770751953125
220370,1.432968139648438,-0.0271759033203125,0.7928314208984375
220371,1.339950561523438,0.2146148681640625,0.6528778076171875
220372,1.175094604492188,0.336029052734375,0.5542449951171875
220373,0.946380615234375,0.3310089111328125,0.4004669189453125
220374,0.6863555908203125,0.242462158203125,0.22735595703125
220375,0.4559326171875,0.14276123046875,0.1662139892578125
220376,0.29302978515625,0.0790557861328125,0.142974853515625
220377,0.191009521484375,0.0531463623046875,0.0897064208984375
220378,0.1457977294921875,0.02899169921875,0.0297393798828125
220379,0.14508056640625,-0.013153076171875,-0.05352783203125
220380,0.1200714111328125,-0.049713134765625,-0.1639251708984375
220381,0.0116119384765625,-0.0559844970703125,-0.2803497314453125
220382,-0.1216583251953125,-0.0431976318359375,-0.30609130859375
220383,-0.1936187744140625,-0.0225067138671875,-0.25225830078125
220384,-0.2122344970703125,0.05767822265625,-0.1538238525390625
220385,-0.1524658203125,0.1873779296875,-0.02886962890625
220386,-0.0551300048828125,0.3034210205078125,0.1009979248046875
220387,0.0149993896484375,0.320098876953125,0.2279510498046875
220388,0.00244140625,0.218017578125,0.3935546875
220389,-0.10986328125,-0.005645751953125,0.683502197265625
220390,-0.3000640869140625,-0.3068084716796875,1.214950561523438
220391,-0.598846435546875,-0.7637176513671875,1.565170288085938
220392,-1.06463623046875,-1.27117919921875,1.322265625
220393,-1.580322265625,-1.564468383789062,1.2718505859375
220394,-1.72369384765625,-1.660568237304688,0.7735595703125
220395,-1.616378784179688,-1.918197631835938,0.4916839599609375
220396,-1.240005493164062,-2.678024291992188,0.096038818359375
220397,-0.9876556396484376,-3.387222290039062,-0.2326202392578125
220398,-0.85089111328125,-3.166107177734375,-0.015228271484375
220399,-0.6840057373046875,-2.477493286132812,0.5362396240234375
220400,-0.4420623779296875,-1.961868286132812,1.054031372070312
220401,-0.19769287109375,-1.646041870117188,1.138702392578125
220402,-0.2891387939453125,-1.61395263671875,1.03546142578125
220403,-0.5064544677734375,-1.66070556640625,0.90081787109375
220404,-0.4755096435546875,-1.468826293945312,0.799407958984375
220405,-0.2566070556640625,-1.095977783203125,0.638946533203125
220406,-0.006744384765625,-0.735992431640625,0.4793243408203125
220407,0.2295074462890625,-0.4406890869140625,0.2994842529296875
220408,0.4861907958984375,-0.148712158203125,0.226654052734375
220409,0.70263671875,0.132232666015625,0.25640869140625
220410,0.8515625,0.33526611328125,0.342132568359375
220411,0.987579345703125,0.4730072021484375,0.4210052490234375
220412,1.131729125976562,0.5829315185546875,0.63983154296875
220413,1.18829345703125,0.7811431884765625,0.8157806396484375
220414,1.194549560546875,0.931610107421875,0.7442169189453125
220415,1.126052856445312,0.9005889892578125,0.59674072265625
220416,0.911163330078125,0.673492431640625,0.3632659912109375
220417,0.7242889404296875,0.4445037841796875,0.0670318603515625
220418,0.5416107177734375,0.3497467041015625,-0.172576904296875
220419,0.3752899169921875,0.25311279296875,-0.3014678955078125
220420,0.2214202880859375,0.1825714111328125,-0.2681884765625
220421,0.0807647705078125,0.1624298095703125,-0.09844970703125
220422,-0.015350341796875,0.128631591796875,0.0151824951171875
220423,-0.0179595947265625,0.0252685546875,0.03717041015625
220424,-0.0025787353515625,-0.06585693359375,-0.0627593994140625
220425,0.0151519775390625,-0.1776580810546875,-0.01885986328125
220426,0.043609619140625,-0.3371734619140625,0.2864532470703125
220427,0.01800537109375,-0.5666351318359375,0.549957275390625
220428,-0.004058837890625,-0.8775787353515625,0.64813232421875
220429,-0.0783233642578125,-1.123916625976562,0.70635986328125
220430,-0.2596435546875,-1.37872314453125,1.1856689453125
220431,-0.270172119140625,-1.553970336914062,2.321258544921875
220432,-0.1425018310546875,-1.397079467773438,3.515762329101562
220433,-0.2787933349609375,-1.306320190429688,3.810317993164062
220434,-0.468353271484375,-1.721084594726562,3.129486083984375
220435,-0.2959747314453125,-2.353363037109375,3.0010986328125
220436,0.09759521484375,-2.801483154296875,2.454940795898438
220437,0.47149658203125,-2.696853637695312,1.279083251953125
220438,0.670440673828125,-2.044219970703125,1.17919921875
220439,0.5605926513671875,-1.350006103515625,1.632919311523438
220440,0.5374603271484375,-0.9257965087890624,2.063369750976562
220441,0.753662109375,-0.65484619140625,2.274978637695312
220442,1.103012084960938,-0.4822845458984375,2.222152709960938
220443,1.564971923828125,-0.48590087890625,1.995880126953125
220444,1.945419311523438,-0.4391326904296875,1.541595458984375
220445,2.09619140625,-0.001922607421875,1.125396728515625
220446,2.088119506835938,0.532562255859375,0.9433746337890624
220447,1.95458984375,0.8254241943359375,0.6516265869140625
220448,1.647903442382812,0.6963043212890625,0.244049072265625
220449,1.174652099609375,0.369537353515625,0.1984710693359375
220450,0.7356414794921875,0.187286376953125,0.2160491943359375
220451,0.4412078857421875,0.0991058349609375,0.183349609375
220452,0.2876434326171875,0.0193328857421875,0.17083740234375
220453,0.2825927734375,-0.06036376953125,0.1853790283203125
220454,0.316619873046875,-0.1738739013671875,0.09429931640625
220455,0.310638427734375,-0.324676513671875,-0.026092529296875
220456,0.245941162109375,-0.3957366943359375,-0.166412353515625
220457,0.0086517333984375,-0.33892822265625,-0.3794708251953125
220458,-0.2529296875,-0.1858367919921875,-0.3384552001953125
220459,-0.3730926513671875,0.068359375,-0.146575927734375
220460,-0.3632049560546875,0.355224609375,-0.01641845703125
220461,-0.2958831787109375,0.5365447998046875,0.07904052734375
220462,-0.232391357421875,0.6016387939453125,0.152984619140625
220463,-0.202484130859375,0.5286102294921875,0.238800048828125
220464,-0.2353668212890625,0.3114471435546875,0.369049072265625
220465,-0.346832275390625,-0.01226806640625,0.6583709716796875
220466,-0.5089874267578125,-0.3681488037109375,1.031646728515625
220467,-0.715606689453125,-0.7222137451171875,1.174026489257812
220468,-0.9986114501953124,-1.016860961914062,1.3043212890625
220469,-1.352630615234375,-1.191299438476562,1.258438110351562
220470,-1.659683227539062,-1.452529907226562,0.8716583251953125
220471,-1.639205932617188,-1.892959594726562,0.48260498046875
220472,-1.228927612304688,-2.80181884765625,-0.0637664794921875
220473,-0.812835693359375,-3.363739013671875,-0.1544189453125
220474,-0.640106201171875,-2.72882080078125,0.0599822998046875
220475,-0.510711669921875,-1.933731079101562,0.4291229248046875
220476,-0.2497100830078125,-1.571044921875,0.716217041015625
220477,0.1021728515625,-1.409042358398438,0.8515777587890625
220478,0.0550994873046875,-1.295806884765625,0.8011474609375
220479,-0.110321044921875,-1.2586669921875,0.8024139404296875
220480,-0.1053466796875,-1.190887451171875,0.8025665283203125
220481,0.0144500732421875,-1.089981079101562,0.6345367431640625
220482,0.137298583984375,-0.8387908935546875,0.47283935546875
220483,0.17730712890625,-0.5741119384765625,0.3013458251953125
220484,0.1604766845703125,-0.4193572998046875,0.0989990234375
220485,-0.20733642578125,-0.2511444091796875,-0.3687896728515625
220486,-0.229736328125,-0.0757904052734375,-0.1566162109375
220487,0.29833984375,0.1492156982421875,0.3214874267578125
220488,0.853546142578125,0.134613037109375,0.6304473876953125
220489,1.124923706054688,0.1282958984375,0.713653564453125
220490,1.010498046875,0.195892333984375,0.773193359375
220491,1.007247924804688,0.174896240234375,1.183792114257812
220492,1.228057861328125,0.1656494140625,1.430038452148438
220493,1.314956665039062,0.107391357421875,1.127456665039062
220494,1.03033447265625,0.0104827880859375,0.310821533203125
220495,0.655517578125,0.0688934326171875,0.0047760009765625
220496,0.3650665283203125,0.1656951904296875,-0.2043914794921875
220497,0.08392333984375,0.0808258056640625,-0.527130126953125
220498,-0.17559814453125,-0.0186920166015625,-0.666473388671875
220499,-0.34698486328125,-0.046661376953125,-0.3751220703125
220500,-0.2940826416015625,-0.0965423583984375,0.02001953125
220501,-0.0863189697265625,-0.196319580078125,0.163116455078125
220502,0.1883087158203125,-0.214935302734375,0.1597442626953125
220503,0.467926025390625,-0.1970367431640625,0.2521820068359375
220504,0.5560760498046875,-0.29583740234375,0.504974365234375
220505,0.5278472900390625,-0.39727783203125,0.844696044921875
220506,0.491363525390625,-0.4893035888671875,1.300018310546875
220507,0.43096923828125,-0.674224853515625,2.084075927734375
220508,0.34588623046875,-0.9713287353515624,3.06036376953125
220509,0.214874267578125,-1.399932861328125,3.807998657226562
220510,0.3307342529296875,-1.721176147460938,4.0654296875
220511,0.4650421142578125,-1.996658325195312,3.584716796875
220512,0.2888641357421875,-2.3345947265625,2.616500854492188
220513,0.2173919677734375,-2.558517456054688,1.6942138671875
220514,0.202850341796875,-2.426132202148438,1.017532348632812
220515,0.3772735595703125,-1.828521728515625,1.224899291992188
220516,0.540130615234375,-1.242446899414062,1.61737060546875
220517,0.5996856689453125,-0.903289794921875,1.850357055664062
220518,0.6814727783203125,-0.720458984375,1.937713623046875
220519,0.8135528564453125,-0.6092071533203125,1.868408203125
220520,0.9555511474609376,-0.50201416015625,1.750396728515625
220521,1.059722900390625,-0.330780029296875,1.559738159179688
220522,1.126205444335938,-0.0817108154296875,1.276092529296875
220523,1.128692626953125,0.12005615234375,0.9972076416015624
220524,1.022552490234375,0.2167816162109375,0.7301483154296875
220525,0.8237152099609375,0.2442779541015625,0.5071563720703125
220526,0.6036224365234375,0.1843414306640625,0.363800048828125
220527,0.420623779296875,0.1171417236328125,0.231658935546875
220528,0.3194580078125,0.088623046875,0.153900146484375
220529,0.2991943359375,0.08502197265625,0.1047210693359375
220530,0.33001708984375,0.0785064697265625,0.0508270263671875
220531,0.29998779296875,0.07830810546875,-0.060882568359375
220532,0.1393585205078125,0.102783203125,-0.24810791015625
220533,-0.031463623046875,0.1271820068359375,-0.3519439697265625
220534,-0.09429931640625,0.117919921875,-0.3309478759765625
220535,-0.08819580078125,0.091033935546875,-0.3067779541015625
220536,-0.0592041015625,0.1291656494140625,-0.2919921875
220537,-0.061187744140625,0.22509765625,-0.2373504638671875
220538,-0.0823822021484375,0.211761474609375,-0.1206207275390625
220539,-0.1517181396484375,0.0975189208984375,0.0320281982421875
220540,-0.2587890625,-0.033935546875,0.2124176025390625
220541,-0.383758544921875,-0.1162109375,0.48162841796875
220542,-0.5748138427734375,-0.28045654296875,0.8061981201171875
220543,-0.76708984375,-0.5859222412109375,1.1468505859375
220544,-0.9400634765625,-0.87109375,1.253982543945312
220545,-1.00537109375,-1.0452880859375,1.009628295898438
220546,-0.8808135986328125,-1.137176513671875,0.727142333984375
220547,-0.6697235107421875,-1.2713623046875,0.5138092041015625
220548,-0.535400390625,-1.615676879882812,0.2641143798828125
220549,-0.5343475341796875,-2.194503784179688,0.1334075927734375
220550,-0.577117919921875,-2.843917846679688,0.2003021240234375
220551,-0.6498565673828125,-2.972061157226562,0.3969268798828125
220552,-0.82135009765625,-2.521469116210938,0.6666259765625
220553,-0.7573699951171875,-2.113250732421875,1.03814697265625
220554,-0.4906768798828125,-1.820510864257812,1.0999755859375
220555,-0.4826812744140625,-1.688308715820312,0.8987579345703125
220556,-0.561309814453125,-1.506454467773438,0.8106231689453125
220557,-0.6512908935546875,-1.225662231445312,0.7409515380859375
220558,-0.5654449462890625,-0.8682861328125,0.638336181640625
220559,-0.3791351318359375,-0.596588134765625,0.49322509765625
220560,-0.188140869140625,-0.435394287109375,0.3438262939453125
220561,-0.008209228515625,-0.29888916015625,0.23065185546875
220562,0.1149139404296875,-0.1594696044921875,0.1769256591796875
220563,0.1836395263671875,-0.0390777587890625,0.19586181640625
220564,0.2403106689453125,0.091094970703125,0.258758544921875
220565,0.341583251953125,0.1966552734375,0.3946380615234375
220566,0.5028533935546875,0.28826904296875,0.520416259765625
220567,0.5899658203125,0.4543914794921875,0.576416015625
220568,0.5393829345703125,0.5997314453125,0.5136566162109375
220569,0.50860595703125,0.5267791748046875,0.364105224609375
220570,0.4498138427734375,0.3649139404296875,0.263275146484375
220571,0.30255126953125,0.2636566162109375,0.1790618896484375
220572,0.201385498046875,0.2491455078125,0.091766357421875
220573,0.17034912109375,0.253570556640625,0.0281524658203125
220574,0.1862640380859375,0.2174530029296875,0.04071044921875
220575,0.2200164794921875,0.17193603515625,0.139739990234375
220576,0.246734619140625,0.1364288330078125,0.2263031005859375
220577,0.26287841796875,0.093597412109375,0.27288818359375
220578,0.2887420654296875,-0.0113677978515625,0.3588409423828125
220579,0.342498779296875,-0.2364959716796875,0.4197845458984375
220580,0.3729400634765625,-0.501220703125,0.38421630859375
220581,0.4025115966796875,-0.675079345703125,0.42047119140625
220582,0.396240234375,-0.7238922119140625,0.704681396484375
220583,0.3621368408203125,-0.81549072265625,1.084274291992188
220584,0.3510589599609375,-1.031417846679688,1.546844482421875
220585,0.3427581787109375,-1.332962036132812,2.191131591796875
220586,0.274749755859375,-1.567611694335938,2.953445434570312
220587,0.211578369140625,-1.713104248046875,3.219070434570312
220588,0.2421417236328125,-2.099334716796875,2.831741333007812
220589,0.2590484619140625,-2.499160766601562,2.400741577148438
220590,0.344451904296875,-2.734466552734375,2.01080322265625
220591,0.333740234375,-2.497955322265625,1.35174560546875
220592,0.3797454833984375,-1.783157348632812,1.083999633789062
220593,0.4631500244140625,-1.31787109375,1.363372802734375
220594,0.54150390625,-1.069305419921875,1.66058349609375
220595,0.6600189208984375,-0.9041748046875,1.789642333984375
220596,0.872772216796875,-0.7819061279296875,1.763839721679688
220597,1.180450439453125,-0.6828765869140625,1.702987670898438
220598,1.441543579101562,-0.5588531494140625,1.514755249023438
220599,1.528350830078125,-0.3207244873046875,1.192047119140625
220600,1.50494384765625,-0.035064697265625,0.95318603515625
220601,1.422927856445312,0.1431427001953125,0.8292236328125
220602,1.25323486328125,0.20465087890625,0.6903076171875
220603,1.008987426757812,0.1648406982421875,0.4994659423828125
220604,0.7469635009765625,0.0731658935546875,0.3379669189453125
220605,0.51934814453125,0.0107574462890625,0.288543701171875
220606,0.364501953125,-0.02032470703125,0.2686920166015625
220607,0.274169921875,-0.0469207763671875,0.213470458984375
220608,0.218505859375,-0.0616302490234375,0.150360107421875
220609,0.194793701171875,-0.0690155029296875,0.09283447265625
220610,0.1745758056640625,-0.0822906494140625,0.0222625732421875
220611,0.136077880859375,-0.0941162109375,-0.0623016357421875
220612,0.0346221923828125,-0.067779541015625,-0.163970947265625
220613,-0.1008148193359375,-0.0047607421875,-0.1872406005859375
220614,-0.169036865234375,0.0711669921875,-0.109649658203125
220615,-0.16455078125,0.1536712646484375,-0.0175323486328125
220616,-0.1436309814453125,0.284332275390625,0.0385894775390625
220617,-0.1212615966796875,0.3973846435546875,0.1271820068359375
220618,-0.0926055908203125,0.355621337890625,0.2484588623046875
220619,-0.0984954833984375,0.1697540283203125,0.370269775390625
220620,-0.156402587890625,-0.0662384033203125,0.5640869140625
220621,-0.3018035888671875,-0.319427490234375,0.80877685546875
220622,-0.51007080078125,-0.6169586181640625,1.015060424804688
220623,-0.712890625,-0.9229888916015624,1.068603515625
220624,-0.8351898193359375,-1.147125244140625,0.946990966796875
220625,-0.831878662109375,-1.343734741210938,0.7475128173828125
220626,-0.765869140625,-1.598251342773438,0.636016845703125
220627,-0.71954345703125,-2.16131591796875,0.6913299560546875
220628,-0.5420074462890625,-3.179458618164062,0.6403656005859375
220629,-0.501708984375,-3.583114624023438,0.47882080078125
220630,-0.7587432861328125,-2.863189697265625,0.5
220631,-0.95867919921875,-1.980087280273438,0.68359375
220632,-0.7890625,-1.443191528320312,0.8273773193359375
220633,-0.637786865234375,-1.255401611328125,0.878692626953125
220634,-0.6705474853515625,-1.204757690429688,0.75958251953125
220635,-0.695556640625,-1.062911987304688,0.6217803955078125
220636,-0.5738067626953125,-0.9096221923828124,0.5233306884765625
220637,-0.4055023193359375,-0.8135986328125,0.4411468505859375
220638,-0.2066650390625,-0.6871795654296875,0.3801727294921875
220639,-0.0018768310546875,-0.5363006591796875,0.316253662109375
220640,0.1714019775390625,-0.3712921142578125,0.28619384765625
220641,0.158843994140625,-0.1394195556640625,0.18017578125
220642,0.2747650146484375,0.0484466552734375,0.2921142578125
220643,0.6197052001953125,0.2133941650390625,0.461761474609375
220644,0.956390380859375,0.3665924072265625,0.6890106201171875
220645,1.23944091796875,0.463470458984375,0.8122100830078125
220646,1.302444458007812,0.549102783203125,0.6359710693359375
220647,1.225799560546875,0.5346221923828125,0.5942535400390625
220648,1.0977783203125,0.3629150390625,0.7996063232421875
220649,0.86737060546875,0.2642822265625,0.6864013671875
220650,0.5838470458984375,0.2364501953125,0.460113525390625
220651,0.4058074951171875,0.22454833984375,0.3833770751953125
220652,0.3103485107421875,0.181793212890625,0.286834716796875
220653,0.2395782470703125,0.057525634765625,0.0096893310546875
220654,0.083587646484375,-0.085968017578125,-0.1713409423828125
220655,-0.1243133544921875,-0.2049713134765625,-0.5110931396484375
220656,-0.315185546875,-0.328765869140625,-0.694732666015625
220657,-0.3644561767578125,-0.4987335205078125,-0.5044403076171875
220658,-0.2166290283203125,-0.571533203125,-0.077606201171875
220659,0.0598907470703125,-0.4892425537109375,0.2974853515625
220660,0.2511749267578125,-0.398681640625,0.7110748291015625
220661,0.2904205322265625,-0.411834716796875,1.202713012695312
220662,0.3011016845703125,-0.595428466796875,1.832763671875
220663,0.3800048828125,-0.9326019287109376,2.4459228515625
220664,0.474884033203125,-1.25360107421875,2.904693603515625
220665,0.543975830078125,-1.332473754882812,3.17266845703125
220666,0.6690216064453125,-1.33660888671875,2.990463256835938
220667,0.4117431640625,-1.5697021484375,2.206588745117188
220668,0.1144866943359375,-1.853912353515625,1.83294677734375
220669,0.063690185546875,-1.975631713867188,1.626617431640625
220670,0.1263275146484375,-2.090988159179688,1.110107421875
220671,0.217864990234375,-1.837875366210938,1.363006591796875
220672,0.3068389892578125,-1.387802124023438,1.769058227539062
220673,0.484649658203125,-1.005386352539062,1.947357177734375
220674,0.60675048828125,-0.8511810302734375,2.107040405273438
220675,0.77239990234375,-0.8543243408203125,2.220382690429688
220676,1.04669189453125,-0.7370452880859375,2.141189575195312
220677,1.26165771484375,-0.4480133056640625,1.829010009765625
220678,1.3463134765625,-0.1450347900390625,1.411972045898438
220679,1.335739135742188,0.04559326171875,1.053497314453125
220680,1.222335815429688,0.1339569091796875,0.799468994140625
220681,1.024765014648438,0.121673583984375,0.634765625
220682,0.7883453369140625,0.037872314453125,0.51739501953125
220683,0.5550689697265625,-0.033050537109375,0.4375762939453125
220684,0.3720703125,-0.06683349609375,0.41448974609375
220685,0.2600250244140625,-0.08740234375,0.3901824951171875
220686,0.2100982666015625,-0.0878753662109375,0.3373260498046875
220687,0.1889190673828125,-0.07965087890625,0.2846527099609375
220688,0.1805877685546875,-0.07373046875,0.23590087890625
220689,0.1799163818359375,-0.059600830078125,0.16156005859375
220690,0.1875457763671875,-0.0475006103515625,0.060089111328125
220691,0.1806640625,-0.0315399169921875,-0.05914306640625
220692,0.1377716064453125,0.038055419921875,-0.1844940185546875
220693,0.04833984375,0.141387939453125,-0.2409515380859375
220694,-0.0685577392578125,0.209320068359375,-0.2547149658203125
220695,-0.1468505859375,0.2760772705078125,-0.1920928955078125
220696,-0.108673095703125,0.3314971923828125,-0.1067352294921875
220697,-0.06732177734375,0.28839111328125,-0.0667266845703125
220698,-0.092010498046875,0.1253204345703125,-0.002349853515625
220699,-0.1627349853515625,-0.0722503662109375,0.134979248046875
220700,-0.277618408203125,-0.2317962646484375,0.3532562255859375
220701,-0.406402587890625,-0.4264984130859375,0.6013641357421875
220702,-0.5221710205078125,-0.65472412109375,0.8174591064453125
220703,-0.642547607421875,-0.877349853515625,0.943389892578125
220704,-0.714202880859375,-1.055831909179688,0.9427337646484376
220705,-0.63580322265625,-1.20318603515625,0.7387542724609375
220706,-0.4990386962890625,-1.39404296875,0.548095703125
220707,-0.403778076171875,-1.744552612304688,0.56756591796875
220708,-0.3598480224609375,-2.386001586914062,0.576385498046875
220709,-0.3263397216796875,-3.160140991210938,0.52789306640625
220710,-0.5181427001953125,-3.486373901367188,0.4649505615234375
220711,-1.02081298828125,-3.051422119140625,0.4727935791015625
220712,-1.378585815429688,-2.29156494140625,0.48077392578125
220713,-1.213623046875,-1.70965576171875,0.6895294189453125
220714,-0.9700927734375,-1.460983276367188,0.773773193359375
220715,-0.9102935791015624,-1.309219360351562,0.630859375
220716,-0.7818450927734375,-1.184066772460938,0.5475311279296875
220717,-0.5864105224609375,-1.089935302734375,0.564239501953125
220718,-0.4150238037109375,-1.005630493164062,0.5767364501953125
220719,-0.27215576171875,-0.913299560546875,0.5467376708984375
220720,-0.1368408203125,-0.78265380859375,0.5254058837890625
220721,0.0118255615234375,-0.6197357177734375,0.498382568359375
220722,0.17315673828125,-0.474029541015625,0.496978759765625
220723,0.3456268310546875,-0.3104400634765625,0.5000762939453125
220724,0.47845458984375,-0.118988037109375,0.4647064208984375
220725,0.54681396484375,0.1342315673828125,0.392852783203125
220726,0.5132904052734375,0.3746185302734375,0.295196533203125
220727,0.516937255859375,0.5072174072265625,0.3540802001953125
220728,0.5431060791015625,0.5627899169921875,0.333160400390625
220729,0.5637664794921875,0.6094818115234375,0.272552490234375
220730,0.5712738037109375,0.6357269287109375,0.2096405029296875
220731,0.5143890380859375,0.6034698486328125,0.13079833984375
220732,0.4229736328125,0.57574462890625,0.0836944580078125
220733,0.3816375732421875,0.567596435546875,0.13275146484375
220734,0.4632110595703125,0.4980316162109375,0.2446136474609375
220735,0.613983154296875,0.3617095947265625,0.381072998046875
220736,0.7765045166015625,0.1743621826171875,0.291595458984375
220737,0.870269775390625,-0.0205078125,0.387359619140625
220738,0.8831634521484375,-0.188446044921875,0.547271728515625
220739,0.814697265625,-0.30828857421875,0.5908203125
220740,0.6967926025390625,-0.4139251708984375,0.57891845703125
220741,0.5534515380859375,-0.557403564453125,0.75225830078125
220742,0.4192352294921875,-0.686431884765625,1.22509765625
220743,0.274627685546875,-0.744537353515625,1.815872192382812
220744,0.1497344970703125,-0.868865966796875,2.296234130859375
220745,0.025634765625,-1.115310668945312,2.55267333984375
220746,-0.31036376953125,-1.416473388671875,2.352828979492188
220747,-0.7996673583984375,-1.650299072265625,1.962234497070312
220748,-0.9927520751953124,-1.915420532226562,1.689468383789062
220749,-0.7994537353515625,-2.046707153320312,1.283859252929688
220750,-0.438446044921875,-1.852920532226562,0.7726898193359375
220751,-0.1339874267578125,-1.6361083984375,0.489349365234375
220752,-0.0503692626953125,-1.479248046875,0.752655029296875
220753,-0.023101806640625,-1.396865844726562,1.242477416992188
220754,0.073699951171875,-1.338546752929688,1.64056396484375
220755,0.2503662109375,-1.190353393554688,1.862472534179688
220756,0.4385986328125,-1.028060913085938,1.899566650390625
220757,0.688629150390625,-0.985198974609375,1.854049682617188
220758,0.9625396728515624,-1.0333251953125,1.7464599609375
220759,1.138931274414062,-1.03704833984375,1.639312744140625
220760,1.238006591796875,-0.9564971923828124,1.437698364257812
220761,1.312850952148438,-0.8621978759765625,1.149520874023438
220762,1.326309204101562,-0.760406494140625,0.9127349853515624
220763,1.24676513671875,-0.6235809326171875,0.735992431640625
220764,1.115737915039062,-0.494873046875,0.6390838623046875
220765,0.96063232421875,-0.3900909423828125,0.6277618408203125
220766,0.8203582763671875,-0.300079345703125,0.665618896484375
220767,0.682037353515625,-0.229156494140625,0.6365966796875
220768,0.54010009765625,-0.16912841796875,0.5386962890625
220769,0.418853759765625,-0.08966064453125,0.431304931640625
220770,0.322998046875,-0.0003662109375,0.3100128173828125
220771,0.25189208984375,0.075958251953125,0.1846923828125
220772,0.2091217041015625,0.1266632080078125,0.10498046875
220773,0.201629638671875,0.16363525390625,0.0560455322265625
220774,0.2340240478515625,0.176788330078125,0.0426025390625
220775,0.3137054443359375,0.166351318359375,0.0450286865234375
220776,0.328826904296875,0.188079833984375,-0.057769775390625
220777,0.165069580078125,0.207611083984375,-0.2659912109375
220778,0.0004425048828125,0.186553955078125,-0.3135223388671875
220779,-0.0686492919921875,0.18328857421875,-0.2210693359375
220780,-0.0386199951171875,0.2005615234375,-0.0177459716796875
220781,-0.0070953369140625,0.205657958984375,0.1858978271484375
220782,-0.0263671875,0.1633758544921875,0.3936920166015625
220783,-0.0865325927734375,0.0742950439453125,0.682647705078125
220784,-0.2109527587890625,-0.1119537353515625,0.980682373046875
220785,-0.391326904296875,-0.417449951171875,1.213394165039062
220786,-0.59429931640625,-0.85650634765625,1.255203247070312
220787,-0.8197021484375,-1.277786254882812,1.184173583984375
220788,-0.921966552734375,-1.487014770507812,1.084503173828125
220789,-0.833099365234375,-1.5823974609375,0.8647918701171875
220790,-0.6401214599609375,-1.869918823242188,0.6454315185546875
220791,-0.3381500244140625,-2.23895263671875,0.3972015380859375
220792,-0.0058746337890625,-2.35980224609375,0.1990966796875
220793,0.1313018798828125,-2.050048828125,0.325897216796875
220794,-0.0682830810546875,-1.529098510742188,0.4868927001953125
220795,-0.4228057861328125,-1.206832885742188,0.7152862548828125
220796,-0.6985931396484375,-1.139663696289062,0.9630126953125
220797,-0.904937744140625,-1.209426879882812,1.04443359375
220798,-1.024826049804688,-1.29083251953125,0.9914398193359376
220799,-1.039459228515625,-1.256378173828125,0.9079742431640624
220800,-0.895904541015625,-1.10498046875,0.9142913818359376
220801,-0.69439697265625,-0.99664306640625,0.8484039306640625
220802,-0.549835205078125,-0.954376220703125,0.6707305908203125
220803,-0.4498748779296875,-0.9087066650390624,0.46929931640625
220804,-0.3550567626953125,-0.845916748046875,0.2934722900390625
220805,-0.2613525390625,-0.7883453369140625,0.201568603515625
220806,-0.16937255859375,-0.7251129150390625,0.1718292236328125
220807,-0.0643157958984375,-0.602508544921875,0.1873931884765625
220808,0.0058441162109375,-0.416351318359375,0.1494598388671875
220809,0.0547332763671875,-0.1952362060546875,0.1134490966796875
220810,0.2796478271484375,0.0846710205078125,0.22003173828125
220811,0.588287353515625,0.3057403564453125,0.4121856689453125
220812,0.9507293701171876,0.3654327392578125,0.646636962890625
220813,1.04730224609375,0.40142822265625,0.6265106201171875
220814,1.140472412109375,0.345367431640625,0.7440338134765625
220815,1.438735961914062,0.2962493896484375,1.393936157226562
220816,1.644668579101562,0.306549072265625,1.682235717773438
220817,1.522323608398438,0.43603515625,1.644989013671875
220818,1.264999389648438,0.3115997314453125,0.7982025146484375
220819,0.922119140625,0.0681915283203125,0.2643890380859375
220820,0.5487518310546875,-0.102294921875,0.10931396484375
220821,0.2238922119140625,-0.2187957763671875,-0.3038787841796875
220822,0.0416412353515625,-0.263702392578125,-0.441314697265625
220823,-0.1230621337890625,-0.2661285400390625,-0.1434783935546875
220824,-0.2961578369140625,-0.348907470703125,0.10595703125
220825,-0.3943939208984375,-0.567352294921875,0.2643585205078125
220826,-0.3605499267578125,-0.7946014404296875,0.4546966552734375
220827,-0.2598876953125,-0.829498291015625,0.678436279296875
220828,-0.1905059814453125,-0.6805267333984375,0.989898681640625
220829,-0.154754638671875,-0.57470703125,1.447982788085938
220830,-0.0874481201171875,-0.5706329345703125,1.824951171875
220831,-0.017791748046875,-0.635162353515625,1.949020385742188
220832,0.0440216064453125,-0.7579345703125,1.902633666992188
220833,0.116302490234375,-0.8274383544921875,1.835693359375
220834,0.2159423828125,-0.796844482421875,1.703857421875
220835,0.3707122802734375,-0.7117767333984375,1.456710815429688
220836,0.4552154541015625,-0.7100830078125,1.212371826171875
220837,0.43682861328125,-0.732421875,1.047744750976562
220838,0.3750457763671875,-0.717987060546875,1.011581420898438
220839,0.318115234375,-0.720916748046875,1.009628295898438
220840,0.280853271484375,-0.760284423828125,1.029830932617188
220841,0.227813720703125,-0.805389404296875,1.134475708007812
220842,0.1581878662109375,-0.83441162109375,1.284149169921875
220843,0.1209716796875,-0.8365631103515625,1.410018920898438
220844,0.1580657958984375,-0.8287811279296875,1.478561401367188
220845,0.29315185546875,-0.801361083984375,1.524032592773438
220846,0.4834136962890625,-0.761627197265625,1.56402587890625
220847,0.6896209716796875,-0.7513275146484375,1.58807373046875
220848,0.8694610595703125,-0.7768707275390625,1.555679321289062
220849,0.9671173095703124,-0.749176025390625,1.385543823242188
220850,0.9647064208984376,-0.6347198486328125,1.147918701171875
220851,0.9023284912109376,-0.466522216796875,0.9547271728515624
220852,0.80712890625,-0.2925262451171875,0.834503173828125
220853,0.6863555908203125,-0.1777496337890625,0.755767822265625
220854,0.5537261962890625,-0.11761474609375,0.683319091796875
220855,0.426025390625,-0.0812225341796875,0.5947113037109375
220856,0.30987548828125,-0.0639495849609375,0.4846954345703125
220857,0.21551513671875,-0.067169189453125,0.40106201171875
220858,0.1371917724609375,-0.0816650390625,0.3483734130859375
220859,0.0648651123046875,-0.1042938232421875,0.31085205078125
220860,-0.001800537109375,-0.125213623046875,0.2921600341796875
220861,-0.05157470703125,-0.1474151611328125,0.2797698974609375
220862,-0.073516845703125,-0.17327880859375,0.265838623046875
220863,-0.100433349609375,-0.19647216796875,0.2214813232421875
220864,-0.122161865234375,-0.2032623291015625,0.1598052978515625
220865,-0.1173553466796875,-0.204010009765625,0.0830078125
220866,-0.0864105224609375,-0.2224273681640625,-0.0089263916015625
220867,-0.0450439453125,-0.2535400390625,-0.0797882080078125
220868,0.014434814453125,-0.2985076904296875,-0.105133056640625
220869,0.1058502197265625,-0.368682861328125,-0.0802459716796875
220870,0.1985321044921875,-0.4582366943359375,0.0064697265625
220871,0.216522216796875,-0.606781005859375,0.1099853515625
220872,0.115814208984375,-0.791107177734375,0.21728515625
220873,-0.0076904296875,-0.9927825927734376,0.3962554931640625
220874,-0.2357025146484375,-1.180862426757812,0.6705780029296875
220875,-0.6500244140625,-1.283935546875,0.922576904296875
220876,-0.8860015869140625,-1.60345458984375,1.454483032226562
220877,-1.025283813476562,-1.680984497070312,2.06280517578125
220878,-1.055435180664062,-1.337310791015625,2.209808349609375
220879,-0.7858428955078125,-1.061874389648438,1.872848510742188
220880,-0.4365997314453125,-1.022003173828125,1.335861206054688
220881,-0.2088775634765625,-0.9072265625,0.83282470703125
220882,-0.0833892822265625,-0.7540283203125,0.5983734130859375
220883,0.018646240234375,-0.620361328125,0.569732666015625
220884,0.11480712890625,-0.4942474365234375,0.6233367919921875
220885,0.178009033203125,-0.4225921630859375,0.7236328125
220886,0.2513427734375,-0.3995819091796875,0.90509033203125
220887,0.389068603515625,-0.365997314453125,1.125762939453125
220888,0.54248046875,-0.31866455078125,1.2978515625
220889,0.6661529541015625,-0.2953338623046875,1.424224853515625
220890,0.8062744140625,-0.3814697265625,1.507781982421875
220891,0.963043212890625,-0.5347442626953125,1.56689453125
220892,1.121109008789062,-0.6900787353515625,1.633834838867188
220893,1.2081298828125,-0.7851409912109375,1.585784912109375
220894,1.314010620117188,-0.8042449951171875,1.4627685546875
220895,1.354843139648438,-0.695404052734375,1.29901123046875
220896,1.3670654296875,-0.5934906005859375,1.125839233398438
220897,1.312545776367188,-0.4799652099609375,0.9921722412109376
220898,1.188018798828125,-0.402557373046875,0.8973388671875
220899,1.012420654296875,-0.3713531494140625,0.805572509765625
220900,0.8689727783203125,-0.3168487548828125,0.749420166015625
220901,0.7885589599609375,-0.2306365966796875,0.71844482421875
220902,0.741790771484375,-0.1553497314453125,0.688262939453125
220903,0.692047119140625,-0.11419677734375,0.6623687744140625
220904,0.640289306640625,-0.1076507568359375,0.64599609375
220905,0.5995941162109375,-0.125,0.617034912109375
220906,0.5781402587890625,-0.151611328125,0.59149169921875
220907,0.56585693359375,-0.17877197265625,0.5691680908203125
220908,0.5415496826171875,-0.1986541748046875,0.5572357177734375
220909,0.4842376708984375,-0.2007904052734375,0.5537261962890625
220910,0.392059326171875,-0.206512451171875,0.5286865234375
220911,0.2788848876953125,-0.2378692626953125,0.493133544921875
220912,0.1430816650390625,-0.271148681640625,0.47027587890625
220913,-0.0499420166015625,-0.3047943115234375,0.490325927734375
220914,-0.3080291748046875,-0.38140869140625,0.50732421875
220915,-0.593048095703125,-0.4748992919921875,0.568206787109375
220916,-0.8551483154296875,-0.6037139892578125,0.6596527099609375
220917,-1.064376831054688,-0.7815399169921875,0.764923095703125
220918,-1.217010498046875,-0.9830474853515624,0.8834228515625
220919,-1.325180053710938,-1.151504516601562,0.934295654296875
220920,-1.29217529296875,-1.173202514648438,0.6968231201171875
220921,-1.123764038085938,-1.058685302734375,0.3162689208984375
220922,-0.9158172607421876,-0.962188720703125,-0.108184814453125
220923,-0.76318359375,-0.9432830810546876,-0.42822265625
220924,-0.653564453125,-0.9532470703125,-0.5030670166015625
220925,-0.600921630859375,-0.99041748046875,-0.4356231689453125
220926,-0.558349609375,-0.9585418701171876,-0.2519378662109375
220927,-0.4883575439453125,-0.874114990234375,0.0095062255859375
220928,-0.37335205078125,-0.754119873046875,0.282928466796875
220929,-0.223663330078125,-0.6226043701171875,0.5517120361328125
220930,-0.0083770751953125,-0.51373291015625,0.8244171142578125
220931,0.326690673828125,-0.432525634765625,1.092926025390625
220932,0.6502532958984375,-0.3658447265625,1.382858276367188
220933,0.959686279296875,-0.4423370361328125,1.496932983398438
220934,1.413223266601562,-0.5369873046875,1.565200805664062
220935,1.918869018554688,-0.606292724609375,1.720504760742188
220936,2.166473388671875,-0.5753326416015625,1.850006103515625
220937,2.188262939453125,-0.517608642578125,1.899093627929688
220938,2.022979736328125,-0.3587188720703125,1.52008056640625
220939,1.8509521484375,-0.23211669921875,0.9864654541015624
220940,1.758392333984375,-0.161773681640625,0.7445526123046875
220941,1.706558227539062,-0.16229248046875,0.644378662109375
220942,1.603225708007812,-0.1518707275390625,0.658477783203125
220943,1.429489135742188,-0.1197357177734375,0.65411376953125
220944,1.269866943359375,-0.1168212890625,0.65179443359375
220945,1.134765625,-0.098724365234375,0.682373046875
220946,0.983184814453125,-0.0655670166015625,0.7911834716796875
220947,0.8721466064453125,-0.0658416748046875,0.973419189453125
220948,0.80572509765625,-0.09027099609375,1.134124755859375
220949,0.7526397705078125,-0.1237945556640625,1.276199340820312
220950,0.72467041015625,-0.1999664306640625,1.395172119140625
220951,0.68890380859375,-0.33123779296875,1.431259155273438
220952,0.5889129638671875,-0.4929962158203125,1.31610107421875
220953,0.3870849609375,-0.6913604736328125,1.12060546875
220954,0.09991455078125,-0.86993408203125,0.8997344970703125
220955,-0.195953369140625,-0.9164581298828124,0.7234954833984375
220956,-0.3922882080078125,-0.8380279541015625,0.6647186279296875
220957,-0.475250244140625,-0.700897216796875,0.5246734619140625
220958,-0.5056610107421875,-0.6074371337890625,0.3742828369140625
220959,-0.5290679931640625,-0.586669921875,0.2178192138671875
220960,-0.524078369140625,-0.5911712646484375,0.038238525390625
220961,-0.4501800537109375,-0.6097564697265625,0.0231475830078125
220962,-0.3223876953125,-0.6660614013671875,0.117645263671875
220963,-0.2018890380859375,-0.755584716796875,0.2598876953125
220964,-0.1178131103515625,-0.8005523681640625,0.44561767578125
220965,-0.0556488037109375,-0.8239593505859375,0.6529541015625
220966,-0.02410888671875,-0.84405517578125,0.8042449951171875
220967,-0.0322265625,-0.8197784423828125,0.8602447509765625
220968,-0.0412139892578125,-0.76361083984375,0.847991943359375
220969,-0.0508575439453125,-0.7246551513671875,0.7795257568359375
220970,-0.04022216796875,-0.7288360595703125,0.7499847412109375
220971,0.0039520263671875,-0.7625579833984375,0.7785186767578125
220972,0.000335693359375,-0.812530517578125,0.737640380859375
220973,-0.1518402099609375,-0.8520050048828125,0.630401611328125
220974,-0.4529876708984375,-0.884613037109375,0.5576019287109375
220975,-0.816650390625,-0.930694580078125,0.5385894775390625
220976,-1.026962280273438,-0.999847412109375,0.5702362060546875
220977,-1.020950317382812,-1.030593872070312,0.5341796875
220978,-0.9019317626953124,-0.9662628173828124,0.52349853515625
220979,-0.793121337890625,-0.8708343505859375,0.5174102783203125
220980,-0.732025146484375,-0.8152313232421875,0.507049560546875
220981,-0.639556884765625,-0.724609375,0.5441436767578125
220982,-0.5595855712890625,-0.5933990478515625,0.5785369873046875
220983,-0.4417572021484375,-0.4659271240234375,0.643829345703125
220984,-0.2760009765625,-0.3260040283203125,0.7330474853515625
220985,-0.1463470458984375,-0.207275390625,0.85101318359375
220986,-0.01129150390625,-0.1697235107421875,0.92462158203125
220987,0.151885986328125,-0.18829345703125,0.943023681640625
220988,0.291900634765625,-0.181427001953125,0.924468994140625
220989,0.468353271484375,-0.1851806640625,0.882476806640625
220990,0.738800048828125,-0.216705322265625,0.8626708984375
220991,0.976654052734375,-0.2205963134765625,0.8954010009765625
220992,1.147628784179688,-0.2252349853515625,0.9269256591796876
220993,1.308746337890625,-0.251617431640625,0.911590576171875
220994,1.479248046875,-0.3145294189453125,0.8520965576171875
220995,1.585769653320312,-0.352569580078125,0.7783050537109375
220996,1.591201782226562,-0.3683013916015625,0.7249298095703125
220997,1.54345703125,-0.3601531982421875,0.736053466796875
220998,1.428237915039062,-0.3128204345703125,0.764373779296875
220999,1.26922607421875,-0.2689971923828125,0.87158203125
221000,1.114471435546875,-0.224853515625,1.042892456054688
221001,0.9821624755859376,-0.18658447265625,1.222335815429688
221002,0.865478515625,-0.1808013916015625,1.34619140625
221003,0.7421875,-0.188262939453125,1.392013549804688
221004,0.6365966796875,-0.2095184326171875,1.367568969726562
221005,0.5357818603515625,-0.221710205078125,1.27215576171875
221006,0.4385986328125,-0.2324676513671875,1.141281127929688
221007,0.358642578125,-0.2465057373046875,1.006607055664062
221008,0.2971954345703125,-0.274444580078125,0.87445068359375
221009,0.2485504150390625,-0.3023223876953125,0.7582855224609375
221010,0.19378662109375,-0.31109619140625,0.6511688232421875
221011,0.1381378173828125,-0.3120269775390625,0.5258026123046875
221012,0.111968994140625,-0.32989501953125,0.3897857666015625
221013,0.1325836181640625,-0.373138427734375,0.2811431884765625
221014,0.1949310302734375,-0.4348907470703125,0.23028564453125
221015,0.262603759765625,-0.5007476806640625,0.2220306396484375
221016,0.306549072265625,-0.5573883056640625,0.268402099609375
221017,0.3451385498046875,-0.5893707275390625,0.3734130859375
221018,0.3897705078125,-0.5982818603515625,0.507171630859375
221019,0.4324493408203125,-0.5891876220703125,0.6426849365234375
221020,0.4560394287109375,-0.570556640625,0.763763427734375
221021,0.44781494140625,-0.562896728515625,0.87335205078125
221022,0.42034912109375,-0.5672149658203125,0.985321044921875
221023,0.33050537109375,-0.5795440673828125,1.102890014648438
221024,0.1486053466796875,-0.6375885009765625,1.24847412109375
221025,-0.1010284423828125,-0.731964111328125,1.381805419921875
221026,-0.3609466552734375,-0.8412628173828125,1.480300903320312
221027,-0.5837860107421875,-0.976837158203125,1.505859375
221028,-0.7640228271484375,-1.094284057617188,1.381912231445312
221029,-0.8279876708984375,-1.044631958007812,1.077651977539062
221030,-0.800506591796875,-0.9856719970703124,0.74017333984375
221031,-0.7103118896484375,-0.967926025390625,0.447113037109375
221032,-0.56536865234375,-0.954803466796875,0.22296142578125
221033,-0.421478271484375,-0.9108734130859376,0.1081085205078125
221034,-0.320648193359375,-0.818023681640625,0.0738372802734375
221035,-0.2704010009765625,-0.724151611328125,0.097076416015625
221036,-0.2501983642578125,-0.6615447998046875,0.1741180419921875
221037,-0.237213134765625,-0.6021575927734375,0.3009796142578125
221038,-0.21405029296875,-0.5384063720703125,0.45782470703125
221039,-0.1839599609375,-0.48077392578125,0.6132659912109375
221040,-0.133270263671875,-0.4365386962890625,0.7321929931640625
221041,-0.029998779296875,-0.4218597412109375,0.8128509521484375
221042,0.1371002197265625,-0.4510498046875,0.8797149658203125
221043,0.356109619140625,-0.513824462890625,0.9862060546875
221044,0.5804595947265625,-0.5560302734375,1.13470458984375
221045,0.826690673828125,-0.5168304443359375,1.36859130859375
221046,1.155563354492188,-0.4032745361328125,1.494369506835938
221047,1.503067016601562,-0.3376922607421875,1.276168823242188
221048,1.765640258789062,-0.3727569580078125,1.063186645507812
221049,1.883636474609375,-0.3601226806640625,0.859649658203125
221050,1.86083984375,-0.218658447265625,0.758087158203125
221051,1.821319580078125,0.026397705078125,0.7983551025390625
221052,1.7822265625,0.26861572265625,0.7522735595703125
221053,1.68548583984375,0.3598785400390625,0.5742340087890625
221054,1.514297485351562,0.2398223876953125,0.549835205078125
221055,1.341156005859375,0.0723114013671875,0.5996551513671875
221056,1.203506469726562,-0.027984619140625,0.589599609375
221057,1.071853637695312,-0.135528564453125,0.5736846923828125
221058,0.991668701171875,-0.293548583984375,0.6275482177734375
221059,0.98834228515625,-0.4619140625,0.71563720703125
221060,1.00555419921875,-0.6190185546875,0.7793121337890625
221061,0.9861907958984376,-0.7577056884765625,0.83392333984375
221062,0.9119873046875,-0.8589630126953125,0.879241943359375
221063,0.7794189453125,-0.904937744140625,0.9207611083984376
221064,0.6332244873046875,-0.8894195556640625,0.9705352783203124
221065,0.5204925537109375,-0.819854736328125,1.010406494140625
221066,0.3606109619140625,-0.7324676513671875,1.052520751953125
221067,0.124908447265625,-0.668365478515625,1.134994506835938
221068,-0.0937042236328125,-0.6197662353515625,1.17059326171875
221069,-0.256072998046875,-0.589752197265625,1.139877319335938
221070,-0.354888916015625,-0.6039886474609375,1.03973388671875
221071,-0.509674072265625,-0.7628631591796875,0.850311279296875
221072,-0.6390228271484375,-0.9060211181640624,0.6186981201171875
221073,-0.7830352783203125,-0.899322509765625,0.4619140625
221074,-1.007034301757812,-0.768096923828125,0.4825897216796875
221075,-1.216720581054688,-0.5726470947265625,0.6443634033203125
221076,-1.275161743164062,-0.427734375,0.574005126953125
221077,-1.129806518554688,-0.4141998291015625,0.2693939208984375
221078,-0.929779052734375,-0.5454254150390625,0.0474090576171875
221079,-0.78387451171875,-0.7980804443359375,0.043426513671875
221080,-0.65338134765625,-0.942596435546875,0.152862548828125
221081,-0.5140380859375,-1.014846801757812,0.307525634765625
221082,-0.334014892578125,-0.9610137939453124,0.4799346923828125
221083,-0.14617919921875,-0.8800811767578125,0.6324615478515625
221084,-0.03253173828125,-0.82171630859375,0.7785491943359375
221085,-0.014373779296875,-0.7889251708984375,0.9238739013671876
221086,-0.1116790771484375,-0.7822418212890625,1.045623779296875
221087,-0.2664337158203125,-0.78961181640625,1.145767211914062
221088,-0.387176513671875,-0.7795867919921875,1.184768676757812
221089,-0.4418792724609375,-0.7703857421875,1.175338745117188
221090,-0.4637298583984375,-0.7884521484375,1.074432373046875
221091,-0.4616546630859375,-0.7824554443359375,0.9462738037109376
221092,-0.4385833740234375,-0.715667724609375,0.8250274658203125
221093,-0.402435302734375,-0.603759765625,0.692901611328125
221094,-0.360015869140625,-0.493438720703125,0.5890350341796875
221095,-0.3053131103515625,-0.4122467041015625,0.5102996826171875
221096,-0.2486724853515625,-0.344757080078125,0.4822998046875
221097,-0.199310302734375,-0.283111572265625,0.4825439453125
221098,-0.124786376953125,-0.236907958984375,0.5088958740234375
221099,0.0048828125,-0.19793701171875,0.55194091796875
221100,0.109405517578125,-0.1411590576171875,0.6168670654296875
221101,0.1992950439453125,-0.1058349609375,0.693267822265625
221102,0.363311767578125,-0.1320343017578125,0.7352752685546875
221103,0.5741729736328125,-0.146697998046875,0.7694854736328125
221104,0.7664031982421875,-0.16229248046875,0.7971649169921875
221105,0.985443115234375,-0.1370391845703125,0.8155670166015625
221106,1.249114990234375,-0.0946502685546875,0.9069976806640624
221107,1.540939331054688,-0.0794830322265625,0.9933319091796876
221108,1.792877197265625,-0.0706329345703125,1.023040771484375
221109,1.877151489257812,0.01055908203125,0.972198486328125
221110,1.760345458984375,0.096527099609375,0.87872314453125
221111,1.543502807617188,0.1196136474609375,0.80377197265625
221112,1.315078735351562,0.06500244140625,0.7979888916015625
221113,1.100555419921875,-0.0160980224609375,0.7997894287109375
221114,0.920745849609375,-0.0892791748046875,0.80755615234375
221115,0.788543701171875,-0.1568756103515625,0.8074188232421875
221116,0.7146759033203125,-0.22576904296875,0.78607177734375
221117,0.665557861328125,-0.298980712890625,0.7596588134765625
221118,0.6125946044921875,-0.3828277587890625,0.760894775390625
221119,0.537261962890625,-0.46575927734375,0.8006591796875
221120,0.4488525390625,-0.546661376953125,0.854095458984375
221121,0.379150390625,-0.63421630859375,0.927642822265625
221122,0.3128509521484375,-0.70147705078125,1.011245727539062
221123,0.2448883056640625,-0.749725341796875,1.07720947265625
221124,0.201171875,-0.79827880859375,1.115066528320312
221125,0.1912841796875,-0.8287811279296875,1.107315063476562
221126,0.198699951171875,-0.827728271484375,1.051361083984375
221127,0.20611572265625,-0.7989959716796875,0.98797607421875
221128,0.1940155029296875,-0.756256103515625,0.965850830078125
221129,0.1828765869140625,-0.7324676513671875,0.93280029296875
221130,0.1774139404296875,-0.7213592529296875,0.84857177734375
221131,0.1649322509765625,-0.71734619140625,0.771148681640625
221132,0.12109375,-0.7356109619140625,0.7152862548828125
221133,0.0142059326171875,-0.755950927734375,0.728729248046875
221134,-0.162445068359375,-0.7550811767578125,0.7638702392578125
221135,-0.3738861083984375,-0.7140350341796875,0.73419189453125
221136,-0.5601959228515625,-0.6202545166015625,0.6595611572265625
221137,-0.6395416259765625,-0.527618408203125,0.606353759765625
221138,-0.6500244140625,-0.53021240234375,0.5865631103515625
221139,-0.6683197021484375,-0.5923614501953125,0.574188232421875
221140,-0.7311859130859375,-0.6441802978515625,0.5450897216796875
221141,-0.7970123291015625,-0.6976318359375,0.47918701171875
221142,-0.8257293701171875,-0.74169921875,0.4128570556640625
221143,-0.80108642578125,-0.764556884765625,0.395843505859375
221144,-0.7505340576171875,-0.7442626953125,0.4046173095703125
221145,-0.7057037353515625,-0.729095458984375,0.3970184326171875
221146,-0.6229095458984375,-0.7496490478515625,0.399749755859375
221147,-0.5009307861328125,-0.75531005859375,0.4168243408203125
221148,-0.3682098388671875,-0.729644775390625,0.4358367919921875
221149,-0.2253570556640625,-0.6962127685546875,0.4654388427734375
221150,-0.06719970703125,-0.6691436767578125,0.523895263671875
221151,0.110748291015625,-0.6510009765625,0.6077728271484375
221152,0.27972412109375,-0.600128173828125,0.705047607421875
221153,0.417327880859375,-0.5224761962890625,0.85125732421875
221154,0.5530853271484375,-0.450439453125,1.030441284179688
221155,0.7411346435546875,-0.42266845703125,1.234375
221156,0.9526214599609376,-0.412567138671875,1.330398559570312
221157,1.153762817382812,-0.34661865234375,1.310638427734375
221158,1.320388793945312,-0.3038330078125,1.24420166015625
221159,1.481597900390625,-0.3324432373046875,1.169525146484375
221160,1.667343139648438,-0.3713226318359375,1.13006591796875
221161,1.793701171875,-0.2976226806640625,1.034957885742188
221162,1.846755981445312,-0.1781768798828125,0.88323974609375
221163,1.78912353515625,-0.0790252685546875,0.6871337890625
221164,1.607742309570312,-0.0502777099609375,0.5776214599609375
221165,1.377090454101562,-0.134368896484375,0.5330352783203125
221166,1.157699584960938,-0.217315673828125,0.5225372314453125
221167,0.9849853515625,-0.248138427734375,0.4969940185546875
221168,0.883514404296875,-0.289703369140625,0.434234619140625
221169,0.8384552001953125,-0.3496246337890625,0.374237060546875
221170,0.8248291015625,-0.3946533203125,0.385650634765625
221171,0.8207855224609375,-0.42169189453125,0.4460906982421875
221172,0.8164520263671875,-0.461669921875,0.5435333251953125
221173,0.8060760498046875,-0.5064544677734375,0.6618804931640625
221174,0.8033599853515625,-0.5337066650390625,0.7867889404296875
221175,0.8100433349609375,-0.5261383056640625,0.9018402099609376
221176,0.809295654296875,-0.4853668212890625,0.985015869140625
221177,0.7900848388671875,-0.4350738525390625,1.0355224609375
221178,0.7736053466796875,-0.402740478515625,1.069564819335938
221179,0.737762451171875,-0.375579833984375,1.098800659179688
221180,0.67584228515625,-0.3572540283203125,1.121063232421875
221181,0.6026458740234375,-0.3627471923828125,1.148513793945312
221182,0.51788330078125,-0.3737030029296875,1.139450073242188
221183,0.4503021240234375,-0.3960113525390625,1.118682861328125
221184,0.338592529296875,-0.4058837890625,1.073211669921875
221185,0.1993560791015625,-0.418426513671875,0.9715576171875
221186,0.0487060546875,-0.445953369140625,0.8355865478515625
221187,-0.145233154296875,-0.5023651123046875,0.6689910888671875
221188,-0.34759521484375,-0.5875244140625,0.5337066650390625
221189,-0.544158935546875,-0.6620330810546875,0.4438323974609375
221190,-0.785980224609375,-0.7133636474609375,0.4113311767578125
221191,-1.027740478515625,-0.7884674072265625,0.4296112060546875
221192,-1.237869262695312,-0.806732177734375,0.4757232666015625
221193,-1.265182495117188,-0.8249969482421875,0.51849365234375
221194,-1.028717041015625,-0.9333343505859376,0.516937255859375
221195,-0.8091888427734375,-0.94195556640625,0.4576873779296875
221196,-0.6468505859375,-0.8833770751953125,0.4683685302734375
221197,-0.4706268310546875,-0.802154541015625,0.51995849609375
221198,-0.2813720703125,-0.720306396484375,0.559906005859375
221199,-0.1368865966796875,-0.6492919921875,0.596954345703125
221200,-0.0632476806640625,-0.619049072265625,0.650909423828125
221201,-0.0569305419921875,-0.6292266845703125,0.7118072509765625
221202,-0.1096343994140625,-0.652618408203125,0.758941650390625
221203,-0.1837158203125,-0.6705474853515625,0.7794036865234375
221204,-0.244537353515625,-0.663055419921875,0.8011627197265625
221205,-0.27105712890625,-0.633575439453125,0.814422607421875
221206,-0.2857208251953125,-0.5942230224609375,0.81195068359375
221207,-0.3091278076171875,-0.5419464111328125,0.8066864013671875
221208,-0.315765380859375,-0.4928131103515625,0.80206298828125
221209,-0.2886199951171875,-0.4509124755859375,0.79541015625
221210,-0.219085693359375,-0.4110260009765625,0.7699432373046875
221211,-0.095703125,-0.3543701171875,0.744842529296875
221212,0.0338287353515625,-0.28814697265625,0.71881103515625
221213,0.142791748046875,-0.270660400390625,0.6989593505859375
221214,0.2475128173828125,-0.2817840576171875,0.71649169921875
221215,0.304656982421875,-0.308319091796875,0.7495269775390625
221216,0.43463134765625,-0.3777008056640625,0.760711669921875
221217,0.653411865234375,-0.3612213134765625,0.76519775390625
221218,0.851959228515625,-0.3262176513671875,0.8037872314453125
221219,1.05902099609375,-0.31207275390625,0.8550872802734375
221220,1.231857299804688,-0.287017822265625,0.9019775390625
221221,1.352340698242188,-0.2327880859375,0.9658355712890624
221222,1.435928344726562,-0.19122314453125,1.038375854492188
221223,1.480331420898438,-0.1429595947265625,1.100555419921875
221224,1.457122802734375,-0.102508544921875,1.118896484375
221225,1.33258056640625,-0.0773773193359375,1.069198608398438
221226,1.177276611328125,-0.0662841796875,1.015335083007812
221227,1.03857421875,-0.0876617431640625,0.9691314697265624
221228,0.90673828125,-0.109375,0.925750732421875
221229,0.79290771484375,-0.149017333984375,0.8950347900390625
221230,0.7006072998046875,-0.2099456787109375,0.8683013916015625
221231,0.6392364501953125,-0.292449951171875,0.8295745849609375
221232,0.59228515625,-0.3997955322265625,0.790496826171875
221233,0.528411865234375,-0.5109405517578125,0.784881591796875
221234,0.4303436279296875,-0.606719970703125,0.8382568359375
221235,0.3174591064453125,-0.68603515625,0.919464111328125
221236,0.2158660888671875,-0.74969482421875,1.0074462890625
221237,0.129974365234375,-0.7888641357421875,1.070541381835938
221238,0.067413330078125,-0.78643798828125,1.083328247070312
221239,0.0251312255859375,-0.738677978515625,1.0394287109375
221240,0.010162353515625,-0.6735076904296875,0.951202392578125
221241,0.0249176025390625,-0.6147308349609375,0.841552734375
221242,0.0641021728515625,-0.5880126953125,0.7320709228515625
221243,0.0971527099609375,-0.5967559814453125,0.64044189453125
221244,0.1144561767578125,-0.6485137939453125,0.5724639892578125
221245,0.1222076416015625,-0.7038116455078125,0.5578460693359375
221246,0.106109619140625,-0.7630462646484375,0.5878448486328125
221247,0.07049560546875,-0.8199310302734375,0.6392822265625
221248,0.016448974609375,-0.841339111328125,0.703765869140625
221249,-0.0509796142578125,-0.8243408203125,0.7672119140625
221250,-0.119964599609375,-0.786041259765625,0.810394287109375
221251,-0.171630859375,-0.74871826171875,0.8265380859375
221252,-0.2186126708984375,-0.7127838134765625,0.8284454345703125
221253,-0.2769317626953125,-0.68994140625,0.7884674072265625
221254,-0.33740234375,-0.672760009765625,0.7333831787109375
221255,-0.378997802734375,-0.6561279296875,0.6863250732421875
221256,-0.3850860595703125,-0.6419830322265625,0.6546173095703125
221257,-0.378570556640625,-0.6286163330078125,0.6369781494140625
221258,-0.3817138671875,-0.60992431640625,0.626708984375
221259,-0.379791259765625,-0.5836029052734375,0.6048583984375
221260,-0.358489990234375,-0.5533294677734375,0.5697479248046875
221261,-0.3163909912109375,-0.5231475830078125,0.5350494384765625
221262,-0.2682952880859375,-0.4998016357421875,0.5189666748046875
221263,-0.22515869140625,-0.4865570068359375,0.5159759521484375
221264,-0.18756103515625,-0.484375,0.5198211669921875
221265,-0.1499481201171875,-0.484375,0.5324554443359375
221266,-0.107757568359375,-0.47979736328125,0.548431396484375
221267,-0.0638885498046875,-0.474090576171875,0.56170654296875
221268,-0.0107574462890625,-0.4688873291015625,0.5901031494140625
221269,0.0556182861328125,-0.46826171875,0.6295013427734375
221270,0.127471923828125,-0.479644775390625,0.6965179443359375
221271,0.2083892822265625,-0.4972991943359375,0.7831268310546875
221272,0.319610595703125,-0.518646240234375,0.8929595947265625
221273,0.45849609375,-0.5399932861328125,1.02154541015625
221274,0.67376708984375,-0.553497314453125,1.170501708984375
221275,0.9475860595703124,-0.52447509765625,1.3218994140625
221276,1.227005004882812,-0.45562744140625,1.410964965820312
221277,1.502716064453125,-0.4046630859375,1.344833374023438
221278,1.713943481445312,-0.3773193359375,1.185501098632812
221279,1.76727294921875,-0.22515869140625,1.032928466796875
221280,1.670669555664062,0.05413818359375,0.8734588623046875
221281,1.544479370117188,0.2677154541015625,0.716461181640625
221282,1.406570434570312,0.3543853759765625,0.552001953125
221283,1.234283447265625,0.3367919921875,0.4161834716796875
221284,1.041900634765625,0.229400634765625,0.3668365478515625
221285,0.8778839111328125,0.0768280029296875,0.4097747802734375
221286,0.7916259765625,-0.0268096923828125,0.507110595703125
221287,0.7721099853515625,-0.128936767578125,0.5843048095703125
221288,0.770050048828125,-0.2613067626953125,0.6263275146484375
221289,0.7624664306640625,-0.4359893798828125,0.6622467041015625
221290,0.7292938232421875,-0.6486053466796875,0.7447967529296875
221291,0.67791748046875,-0.8515777587890625,0.887847900390625
221292,0.5774993896484375,-0.9906158447265624,1.05572509765625
221293,0.4619903564453125,-1.0242919921875,1.248519897460938
221294,0.381378173828125,-0.9515380859375,1.406845092773438
221295,0.261627197265625,-0.828826904296875,1.644546508789062
221296,0.0418548583984375,-0.72760009765625,1.876235961914062
221297,-0.2411346435546875,-0.6561126708984375,1.866378784179688
221298,-0.51220703125,-0.5960235595703125,1.555877685546875
221299,-0.6455230712890625,-0.6425933837890625,1.221298217773438
221300,-0.6825103759765625,-0.7856292724609375,0.915557861328125
221301,-0.7082977294921875,-0.8919219970703125,0.583526611328125
221302,-0.7547454833984375,-0.913360595703125,0.33917236328125
221303,-0.8086700439453125,-0.9544525146484376,0.1619110107421875
221304,-0.78289794921875,-0.9916839599609376,0.127960205078125
221305,-0.6456756591796875,-0.988372802734375,0.2299346923828125
221306,-0.50543212890625,-0.8999176025390625,0.306732177734375
221307,-0.3785400390625,-0.7849884033203125,0.393402099609375
221308,-0.2378082275390625,-0.66766357421875,0.4698028564453125
221309,-0.084197998046875,-0.5692138671875,0.539642333984375
221310,0.0641937255859375,-0.5181121826171875,0.580230712890625
221311,0.2057342529296875,-0.5077362060546875,0.619964599609375
221312,0.324554443359375,-0.5144805908203125,0.66375732421875
221313,0.3916168212890625,-0.5220794677734375,0.7043914794921875
221314,0.414642333984375,-0.5345916748046875,0.7494964599609375
221315,0.3299713134765625,-0.538726806640625,0.777984619140625
221316,0.1658935546875,-0.5727691650390625,0.7323455810546875
221317,0.0131683349609375,-0.644073486328125,0.66143798828125
221318,-0.13140869140625,-0.6540374755859375,0.66009521484375
221319,-0.2281951904296875,-0.6435699462890625,0.6888580322265625
221320,-0.266357421875,-0.6566925048828125,0.7409210205078125
221321,-0.267822265625,-0.6933441162109375,0.780059814453125
221322,-0.267425537109375,-0.75933837890625,0.7893829345703125
221323,-0.290069580078125,-0.8299407958984375,0.8130950927734375
221324,-0.2807464599609375,-0.8648529052734375,0.8521728515625
221325,-0.2162017822265625,-0.8206634521484375,0.8377838134765625
221326,-0.11981201171875,-0.72076416015625,0.7687225341796875
221327,-0.0293121337890625,-0.6052703857421875,0.6940460205078125
221328,0.0440216064453125,-0.50604248046875,0.6170654296875
221329,0.14312744140625,-0.4323577880859375,0.60125732421875
221330,0.2393798828125,-0.3483428955078125,0.64349365234375
221331,0.348724365234375,-0.3152008056640625,0.7261505126953125
221332,0.4665985107421875,-0.29351806640625,0.8137969970703125
221333,0.5831756591796875,-0.297821044921875,0.925689697265625
221334,0.6850433349609375,-0.2888641357421875,1.01910400390625
221335,0.79290771484375,-0.27716064453125,1.086807250976562
221336,0.9040679931640624,-0.262725830078125,1.107772827148438
221337,1.003799438476562,-0.226104736328125,1.0904541015625
221338,1.087692260742188,-0.17816162109375,1.0369873046875
221339,1.096466064453125,-0.1317901611328125,0.926971435546875
221340,1.07989501953125,-0.1297454833984375,0.8331298828125
221341,1.050140380859375,-0.1564483642578125,0.7630767822265625
221342,1.009841918945312,-0.19708251953125,0.7008819580078125
221343,0.94696044921875,-0.2312164306640625,0.68621826171875
221344,0.8656768798828125,-0.2490997314453125,0.7410125732421875
221345,0.7802734375,-0.2565155029296875,0.8431396484375
221346,0.7210540771484375,-0.271026611328125,0.9501495361328124
221347,0.6948394775390625,-0.29901123046875,1.0352783203125
221348,0.651641845703125,-0.327392578125,1.073974609375
221349,0.5688323974609375,-0.3520965576171875,1.068572998046875
221350,0.47552490234375,-0.372955322265625,1.05450439453125
221351,0.389556884765625,-0.37652587890625,1.037307739257812
221352,0.3150634765625,-0.367279052734375,1.012435913085938
221353,0.25750732421875,-0.3501739501953125,0.98895263671875
221354,0.22784423828125,-0.3285064697265625,0.94866943359375
221355,0.210418701171875,-0.30963134765625,0.8747406005859375
221356,0.222412109375,-0.315765380859375,0.7778472900390625
221357,0.247833251953125,-0.3533477783203125,0.6636810302734375
221358,0.2935028076171875,-0.4310150146484375,0.59075927734375
221359,0.3495025634765625,-0.541961669921875,0.56591796875
221360,0.38287353515625,-0.6643218994140625,0.583465576171875
221361,0.3821258544921875,-0.783294677734375,0.6387786865234375
221362,0.3404541015625,-0.8851470947265625,0.741973876953125
221363,0.2793121337890625,-0.97320556640625,0.8799896240234375
221364,0.1954803466796875,-1.036300659179688,1.01031494140625
221365,0.086669921875,-1.054000854492188,1.102706909179688
221366,-0.014068603515625,-0.9964447021484376,1.121261596679688
221367,-0.0789947509765625,-0.86175537109375,1.062271118164062
221368,-0.13836669921875,-0.692840576171875,0.936126708984375
221369,-0.1981658935546875,-0.550445556640625,0.812225341796875
221370,-0.2544403076171875,-0.5273284912109375,0.712860107421875
221371,-0.284698486328125,-0.6081085205078125,0.6080322265625
221372,-0.3133697509765625,-0.659332275390625,0.508880615234375
221373,-0.3458099365234375,-0.7114715576171875,0.4289398193359375
221374,-0.370086669921875,-0.7209014892578125,0.398895263671875
221375,-0.399658203125,-0.6065521240234375,0.45745849609375
221376,-0.4323883056640625,-0.484466552734375,0.522674560546875
221377,-0.4431304931640625,-0.4647216796875,0.563995361328125
221378,-0.4007415771484375,-0.49005126953125,0.6091766357421875
221379,-0.3421783447265625,-0.4936065673828125,0.654266357421875
221380,-0.2782440185546875,-0.4823760986328125,0.69635009765625
221381,-0.1910858154296875,-0.4614410400390625,0.7296600341796875
221382,-0.0728759765625,-0.4418487548828125,0.7511444091796875
221383,0.0617523193359375,-0.4275054931640625,0.7759246826171875
221384,0.1884613037109375,-0.4152984619140625,0.780609130859375
221385,0.3325653076171875,-0.4308013916015625,0.797119140625
221386,0.480987548828125,-0.4510650634765625,0.8093414306640625
221387,0.63323974609375,-0.4571075439453125,0.832275390625
221388,0.7651214599609375,-0.4488067626953125,0.8685150146484375
221389,0.839630126953125,-0.40911865234375,0.9103851318359376
221390,0.8986358642578125,-0.36944580078125,0.9037322998046876
221391,0.9417724609375,-0.3220062255859375,0.9051513671875
221392,0.95672607421875,-0.2841033935546875,0.928375244140625
221393,0.9468994140625,-0.240447998046875,0.884124755859375
221394,0.931915283203125,-0.19403076171875,0.8253173828125
221395,0.9261322021484376,-0.154693603515625,0.787353515625
221396,0.9105987548828124,-0.122406005859375,0.7497711181640625
221397,0.87347412109375,-0.1090087890625,0.7133941650390625
221398,0.8427734375,-0.123504638671875,0.7019195556640625
221399,0.82080078125,-0.1444091796875,0.6962127685546875
221400,0.8128662109375,-0.170806884765625,0.6986083984375
221401,0.8184814453125,-0.19525146484375,0.7335205078125
221402,0.8340911865234375,-0.218994140625,0.796661376953125
221403,0.8552703857421875,-0.251373291015625,0.8762359619140625
221404,0.884521484375,-0.2947845458984375,0.9649200439453124
221405,0.91864013671875,-0.349456787109375,1.05389404296875
221406,0.9358367919921876,-0.4103546142578125,1.137680053710938
221407,0.920166015625,-0.47808837890625,1.210739135742188
221408,0.8653411865234375,-0.540618896484375,1.253021240234375
221409,0.77362060546875,-0.583770751953125,1.2689208984375
221410,0.6198272705078125,-0.607025146484375,1.264541625976562
221411,0.413482666015625,-0.5980377197265625,1.21514892578125
221412,0.2106781005859375,-0.562957763671875,1.121627807617188
221413,0.06573486328125,-0.555023193359375,1.022232055664062
221414,-0.04931640625,-0.5706939697265625,0.93438720703125
221415,-0.157684326171875,-0.5689849853515625,0.8472747802734375
221416,-0.264678955078125,-0.582611083984375,0.754119873046875
221417,-0.367431640625,-0.59130859375,0.6892547607421875
221418,-0.4777374267578125,-0.57879638671875,0.64459228515625
221419,-0.5635986328125,-0.5594329833984375,0.6277008056640625
221420,-0.6141510009765625,-0.54693603515625,0.6272125244140625
221421,-0.58258056640625,-0.5356292724609375,0.6325531005859375
221422,-0.485321044921875,-0.528289794921875,0.60345458984375
221423,-0.3612518310546875,-0.51214599609375,0.55694580078125
221424,-0.225250244140625,-0.496124267578125,0.520751953125
221425,-0.0811309814453125,-0.4789886474609375,0.5078582763671875
221426,0.0609893798828125,-0.4637603759765625,0.5062408447265625
221427,0.1786041259765625,-0.45623779296875,0.5207366943359375
221428,0.2631988525390625,-0.4434814453125,0.55181884765625
221429,0.32647705078125,-0.46075439453125,0.5955352783203125
221430,0.3455810546875,-0.5361328125,0.6508026123046875
221431,0.3026275634765625,-0.613555908203125,0.7378692626953125
221432,0.2064666748046875,-0.6974639892578125,0.855255126953125
221433,0.0580902099609375,-0.7850341796875,1.007843017578125
221434,-0.1173095703125,-0.830596923828125,1.157562255859375
221435,-0.297027587890625,-0.7807159423828125,1.258651733398438
221436,-0.448638916015625,-0.739044189453125,1.305145263671875
221437,-0.58306884765625,-0.689788818359375,1.243637084960938
221438,-0.6016387939453125,-0.721954345703125,1.100784301757812
221439,-0.5198974609375,-0.8640899658203125,0.9469451904296876
221440,-0.442626953125,-0.8210906982421875,0.7961883544921875
221441,-0.3563079833984375,-0.621124267578125,0.645477294921875
221442,-0.262054443359375,-0.494781494140625,0.539459228515625
221443,-0.1736602783203125,-0.4863739013671875,0.514251708984375
221444,-0.0783538818359375,-0.487091064453125,0.5326385498046875
221445,0.0496063232421875,-0.467987060546875,0.590301513671875
221446,0.1797027587890625,-0.42022705078125,0.71258544921875
221447,0.288238525390625,-0.341339111328125,0.87567138671875
221448,0.38006591796875,-0.2766876220703125,1.002304077148438
221449,0.4667816162109375,-0.2432403564453125,1.046646118164062
221450,0.58685302734375,-0.2192230224609375,1.04583740234375
221451,0.718170166015625,-0.1870269775390625,1.035064697265625
221452,0.84906005859375,-0.139923095703125,1.032867431640625
221453,0.9678802490234376,-0.11761474609375,1.014602661132812
221454,1.08837890625,-0.128753662109375,0.9767913818359376
221455,1.149795532226562,-0.13714599609375,0.903961181640625
221456,1.15155029296875,-0.14105224609375,0.8497161865234375
221457,1.11328125,-0.13751220703125,0.8488311767578125
221458,1.067047119140625,-0.13250732421875,0.883331298828125
221459,1.009765625,-0.1309051513671875,0.9137420654296876
221460,0.9341278076171876,-0.155517578125,0.9337615966796876
221461,0.853057861328125,-0.2100372314453125,0.9457244873046876
221462,0.782196044921875,-0.2552337646484375,0.9421539306640624
221463,0.721099853515625,-0.277313232421875,0.9262542724609376
221464,0.65008544921875,-0.3009490966796875,0.920013427734375
221465,0.574249267578125,-0.3256072998046875,0.943359375
221466,0.4937896728515625,-0.346527099609375,0.976837158203125
221467,0.402496337890625,-0.3686065673828125,1.007949829101562
221468,0.3108978271484375,-0.3921051025390625,1.0201416015625
221469,0.2314453125,-0.4005126953125,0.9954071044921876
221470,0.1716156005859375,-0.42498779296875,0.93719482421875
221471,0.1319732666015625,-0.4704742431640625,0.8634033203125
221472,0.11309814453125,-0.5152740478515625,0.794403076171875
221473,0.114044189453125,-0.544036865234375,0.727630615234375
221474,0.1165771484375,-0.5753021240234375,0.66705322265625
221475,0.1158294677734375,-0.616180419921875,0.638671875
221476,0.0909881591796875,-0.65533447265625,0.6279754638671875
221477,0.0488739013671875,-0.679046630859375,0.6239776611328125
221478,0.019256591796875,-0.6849822998046875,0.6301116943359375
221479,0.0013580322265625,-0.6842041015625,0.6454315185546875
221480,-0.043609619140625,-0.6647491455078125,0.6682891845703125
221481,-0.1176605224609375,-0.6020965576171875,0.6938934326171875
221482,-0.16522216796875,-0.5126953125,0.7133941650390625
221483,-0.18328857421875,-0.4452972412109375,0.7250823974609375
221484,-0.1984100341796875,-0.406646728515625,0.73638916015625
221485,-0.23614501953125,-0.3729248046875,0.7294769287109375
221486,-0.2869110107421875,-0.3557586669921875,0.7151031494140625
221487,-0.3240203857421875,-0.3778533935546875,0.6607208251953125
221488,-0.37713623046875,-0.4357452392578125,0.59228515625
221489,-0.4199676513671875,-0.4973907470703125,0.57666015625
221490,-0.4470367431640625,-0.52362060546875,0.6142578125
221491,-0.4790191650390625,-0.5391693115234375,0.6738128662109375
221492,-0.4731292724609375,-0.5646209716796875,0.7384033203125
221493,-0.4023895263671875,-0.5983428955078125,0.7833404541015625
221494,-0.28369140625,-0.630889892578125,0.8109283447265625
221495,-0.146209716796875,-0.65869140625,0.842559814453125
221496,0.006683349609375,-0.672210693359375,0.8818817138671875
221497,0.17144775390625,-0.6717529296875,0.9355621337890624
221498,0.355194091796875,-0.664886474609375,0.9952545166015624
221499,0.5410614013671875,-0.6381683349609375,1.047393798828125
221500,0.715728759765625,-0.59027099609375,1.100021362304688
221501,0.837066650390625,-0.5441741943359375,1.176895141601562
221502,0.901702880859375,-0.479461669921875,1.229339599609375
221503,0.9380645751953124,-0.4120941162109375,1.24310302734375
221504,0.951416015625,-0.3291473388671875,1.237472534179688
221505,1.018600463867188,-0.2774658203125,1.181198120117188
221506,1.124114990234375,-0.200469970703125,1.071670532226562
221507,1.17022705078125,-0.1481170654296875,0.98974609375
221508,1.170318603515625,-0.1517486572265625,0.881988525390625
221509,1.132431030273438,-0.1817474365234375,0.784210205078125
221510,1.101516723632812,-0.214141845703125,0.715728759765625
221511,1.061019897460938,-0.235870361328125,0.659820556640625
221512,0.998992919921875,-0.2538299560546875,0.626251220703125
221513,0.9217987060546876,-0.2822723388671875,0.618438720703125
221514,0.827056884765625,-0.31341552734375,0.62750244140625
221515,0.73486328125,-0.3411712646484375,0.6517333984375
221516,0.6510009765625,-0.37811279296875,0.6880035400390625
221517,0.5909576416015625,-0.4352569580078125,0.7410888671875
221518,0.5445404052734375,-0.50299072265625,0.8082733154296875
221519,0.50457763671875,-0.5777740478515625,0.881378173828125
221520,0.477264404296875,-0.64373779296875,0.9547119140625
221521,0.4528045654296875,-0.685791015625,1.015121459960938
221522,0.40948486328125,-0.697479248046875,1.0706787109375
221523,0.3426971435546875,-0.688140869140625,1.118072509765625
221524,0.2452545166015625,-0.6506500244140625,1.14697265625
221525,0.1173858642578125,-0.5933685302734375,1.135818481445312
221526,-0.0383758544921875,-0.5527801513671875,1.076171875
221527,-0.191864013671875,-0.54241943359375,1.001617431640625
221528,-0.29937744140625,-0.5744781494140625,0.926300048828125
221529,-0.377288818359375,-0.622161865234375,0.8512725830078125
221530,-0.457550048828125,-0.6215667724609375,0.768463134765625
221531,-0.520751953125,-0.55877685546875,0.66119384765625
221532,-0.517547607421875,-0.5125885009765625,0.519439697265625
221533,-0.4239044189453125,-0.5337677001953125,0.3962554931640625
221534,-0.3076171875,-0.5671844482421875,0.3020477294921875
221535,-0.2081756591796875,-0.56927490234375,0.2735748291015625
221536,-0.119903564453125,-0.53729248046875,0.309661865234375
221537,-0.0386199951171875,-0.4743194580078125,0.3967132568359375
221538,0.02728271484375,-0.3922119140625,0.4981231689453125
221539,0.0941009521484375,-0.3205108642578125,0.589874267578125
221540,0.156341552734375,-0.2794342041015625,0.65863037109375
221541,0.180908203125,-0.28265380859375,0.698333740234375
221542,0.164459228515625,-0.32763671875,0.755096435546875
221543,0.1380767822265625,-0.39886474609375,0.851287841796875
221544,0.1136474609375,-0.493499755859375,0.962188720703125
221545,0.0873260498046875,-0.5975494384765625,1.101486206054688
221546,0.05841064453125,-0.70489501953125,1.2537841796875
221547,0.0323944091796875,-0.7882080078125,1.392013549804688
221548,0.0171356201171875,-0.8125457763671875,1.477462768554688
221549,0.0161590576171875,-0.801605224609375,1.45318603515625
221550,0.0585784912109375,-0.7621002197265625,1.303573608398438
221551,0.1310882568359375,-0.6666259765625,1.08978271484375
221552,0.16864013671875,-0.576202392578125,0.8900299072265625
221553,0.16796875,-0.5247344970703125,0.772857666015625
221554,0.1227569580078125,-0.4658203125,0.7227935791015625
221555,0.0659027099609375,-0.4057464599609375,0.7057342529296875
221556,0.0400238037109375,-0.353240966796875,0.701324462890625
221557,0.0411376953125,-0.3110809326171875,0.71246337890625
221558,0.084716796875,-0.2973785400390625,0.7186431884765625
221559,0.1448822021484375,-0.2874755859375,0.7528076171875
221560,0.214111328125,-0.2877197265625,0.817291259765625
221561,0.3153076171875,-0.2956390380859375,0.869720458984375
221562,0.43621826171875,-0.300201416015625,0.8887481689453125
221563,0.57568359375,-0.304351806640625,0.876922607421875
221564,0.69873046875,-0.3142242431640625,0.840423583984375
221565,0.8067474365234375,-0.3182373046875,0.765777587890625
221566,0.8751983642578125,-0.2849273681640625,0.6877593994140625
221567,0.8990478515625,-0.2584381103515625,0.6163787841796875
221568,0.8930511474609375,-0.2171630859375,0.53216552734375
221569,0.8791961669921875,-0.1821746826171875,0.4834747314453125
221570,0.874603271484375,-0.1787261962890625,0.46209716796875
221571,0.8570098876953125,-0.1995391845703125,0.453094482421875
221572,0.822601318359375,-0.2343902587890625,0.481903076171875
221573,0.7863311767578125,-0.25689697265625,0.5614776611328125
221574,0.766845703125,-0.270263671875,0.663116455078125
221575,0.75494384765625,-0.2850494384765625,0.767242431640625
221576,0.7315826416015625,-0.298309326171875,0.8672332763671875
221577,0.692840576171875,-0.3018798828125,0.9557952880859376
221578,0.6473846435546875,-0.29168701171875,1.025497436523438
221579,0.59991455078125,-0.26617431640625,1.063217163085938
221580,0.559844970703125,-0.24298095703125,1.087432861328125
221581,0.5132904052734375,-0.246826171875,1.115249633789062
221582,0.4248199462890625,-0.27593994140625,1.135345458984375
221583,0.2984466552734375,-0.3299407958984375,1.1182861328125
221584,0.1620941162109375,-0.4173736572265625,1.050949096679688
221585,0.048095703125,-0.53265380859375,0.9644012451171876
221586,-0.0037384033203125,-0.66107177734375,0.869659423828125
221587,-0.0079193115234375,-0.7804412841796875,0.78314208984375
221588,-0.0213775634765625,-0.8724517822265625,0.723663330078125
221589,-0.0397491455078125,-0.93798828125,0.700408935546875
221590,-0.037689208984375,-0.9850616455078124,0.715576171875
221591,-0.0267333984375,-1.007369995117188,0.762969970703125
221592,-0.03741455078125,-0.9707489013671876,0.8311920166015625
221593,-0.0576629638671875,-0.8608551025390625,0.8739776611328125
221594,-0.0831146240234375,-0.7085113525390625,0.8675689697265625
221595,-0.1047515869140625,-0.5652008056640625,0.8154144287109375
221596,-0.087799072265625,-0.454193115234375,0.753875732421875
221597,-0.0481109619140625,-0.379119873046875,0.695404052734375
221598,-0.011260986328125,-0.3173065185546875,0.64300537109375
221599,0.00738525390625,-0.2706146240234375,0.613555908203125
221600,0.0028839111328125,-0.270538330078125,0.607025146484375
221601,-0.013702392578125,-0.3804473876953125,0.556121826171875
221602,-0.01617431640625,-0.52728271484375,0.550445556640625
221603,-0.0501861572265625,-0.5010833740234375,0.6159820556640625
221604,-0.140960693359375,-0.4827880859375,0.655914306640625
221605,-0.1947784423828125,-0.55194091796875,0.744384765625
221606,-0.193328857421875,-0.58740234375,0.8150787353515625
221607,-0.145599365234375,-0.595367431640625,0.84881591796875
221608,-0.0635986328125,-0.594146728515625,0.8590087890625
221609,0.0482635498046875,-0.6176605224609375,0.858856201171875
221610,0.17852783203125,-0.669464111328125,0.8734130859375
221611,0.303466796875,-0.71124267578125,0.90203857421875
221612,0.422454833984375,-0.721771240234375,0.9197235107421876
221613,0.520599365234375,-0.69970703125,0.92535400390625
221614,0.5937042236328125,-0.652191162109375,0.922149658203125
221615,0.6504058837890625,-0.593536376953125,0.9200439453125
221616,0.6753692626953125,-0.526458740234375,0.9150238037109376
221617,0.687255859375,-0.4742279052734375,0.898834228515625
221618,0.6907501220703125,-0.435546875,0.877197265625
221619,0.694305419921875,-0.4066162109375,0.8641510009765625
221620,0.7131805419921875,-0.386260986328125,0.8606719970703125
221621,0.746337890625,-0.378204345703125,0.864959716796875
221622,0.7854461669921875,-0.372772216796875,0.8576507568359375
221623,0.807220458984375,-0.363555908203125,0.826873779296875
221624,0.8101806640625,-0.3475799560546875,0.77899169921875
221625,0.79779052734375,-0.327606201171875,0.7321929931640625
221626,0.7693023681640625,-0.2995758056640625,0.6900634765625
221627,0.752960205078125,-0.2749481201171875,0.6685333251953125
221628,0.74481201171875,-0.2549591064453125,0.6617279052734375
221629,0.7396697998046875,-0.26922607421875,0.66448974609375
221630,0.73028564453125,-0.2998046875,0.699798583984375
221631,0.711181640625,-0.296356201171875,0.7234954833984375
221632,0.6779327392578125,-0.28533935546875,0.732421875
221633,0.6399383544921875,-0.3044586181640625,0.77703857421875
221634,0.6193695068359375,-0.35650634765625,0.8619537353515625
221635,0.6017913818359375,-0.42156982421875,0.942230224609375
221636,0.573974609375,-0.4610137939453125,0.9691619873046876
221637,0.5586700439453125,-0.465850830078125,0.96405029296875
221638,0.55810546875,-0.4634246826171875,0.96868896484375
221639,0.5464019775390625,-0.4817657470703125,0.9777984619140624
221640,0.4906768798828125,-0.5237274169921875,0.981292724609375
221641,0.3924407958984375,-0.568756103515625,0.9649810791015624
221642,0.28265380859375,-0.6030731201171875,0.951629638671875
221643,0.1632843017578125,-0.617706298828125,0.9370269775390624
221644,0.04296875,-0.6234130859375,0.9111480712890624
221645,-0.0456390380859375,-0.60546875,0.866851806640625
221646,-0.106475830078125,-0.577667236328125,0.81182861328125
221647,-0.14019775390625,-0.574981689453125,0.7619171142578125
221648,-0.1571044921875,-0.6002044677734375,0.70050048828125
221649,-0.181915283203125,-0.6247406005859375,0.636199951171875
221650,-0.21588134765625,-0.6448516845703125,0.599090576171875
221651,-0.2431640625,-0.6609954833984375,0.5867767333984375
221652,-0.2489776611328125,-0.6705474853515625,0.56707763671875
221653,-0.2213592529296875,-0.676055908203125,0.55572509765625
221654,-0.1718292236328125,-0.67364501953125,0.5515899658203125
221655,-0.1239166259765625,-0.664642333984375,0.5519561767578125
221656,-0.06640625,-0.656585693359375,0.5668487548828125
221657,-0.0067138671875,-0.65045166015625,0.5883636474609375
221658,0.0369873046875,-0.65472412109375,0.61663818359375
221659,0.0574493408203125,-0.674652099609375,0.6728363037109375
221660,0.0343475341796875,-0.7025146484375,0.7556304931640625
221661,-0.0302886962890625,-0.7341156005859375,0.85357666015625
221662,-0.12786865234375,-0.7606201171875,0.9515380859375
221663,-0.2253875732421875,-0.75787353515625,1.04779052734375
221664,-0.2837066650390625,-0.7247314453125,1.133682250976562
221665,-0.2945098876953125,-0.7050933837890625,1.168411254882812
221666,-0.23974609375,-0.7019195556640625,1.162750244140625
221667,-0.145050048828125,-0.660430908203125,1.123245239257812
221668,-0.0629730224609375,-0.5975494384765625,1.040435791015625
221669,0.003143310546875,-0.545135498046875,0.940826416015625
221670,0.071258544921875,-0.5345611572265625,0.8544464111328125
221671,0.1481781005859375,-0.48663330078125,0.78863525390625
221672,0.229248046875,-0.4282684326171875,0.7498779296875
221673,0.29833984375,-0.3814544677734375,0.7506256103515625
221674,0.3360748291015625,-0.350067138671875,0.7794036865234375
221675,0.37664794921875,-0.339813232421875,0.83343505859375
221676,0.4023590087890625,-0.3267822265625,0.8817901611328125
221677,0.4192047119140625,-0.311920166015625,0.8992919921875
221678,0.44873046875,-0.2946319580078125,0.8865509033203125
221679,0.48004150390625,-0.279022216796875,0.8501739501953125
221680,0.519439697265625,-0.2690887451171875,0.7974090576171875
221681,0.5385894775390625,-0.2605133056640625,0.737884521484375
221682,0.5969696044921875,-0.254547119140625,0.675750732421875
221683,0.6824798583984375,-0.2342529296875,0.6326751708984375
221684,0.7410736083984375,-0.2221221923828125,0.581878662109375
221685,0.7861328125,-0.220062255859375,0.5423126220703125
221686,0.8226165771484375,-0.2325897216796875,0.5370635986328125
221687,0.855072021484375,-0.2516632080078125,0.5663604736328125
221688,0.8747711181640625,-0.2630615234375,0.6298980712890625
221689,0.8683624267578125,-0.2622528076171875,0.7095489501953125
221690,0.84881591796875,-0.2644805908203125,0.7964630126953125
221691,0.8303680419921875,-0.280517578125,0.8844451904296875
221692,0.8124542236328125,-0.312469482421875,0.9676055908203124
221693,0.797882080078125,-0.3599090576171875,1.03582763671875
221694,0.7774200439453125,-0.3955535888671875,1.091949462890625
221695,0.7321929931640625,-0.4103546142578125,1.14227294921875
221696,0.6754608154296875,-0.4149627685546875,1.1455078125
221697,0.612152099609375,-0.42333984375,1.097503662109375
221698,0.5323333740234375,-0.4283599853515625,1.029647827148438
221699,0.45062255859375,-0.4346923828125,0.96661376953125
221700,0.3635101318359375,-0.4425201416015625,0.9055328369140624
221701,0.289154052734375,-0.4669036865234375,0.82080078125
221702,0.2302093505859375,-0.510894775390625,0.7223663330078125
221703,0.1696929931640625,-0.562957763671875,0.653106689453125
221704,0.1061859130859375,-0.61376953125,0.6107940673828125
221705,0.0616302490234375,-0.6703643798828125,0.5957794189453125
221706,0.034942626953125,-0.724761962890625,0.6228485107421875
221707,0.0257720947265625,-0.7748565673828125,0.6787567138671875
221708,0.0320892333984375,-0.798187255859375,0.7633514404296875
221709,0.035888671875,-0.791473388671875,0.843780517578125
221710,0.0184173583984375,-0.7541046142578125,0.8961334228515625
221711,-0.0057220458984375,-0.6890869140625,0.91253662109375
221712,-0.027069091796875,-0.5912628173828125,0.9079132080078124
221713,-0.0551300048828125,-0.50738525390625,0.89581298828125
221714,-0.087921142578125,-0.4623870849609375,0.8577880859375
221715,-0.10247802734375,-0.468994140625,0.803558349609375
221716,-0.1019134521484375,-0.483154296875,0.7955322265625
221717,-0.1070709228515625,-0.434539794921875,0.76251220703125
221718,-0.1184539794921875,-0.3345947265625,0.684295654296875
221719,-0.121612548828125,-0.310394287109375,0.5939483642578125
221720,-0.1084747314453125,-0.3551788330078125,0.5297088623046875
221721,-0.0747528076171875,-0.3926849365234375,0.536651611328125
221722,-0.027435302734375,-0.413238525390625,0.5884857177734375
221723,0.000946044921875,-0.4291229248046875,0.6649932861328125
221724,0.014251708984375,-0.4527130126953125,0.74176025390625
221725,0.04083251953125,-0.4840545654296875,0.8008880615234375
221726,0.1031951904296875,-0.51361083984375,0.8425140380859375
221727,0.1904449462890625,-0.535308837890625,0.86834716796875
221728,0.2803802490234375,-0.5418243408203125,0.8699798583984375
221729,0.372833251953125,-0.532379150390625,0.87188720703125
221730,0.47027587890625,-0.527557373046875,0.89508056640625
221731,0.5677947998046875,-0.5362091064453125,0.9134521484375
221732,0.6602020263671875,-0.556182861328125,0.9366912841796876
221733,0.7175445556640625,-0.5624847412109375,0.9647369384765624
221734,0.73443603515625,-0.5338897705078125,0.999053955078125
221735,0.71337890625,-0.4758148193359375,1.020843505859375
221736,0.6759033203125,-0.4105377197265625,1.035125732421875
221737,0.6564788818359375,-0.3601226806640625,1.023056030273438
221738,0.6705322265625,-0.3249969482421875,0.975341796875
221739,0.7148284912109375,-0.3137969970703125,0.9087066650390624
221740,0.773681640625,-0.31707763671875,0.8492584228515625
221741,0.8215789794921875,-0.3147430419921875,0.8032073974609375
221742,0.8556976318359375,-0.312896728515625,0.7806549072265625
221743,0.8820343017578125,-0.3157958984375,0.7692718505859375
221744,0.890625,-0.318603515625,0.7774505615234375
221745,0.8804168701171875,-0.3252716064453125,0.81390380859375
221746,0.8651885986328125,-0.334686279296875,0.8650665283203125
221747,0.8842926025390625,-0.3315887451171875,0.871429443359375
221748,0.861663818359375,-0.2934417724609375,0.8396453857421875
221749,0.8226165771484375,-0.2930755615234375,0.77239990234375
221750,0.771087646484375,-0.304046630859375,0.703521728515625
221751,0.7109832763671875,-0.30743408203125,0.672149658203125
221752,0.640472412109375,-0.3155517578125,0.648712158203125
221753,0.562774658203125,-0.329437255859375,0.6437225341796875
221754,0.483184814453125,-0.346038818359375,0.6651458740234375
221755,0.4103546142578125,-0.3628997802734375,0.6959381103515625
221756,0.345794677734375,-0.3835296630859375,0.7251739501953125
221757,0.294097900390625,-0.397674560546875,0.755340576171875
221758,0.2572174072265625,-0.403656005859375,0.769805908203125
221759,0.2259674072265625,-0.4046478271484375,0.7814178466796875
221760,0.2200927734375,-0.4231109619140625,0.7990570068359375
221761,0.24041748046875,-0.44793701171875,0.854827880859375
221762,0.254547119140625,-0.469390869140625,0.9295196533203124
221763,0.2291717529296875,-0.4808807373046875,1.004714965820312
221764,0.1813812255859375,-0.4858551025390625,1.065704345703125
221765,0.1382293701171875,-0.48065185546875,1.117462158203125
221766,0.1031494140625,-0.469390869140625,1.147933959960938
221767,0.073028564453125,-0.4643402099609375,1.132110595703125
221768,0.0560150146484375,-0.4792938232421875,1.078842163085938
221769,0.0326995849609375,-0.5038604736328125,0.9919281005859376
221770,-0.0074615478515625,-0.5302734375,0.89837646484375
221771,-0.0381927490234375,-0.557647705078125,0.7894744873046875
221772,-0.0633544921875,-0.6036376953125,0.6749420166015625
221773,-0.0788421630859375,-0.6573028564453125,0.5756683349609375
221774,-0.0737762451171875,-0.697906494140625,0.5178680419921875
221775,-0.034912109375,-0.7176513671875,0.5101776123046875
221776,0.0236053466796875,-0.715789794921875,0.5189056396484375
221777,0.07537841796875,-0.697479248046875,0.5351715087890625
221778,0.116485595703125,-0.654327392578125,0.5650787353515625
221779,0.168243408203125,-0.5966949462890625,0.616455078125
221780,0.1984405517578125,-0.5414886474609375,0.6791229248046875
221781,0.186431884765625,-0.4776611328125,0.746856689453125
221782,0.1301116943359375,-0.42230224609375,0.8102569580078125
221783,0.05755615234375,-0.447296142578125,0.8717498779296875
221784,-0.0232696533203125,-0.502777099609375,0.966827392578125
221785,-0.12176513671875,-0.5714874267578125,1.069000244140625
221786,-0.1665802001953125,-0.748077392578125,1.159271240234375
221787,-0.210540771484375,-0.8099517822265625,1.15240478515625
221788,-0.2721405029296875,-0.8037567138671875,1.073562622070312
221789,-0.2802276611328125,-0.74371337890625,1.088592529296875
221790,-0.2859649658203125,-0.5956573486328125,1.073394775390625
221791,-0.2618255615234375,-0.4810333251953125,1.027511596679688
221792,-0.231964111328125,-0.434326171875,0.9483489990234376
221793,-0.2003021240234375,-0.4108428955078125,0.835540771484375
221794,-0.12969970703125,-0.3564453125,0.685150146484375
221795,-0.0540313720703125,-0.37078857421875,0.5824432373046875
221796,-0.0005035400390625,-0.3783111572265625,0.5677337646484375
221797,0.0482635498046875,-0.3551177978515625,0.57305908203125
221798,0.09814453125,-0.3342132568359375,0.5935821533203125
221799,0.1451416015625,-0.30572509765625,0.6067352294921875
221800,0.20440673828125,-0.2675018310546875,0.620941162109375
221801,0.2739105224609375,-0.233795166015625,0.63873291015625
221802,0.3771514892578125,-0.24102783203125,0.6854705810546875
221803,0.5065765380859375,-0.2728271484375,0.7573089599609375
221804,0.65850830078125,-0.3194732666015625,0.8436279296875
221805,0.79278564453125,-0.36846923828125,0.93035888671875
221806,0.8872833251953125,-0.4093170166015625,1.0264892578125
221807,0.9677581787109376,-0.4347076416015625,1.129745483398438
221808,1.04046630859375,-0.43951416015625,1.233123779296875
221809,1.0552978515625,-0.41741943359375,1.311538696289062
221810,0.98980712890625,-0.3715972900390625,1.338607788085938
221811,0.8567962646484375,-0.314422607421875,1.300155639648438
221812,0.7281036376953125,-0.2594757080078125,1.218582153320312
221813,0.6204833984375,-0.2149505615234375,1.119415283203125
221814,0.5059814453125,-0.2038421630859375,1.0164794921875
221815,0.379425048828125,-0.2291107177734375,0.9293975830078124
221816,0.25830078125,-0.28143310546875,0.8637542724609375
221817,0.1707763671875,-0.3415374755859375,0.80682373046875
221818,0.1458282470703125,-0.3999481201171875,0.7891998291015625
221819,0.1753692626953125,-0.4664306640625,0.800689697265625
221820,0.2048797607421875,-0.52398681640625,0.8404541015625
221821,0.205169677734375,-0.540008544921875,0.8882598876953125
221822,0.1932220458984375,-0.511627197265625,0.8999786376953125
221823,0.216583251953125,-0.4766845703125,0.8701019287109375
221824,0.30621337890625,-0.470458984375,0.828460693359375
221825,0.4404754638671875,-0.5171356201171875,0.801116943359375
221826,0.5391387939453125,-0.5725250244140625,0.807525634765625
221827,0.5474853515625,-0.5930633544921875,0.8506622314453125
221828,0.463836669921875,-0.5810699462890625,0.93719482421875
221829,0.3474884033203125,-0.56732177734375,1.01910400390625
221830,0.2168426513671875,-0.554351806640625,1.043106079101562
221831,0.0925140380859375,-0.53082275390625,1.011276245117188
221832,-0.0204925537109375,-0.49932861328125,0.9088134765625
221833,-0.095672607421875,-0.4898223876953125,0.7882843017578125
221834,-0.1129608154296875,-0.507965087890625,0.6793212890625
221835,-0.1077880859375,-0.508148193359375,0.579833984375
221836,-0.120635986328125,-0.4644622802734375,0.4932708740234375
221837,-0.1651153564453125,-0.411865234375,0.4203033447265625
221838,-0.2216033935546875,-0.37896728515625,0.376251220703125
221839,-0.278564453125,-0.376953125,0.351654052734375
221840,-0.3514251708984375,-0.39385986328125,0.339447021484375
221841,-0.433990478515625,-0.4357757568359375,0.3556365966796875
221842,-0.5153350830078125,-0.4823760986328125,0.4180908203125
221843,-0.533660888671875,-0.523101806640625,0.5402984619140625
221844,-0.5304718017578125,-0.553192138671875,0.64056396484375
221845,-0.5311126708984375,-0.567138671875,0.6666412353515625
221846,-0.4553985595703125,-0.59765625,0.6318359375
221847,-0.2863616943359375,-0.6776123046875,0.615325927734375
221848,-0.0655364990234375,-0.8125,0.7026824951171875
221849,0.1362762451171875,-0.8898468017578125,0.882843017578125
221850,0.2931671142578125,-0.8301849365234375,1.076583862304688
221851,0.4747161865234375,-0.7808074951171875,1.212539672851562
221852,0.6875,-0.8226318359375,1.25115966796875
221853,0.9023284912109376,-0.805572509765625,1.236190795898438
221854,1.083389282226562,-0.6612396240234375,1.205459594726562
221855,1.181686401367188,-0.4678192138671875,1.151748657226562
221856,1.19329833984375,-0.29144287109375,1.088241577148438
221857,1.149429321289062,-0.1709442138671875,1.030120849609375
221858,1.044082641601562,-0.1309356689453125,0.97955322265625
221859,1.036758422851562,-0.134307861328125,0.903411865234375
221860,1.004684448242188,-0.1081390380859375,0.8758087158203125
221861,0.948211669921875,-0.1644439697265625,0.8626556396484375
221862,0.8880767822265625,-0.2625274658203125,0.8573150634765625
221863,0.8237762451171875,-0.3596954345703125,0.890716552734375
221864,0.7714691162109375,-0.4271087646484375,0.908355712890625
221865,0.7205047607421875,-0.4607086181640625,0.885955810546875
221866,0.6749420166015625,-0.4689483642578125,0.86529541015625
221867,0.6216583251953125,-0.46307373046875,0.8385772705078125
221868,0.5555419921875,-0.452484130859375,0.8322296142578125
221869,0.4992218017578125,-0.4311370849609375,0.8488311767578125
221870,0.4606475830078125,-0.3920135498046875,0.8763275146484375
221871,0.4379119873046875,-0.3471832275390625,0.89984130859375
221872,0.411224365234375,-0.3051605224609375,0.913726806640625
221873,0.376434326171875,-0.2810821533203125,0.9333953857421876
221874,0.3385467529296875,-0.262847900390625,0.957244873046875
221875,0.3228302001953125,-0.2484893798828125,0.9803619384765624
221876,0.3195343017578125,-0.256988525390625,0.97900390625
221877,0.298828125,-0.31842041015625,0.9358978271484376
221878,0.2611083984375,-0.37786865234375,0.889068603515625
221879,0.20013427734375,-0.3944549560546875,0.8654937744140625
221880,0.118011474609375,-0.398223876953125,0.8717193603515625
221881,0.0488433837890625,-0.3969268798828125,0.9032440185546876
221882,-0.002716064453125,-0.4109649658203125,0.9124603271484376
221883,-0.0326995849609375,-0.4192657470703125,0.8775634765625
221884,-0.0157470703125,-0.409271240234375,0.805511474609375
221885,0.0410003662109375,-0.3953094482421875,0.7416534423828125
221886,0.10003662109375,-0.3791351318359375,0.7063751220703125
221887,0.1299896240234375,-0.3736572265625,0.696380615234375
221888,0.1509552001953125,-0.387481689453125,0.700408935546875
221889,0.17742919921875,-0.4139862060546875,0.696807861328125
221890,0.1897735595703125,-0.4365997314453125,0.699676513671875
221891,0.17938232421875,-0.450531005859375,0.7172698974609375
221892,0.1515350341796875,-0.4712677001953125,0.7386627197265625
221893,0.1070709228515625,-0.504486083984375,0.765106201171875
221894,0.0297393798828125,-0.5545501708984375,0.792449951171875
221895,-0.0812835693359375,-0.62530517578125,0.83404541015625
221896,-0.207672119140625,-0.7205352783203125,0.88238525390625
221897,-0.35369873046875,-0.8028564453125,0.934326171875
221898,-0.507232666015625,-0.8443450927734375,0.98187255859375
221899,-0.6068267822265625,-0.8442535400390625,0.9961700439453124
221900,-0.6434173583984375,-0.783111572265625,0.9566802978515624
221901,-0.6316986083984375,-0.662689208984375,0.883544921875
221902,-0.5630035400390625,-0.562774658203125,0.7869415283203125
221903,-0.467254638671875,-0.50225830078125,0.7174072265625
221904,-0.3652496337890625,-0.4627532958984375,0.6849212646484375
221905,-0.2679290771484375,-0.434478759765625,0.6825408935546875
221906,-0.1870269775390625,-0.394927978515625,0.7094879150390625
221907,-0.096466064453125,-0.3789520263671875,0.759124755859375
221908,0.0033111572265625,-0.3575439453125,0.8312225341796875
221909,0.0980377197265625,-0.3053436279296875,0.863494873046875
221910,0.197296142578125,-0.27001953125,0.8968048095703125
221911,0.2888946533203125,-0.232574462890625,0.9383392333984376
221912,0.38214111328125,-0.1798553466796875,0.9602813720703124
221913,0.48077392578125,-0.129180908203125,0.9718780517578124
221914,0.580291748046875,-0.09735107421875,0.999359130859375
221915,0.6708221435546875,-0.06298828125,1.054595947265625
221916,0.7180633544921875,-0.010894775390625,1.081497192382812
221917,0.7447052001953125,-0.0216064453125,1.042938232421875
221918,0.8141021728515625,-0.091156005859375,0.972808837890625
221919,0.880279541015625,-0.155242919921875,0.9064178466796876
221920,0.9361572265625,-0.2188568115234375,0.8641510009765625
221921,0.94256591796875,-0.25787353515625,0.835968017578125
221922,0.8819427490234375,-0.2954254150390625,0.8564453125
221923,0.782470703125,-0.3255462646484375,0.9112701416015624
221924,0.6666259765625,-0.3250579833984375,0.9515838623046876
221925,0.5569610595703125,-0.3190460205078125,0.962188720703125
221926,0.4461669921875,-0.3117218017578125,0.9566497802734376
221927,0.3358001708984375,-0.3126678466796875,0.947174072265625
221928,0.2446441650390625,-0.3370208740234375,0.942901611328125
221929,0.18731689453125,-0.3717193603515625,0.9398345947265624
221930,0.14849853515625,-0.4095916748046875,0.93634033203125
221931,0.1197662353515625,-0.4546661376953125,0.9343719482421876
221932,0.111602783203125,-0.5121002197265625,0.9105224609375
221933,0.1360015869140625,-0.565032958984375,0.866546630859375
