time_idx,accelerometerAccelerationX(G),accelerometerAccelerationY(G),accelerometerAccelerationZ(G)
200000,0.087371826171875,0.28155517578125,-0.170318603515625
200001,0.154876708984375,0.250762939453125,-0.18927001953125
200002,0.2752838134765625,0.2125091552734375,-0.163970947265625
200003,0.410430908203125,0.2057037353515625,-0.1237945556640625
200004,0.534423828125,0.2120819091796875,-0.0343475341796875
200005,0.6050567626953125,0.2285614013671875,0.0254669189453125
200006,0.6766357421875,0.2891845703125,0.0411224365234375
200007,0.7100677490234375,0.36083984375,0.0493316650390625
200008,0.690887451171875,0.36944580078125,0.0712738037109375
200009,0.6024169921875,0.3895111083984375,0.1001129150390625
200010,0.4607086181640625,0.40972900390625,0.110321044921875
200011,0.2908782958984375,0.406768798828125,0.076873779296875
200012,0.0830535888671875,0.3746185302734375,0.048431396484375
200013,-0.137908935546875,0.26312255859375,0.0059356689453125
200014,-0.2815704345703125,0.178253173828125,0.016021728515625
200015,-0.1327362060546875,0.173309326171875,0.123077392578125
200016,0.4554595947265625,0.157318115234375,0.195159912109375
200017,1.196014404296875,-0.0514678955078125,0.34130859375
200018,1.502059936523438,-0.2816009521484375,0.776580810546875
200019,1.404022216796875,-0.2519683837890625,2.073989868164062
200020,1.9132080078125,-0.342742919921875,3.09075927734375
200021,2.597061157226562,-0.5546417236328125,3.556640625
200022,2.443099975585938,-0.8250579833984375,4.408966064453125
200023,1.857315063476562,-1.341339111328125,4.880569458007812
200024,1.591873168945312,-1.696182250976562,4.499298095703125
200025,1.098739624023438,-2.006317138671875,3.718170166015625
200026,0.4391021728515625,-2.459518432617188,2.713424682617188
200027,0.1484527587890625,-3.12640380859375,2.044326782226562
200028,0.1971588134765625,-3.307708740234375,1.503692626953125
200029,0.145233154296875,-2.401824951171875,1.247360229492188
200030,0.0571746826171875,-1.212448120117188,0.938812255859375
200031,0.0587310791015625,-0.4788970947265625,0.8964385986328125
200032,0.253814697265625,-0.1981048583984375,1.0050048828125
200033,0.39385986328125,-0.1533660888671875,1.161697387695312
200034,0.387054443359375,-0.203948974609375,1.347091674804688
200035,0.3541107177734375,-0.1869049072265625,1.496902465820312
200036,0.372039794921875,-0.1500244140625,1.481399536132812
200037,0.45428466796875,-0.16845703125,1.25286865234375
200038,0.5103607177734375,-0.2848968505859375,0.9967803955078124
200039,0.4367218017578125,-0.484130859375,0.7003936767578125
200040,0.3171844482421875,-0.7426605224609375,0.4452362060546875
200041,0.24493408203125,-1.064300537109375,0.316864013671875
200042,0.22698974609375,-1.3341064453125,0.3875885009765625
200043,0.1590118408203125,-1.5086669921875,0.6065673828125
200044,-0.0626068115234375,-1.628921508789062,0.692962646484375
200045,-0.29925537109375,-1.710647583007812,0.5821380615234375
200046,-0.5924530029296875,-1.658782958984375,0.7677459716796875
200047,-0.9419097900390624,-1.519378662109375,0.9474029541015624
200048,-1.32000732421875,-1.197280883789062,1.001739501953125
200049,-1.454910278320312,-0.822265625,0.7605133056640625
200050,-1.250885009765625,-0.7455291748046875,0.334381103515625
200051,-0.9555816650390624,-0.8696746826171875,-0.0125885009765625
200052,-0.8524169921875,-0.8221893310546875,-0.2569732666015625
200053,-0.7642059326171875,-0.6399993896484375,-0.39178466796875
200054,-0.6072540283203125,-0.5289154052734375,-0.4425811767578125
200055,-0.4524993896484375,-0.48797607421875,-0.447601318359375
200056,-0.3467864990234375,-0.432342529296875,-0.418609619140625
200057,-0.275726318359375,-0.349761962890625,-0.3452301025390625
200058,-0.2111968994140625,-0.218780517578125,-0.229217529296875
200059,-0.136505126953125,-0.038970947265625,-0.1059417724609375
200060,-0.083099365234375,0.13873291015625,-0.0494537353515625
200061,-0.018341064453125,0.227142333984375,-0.104888916015625
200062,0.07470703125,0.2568817138671875,-0.171966552734375
200063,0.1918182373046875,0.23828125,-0.1987152099609375
200064,0.3184661865234375,0.207550048828125,-0.1658782958984375
200065,0.4429473876953125,0.204620361328125,-0.05389404296875
200066,0.578125,0.2147216796875,0.0616455078125
200067,0.660736083984375,0.2914276123046875,0.1244354248046875
200068,0.6965484619140625,0.3673858642578125,0.1577301025390625
200069,0.6685791015625,0.41748046875,0.129486083984375
200070,0.583526611328125,0.4174652099609375,0.06121826171875
200071,0.47039794921875,0.414459228515625,0.01654052734375
200072,0.33770751953125,0.4068145751953125,0.0007476806640625
200073,0.1969146728515625,0.3680419921875,-0.0276641845703125
200074,0.0537109375,0.3235321044921875,-0.07293701171875
200075,-0.148712158203125,0.2873077392578125,-0.163421630859375
200076,-0.344512939453125,0.264984130859375,-0.219146728515625
200077,-0.2232208251953125,0.2698822021484375,-0.0905303955078125
200078,0.2877197265625,0.1741790771484375,0.1268157958984375
200079,1.095489501953125,-0.1548004150390625,0.19512939453125
200080,1.62890625,-0.417999267578125,0.4566497802734375
200081,1.46966552734375,-0.160186767578125,2.1170654296875
200082,1.417343139648438,-0.1035919189453125,3.75439453125
200083,2.185272216796875,-0.9190826416015624,4.637557983398438
200084,2.127151489257812,-1.6431884765625,5.23150634765625
200085,1.916900634765625,-1.97515869140625,5.048858642578125
200086,1.544204711914062,-2.25018310546875,4.463516235351562
200087,0.5686187744140625,-2.595703125,3.22161865234375
200088,0.0351409912109375,-3.300674438476562,2.025680541992188
200089,0.13494873046875,-3.421966552734375,1.7054443359375
200090,0.41290283203125,-2.393890380859375,1.705841064453125
200091,0.4497528076171875,-1.345230102539062,1.240249633789062
200092,0.2825164794921875,-0.7130889892578125,0.9580078125
200093,0.4241790771484375,-0.389923095703125,0.979400634765625
200094,0.620697021484375,-0.30902099609375,1.140533447265625
200095,0.5889739990234375,-0.27142333984375,1.350830078125
200096,0.57598876953125,-0.15106201171875,1.507217407226562
200097,0.640777587890625,-0.042449951171875,1.51568603515625
200098,0.7055816650390625,-0.0589599609375,1.386947631835938
200099,0.652862548828125,-0.2741241455078125,1.232818603515625
200100,0.4412689208984375,-0.5181427001953125,0.9847259521484376
200101,0.2298126220703125,-0.7551422119140625,0.77593994140625
200102,0.04705810546875,-1.00067138671875,0.5809173583984375
200103,-0.0629425048828125,-1.20977783203125,0.4357757568359375
200104,-0.098968505859375,-1.352325439453125,0.430572509765625
200105,-0.1963348388671875,-1.385879516601562,0.32513427734375
200106,-0.3983917236328125,-1.357269287109375,0.1970367431640625
200107,-0.637664794921875,-1.41778564453125,0.2788238525390625
200108,-0.9207916259765624,-1.491958618164062,0.4578399658203125
200109,-1.27276611328125,-1.529632568359375,0.7220458984375
200110,-1.383636474609375,-1.508560180664062,0.821075439453125
200111,-1.231842041015625,-1.377777099609375,0.5579071044921875
200112,-1.046554565429688,-1.1734619140625,0.2776947021484375
200113,-0.912933349609375,-0.873016357421875,0.108673095703125
200114,-0.8183135986328125,-0.5836944580078125,-0.1207733154296875
200115,-0.6584320068359375,-0.426605224609375,-0.3316497802734375
200116,-0.48736572265625,-0.2791748046875,-0.4377288818359375
200117,-0.3616790771484375,-0.1439971923828125,-0.447113037109375
200118,-0.24273681640625,-0.06219482421875,-0.3708648681640625
200119,-0.133819580078125,0.0153961181640625,-0.289764404296875
200120,-0.001434326171875,0.089202880859375,-0.2160186767578125
200121,0.15472412109375,0.171966552734375,-0.1585693359375
200122,0.284210205078125,0.2169342041015625,-0.1147003173828125
200123,0.329437255859375,0.229217529296875,-0.0682830810546875
200124,0.4166717529296875,0.1836090087890625,-0.0020904541015625
200125,0.502105712890625,0.207000732421875,0.061004638671875
200126,0.575775146484375,0.267303466796875,0.0980377197265625
200127,0.6221923828125,0.316009521484375,0.1179656982421875
200128,0.6266326904296875,0.3706207275390625,0.09521484375
200129,0.6138458251953125,0.4107818603515625,0.0681915283203125
200130,0.592132568359375,0.4061126708984375,0.0376739501953125
200131,0.5264129638671875,0.356658935546875,0.0621337890625
200132,0.3876190185546875,0.260406494140625,0.03961181640625
200133,0.23101806640625,0.1973114013671875,-0.0082855224609375
200134,0.1140594482421875,0.2315521240234375,-0.0249786376953125
200135,0.0103302001953125,0.311737060546875,-0.07037353515625
200136,-0.1122283935546875,0.29779052734375,-0.15252685546875
200137,-0.1673126220703125,0.2487335205078125,-0.139373779296875
200138,-0.08056640625,0.1763763427734375,-0.098785400390625
200139,0.342742919921875,0.030242919921875,0.04534912109375
200140,1.066131591796875,-0.0703125,0.3647613525390625
200141,1.59625244140625,-0.097076416015625,0.3905181884765625
200142,1.601959228515625,0.1718292236328125,1.389968872070312
200143,1.64556884765625,0.1994781494140625,2.907180786132812
200144,2.479385375976562,-0.468292236328125,4.408676147460938
200145,2.69891357421875,-1.16064453125,5.913604736328125
200146,2.191543579101562,-1.7540283203125,5.910186767578125
200147,1.467361450195312,-2.096160888671875,4.929611206054688
200148,0.3210601806640625,-2.896942138671875,3.367446899414062
200149,-0.378326416015625,-4.23382568359375,2.20526123046875
200150,-0.3603668212890625,-4.559600830078125,1.774215698242188
200151,0.0932769775390625,-2.941787719726562,1.608734130859375
200152,0.0491180419921875,-1.124343872070312,1.151046752929688
200153,0.0368804931640625,-0.19451904296875,1.0474853515625
200154,0.404754638671875,-0.0718994140625,1.186676025390625
200155,0.5121917724609375,-0.29931640625,1.458099365234375
200156,0.5759124755859375,-0.3011932373046875,1.676605224609375
200157,0.9119720458984376,0.045623779296875,1.674468994140625
200158,1.276596069335938,0.3657073974609375,1.54302978515625
200159,1.388031005859375,0.5575408935546875,1.383331298828125
200160,1.29248046875,0.355621337890625,1.098785400390625
200161,1.05340576171875,-0.08294677734375,0.87353515625
200162,0.782623291015625,-0.3646240234375,0.661163330078125
200163,0.4616851806640625,-0.5758819580078125,0.42864990234375
200164,0.1100006103515625,-0.8548431396484375,0.3002166748046875
200165,-0.1394500732421875,-1.106002807617188,0.289337158203125
200166,-0.2656707763671875,-1.124267578125,0.348388671875
200167,-0.3747406005859375,-1.175582885742188,0.316619873046875
200168,-0.4809722900390625,-1.484359741210938,0.210357666015625
200169,-0.6706695556640625,-1.7860107421875,0.17596435546875
200170,-1.019073486328125,-1.9287109375,0.2678375244140625
200171,-1.421401977539062,-1.882186889648438,0.47869873046875
200172,-1.613418579101562,-1.599594116210938,0.5610809326171875
200173,-1.519027709960938,-1.257064819335938,0.419158935546875
200174,-1.254928588867188,-1.104873657226562,0.1650238037109375
200175,-0.9615478515625,-1.016983032226562,0.0420074462890625
200176,-0.857696533203125,-0.848663330078125,-0.061126708984375
200177,-0.7038726806640625,-0.695770263671875,-0.1985626220703125
200178,-0.4542999267578125,-0.601318359375,-0.356719970703125
200179,-0.297943115234375,-0.5203399658203125,-0.3958892822265625
200180,-0.2566986083984375,-0.4257354736328125,-0.3026580810546875
200181,-0.244720458984375,-0.3014984130859375,-0.1937255859375
200182,-0.1954345703125,-0.1193389892578125,-0.1119537353515625
200183,-0.1126251220703125,0.0495758056640625,-0.07928466796875
200184,-0.06292724609375,0.162689208984375,-0.1104888916015625
200185,-0.0338287353515625,0.2274932861328125,-0.1657562255859375
200186,0.031585693359375,0.2823028564453125,-0.20989990234375
200187,0.1750640869140625,0.331298828125,-0.218719482421875
200188,0.41412353515625,0.335296630859375,-0.2197723388671875
200189,0.6283111572265625,0.3447265625,-0.1650848388671875
200190,0.8024444580078125,0.3546295166015625,-0.0609893798828125
200191,0.950653076171875,0.3978729248046875,0.0430145263671875
200192,1.08807373046875,0.474884033203125,0.1013336181640625
200193,1.137451171875,0.50726318359375,0.14569091796875
200194,1.026382446289062,0.4807891845703125,0.1942291259765625
200195,0.7568206787109375,0.4510955810546875,0.23980712890625
200196,0.4720916748046875,0.463958740234375,0.2189178466796875
200197,0.2816925048828125,0.4580535888671875,0.1378173828125
200198,0.1224365234375,0.3925323486328125,0.0411529541015625
200199,-0.0641937255859375,0.312164306640625,-0.05975341796875
200200,-0.2290496826171875,0.2403717041015625,-0.1409149169921875
200201,-0.21563720703125,0.185211181640625,-0.1366119384765625
200202,0.1404571533203125,0.021759033203125,0.0582122802734375
200203,0.5833587646484375,-0.1034088134765625,0.456390380859375
200204,0.9018707275390624,-0.1378631591796875,0.7501373291015625
200205,0.812347412109375,-0.1598052978515625,1.845596313476562
200206,0.4705963134765625,-0.203338623046875,3.808792114257812
200207,0.598968505859375,-0.4183197021484375,5.696365356445312
200208,0.9825439453125,-1.489730834960938,6.37994384765625
200209,1.008209228515625,-2.7154541015625,5.017074584960938
200210,0.6528167724609375,-2.913543701171875,3.978256225585938
200211,0.1687774658203125,-2.91607666015625,2.475143432617188
200212,-0.173980712890625,-3.361358642578125,1.817413330078125
200213,0.126007080078125,-3.149261474609375,2.379806518554688
200214,0.6242218017578125,-2.312713623046875,1.923370361328125
200215,0.662353515625,-1.313674926757812,1.353225708007812
200216,0.7715301513671875,-0.6202392578125,1.407196044921875
200217,1.026535034179688,-0.266326904296875,1.576873779296875
200218,1.166458129882812,-0.100250244140625,1.56976318359375
200219,1.265838623046875,0.0604400634765625,1.486282348632812
200220,1.264328002929688,0.26739501953125,1.439620971679688
200221,1.202728271484375,0.3484954833984375,1.30999755859375
200222,1.080276489257812,0.265960693359375,1.060516357421875
200223,0.8551025390625,-0.00311279296875,0.8714447021484375
200224,0.567047119140625,-0.2437896728515625,0.6497039794921875
200225,0.2511749267578125,-0.433563232421875,0.416748046875
200226,-0.0374298095703125,-0.7186279296875,0.3764801025390625
200227,-0.3006134033203125,-1.094146728515625,0.4796295166015625
200228,-0.5123443603515625,-1.449783325195312,0.653564453125
200229,-0.765838623046875,-1.66815185546875,0.8504180908203125
200230,-1.14959716796875,-1.771453857421875,0.9511871337890624
200231,-1.5301513671875,-1.818527221679688,1.12689208984375
200232,-1.7066650390625,-1.653854370117188,1.046463012695312
200233,-1.664443969726562,-1.069915771484375,0.7027435302734375
200234,-1.374740600585938,-0.541015625,0.08404541015625
200235,-0.975372314453125,-0.4585418701171875,-0.4615631103515625
200236,-0.5521087646484375,-0.7245330810546875,-0.4876708984375
200237,-0.3394775390625,-0.95880126953125,-0.25640869140625
200238,-0.3785858154296875,-1.01556396484375,0.03582763671875
200239,-0.48223876953125,-0.9285736083984376,0.2090606689453125
200240,-0.440460205078125,-0.7642364501953125,0.1519317626953125
200241,-0.328765869140625,-0.59954833984375,-0.037841796875
200242,-0.2413482666015625,-0.4650421142578125,-0.2128448486328125
200243,-0.1759490966796875,-0.3396453857421875,-0.27484130859375
200244,-0.106109619140625,-0.1978607177734375,-0.2587432861328125
200245,-0.05145263671875,-0.0337982177734375,-0.216766357421875
200246,-0.0339202880859375,0.112213134765625,-0.2127838134765625
200247,-0.039215087890625,0.196990966796875,-0.2192230224609375
200248,-0.0043792724609375,0.2872161865234375,-0.2144622802734375
200249,0.053741455078125,0.33587646484375,-0.1650238037109375
200250,0.1521148681640625,0.362701416015625,-0.0460662841796875
200251,0.29638671875,0.385101318359375,0.07989501953125
200252,0.421966552734375,0.37847900390625,0.1875457763671875
200253,0.49603271484375,0.3593597412109375,0.21942138671875
200254,0.5020751953125,0.3857421875,0.2161712646484375
200255,0.5373077392578125,0.4172210693359375,0.2542724609375
200256,0.6202545166015625,0.4281768798828125,0.2256011962890625
200257,0.6738739013671875,0.3625030517578125,0.2527313232421875
200258,0.5452880859375,0.2733612060546875,0.24169921875
200259,0.2886962890625,0.26690673828125,0.1329498291015625
200260,0.0609588623046875,0.2673187255859375,-0.0232696533203125
200261,-0.1766357421875,0.196014404296875,-0.2071533203125
200262,-0.3945159912109375,0.1470947265625,-0.3347930908203125
200263,-0.2420806884765625,0.15521240234375,-0.3371429443359375
200264,0.402130126953125,0.0308380126953125,0.041015625
200265,1.150527954101562,-0.02166748046875,0.292022705078125
200266,1.458572387695312,-0.11993408203125,0.2932586669921875
200267,1.2496337890625,-0.1369781494140625,1.402679443359375
200268,1.009475708007812,-0.29168701171875,3.281875610351562
200269,1.797409057617188,-0.799224853515625,4.426544189453125
200270,2.380462646484375,-1.129608154296875,5.173843383789062
200271,2.460830688476562,-1.280044555664062,5.407363891601562
200272,2.266983032226562,-1.488845825195312,4.619979858398438
200273,1.180313110351562,-1.91156005859375,3.38671875
200274,0.485076904296875,-2.79278564453125,2.015274047851562
200275,0.415863037109375,-3.671859741210938,1.314590454101562
200276,0.50372314453125,-3.434066772460938,1.517791748046875
200277,0.436492919921875,-2.312271118164062,1.8013916015625
200278,0.0523834228515625,-1.37384033203125,1.563766479492188
200279,-0.1878509521484375,-0.711334228515625,1.371688842773438
200280,0.0498046875,-0.4806671142578125,1.272659301757812
200281,0.3101348876953125,-0.33245849609375,1.183135986328125
200282,0.553192138671875,-0.1070709228515625,1.222396850585938
200283,0.7958221435546875,0.1172332763671875,1.113601684570312
200284,0.995391845703125,0.1672210693359375,0.9700927734375
200285,1.138015747070312,0.06622314453125,0.9122161865234376
200286,1.103561401367188,-0.2068634033203125,0.822235107421875
200287,0.9405517578125,-0.527130126953125,0.650482177734375
200288,0.6284637451171875,-0.75042724609375,0.39532470703125
200289,0.2185821533203125,-0.9852142333984376,0.306640625
200290,-0.173065185546875,-1.208282470703125,0.4296112060546875
200291,-0.4605255126953125,-1.35992431640625,0.550872802734375
200292,-0.666290283203125,-1.486251831054688,0.4052276611328125
200293,-0.8514862060546875,-1.659774780273438,0.4000091552734375
200294,-0.995147705078125,-1.7486572265625,0.44073486328125
200295,-1.037200927734375,-1.643218994140625,0.499267578125
200296,-1.065383911132812,-1.346176147460938,0.603607177734375
200297,-1.08343505859375,-0.9701995849609376,0.5694580078125
200298,-0.9188232421875,-0.7730712890625,0.4166259765625
200299,-0.6345367431640625,-0.7922515869140625,0.2430419921875
200300,-0.4499969482421875,-0.769256591796875,0.05242919921875
200301,-0.427764892578125,-0.64129638671875,-0.0314788818359375
200302,-0.3758544921875,-0.54852294921875,-0.0635986328125
200303,-0.314971923828125,-0.4385223388671875,-0.1173248291015625
200304,-0.308258056640625,-0.309173583984375,-0.1573638916015625
200305,-0.31158447265625,-0.2032318115234375,-0.1164398193359375
200306,-0.3320770263671875,-0.1044769287109375,-0.02423095703125
200307,-0.3687591552734375,-0.0215301513671875,0.0253448486328125
200308,-0.4001617431640625,0.0623779296875,0.00042724609375
200309,-0.4229888916015625,0.1194000244140625,-0.15972900390625
200310,-0.355255126953125,0.1966552734375,-0.268768310546875
200311,-0.172271728515625,0.232818603515625,-0.3733062744140625
200312,0.0886383056640625,0.1778564453125,-0.406951904296875
200313,0.3478851318359375,0.190887451171875,-0.3025054931640625
200314,0.54473876953125,0.23858642578125,-0.1811370849609375
200315,0.6916961669921875,0.2100677490234375,-0.10858154296875
200316,0.7971038818359375,0.2670135498046875,-0.051971435546875
200317,0.850738525390625,0.417083740234375,-0.042877197265625
200318,0.81756591796875,0.5095367431640625,-0.0153656005859375
200319,0.7029876708984375,0.5274810791015625,0.0340118408203125
200320,0.539276123046875,0.5734405517578125,0.0513916015625
200321,0.3611907958984375,0.703765869140625,0.01519775390625
200322,0.1743011474609375,0.706573486328125,-0.022125244140625
200323,-0.012298583984375,0.6381072998046875,-0.09490966796875
200324,-0.11456298828125,0.607879638671875,-0.0878753662109375
200325,0.1328887939453125,0.5407867431640625,-0.020416259765625
200326,0.9015960693359376,0.2054443359375,0.1731719970703125
200327,1.842529296875,-0.167877197265625,0.7379608154296875
200328,1.926040649414062,0.070892333984375,1.467498779296875
200329,1.866317749023438,0.2530364990234375,2.697128295898438
200330,2.506790161132812,-0.4267120361328125,3.379013061523438
200331,2.667648315429688,-0.89520263671875,4.107406616210938
200332,2.193267822265625,-1.124725341796875,4.06707763671875
200333,1.638870239257812,-1.347015380859375,4.5145263671875
200334,1.101821899414062,-1.84112548828125,4.812149047851562
200335,0.100982666015625,-2.740005493164062,4.107894897460938
200336,-1.07763671875,-4.418197631835938,3.018341064453125
200337,-1.434127807617188,-5.367843627929688,2.386825561523438
200338,-0.5255584716796875,-3.912429809570312,1.467193603515625
200339,-0.199005126953125,-1.644927978515625,0.7889862060546875
200340,-0.4450836181640625,-0.522735595703125,0.6534576416015625
200341,-0.166046142578125,-0.3006744384765625,1.171966552734375
200342,-0.0317840576171875,-0.4331207275390625,1.478485107421875
200343,0.026336669921875,-0.256500244140625,1.481063842773438
200344,0.2849578857421875,0.0817413330078125,1.300888061523438
200345,0.58599853515625,0.1790771484375,0.986602783203125
200346,0.7977447509765625,0.0981292724609375,0.8429107666015625
200347,0.875274658203125,-0.1170196533203125,0.752777099609375
200348,0.817474365234375,-0.4351043701171875,0.690521240234375
200349,0.6847381591796875,-0.598541259765625,0.6534576416015625
200350,0.524932861328125,-0.6273193359375,0.5301361083984375
200351,0.374298095703125,-0.7091064453125,0.434295654296875
200352,0.31475830078125,-0.8652191162109375,0.4789276123046875
200353,0.2837066650390625,-1.005813598632812,0.6478424072265625
200354,0.1483154296875,-1.061843872070312,0.73992919921875
200355,-0.1075592041015625,-1.105072021484375,0.7100067138671875
200356,-0.347564697265625,-1.21490478515625,0.761688232421875
200357,-0.6766510009765625,-1.324920654296875,0.8944244384765625
200358,-1.11572265625,-1.258010864257812,0.96844482421875
200359,-1.370315551757812,-1.021835327148438,0.8811187744140625
200360,-1.171722412109375,-0.8585968017578125,0.6120758056640625
200361,-0.8354339599609375,-0.897430419921875,0.1622467041015625
200362,-0.7118988037109375,-0.8285675048828125,-0.146575927734375
200363,-0.5954132080078125,-0.6402740478515625,-0.2527008056640625
200364,-0.3725738525390625,-0.5246429443359375,-0.284149169921875
200365,-0.2149810791015625,-0.43731689453125,-0.365081787109375
200366,-0.1361236572265625,-0.3063201904296875,-0.4072418212890625
200367,-0.09429931640625,-0.1819305419921875,-0.305694580078125
200368,-0.0818634033203125,-0.0670623779296875,-0.134033203125
200369,-0.1012420654296875,0.017822265625,-0.0135040283203125
200370,-0.1048431396484375,0.066131591796875,0.0151824951171875
200371,-0.1495819091796875,0.0733489990234375,-0.01416015625
200372,-0.180389404296875,0.09881591796875,-0.110595703125
200373,-0.123077392578125,0.0785675048828125,-0.1888275146484375
200374,-0.0276641845703125,0.0521697998046875,-0.17425537109375
200375,0.1257781982421875,0.0769195556640625,-0.1195526123046875
200376,0.2596588134765625,0.0801239013671875,-0.06182861328125
200377,0.29974365234375,0.0312957763671875,-0.054840087890625
200378,0.334075927734375,0.0352020263671875,-0.0529022216796875
200379,0.37762451171875,0.08770751953125,-0.0856170654296875
200380,0.4208984375,0.1061553955078125,-0.116455078125
200381,0.41546630859375,0.070220947265625,-0.0843658447265625
200382,0.3464202880859375,0.089080810546875,-0.0296783447265625
200383,0.211639404296875,0.21356201171875,0.0003662109375
200384,0.0121307373046875,0.2950592041015625,-0.01409912109375
200385,-0.2100372314453125,0.3170013427734375,-0.0608367919921875
200386,-0.30712890625,0.2674102783203125,-0.04461669921875
200387,-0.15838623046875,0.110015869140625,0.012054443359375
200388,0.3902740478515625,0.0316925048828125,0.173187255859375
200389,1.250396728515625,-0.0245361328125,0.139556884765625
200390,1.891616821289062,-0.1085357666015625,0.7381744384765625
200391,1.874435424804688,0.07977294921875,2.35443115234375
200392,2.279037475585938,0.047454833984375,3.562606811523438
200393,3.322891235351562,-0.5561370849609375,4.721420288085938
200394,3.565887451171875,-0.947601318359375,5.389266967773438
200395,2.853805541992188,-1.184799194335938,4.734237670898438
200396,1.930999755859375,-1.762405395507812,4.191009521484375
200397,1.152877807617188,-1.998687744140625,3.615127563476562
200398,0.250732421875,-2.6668701171875,2.494903564453125
200399,-0.1588592529296875,-3.871566772460938,2.229354858398438
200400,-0.1058807373046875,-4.05322265625,1.71600341796875
200401,-0.300628662109375,-2.393203735351562,1.310653686523438
200402,-0.3828887939453125,-0.6002197265625,0.9709014892578124
200403,-0.165283203125,0.026458740234375,0.9053955078125
200404,0.1369476318359375,-0.1094512939453125,0.9656829833984376
200405,0.1386260986328125,-0.3309173583984375,1.131317138671875
200406,0.129241943359375,-0.1219940185546875,1.246124267578125
200407,0.20379638671875,0.1900787353515625,1.223403930664062
200408,0.23486328125,0.29461669921875,1.077667236328125
200409,0.22137451171875,0.152252197265625,0.934722900390625
200410,0.20111083984375,-0.13165283203125,0.81549072265625
200411,0.1217498779296875,-0.45208740234375,0.5803985595703125
200412,-0.012969970703125,-0.7846221923828125,0.423309326171875
200413,-0.162322998046875,-1.070220947265625,0.34710693359375
200414,-0.2844696044921875,-1.251861572265625,0.343780517578125
200415,-0.398773193359375,-1.392349243164062,0.59844970703125
200416,-0.5560760498046875,-1.44744873046875,0.713470458984375
200417,-0.6923370361328125,-1.582046508789062,0.3863067626953125
200418,-0.9500885009765624,-1.691116333007812,0.2664031982421875
200419,-1.181793212890625,-1.646209716796875,0.41552734375
200420,-1.175765991210938,-1.432357788085938,0.579559326171875
200421,-1.005416870117188,-1.17645263671875,0.4969635009765625
200422,-0.837188720703125,-1.079116821289062,0.4062042236328125
200423,-0.822418212890625,-0.9908294677734376,0.3003387451171875
200424,-0.75408935546875,-0.880340576171875,0.073699951171875
200425,-0.55596923828125,-0.759490966796875,-0.14837646484375
200426,-0.367401123046875,-0.572174072265625,-0.313629150390625
200427,-0.24554443359375,-0.361572265625,-0.365234375
200428,-0.165924072265625,-0.178131103515625,-0.3377685546875
200429,-0.112060546875,-0.083099365234375,-0.24798583984375
200430,-0.0757598876953125,-0.02191162109375,-0.1685791015625
200431,-0.026641845703125,0.0458831787109375,-0.1292724609375
200432,0.038238525390625,0.097930908203125,-0.16619873046875
200433,0.087554931640625,0.13641357421875,-0.2142486572265625
200434,0.15374755859375,0.1755523681640625,-0.21258544921875
200435,0.280731201171875,0.22686767578125,-0.137786865234375
200436,0.395355224609375,0.290252685546875,-0.0293426513671875
200437,0.527099609375,0.3318634033203125,0.0625
200438,0.6278839111328125,0.37945556640625,0.092559814453125
200439,0.6728515625,0.441436767578125,0.0596466064453125
200440,0.704376220703125,0.5145111083984375,-0.0224609375
200441,0.6976165771484375,0.5244140625,-0.0499114990234375
200442,0.62213134765625,0.4848785400390625,-0.0125274658203125
200443,0.4659271240234375,0.4962615966796875,-0.0320281982421875
200444,0.2831268310546875,0.478240966796875,-0.1183624267578125
200445,0.12939453125,0.338043212890625,-0.152496337890625
200446,0.067352294921875,0.2249755859375,-0.014739990234375
200447,0.01824951171875,0.3060760498046875,-0.2018280029296875
200448,0.1371917724609375,0.3778076171875,-0.1542816162109375
200449,0.515045166015625,0.270050048828125,0.006500244140625
200450,1.211318969726562,0.03143310546875,0.28857421875
200451,1.630096435546875,0.0003509521484375,0.814056396484375
200452,1.537109375,0.163665771484375,1.855880737304688
200453,1.855117797851562,-0.130615234375,2.620590209960938
200454,2.480316162109375,-0.6418914794921875,2.9765625
200455,2.80767822265625,-0.8480682373046875,3.80755615234375
200456,2.581710815429688,-0.8990478515625,4.409713745117188
200457,2.310806274414062,-1.10845947265625,4.783706665039062
200458,1.788299560546875,-1.8134765625,4.784713745117188
200459,0.5200042724609375,-2.698486328125,3.976943969726562
200460,-1.051055908203125,-4.131851196289062,3.025299072265625
200461,-1.635406494140625,-4.761810302734375,2.262802124023438
200462,-0.940185546875,-3.556045532226562,1.378326416015625
200463,-0.729095458984375,-1.6363525390625,0.7555999755859375
200464,-0.904998779296875,-0.5481414794921875,0.508758544921875
200465,-0.378021240234375,-0.3346099853515625,0.713165283203125
200466,0.0003509521484375,-0.376953125,1.00994873046875
200467,0.0869903564453125,-0.2401885986328125,1.202911376953125
200468,0.2899627685546875,0.1005706787109375,1.331298828125
200469,0.53399658203125,0.2920379638671875,1.258575439453125
200470,0.6603240966796875,0.193328857421875,1.001800537109375
200471,0.5963134765625,-0.1188201904296875,0.8996124267578125
200472,0.4968719482421875,-0.519378662109375,0.8250885009765625
200473,0.433258056640625,-0.8293304443359375,0.73974609375
200474,0.330078125,-1.009231567382812,0.630096435546875
200475,0.2235107421875,-1.098464965820312,0.6478424072265625
200476,0.19818115234375,-1.142044067382812,0.7368011474609375
200477,0.223724365234375,-1.201492309570312,0.7896881103515625
200478,0.14599609375,-1.288528442382812,0.833038330078125
200479,-0.03692626953125,-1.38818359375,0.7530517578125
200480,-0.323394775390625,-1.488601684570312,0.6971282958984375
200481,-0.6734619140625,-1.555191040039062,0.7149810791015625
200482,-1.116897583007812,-1.440826416015625,0.7491607666015625
200483,-1.41839599609375,-1.104827880859375,0.6555938720703125
200484,-1.290313720703125,-0.79437255859375,0.437896728515625
200485,-1.056167602539062,-0.72650146484375,0.1475677490234375
200486,-0.8825836181640625,-0.600494384765625,-0.07855224609375
200487,-0.648406982421875,-0.4457550048828125,-0.2923126220703125
200488,-0.4050445556640625,-0.353790283203125,-0.446502685546875
200489,-0.23248291015625,-0.23626708984375,-0.4653167724609375
200490,-0.128631591796875,-0.1124725341796875,-0.3822021484375
200491,-0.0704193115234375,-0.0129241943359375,-0.279327392578125
200492,-0.0505523681640625,0.0726165771484375,-0.19891357421875
200493,-0.031341552734375,0.1923675537109375,-0.103607177734375
200494,-0.057220458984375,0.2389373779296875,-0.098419189453125
200495,-0.0836639404296875,0.233734130859375,-0.1348876953125
200496,-0.060211181640625,0.20758056640625,-0.228179931640625
200497,-0.0191497802734375,0.1814117431640625,-0.266357421875
200498,0.061798095703125,0.1704254150390625,-0.2313079833984375
200499,0.1877593994140625,0.1597900390625,-0.18450927734375
200500,0.29779052734375,0.1580810546875,-0.10565185546875
200501,0.3673095703125,0.1902618408203125,-0.0256805419921875
200502,0.441650390625,0.227935791015625,0.002349853515625
200503,0.5699005126953125,0.2427978515625,0.0244293212890625
200504,0.6348114013671875,0.1952056884765625,0.087432861328125
200505,0.601837158203125,0.097442626953125,0.1651458740234375
200506,0.496856689453125,0.03887939453125,0.2520599365234375
200507,0.3746795654296875,0.073883056640625,0.3453216552734375
200508,0.1690521240234375,0.0930633544921875,0.3070068359375
200509,-0.1011199951171875,0.063262939453125,0.130096435546875
200510,-0.206024169921875,0.102508544921875,0.02874755859375
200511,-0.0228424072265625,0.09906005859375,-0.10809326171875
200512,0.464019775390625,0.0767669677734375,-0.0615692138671875
200513,1.235244750976562,-0.01885986328125,0.153900146484375
200514,1.897216796875,-0.1384429931640625,0.5444183349609375
200515,2.11126708984375,0.076507568359375,1.671585083007812
200516,2.120132446289062,0.349822998046875,3.193038940429688
200517,2.601516723632812,-0.1831817626953125,4.018096923828125
200518,2.517410278320312,-0.9617462158203124,4.732330322265625
200519,1.823577880859375,-1.389175415039062,4.480575561523438
200520,1.424636840820312,-1.749267578125,3.829925537109375
200521,1.089797973632812,-2.02874755859375,3.532669067382812
200522,0.6325836181640625,-2.290481567382812,3.06719970703125
200523,0.25665283203125,-3.013137817382812,2.236465454101562
200524,0.2810211181640625,-3.472686767578125,1.903167724609375
200525,0.1376953125,-2.671066284179688,1.499969482421875
200526,-0.04644775390625,-1.174713134765625,1.189193725585938
200527,0.028106689453125,-0.540313720703125,1.080581665039062
200528,0.268585205078125,-0.4389190673828125,1.125350952148438
200529,0.3455657958984375,-0.2885284423828125,1.172042846679688
200530,0.3655242919921875,-0.01885986328125,1.273635864257812
200531,0.3753662109375,0.1905364990234375,1.325485229492188
200532,0.3958587646484375,0.1743011474609375,1.269210815429688
200533,0.456298828125,0.002716064453125,1.118820190429688
200534,0.455230712890625,-0.318572998046875,0.9245452880859376
200535,0.3069610595703125,-0.6474761962890625,0.673126220703125
200536,0.1093902587890625,-0.8857879638671875,0.473907470703125
200537,-0.045684814453125,-1.060028076171875,0.3862762451171875
200538,-0.1078948974609375,-1.155426025390625,0.3655548095703125
200539,-0.0979766845703125,-1.173324584960938,0.428192138671875
200540,-0.150848388671875,-1.192047119140625,0.3972015380859375
200541,-0.234771728515625,-1.25762939453125,0.2510986328125
200542,-0.3813629150390625,-1.352432250976562,0.257720947265625
200543,-0.7097625732421875,-1.443023681640625,0.4547882080078125
200544,-1.057159423828125,-1.453094482421875,0.6639556884765625
200545,-1.196685791015625,-1.26068115234375,0.804107666015625
200546,-0.98040771484375,-0.92974853515625,0.6637115478515625
200547,-0.6228179931640625,-0.7501983642578125,0.3782501220703125
200548,-0.42999267578125,-0.673675537109375,0.1329345703125
200549,-0.339691162109375,-0.57366943359375,-0.0425262451171875
200550,-0.216461181640625,-0.432525634765625,-0.194183349609375
200551,-0.067291259765625,-0.29754638671875,-0.31048583984375
200552,0.0078125,-0.2071380615234375,-0.3275146484375
200553,-0.013397216796875,-0.147705078125,-0.2619781494140625
200554,-0.068206787109375,-0.0853271484375,-0.17291259765625
200555,-0.104644775390625,-0.0335845947265625,-0.106292724609375
200556,-0.1403045654296875,-0.011077880859375,-0.085601806640625
200557,-0.156402587890625,0.0174560546875,-0.1014404296875
200558,-0.1502838134765625,0.049560546875,-0.1736297607421875
200559,-0.1160736083984375,0.0771942138671875,-0.241668701171875
200560,0.0310821533203125,0.0994873046875,-0.19744873046875
200561,0.2376251220703125,0.07635498046875,-0.1224365234375
200562,0.359130859375,0.01806640625,-0.0454559326171875
200563,0.4151153564453125,0.0171356201171875,-0.0015411376953125
200564,0.524200439453125,0.03619384765625,0.032196044921875
200565,0.5669097900390625,0.0361480712890625,0.0861968994140625
200566,0.500640869140625,0.025970458984375,0.1576080322265625
200567,0.355926513671875,0.0282135009765625,0.268218994140625
200568,0.1462249755859375,0.057708740234375,0.3101043701171875
200569,-0.0627288818359375,0.1939544677734375,0.203369140625
200570,-0.2699737548828125,0.349151611328125,-0.051544189453125
200571,-0.4145660400390625,0.3845367431640625,-0.2041473388671875
200572,-0.28167724609375,0.2967529296875,-0.2129364013671875
200573,0.2563323974609375,0.2777862548828125,0.2061920166015625
200574,1.245010375976562,0.2205047607421875,0.2653350830078125
200575,2.116851806640625,-0.0478515625,0.2545623779296875
200576,2.161849975585938,0.19915771484375,1.37335205078125
200577,2.121170043945312,0.5509490966796875,3.401947021484375
200578,3.291397094726562,0.1851959228515625,4.247146606445312
200579,3.758941650390625,-0.1977081298828125,4.110763549804688
200580,2.965835571289062,-0.521697998046875,3.470428466796875
200581,2.16131591796875,-0.9517059326171876,2.98980712890625
200582,1.632110595703125,-1.36773681640625,3.231964111328125
200583,1.00421142578125,-1.59283447265625,3.2039794921875
200584,0.1305389404296875,-2.362716674804688,2.807052612304688
200585,-0.417236328125,-3.527496337890625,2.53314208984375
200586,-0.5560302734375,-4.15338134765625,2.384750366210938
200587,-0.5904998779296875,-3.194183349609375,1.959091186523438
200588,-0.51080322265625,-1.2049560546875,1.323257446289062
200589,-0.278533935546875,-0.165283203125,0.8714752197265625
200590,0.036834716796875,0.10443115234375,0.827178955078125
200591,0.132720947265625,0.08184814453125,0.8697662353515625
200592,0.2575225830078125,0.1657257080078125,0.9205169677734376
200593,0.434814453125,0.353240966796875,1.028793334960938
200594,0.4574127197265625,0.3542022705078125,1.066207885742188
200595,0.4096221923828125,0.034423828125,0.9329376220703124
200596,0.35382080078125,-0.2866058349609375,0.7950897216796875
200597,0.28948974609375,-0.49853515625,0.6864776611328125
200598,0.1759796142578125,-0.7093505859375,0.6215362548828125
200599,0.0634918212890625,-0.9408111572265624,0.522247314453125
200600,0.028564453125,-1.076873779296875,0.46270751953125
200601,0.023193359375,-1.0909423828125,0.4864349365234375
200602,-0.0460357666015625,-1.151412963867188,0.4449462890625
200603,-0.1208648681640625,-1.246902465820312,0.2575225830078125
200604,-0.204742431640625,-1.255340576171875,0.20361328125
200605,-0.3933258056640625,-1.29266357421875,0.3277740478515625
200606,-0.73321533203125,-1.309951782226562,0.444549560546875
200607,-0.9877166748046876,-1.136184692382812,0.533416748046875
200608,-0.968109130859375,-0.8722686767578125,0.5323333740234375
200609,-0.752593994140625,-0.6824493408203125,0.3658447265625
200610,-0.5587158203125,-0.5774078369140625,0.11309814453125
200611,-0.4006500244140625,-0.4685211181640625,-0.0961761474609375
200612,-0.2437286376953125,-0.32073974609375,-0.277496337890625
200613,-0.13275146484375,-0.179534912109375,-0.384857177734375
200614,-0.0895233154296875,-0.0863494873046875,-0.4098052978515625
200615,-0.0511627197265625,-0.0559539794921875,-0.3767852783203125
200616,-0.02008056640625,-0.077117919921875,-0.32940673828125
200617,-0.0449371337890625,-0.0967864990234375,-0.2769622802734375
200618,-0.090484619140625,-0.0541229248046875,-0.227935791015625
200619,-0.11431884765625,0.019134521484375,-0.1634521484375
200620,-0.109039306640625,0.071746826171875,-0.0766754150390625
200621,-0.050384521484375,0.0970611572265625,-0.0154266357421875
200622,0.088165283203125,0.092071533203125,0.03961181640625
200623,0.2375640869140625,0.077606201171875,0.1173248291015625
200624,0.3229522705078125,0.0769805908203125,0.2037811279296875
200625,0.37640380859375,0.0969696044921875,0.2276153564453125
200626,0.4054718017578125,0.1485443115234375,0.223236083984375
200627,0.41961669921875,0.1590118408203125,0.1998443603515625
200628,0.381072998046875,0.137054443359375,0.1765899658203125
200629,0.2962646484375,0.128021240234375,0.1562042236328125
200630,0.1988372802734375,0.2056732177734375,0.1224365234375
200631,0.0492095947265625,0.391265869140625,0.08612060546875
200632,-0.0567474365234375,0.511138916015625,0.0826568603515625
200633,0.202056884765625,0.440521240234375,0.271697998046875
200634,0.9561309814453124,0.1767578125,0.4891204833984375
200635,1.889358520507812,-0.0717926025390625,0.586334228515625
200636,2.253036499023438,0.039825439453125,1.132232666015625
200637,2.200836181640625,0.3343963623046875,2.632400512695312
200638,3.170730590820312,0.0299530029296875,4.280899047851562
200639,3.858352661132812,-0.21942138671875,4.598663330078125
200640,3.0721435546875,-0.426177978515625,3.632888793945312
200641,2.048843383789062,-0.9123382568359376,3.136474609375
200642,1.45574951171875,-1.471405029296875,2.952316284179688
200643,0.6976318359375,-1.876907348632812,3.029373168945312
200644,0.067901611328125,-2.742660522460938,2.914657592773438
200645,-0.0787506103515625,-3.87933349609375,2.4088134765625
200646,-0.16796875,-4.2608642578125,1.962921142578125
200647,-0.33642578125,-3.03662109375,1.614456176757812
200648,-0.407684326171875,-1.366729736328125,1.1634521484375
200649,-0.3079376220703125,-0.5869140625,0.795501708984375
200650,0.0457000732421875,-0.247314453125,0.7065582275390625
200651,0.3226318359375,-0.026947021484375,0.8457794189453125
200652,0.4701690673828125,0.216644287109375,0.9286651611328124
200653,0.658355712890625,0.422637939453125,1.031646728515625
200654,0.776153564453125,0.3507537841796875,1.123977661132812
200655,0.68603515625,-0.008148193359375,0.9892730712890624
200656,0.5370941162109375,-0.3440399169921875,0.77276611328125
200657,0.435760498046875,-0.5279388427734375,0.6334075927734375
200658,0.3283233642578125,-0.698760986328125,0.59442138671875
200659,0.1899566650390625,-0.8933563232421875,0.596282958984375
200660,0.0268707275390625,-1.056442260742188,0.55377197265625
200661,-0.17742919921875,-1.156158447265625,0.4600372314453125
200662,-0.4395751953125,-1.257720947265625,0.3558502197265625
200663,-0.672393798828125,-1.418624877929688,0.1852264404296875
200664,-0.8545379638671875,-1.581375122070312,0.2163238525390625
200665,-1.012008666992188,-1.692825317382812,0.281982421875
200666,-1.128646850585938,-1.595474243164062,0.3889312744140625
200667,-1.026229858398438,-1.230514526367188,0.4327850341796875
200668,-0.744384765625,-0.87078857421875,0.2207183837890625
200669,-0.49322509765625,-0.5379486083984375,-0.092529296875
200670,-0.291229248046875,-0.3062744140625,-0.2911376953125
200671,-0.15625,-0.1629791259765625,-0.3819732666015625
200672,-0.0604248046875,-0.0410919189453125,-0.4004669189453125
200673,0.0764617919921875,0.0313262939453125,-0.385833740234375
200674,0.1993255615234375,0.0207366943359375,-0.3564300537109375
200675,0.2068023681640625,-0.0529022216796875,-0.3091278076171875
200676,0.1439666748046875,-0.042510986328125,-0.266876220703125
200677,0.126739501953125,0.02099609375,-0.19586181640625
200678,0.1198883056640625,0.061920166015625,-0.093048095703125
200679,0.09112548828125,0.100311279296875,0.0064239501953125
200680,0.105377197265625,0.161163330078125,0.11383056640625
200681,0.159912109375,0.232452392578125,0.2303466796875
200682,0.2412261962890625,0.2678985595703125,0.299468994140625
200683,0.2998809814453125,0.2821502685546875,0.313079833984375
200684,0.38470458984375,0.3054046630859375,0.3209381103515625
200685,0.502166748046875,0.281097412109375,0.27838134765625
200686,0.509674072265625,0.1634674072265625,0.261474609375
200687,0.470458984375,0.07452392578125,0.287109375
200688,0.4044647216796875,0.094970703125,0.30694580078125
200689,0.2755279541015625,0.20452880859375,0.2820281982421875
200690,0.0941162109375,0.2796783447265625,0.1457672119140625
200691,0.020538330078125,0.2360687255859375,-0.0041656494140625
200692,0.28619384765625,0.1735382080078125,-0.008453369140625
200693,0.83154296875,0.083221435546875,0.2411346435546875
200694,1.347396850585938,0.0384979248046875,0.4954833984375
200695,1.570419311523438,0.183197021484375,0.8625640869140625
200696,1.645401000976562,0.4129486083984375,2.07720947265625
200697,2.055130004882812,0.2963714599609375,3.500885009765625
200698,2.631744384765625,-0.11328125,4.331390380859375
200699,2.31109619140625,-0.471282958984375,4.7171630859375
200700,1.466537475585938,-0.8058319091796875,4.571807861328125
200701,1.070693969726562,-1.482940673828125,3.886199951171875
200702,0.69805908203125,-2.203872680664062,3.166305541992188
200703,0.1799774169921875,-2.431442260742188,2.642745971679688
200704,-0.0921783447265625,-2.644012451171875,1.965621948242188
200705,-0.0562286376953125,-2.515335083007812,1.701202392578125
200706,-0.1495208740234375,-1.799911499023438,1.490707397460938
200707,-0.238433837890625,-1.033798217773438,1.213623046875
200708,-0.0933074951171875,-0.6596221923828125,1.033111572265625
200709,0.148895263671875,-0.4126129150390625,0.9605255126953124
200710,0.365631103515625,-0.2305145263671875,0.9440765380859376
200711,0.53948974609375,-0.0589141845703125,0.9893035888671876
200712,0.652069091796875,0.1685333251953125,1.066268920898438
200713,0.6802520751953125,0.271453857421875,1.026214599609375
200714,0.6332855224609375,0.16650390625,0.8759765625
200715,0.5998687744140625,-0.0292816162109375,0.727874755859375
200716,0.5330657958984375,-0.241180419921875,0.59136962890625
200717,0.4210357666015625,-0.492279052734375,0.5200347900390625
200718,0.239501953125,-0.7816925048828125,0.538238525390625
200719,-0.0404205322265625,-1.113174438476562,0.6012420654296875
200720,-0.3504791259765625,-1.350372314453125,0.5790252685546875
200721,-0.620758056640625,-1.415023803710938,0.5117034912109375
200722,-0.74261474609375,-1.3507080078125,0.41998291015625
200723,-0.7547454833984375,-1.251968383789062,0.4420166015625
200724,-0.66900634765625,-1.013092041015625,0.5696868896484375
200725,-0.5680084228515625,-0.69403076171875,0.4438934326171875
200726,-0.5579071044921875,-0.5261688232421875,0.2087860107421875
200727,-0.428192138671875,-0.26495361328125,0.058990478515625
200728,-0.2922821044921875,-0.1264495849609375,-0.1335296630859375
200729,-0.1803131103515625,-0.13323974609375,-0.234588623046875
200730,-0.0771026611328125,-0.1135711669921875,-0.2909088134765625
200731,0.0297088623046875,-0.0587310791015625,-0.3257904052734375
200732,0.0394134521484375,-0.0683135986328125,-0.359527587890625
200733,-0.0151824951171875,-0.0980682373046875,-0.4219818115234375
200734,-0.0662994384765625,-0.03466796875,-0.4654083251953125
200735,-0.1230926513671875,0.084442138671875,-0.4330902099609375
200736,-0.207275390625,0.085113525390625,-0.3991546630859375
200737,-0.294464111328125,0.0095062255859375,-0.3524017333984375
200738,-0.26873779296875,-0.0341033935546875,-0.2257232666015625
200739,-0.14422607421875,-0.0802459716796875,-0.075958251953125
200740,-0.053985595703125,-0.1418609619140625,0.03350830078125
200741,-0.005096435546875,-0.193878173828125,0.13067626953125
200742,0.0619659423828125,-0.2320098876953125,0.2363128662109375
200743,0.1993255615234375,-0.249969482421875,0.2947845458984375
200744,0.3650360107421875,-0.2933197021484375,0.32562255859375
200745,0.4761505126953125,-0.3412017822265625,0.4573211669921875
200746,0.503265380859375,-0.3235626220703125,0.6583251953125
200747,0.5164947509765625,-0.167510986328125,0.7313690185546875
200748,0.626373291015625,0.034210205078125,0.72918701171875
200749,0.895965576171875,0.1739501953125,0.8028717041015625
200750,1.231124877929688,0.27081298828125,0.8300628662109375
200751,1.487411499023438,0.2337493896484375,1.173187255859375
200752,1.872817993164062,0.1172027587890625,1.88616943359375
200753,2.56494140625,0.04730224609375,2.707382202148438
200754,3.0977783203125,0.0220947265625,3.223526000976562
200755,2.60491943359375,-0.0211029052734375,3.65142822265625
200756,1.8084716796875,-0.237548828125,3.834259033203125
200757,1.429962158203125,-0.71136474609375,3.580047607421875
200758,1.138916015625,-1.221084594726562,3.021942138671875
200759,0.7860565185546875,-1.854476928710938,2.818466186523438
200760,0.5698394775390625,-2.584808349609375,2.962142944335938
200761,0.6009979248046875,-3.249664306640625,2.442169189453125
200762,0.7026824951171875,-3.264511108398438,1.679275512695312
200763,0.4074554443359375,-2.156768798828125,1.42767333984375
200764,-0.030975341796875,-0.95306396484375,1.45355224609375
200765,0.08447265625,-0.5579986572265625,1.577072143554688
200766,0.2194366455078125,-0.9896240234375,1.514907836914062
200767,-0.0027313232421875,-1.318634033203125,1.678421020507812
200768,-0.1771697998046875,-1.231475830078125,1.709197998046875
200769,-0.234130859375,-1.137680053710938,1.585906982421875
200770,-0.246826171875,-1.054351806640625,1.201324462890625
200771,-0.2684326171875,-0.9026336669921876,0.7696990966796875
200772,-0.1248321533203125,-0.7878570556640625,0.46337890625
200773,0.1017303466796875,-0.6945953369140625,0.074951171875
200774,0.2038116455078125,-0.6436309814453125,-0.22991943359375
200775,0.0924530029296875,-0.7395172119140625,-0.354156494140625
200776,-0.1253204345703125,-0.94500732421875,-0.264434814453125
200777,-0.40020751953125,-1.112777709960938,-0.0373382568359375
200778,-0.6923828125,-1.18603515625,0.264312744140625
200779,-0.885009765625,-1.104446411132812,0.6499481201171875
200780,-0.8263397216796875,-0.7852935791015625,0.8711700439453125
200781,-0.509307861328125,-0.363189697265625,0.8272857666015625
200782,-0.2600555419921875,-0.05645751953125,0.6356964111328125
200783,-0.068450927734375,0.1353302001953125,0.41729736328125
200784,0.1712646484375,0.1527862548828125,0.291168212890625
200785,0.3131866455078125,0.0196533203125,0.1178436279296875
200786,0.3507843017578125,-0.0233154296875,-0.0584869384765625
200787,0.3950958251953125,0.038482666015625,-0.154388427734375
200788,0.4440155029296875,0.0780029296875,-0.21307373046875
200789,0.443695068359375,0.0685272216796875,-0.1951141357421875
200790,0.4587249755859375,0.0921783447265625,-0.13134765625
200791,0.4918212890625,0.0750579833984375,-0.1079254150390625
200792,0.512786865234375,-0.009552001953125,-0.056060791015625
200793,0.5267791748046875,-0.132568359375,0.0637664794921875
200794,0.4061279296875,-0.2523345947265625,0.16650390625
200795,0.2000579833984375,-0.3148040771484375,0.117706298828125
200796,-0.0533905029296875,-0.31884765625,0.0868072509765625
200797,-0.2818145751953125,-0.333953857421875,0.07806396484375
200798,-0.4420013427734375,-0.3910064697265625,0.181396484375
200799,-0.5731201171875,-0.4654998779296875,0.384765625
200800,-0.759765625,-0.4958648681640625,0.710784912109375
200801,-1.04730224609375,-0.5044097900390625,0.9453887939453124
200802,-1.346038818359375,-0.5390625,0.7488861083984375
200803,-1.524185180664062,-0.6335601806640625,0.3863983154296875
200804,-1.307403564453125,-0.8532867431640625,0.1644287109375
200805,-0.7663116455078125,-1.199005126953125,0.0927734375
200806,-0.20684814453125,-1.357864379882812,0.217437744140625
200807,0.3397979736328125,-1.367813110351562,0.4107666015625
200808,0.9457855224609376,-1.281341552734375,0.61090087890625
200809,1.657333374023438,-1.226181030273438,0.925506591796875
200810,1.86090087890625,-0.8797607421875,1.062515258789062
200811,1.645477294921875,-0.4296875,1.056289672851562
200812,1.40570068359375,-0.1383514404296875,0.84991455078125
200813,1.066070556640625,0.1240386962890625,0.457977294921875
200814,0.68072509765625,0.3668060302734375,0.271148681640625
200815,0.3925933837890625,0.3620452880859375,0.1218109130859375
200816,-0.133453369140625,0.65557861328125,0.0764923095703125
200817,-0.2073822021484375,0.398956298828125,-0.0428619384765625
200818,-0.202606201171875,0.11456298828125,0.0090484619140625
200819,-0.2634735107421875,0.07867431640625,0.05072021484375
200820,-0.247467041015625,0.1159210205078125,0.13348388671875
200821,-0.172393798828125,0.0928497314453125,0.1809844970703125
200822,-0.1118011474609375,0.0762481689453125,0.0864715576171875
200823,-0.06353759765625,0.004791259765625,-0.0264434814453125
200824,0.0052337646484375,-0.0726470947265625,-0.0379638671875
200825,0.13214111328125,-0.0711517333984375,-0.0880584716796875
200826,0.2779693603515625,0.0363006591796875,-0.1160736083984375
200827,0.3695068359375,0.1743316650390625,0.0209503173828125
200828,0.5380706787109375,0.2136993408203125,0.5072021484375
200829,0.819915771484375,0.054229736328125,1.247406005859375
200830,0.5665740966796875,-0.3650054931640625,1.7645263671875
200831,-0.2156524658203125,-0.912200927734375,2.349151611328125
200832,-0.8433837890625,-1.678787231445312,2.90338134765625
200833,-0.92779541015625,-1.942062377929688,3.426544189453125
200834,-0.51434326171875,-1.9827880859375,3.022216796875
200835,-0.1991729736328125,-1.976913452148438,1.910079956054688
200836,0.2636566162109375,-1.898590087890625,2.129241943359375
200837,0.41900634765625,-2.362655639648438,2.025665283203125
200838,0.03961181640625,-2.702499389648438,2.025299072265625
200839,-0.4869384765625,-2.871383666992188,1.916336059570312
200840,-1.025650024414062,-2.79327392578125,1.528366088867188
200841,-1.061660766601562,-2.300430297851562,1.175643920898438
200842,-0.71636962890625,-1.53814697265625,0.4755401611328125
200843,-0.5263214111328125,-1.1326904296875,0.5531158447265625
200844,-0.4006500244140625,-1.092681884765625,0.5543975830078125
200845,-0.16326904296875,-1.0994873046875,0.3392486572265625
200846,0.019805908203125,-1.08392333984375,0.318634033203125
200847,0.1170501708984375,-1.187301635742188,0.4274444580078125
200848,0.1922149658203125,-1.271087646484375,0.56341552734375
200849,0.2500457763671875,-1.221771240234375,0.759185791015625
200850,0.274505615234375,-0.935272216796875,0.8232574462890625
200851,0.2989959716796875,-0.61639404296875,0.82666015625
200852,0.2863006591796875,-0.3484344482421875,0.79559326171875
200853,0.265625,-0.18316650390625,0.7355804443359375
200854,0.1717529296875,-0.0814666748046875,0.6186370849609375
200855,0.1665496826171875,0.058441162109375,0.5778656005859375
200856,0.1910400390625,0.109527587890625,0.458892822265625
200857,0.2118682861328125,0.1535186767578125,0.378997802734375
200858,0.2744140625,0.200469970703125,0.31219482421875
200859,0.315521240234375,0.2495269775390625,0.3076324462890625
200860,0.2971649169921875,0.254608154296875,0.177459716796875
200861,0.2531890869140625,0.208282470703125,0.018402099609375
200862,0.1926116943359375,0.1388397216796875,-0.02362060546875
200863,0.15093994140625,0.092132568359375,0.0471038818359375
200864,0.1655426025390625,0.07574462890625,0.080291748046875
200865,0.1924896240234375,0.0582275390625,0.1348724365234375
200866,0.1909942626953125,7.62939453125e-05,0.14093017578125
200867,0.1660614013671875,-0.076416015625,0.1669464111328125
200868,0.095062255859375,-0.1393890380859375,0.3544921875
200869,-0.012664794921875,-0.1661376953125,0.528106689453125
200870,-0.0052032470703125,-0.090972900390625,0.556915283203125
200871,0.08050537109375,-0.0034637451171875,0.407135009765625
200872,0.1373443603515625,-0.0151519775390625,0.278106689453125
200873,0.2308349609375,-0.1038818359375,0.323333740234375
200874,0.3452301025390625,-0.200408935546875,0.452667236328125
200875,0.4759674072265625,-0.27349853515625,0.85137939453125
200876,0.5656280517578125,-0.468994140625,1.480422973632812
200877,0.5311126708984375,-0.89349365234375,2.233734130859375
200878,0.373931884765625,-1.538131713867188,2.623382568359375
200879,-0.199920654296875,-2.264419555664062,2.426742553710938
200880,-0.7722320556640625,-2.930343627929688,1.761642456054688
200881,0.1291961669921875,-3.64215087890625,1.31988525390625
200882,0.680389404296875,-3.829498291015625,1.12286376953125
200883,0.1617279052734375,-2.899429321289062,0.395782470703125
200884,-0.177734375,-2.08355712890625,0.257415771484375
200885,-0.3307342529296875,-1.699737548828125,0.886505126953125
200886,-0.408203125,-1.630416870117188,1.280258178710938
200887,-0.6331634521484375,-1.511337280273438,1.120193481445312
200888,-0.9030303955078124,-1.281463623046875,0.9821624755859376
200889,-0.9378814697265624,-1.134246826171875,0.763427734375
200890,-0.7432098388671875,-1.054672241210938,0.51568603515625
200891,-0.3720855712890625,-1.007522583007812,0.42364501953125
200892,-0.036041259765625,-0.878814697265625,0.600677490234375
200893,0.306365966796875,-0.733642578125,0.75408935546875
200894,0.550506591796875,-0.67864990234375,0.5238494873046875
200895,0.5647735595703125,-0.64910888671875,0.5258941650390625
200896,0.5079803466796875,-0.647979736328125,0.7397003173828125
200897,0.45263671875,-0.7074737548828125,0.9195404052734376
200898,0.3236541748046875,-0.821868896484375,1.034774780273438
200899,0.19207763671875,-1.019439697265625,1.043746948242188
200900,0.1039581298828125,-1.248504638671875,0.9062652587890624
200901,0.0726318359375,-1.427093505859375,0.827362060546875
200902,-0.0096588134765625,-1.528350830078125,0.7895965576171875
200903,-0.10186767578125,-1.4693603515625,0.7000274658203125
200904,0.0472869873046875,-1.208831787109375,0.1786346435546875
200905,0.19927978515625,-0.8563385009765625,-0.0895843505859375
200906,0.1366729736328125,-0.4988250732421875,-0.190704345703125
200907,0.0128631591796875,-0.1874847412109375,-0.168853759765625
200908,-0.060516357421875,0.0380859375,-0.021484375
200909,-0.048675537109375,0.2147979736328125,0.1583099365234375
200910,0.00994873046875,0.344879150390625,0.290679931640625
200911,0.0751190185546875,0.4471435546875,0.3186187744140625
200912,0.1539154052734375,0.537384033203125,0.2815704345703125
200913,0.2478485107421875,0.5776824951171875,0.1876068115234375
200914,0.31732177734375,0.56256103515625,0.143524169921875
200915,0.3821563720703125,0.546478271484375,0.1626129150390625
200916,0.458648681640625,0.544921875,0.19024658203125
200917,0.507598876953125,0.5600433349609375,0.1903839111328125
200918,0.5507965087890625,0.566436767578125,0.1607666015625
200919,0.5897064208984375,0.5253143310546875,0.117156982421875
200920,0.606109619140625,0.4330596923828125,0.0425872802734375
200921,0.63287353515625,0.331573486328125,-0.0024566650390625
200922,0.667816162109375,0.238494873046875,-0.0349884033203125
200923,0.637664794921875,0.1766204833984375,-0.0153656005859375
200924,0.555267333984375,0.1111602783203125,0.04107666015625
200925,0.436798095703125,0.07659912109375,0.1163330078125
200926,0.2989501953125,0.041015625,0.141326904296875
200927,0.1394195556640625,-0.006744384765625,0.1399383544921875
200928,-0.012664794921875,-0.01947021484375,0.123443603515625
200929,-0.0830535888671875,0.0119781494140625,0.1710052490234375
200930,0.0584564208984375,0.07806396484375,0.236358642578125
200931,0.2943267822265625,0.0586700439453125,0.2036285400390625
200932,0.5662994384765625,0.027923583984375,0.2346343994140625
200933,1.004486083984375,-0.0226898193359375,0.348724365234375
200934,1.468109130859375,-0.11236572265625,0.7920989990234375
200935,1.710586547851562,-0.2003631591796875,1.496627807617188
200936,1.677703857421875,-0.3019866943359375,2.299285888671875
200937,1.365982055664062,-0.6581268310546875,3.300567626953125
200938,0.9133758544921876,-1.418258666992188,4.5634765625
200939,0.719207763671875,-2.307220458984375,5.244964599609375
200940,0.74407958984375,-3.446121215820312,4.410140991210938
200941,0.7072296142578125,-4.651443481445312,3.39678955078125
200942,0.4236907958984375,-4.865386962890625,2.196044921875
200943,-0.1014404296875,-3.24249267578125,1.53204345703125
200944,-0.09185791015625,-1.94000244140625,1.441497802734375
200945,0.442169189453125,-1.305130004882812,1.479827880859375
200946,0.76617431640625,-0.4522857666015625,1.443374633789062
200947,0.881622314453125,0.0233612060546875,1.527450561523438
200948,0.9393310546875,0.1541290283203125,1.635101318359375
200949,0.9853057861328124,0.190155029296875,1.626922607421875
200950,1.133956909179688,0.1900177001953125,1.481109619140625
200951,1.286224365234375,0.2484283447265625,1.295639038085938
200952,1.309417724609375,0.2448577880859375,0.99176025390625
200953,1.139556884765625,0.049774169921875,0.707672119140625
200954,0.867462158203125,-0.188079833984375,0.3885650634765625
200955,0.60198974609375,-0.3633270263671875,0.167938232421875
200956,0.352447509765625,-0.5871429443359375,0.12078857421875
200957,0.168060302734375,-0.912139892578125,0.184722900390625
200958,-0.01275634765625,-1.29150390625,0.3204498291015625
200959,-0.3329010009765625,-1.7060546875,0.39056396484375
200960,-0.714630126953125,-2.007781982421875,0.35498046875
200961,-0.9447021484375,-2.124221801757812,0.2552337646484375
200962,-1.128326416015625,-2.337997436523438,0.0667724609375
200963,-1.349563598632812,-2.06866455078125,-0.029510498046875
200964,-1.394088745117188,-1.251739501953125,0.05462646484375
200965,-1.259597778320312,-0.73822021484375,0.0214996337890625
200966,-0.9474334716796876,-0.38751220703125,0.0410614013671875
200967,-0.6189422607421875,-0.1561279296875,0.1026153564453125
200968,-0.3350982666015625,-0.0106048583984375,0.11822509765625
200969,-0.1912994384765625,0.0218658447265625,0.0614013671875
200970,-0.171112060546875,-0.0408477783203125,-0.058197021484375
200971,-0.148956298828125,-0.1537628173828125,-0.2093658447265625
200972,-0.0806427001953125,-0.209991455078125,-0.331695556640625
200973,0.0092926025390625,-0.191558837890625,-0.4119720458984375
200974,0.07464599609375,-0.143585205078125,-0.5005340576171875
200975,0.106414794921875,-0.0826568603515625,-0.4912872314453125
200976,0.0838623046875,-0.0031585693359375,-0.37774658203125
200977,0.087615966796875,0.079742431640625,-0.1830902099609375
200978,0.1330413818359375,0.1508331298828125,0.0124359130859375
200979,0.2112579345703125,0.2072906494140625,0.150665283203125
200980,0.335968017578125,0.23974609375,0.2494354248046875
200981,0.4971466064453125,0.2780914306640625,0.33349609375
200982,0.638427734375,0.2767181396484375,0.44873046875
200983,0.72320556640625,0.206787109375,0.5401458740234375
200984,0.7836761474609375,0.1009063720703125,0.562744140625
200985,0.78790283203125,0.0350494384765625,0.474273681640625
200986,0.7108917236328125,0.074676513671875,0.335479736328125
200987,0.6049041748046875,0.195648193359375,0.223663330078125
200988,0.4459228515625,0.3685760498046875,0.09991455078125
200989,0.2335357666015625,0.40509033203125,-0.0307769775390625
200990,0.1428680419921875,0.2565155029296875,-0.190338134765625
200991,0.2779541015625,0.110260009765625,-0.2672119140625
200992,0.599578857421875,0.1061553955078125,-0.287109375
200993,0.93145751953125,0.2200775146484375,0.00872802734375
200994,1.012939453125,0.2665863037109375,0.7374725341796875
200995,0.7569427490234375,0.251983642578125,2.009445190429688
200996,0.565093994140625,-0.0094146728515625,3.682754516601562
200997,0.425079345703125,-0.2635650634765625,5.50067138671875
200998,1.155838012695312,-0.648651123046875,6.557861328125
200999,1.544815063476562,-1.582534790039062,5.630905151367188
201000,1.099456787109375,-2.657821655273438,4.620254516601562
201001,0.675506591796875,-3.851455688476562,3.377059936523438
201002,0.6580657958984375,-4.820602416992188,1.733184814453125
201003,0.4826507568359375,-3.78277587890625,1.483245849609375
201004,0.468231201171875,-1.8511962890625,1.947006225585938
201005,0.42535400390625,-0.618438720703125,1.925735473632812
201006,0.4167327880859375,-0.1920318603515625,1.89794921875
201007,0.457427978515625,-0.29583740234375,1.683853149414062
201008,0.4274444580078125,-0.2247161865234375,1.335784912109375
201009,0.3394317626953125,-0.1602630615234375,1.375686645507812
201010,0.384490966796875,-0.3615570068359375,1.444061279296875
201011,0.454071044921875,-0.6330413818359375,1.319854736328125
201012,0.3280487060546875,-0.769622802734375,1.071884155273438
201013,0.178802490234375,-0.849395751953125,0.8392486572265625
201014,0.1109619140625,-1.04644775390625,0.61865234375
201015,0.1067047119140625,-1.28521728515625,0.425689697265625
201016,0.1534271240234375,-1.412002563476562,0.3740234375
201017,0.0767364501953125,-1.435317993164062,0.378509521484375
201018,-0.1905517578125,-1.375885009765625,0.492034912109375
201019,-0.4337005615234375,-1.238677978515625,0.3008270263671875
201020,-0.691619873046875,-1.1632080078125,0.35968017578125
201021,-0.9564208984375,-1.060501098632812,0.4473114013671875
201022,-1.128997802734375,-0.7853240966796875,0.5008697509765625
201023,-1.12884521484375,-0.534271240234375,0.5061187744140625
201024,-0.96685791015625,-0.465728759765625,0.349853515625
201025,-0.734375,-0.5397796630859375,0.0685577392578125
201026,-0.529998779296875,-0.5570526123046875,-0.1786041259765625
201027,-0.350738525390625,-0.4681854248046875,-0.3355712890625
201028,-0.2220916748046875,-0.3549346923828125,-0.4382476806640625
201029,-0.1349334716796875,-0.285980224609375,-0.5101776123046875
201030,-0.079345703125,-0.245513916015625,-0.5214691162109375
201031,-0.0815582275390625,-0.2384033203125,-0.4576873779296875
201032,-0.1410675048828125,-0.217041015625,-0.3907318115234375
201033,-0.183990478515625,-0.1058197021484375,-0.3513641357421875
201034,-0.2174224853515625,0.016937255859375,-0.2710723876953125
201035,-0.2638397216796875,0.1048126220703125,-0.203216552734375
201036,-0.3032073974609375,0.1384735107421875,-0.1268768310546875
201037,-0.2715301513671875,0.182159423828125,-0.07025146484375
201038,-0.12164306640625,0.203216552734375,-0.0171051025390625
201039,0.0256500244140625,0.158477783203125,0.031158447265625
201040,0.124420166015625,0.1083526611328125,0.0923004150390625
201041,0.18194580078125,0.0978851318359375,0.139434814453125
201042,0.23492431640625,0.0989837646484375,0.1496124267578125
201043,0.2962493896484375,0.085052490234375,0.1708831787109375
201044,0.3377838134765625,0.02545166015625,0.2172698974609375
201045,0.3509063720703125,0.0295257568359375,0.2778472900390625
201046,0.3477935791015625,0.1846160888671875,0.3332672119140625
201047,0.3201141357421875,0.2741851806640625,0.33441162109375
201048,0.3000030517578125,0.228790283203125,0.2931365966796875
201049,0.304656982421875,0.1846160888671875,0.1957550048828125
201050,0.2266693115234375,0.1840057373046875,0.0172576904296875
201051,0.170257568359375,0.171539306640625,-0.1093902587890625
201052,0.28643798828125,0.169219970703125,-0.1061859130859375
201053,0.6322479248046875,0.1302642822265625,-0.057952880859375
201054,1.302841186523438,0.1048126220703125,0.1141510009765625
201055,1.888931274414062,0.08184814453125,0.7470245361328125
201056,2.184646606445312,0.056365966796875,2.134933471679688
201057,2.606613159179688,-0.13385009765625,4.173828125
201058,3.068328857421875,-0.67242431640625,6.467666625976562
201059,3.209335327148438,-1.581787109375,7.234146118164062
201060,1.7574462890625,-2.984451293945312,5.642776489257812
201061,-0.0210723876953125,-4.699066162109375,3.679428100585938
201062,-0.19775390625,-5.890975952148438,1.8704833984375
201063,0.1434783935546875,-4.394775390625,1.329681396484375
201064,-0.1155242919921875,-1.61419677734375,1.641494750976562
201065,-0.0979461669921875,-0.3578643798828125,1.35174560546875
201066,0.343536376953125,-0.1153106689453125,1.475982666015625
201067,0.511505126953125,-0.2953643798828125,1.387405395507812
201068,0.540069580078125,-0.365020751953125,1.446136474609375
201069,0.6450042724609375,-0.20947265625,1.447372436523438
201070,0.781585693359375,-0.1348876953125,1.383590698242188
201071,0.80963134765625,-0.134521484375,1.410140991210938
201072,0.7717437744140625,-0.2785186767578125,1.180450439453125
201073,0.6179046630859375,-0.436920166015625,0.8857421875
201074,0.344329833984375,-0.5983734130859375,0.683074951171875
201075,0.136932373046875,-0.79168701171875,0.5511627197265625
201076,0.0476837158203125,-0.9591522216796876,0.4611968994140625
201077,0.0119171142578125,-1.115432739257812,0.5136871337890625
201078,0.029937744140625,-1.135025024414062,0.5675201416015625
201079,-0.0220489501953125,-1.024887084960938,0.5609130859375
201080,-0.1861572265625,-0.955169677734375,0.4626007080078125
201081,-0.47674560546875,-1.019134521484375,0.36553955078125
201082,-0.853912353515625,-1.089675903320312,0.362945556640625
201083,-1.197677612304688,-1.079025268554688,0.42724609375
201084,-1.345321655273438,-1.042999267578125,0.4548797607421875
201085,-1.28912353515625,-0.9366607666015624,0.262786865234375
201086,-0.982208251953125,-0.7863922119140625,-0.0314788818359375
201087,-0.7017822265625,-0.64111328125,-0.2237548828125
201088,-0.6019134521484375,-0.5484466552734375,-0.3296051025390625
201089,-0.4985809326171875,-0.43841552734375,-0.3650665283203125
201090,-0.363800048828125,-0.354034423828125,-0.421844482421875
201091,-0.2603607177734375,-0.32403564453125,-0.4674072265625
201092,-0.2295074462890625,-0.2905120849609375,-0.4070587158203125
201093,-0.244659423828125,-0.2450408935546875,-0.299530029296875
201094,-0.2658233642578125,-0.1748504638671875,-0.235565185546875
201095,-0.2426300048828125,-0.090484619140625,-0.19781494140625
201096,-0.1962127685546875,0.0033721923828125,-0.1899261474609375
201097,-0.10577392578125,0.0517730712890625,-0.1827239990234375
201098,0.000335693359375,0.100860595703125,-0.1362457275390625
201099,0.147674560546875,0.138702392578125,-0.046112060546875
201100,0.2916412353515625,0.1387176513671875,0.0584564208984375
201101,0.4208831787109375,0.0951690673828125,0.1534881591796875
201102,0.502655029296875,0.090484619140625,0.25909423828125
201103,0.58673095703125,0.160247802734375,0.35711669921875
201104,0.6770477294921875,0.223663330078125,0.4410552978515625
201105,0.7071685791015625,0.2066802978515625,0.4548797607421875
201106,0.5933380126953125,0.16748046875,0.4327545166015625
201107,0.4235687255859375,0.1974334716796875,0.4122467041015625
201108,0.32373046875,0.27947998046875,0.379791259765625
201109,0.26593017578125,0.35467529296875,0.309112548828125
201110,0.1823577880859375,0.3455810546875,0.170440673828125
201111,0.06549072265625,0.293060302734375,-0.0309600830078125
201112,0.037506103515625,0.1958770751953125,-0.18060302734375
201113,0.21331787109375,0.1672515869140625,-0.1262359619140625
201114,0.6024322509765625,0.0517425537109375,0.0459136962890625
201115,1.125381469726562,-0.160736083984375,0.31829833984375
201116,1.355239868164062,-0.0449981689453125,0.7985687255859375
201117,1.301681518554688,0.1216583251953125,1.776748657226562
201118,1.172622680664062,-0.2369384765625,3.19525146484375
201119,1.228790283203125,-0.96575927734375,4.823410034179688
201120,1.19171142578125,-1.421554565429688,6.2962646484375
201121,0.7830657958984375,-2.063613891601562,5.890914916992188
201122,0.167144775390625,-3.381912231445312,4.376480102539062
201123,0.0057373046875,-4.64654541015625,3.004959106445312
201124,0.291748046875,-4.53094482421875,0.9931488037109376
201125,0.31427001953125,-2.685195922851562,1.311691284179688
201126,0.44195556640625,-1.401123046875,1.485321044921875
201127,0.647216796875,-0.656890869140625,1.709320068359375
201128,0.8206024169921875,-0.416534423828125,1.786056518554688
201129,1.010528564453125,-0.3194732666015625,1.749771118164062
201130,1.108688354492188,-0.1097412109375,1.571014404296875
201131,1.001541137695312,-0.1036224365234375,1.502639770507812
201132,0.8683013916015625,-0.4127044677734375,1.574920654296875
201133,0.799591064453125,-0.6580963134765625,1.327926635742188
201134,0.6128082275390625,-0.8323822021484375,0.9549407958984376
201135,0.3274383544921875,-1.087310791015625,0.6833648681640625
201136,0.1222381591796875,-1.302703857421875,0.500030517578125
201137,0.04840087890625,-1.3621826171875,0.3395843505859375
201138,0.0756988525390625,-1.301345825195312,0.338653564453125
201139,0.05596923828125,-1.2335205078125,0.40570068359375
201140,-0.1348419189453125,-1.245956420898438,0.397430419921875
201141,-0.4174652099609375,-1.22161865234375,0.176513671875
201142,-0.7820587158203125,-1.126510620117188,0.1590576171875
201143,-1.132675170898438,-1.05657958984375,0.2501678466796875
201144,-1.380325317382812,-1.012161254882812,0.416229248046875
201145,-1.437744140625,-0.902740478515625,0.4180145263671875
201146,-1.177658081054688,-0.790008544921875,0.1656646728515625
201147,-0.7583160400390625,-0.77203369140625,-0.0398406982421875
201148,-0.559844970703125,-0.683990478515625,-0.17340087890625
201149,-0.46405029296875,-0.5500640869140625,-0.2090911865234375
201150,-0.32135009765625,-0.4497222900390625,-0.1707763671875
201151,-0.1485443115234375,-0.396209716796875,-0.155517578125
201152,-0.047607421875,-0.3637542724609375,-0.1230621337890625
201153,-0.031402587890625,-0.3013153076171875,-0.0405731201171875
201154,-0.0588226318359375,-0.214263916015625,0.008880615234375
201155,-0.1373748779296875,-0.1269378662109375,-0.0353546142578125
201156,-0.2132110595703125,-0.0262908935546875,-0.1199493408203125
201157,-0.2332611083984375,0.0628814697265625,-0.1826934814453125
201158,-0.218109130859375,0.088714599609375,-0.230316162109375
201159,-0.182159423828125,0.0787353515625,-0.2691497802734375
201160,-0.0965423583984375,0.095672607421875,-0.267608642578125
201161,0.0268402099609375,0.092681884765625,-0.21124267578125
201162,0.1336822509765625,0.0972442626953125,-0.1705169677734375
201163,0.1899566650390625,0.105438232421875,-0.151611328125
201164,0.26788330078125,0.118621826171875,-0.118377685546875
201165,0.3768310546875,0.1765289306640625,-0.0530853271484375
201166,0.4326171875,0.237030029296875,0.0341949462890625
201167,0.40118408203125,0.288543701171875,0.1146087646484375
201168,0.322479248046875,0.3251800537109375,0.1523284912109375
201169,0.1961212158203125,0.3046875,0.214111328125
201170,0.0649261474609375,0.2789459228515625,0.24212646484375
201171,-0.0358428955078125,0.221893310546875,0.174835205078125
201172,-0.12725830078125,0.2003631591796875,0.0782012939453125
201173,-0.0767822265625,0.20489501953125,-0.02874755859375
201174,0.3166046142578125,0.1040802001953125,-0.07080078125
201175,1.08624267578125,0.013031005859375,0.0304718017578125
201176,1.782760620117188,0.0106048583984375,0.46868896484375
201177,2.177597045898438,0.2659454345703125,1.365341186523438
201178,2.717575073242188,0.398712158203125,2.150100708007812
201179,3.562713623046875,-0.055084228515625,3.312911987304688
201180,4.056350708007812,-0.7828216552734375,4.822494506835938
201181,3.416961669921875,-0.815948486328125,4.859176635742188
201182,2.393310546875,-1.044601440429688,4.11199951171875
201183,1.3316650390625,-1.6295166015625,3.15704345703125
201184,-0.0114593505859375,-2.666290283203125,2.384353637695312
201185,-0.8228759765625,-3.58892822265625,2.794158935546875
201186,-0.678863525390625,-4.194671630859375,3.016159057617188
201187,-0.4041290283203125,-4.05413818359375,1.787139892578125
201188,-0.4036865234375,-2.256439208984375,1.277084350585938
201189,-0.2827911376953125,-0.772918701171875,0.822845458984375
201190,0.069305419921875,-0.22528076171875,0.69403076171875
201191,0.2951812744140625,-0.1268157958984375,0.8256988525390625
201192,0.3620147705078125,-0.0521087646484375,1.02557373046875
201193,0.5137176513671875,0.0438232421875,1.248184204101562
201194,0.6833038330078125,-0.0443878173828125,1.280914306640625
201195,0.7689361572265625,-0.274505615234375,1.165145874023438
201196,0.6998748779296875,-0.573577880859375,0.9865875244140624
201197,0.5498199462890625,-0.855926513671875,0.7528839111328125
201198,0.3581695556640625,-1.1448974609375,0.502655029296875
201199,0.1856689453125,-1.466644287109375,0.4015655517578125
201200,0.113525390625,-1.650909423828125,0.4212188720703125
201201,0.1011199951171875,-1.669464111328125,0.5100250244140625
201202,0.010528564453125,-1.655838012695312,0.5624847412109375
201203,-0.1354827880859375,-1.588348388671875,0.348541259765625
201204,-0.390716552734375,-1.458755493164062,0.356689453125
201205,-0.7437286376953125,-1.374557495117188,0.587249755859375
201206,-1.095016479492188,-1.198974609375,0.71917724609375
201207,-1.306365966796875,-0.9354248046875,0.7273406982421875
201208,-1.270278930664062,-0.8267974853515625,0.598052978515625
201209,-1.045791625976562,-0.84600830078125,0.3073883056640625
201210,-0.7853240966796875,-0.7720184326171875,-0.01275634765625
201211,-0.6131744384765625,-0.5952911376953125,-0.2623291015625
201212,-0.4771881103515625,-0.418212890625,-0.4014434814453125
201213,-0.3411865234375,-0.2680511474609375,-0.462371826171875
201214,-0.2569580078125,-0.15863037109375,-0.4776763916015625
201215,-0.27484130859375,-0.1002349853515625,-0.440277099609375
201216,-0.30865478515625,-0.0419769287109375,-0.303070068359375
201217,-0.295135498046875,0.0665435791015625,-0.207489013671875
201218,-0.2385406494140625,0.145233154296875,-0.1514434814453125
201219,-0.1585540771484375,0.17108154296875,-0.110443115234375
201220,-0.0923309326171875,0.194671630859375,-0.11468505859375
201221,-0.0225372314453125,0.197479248046875,-0.124847412109375
201222,0.073394775390625,0.2339630126953125,-0.08050537109375
201223,0.2233123779296875,0.2642059326171875,-0.0182037353515625
201224,0.357513427734375,0.2776031494140625,0.0064697265625
201225,0.45220947265625,0.3045501708984375,0.04986572265625
201226,0.5679931640625,0.3499755859375,0.0935821533203125
201227,0.7174072265625,0.4172210693359375,0.1539154052734375
201228,0.7807769775390625,0.464813232421875,0.1923828125
201229,0.695159912109375,0.4036407470703125,0.2042388916015625
201230,0.5469818115234375,0.3427886962890625,0.2716522216796875
201231,0.406463623046875,0.3692626953125,0.3114776611328125
201232,0.2860260009765625,0.3628387451171875,0.2508087158203125
201233,0.1643829345703125,0.2766265869140625,0.1252288818359375
201234,-0.0342864990234375,0.2028045654296875,-0.0158233642578125
201235,-0.10302734375,0.1874542236328125,-0.0495452880859375
201236,0.2020721435546875,0.21209716796875,0.0365142822265625
201237,0.9815826416015624,0.0326690673828125,0.2730255126953125
201238,1.600799560546875,-0.1032867431640625,0.64501953125
201239,1.539566040039062,0.102294921875,1.444381713867188
201240,1.47161865234375,0.2738800048828125,2.43267822265625
201241,2.363143920898438,-0.2081756591796875,3.619964599609375
201242,2.966445922851562,-0.8975067138671875,5.248809814453125
201243,2.339584350585938,-1.364532470703125,5.571929931640625
201244,1.156570434570312,-2.012619018554688,4.953201293945312
201245,0.0529022216796875,-2.956024169921875,4.067581176757812
201246,-0.614898681640625,-3.633743286132812,3.46258544921875
201247,-0.5724029541015625,-4.064773559570312,2.3226318359375
201248,-0.5196685791015625,-3.349502563476562,1.793624877929688
201249,-0.4329376220703125,-1.664306640625,1.700637817382812
201250,-0.1716461181640625,-0.7402191162109375,1.356033325195312
201251,0.1126251220703125,-0.4532012939453125,1.398727416992188
201252,0.2285003662109375,-0.446929931640625,1.506866455078125
201253,0.3172760009765625,-0.2900848388671875,1.534622192382812
201254,0.569610595703125,0.0018768310546875,1.464706420898438
201255,0.7338409423828125,0.0748443603515625,1.324874877929688
201256,0.76361083984375,-0.0802154541015625,1.202621459960938
201257,0.7059173583984375,-0.360870361328125,0.980926513671875
201258,0.58453369140625,-0.6141510009765625,0.818939208984375
201259,0.451507568359375,-0.8278045654296875,0.7256317138671875
201260,0.2884979248046875,-1.032562255859375,0.5629730224609375
201261,0.1526641845703125,-1.164459228515625,0.459991455078125
201262,0.0991058349609375,-1.165603637695312,0.51519775390625
201263,0.027191162109375,-1.085311889648438,0.523834228515625
201264,-0.1439971923828125,-1.042434692382812,0.3663177490234375
201265,-0.387237548828125,-1.114578247070312,0.30755615234375
201266,-0.59857177734375,-1.190567016601562,0.3410491943359375
201267,-0.8749237060546875,-1.13360595703125,0.433135986328125
201268,-1.15216064453125,-0.954376220703125,0.51214599609375
201269,-1.238876342773438,-0.746856689453125,0.4362335205078125
201270,-1.07806396484375,-0.681854248046875,0.228729248046875
201271,-0.7892303466796875,-0.707611083984375,-0.0427703857421875
201272,-0.6068267822265625,-0.6520843505859375,-0.243408203125
201273,-0.5248870849609375,-0.546295166015625,-0.288482666015625
201274,-0.42669677734375,-0.4168853759765625,-0.2115325927734375
201275,-0.364166259765625,-0.2942657470703125,-0.2108917236328125
201276,-0.31951904296875,-0.2181396484375,-0.291015625
201277,-0.252410888671875,-0.1938629150390625,-0.3459625244140625
201278,-0.1814422607421875,-0.2230224609375,-0.3142852783203125
201279,-0.12353515625,-0.188262939453125,-0.2186126708984375
201280,-0.107635498046875,-0.1123504638671875,-0.1820220947265625
201281,-0.1213531494140625,-0.0419464111328125,-0.1976318359375
201282,-0.1185302734375,0.0157012939453125,-0.2109832763671875
201283,-0.080596923828125,0.05181884765625,-0.20355224609375
201284,0.0372314453125,0.0672149658203125,-0.1710205078125
201285,0.1790313720703125,0.0753326416015625,-0.0891571044921875
201286,0.3212127685546875,0.0641937255859375,0.0019683837890625
201287,0.440216064453125,0.089263916015625,0.106689453125
201288,0.5320281982421875,0.137939453125,0.1897735595703125
201289,0.5494537353515625,0.1698150634765625,0.2059478759765625
201290,0.49853515625,0.1115875244140625,0.2322845458984375
201291,0.3780364990234375,0.071746826171875,0.268402099609375
201292,0.2519683837890625,0.1271209716796875,0.2963714599609375
201293,0.1805572509765625,0.2209930419921875,0.3178253173828125
201294,0.13104248046875,0.309234619140625,0.28338623046875
201295,0.0771636962890625,0.3025970458984375,0.0950775146484375
201296,-0.0659332275390625,0.2204742431640625,-0.185638427734375
201297,-0.090240478515625,0.189178466796875,-0.253814697265625
201298,0.2884521484375,0.1186981201171875,-0.0540313720703125
201299,0.9857940673828124,-0.095123291015625,0.15142822265625
201300,1.49859619140625,-0.1795654296875,0.5208587646484375
201301,1.572540283203125,0.0719146728515625,1.640350341796875
201302,1.611953735351562,0.00665283203125,3.464431762695312
201303,2.254241943359375,-0.7615966796875,4.954330444335938
201304,2.279571533203125,-1.153900146484375,6.583343505859375
201305,1.79461669921875,-1.755783081054688,5.582611083984375
201306,0.771148681640625,-2.62713623046875,3.15155029296875
201307,0.271148681640625,-3.483642578125,2.381240844726562
201308,0.232666015625,-3.664749145507812,1.959121704101562
201309,0.522796630859375,-2.929275512695312,2.018829345703125
201310,0.4307098388671875,-1.734359741210938,2.146621704101562
201311,0.1328277587890625,-0.91107177734375,1.776535034179688
201312,0.0335845947265625,-0.5536041259765625,1.589126586914062
201313,0.130279541015625,-0.426300048828125,1.510543823242188
201314,0.2740325927734375,-0.3119354248046875,1.35491943359375
201315,0.389190673828125,-0.1778106689453125,1.320343017578125
201316,0.498046875,-0.2202911376953125,1.442901611328125
201317,0.6387176513671875,-0.4225311279296875,1.295242309570312
201318,0.663299560546875,-0.69073486328125,0.97100830078125
201319,0.5621185302734375,-0.9274749755859376,0.8516845703125
201320,0.4160614013671875,-1.15753173828125,0.7019195556640625
201321,0.3526763916015625,-1.258804321289062,0.607147216796875
201322,0.38140869140625,-1.242767333984375,0.5638275146484375
201323,0.38861083984375,-1.2432861328125,0.5654754638671875
201324,0.290191650390625,-1.1903076171875,0.52655029296875
201325,0.0782318115234375,-1.0863037109375,0.4740447998046875
201326,-0.287933349609375,-0.9981536865234376,0.42266845703125
201327,-0.76007080078125,-0.9744415283203124,0.45074462890625
201328,-1.121261596679688,-0.9706878662109376,0.5691375732421875
201329,-1.261703491210938,-1.00213623046875,0.6965484619140625
201330,-1.158065795898438,-1.029312133789062,0.5874786376953125
201331,-0.9881591796875,-1.067520141601562,0.203460693359375
201332,-0.9822845458984376,-1.145431518554688,0.0824737548828125
201333,-0.8430023193359375,-0.9115447998046876,-0.14068603515625
201334,-0.6278533935546875,-0.6514129638671875,-0.746795654296875
201335,-0.2292327880859375,-0.4206085205078125,-0.9964141845703124
201336,0.0568389892578125,-0.1845703125,-0.789093017578125
201337,0.1282958984375,0.0337982177734375,-0.5301513671875
201338,0.0891265869140625,0.0414276123046875,-0.3580322265625
201339,0.0400543212890625,-0.0326995849609375,-0.1682586669921875
201340,0.0744171142578125,0.025146484375,0.027313232421875
201341,0.0753326416015625,-0.005462646484375,0.1397552490234375
201342,-0.018798828125,-0.192779541015625,0.1389312744140625
201343,-0.0813446044921875,-0.1688079833984375,0.101776123046875
201344,-0.06201171875,-0.021331787109375,0.0796356201171875
201345,0.01507568359375,0.1078948974609375,0.0742340087890625
201346,0.111663818359375,0.1588592529296875,0.092529296875
201347,0.2230682373046875,0.169403076171875,0.105072021484375
201348,0.327606201171875,0.1715545654296875,0.0752716064453125
201349,0.3840789794921875,0.1856689453125,0.0431671142578125
201350,0.4463958740234375,0.2358245849609375,0.0523834228515625
201351,0.525115966796875,0.276885986328125,0.057220458984375
201352,0.5741424560546875,0.23876953125,0.0778045654296875
201353,0.56781005859375,0.2354583740234375,0.149658203125
201354,0.536102294921875,0.280426025390625,0.2158660888671875
201355,0.461090087890625,0.335235595703125,0.23199462890625
201356,0.3739471435546875,0.3674468994140625,0.1973114013671875
201357,0.293731689453125,0.3494415283203125,0.0926361083984375
201358,0.2594757080078125,0.3370513916015625,0.0296630859375
201359,0.3647613525390625,0.2988128662109375,0.038055419921875
201360,0.8814697265625,0.2098388671875,0.247406005859375
201361,1.367568969726562,0.1869659423828125,0.6556549072265625
201362,1.534469604492188,0.2263336181640625,1.4276123046875
201363,1.627532958984375,0.27838134765625,2.477737426757812
201364,1.909408569335938,0.1868438720703125,3.66650390625
201365,2.243621826171875,-0.375579833984375,5.138504028320312
201366,2.099929809570312,-1.060821533203125,5.342788696289062
201367,1.357269287109375,-1.684661865234375,4.467391967773438
201368,0.426910400390625,-2.486129760742188,3.554840087890625
201369,-0.6764068603515625,-3.37542724609375,3.121185302734375
201370,-1.14007568359375,-4.425369262695312,3.1094970703125
201371,-0.841705322265625,-4.329116821289062,2.566818237304688
201372,-0.27923583984375,-2.168716430664062,1.836441040039062
201373,0.0476226806640625,-0.6560211181640625,1.118484497070312
201374,0.1976318359375,-0.3878631591796875,1.014053344726562
201375,0.2933807373046875,-0.4936676025390625,1.160614013671875
201376,0.451812744140625,-0.43414306640625,1.35406494140625
201377,0.69110107421875,-0.157623291015625,1.521652221679688
201378,0.847900390625,-0.0341644287109375,1.476593017578125
201379,0.8263092041015625,-0.0980224609375,1.381698608398438
201380,0.7440185546875,-0.1697235107421875,1.178451538085938
201381,0.6273651123046875,-0.2783966064453125,0.920318603515625
201382,0.4393768310546875,-0.44921875,0.665985107421875
201383,0.2298431396484375,-0.621612548828125,0.49005126953125
201384,0.0403594970703125,-0.764373779296875,0.3394622802734375
201385,-0.1153106689453125,-0.8729400634765625,0.372802734375
201386,-0.193023681640625,-0.989013671875,0.5678863525390625
201387,-0.2830657958984375,-1.083740234375,0.6504364013671875
201388,-0.4813232421875,-1.146560668945312,0.58563232421875
201389,-0.724700927734375,-1.208724975585938,0.5660858154296875
201390,-0.958831787109375,-1.303955078125,0.603668212890625
201391,-1.134750366210938,-1.323974609375,0.6826324462890625
201392,-1.276473999023438,-1.1265869140625,0.6799468994140625
201393,-1.236007690429688,-0.7694244384765625,0.5053558349609375
201394,-0.9385833740234376,-0.5738983154296875,0.150390625
201395,-0.635009765625,-0.52142333984375,-0.188323974609375
201396,-0.435302734375,-0.4947509765625,-0.36407470703125
201397,-0.3346405029296875,-0.462310791015625,-0.4482574462890625
201398,-0.252593994140625,-0.4104156494140625,-0.4865570068359375
201399,-0.1592864990234375,-0.337554931640625,-0.4841766357421875
201400,-0.080780029296875,-0.252166748046875,-0.41552734375
201401,-0.0208892822265625,-0.171722412109375,-0.2845458984375
201402,-0.0131683349609375,-0.1025848388671875,-0.1544647216796875
201403,-0.0770721435546875,-0.0582122802734375,-0.0707244873046875
201404,-0.138031005859375,-0.0032806396484375,-0.028411865234375
201405,-0.1505889892578125,0.037109375,-0.0222320556640625
201406,-0.1378631591796875,0.032989501953125,-0.0898284912109375
201407,-0.04998779296875,0.0775299072265625,-0.120452880859375
201408,0.11334228515625,0.12384033203125,-0.1072845458984375
201409,0.25897216796875,0.0965728759765625,-0.056549072265625
201410,0.3316802978515625,0.0564727783203125,-0.0265655517578125
201411,0.40631103515625,0.0637969970703125,-0.0096435546875
201412,0.4980316162109375,0.10577392578125,0.0399017333984375
201413,0.5629730224609375,0.1336212158203125,0.1191558837890625
201414,0.555450439453125,0.137908935546875,0.1917572021484375
201415,0.4913787841796875,0.1687774658203125,0.2723541259765625
201416,0.431427001953125,0.245880126953125,0.341552734375
201417,0.345306396484375,0.3560638427734375,0.3382415771484375
201418,0.246734619140625,0.4838409423828125,0.2884368896484375
201419,0.168914794921875,0.508636474609375,0.24884033203125
201420,0.28521728515625,0.368865966796875,0.2373504638671875
201421,0.8103790283203125,0.1335601806640625,0.3486175537109375
201422,1.439666748046875,0.024993896484375,0.630035400390625
201423,1.6839599609375,0.03436279296875,1.150177001953125
201424,2.0880126953125,-0.050048828125,1.920852661132812
201425,3.075180053710938,-0.373626708984375,2.615982055664062
201426,3.717300415039062,-0.628692626953125,3.529876708984375
201427,3.323104858398438,-0.773101806640625,4.224639892578125
201428,2.256179809570312,-1.115325927734375,4.445541381835938
201429,1.387725830078125,-1.787124633789062,4.117919921875
201430,0.41357421875,-2.85009765625,3.447799682617188
201431,-0.22247314453125,-4.03155517578125,3.259292602539062
201432,-0.11749267578125,-4.7349853515625,2.521499633789062
201433,-0.14117431640625,-3.801132202148438,1.675018310546875
201434,-0.3650665283203125,-1.579986572265625,1.3707275390625
201435,-0.3676300048828125,-0.552825927734375,1.016067504882812
201436,-0.1286468505859375,-0.5088958740234375,0.931488037109375
201437,0.052490234375,-0.4726715087890625,0.985137939453125
201438,0.1720123291015625,-0.1735687255859375,1.105880737304688
201439,0.350494384765625,0.12017822265625,1.189666748046875
201440,0.5655059814453125,0.142730712890625,1.158157348632812
201441,0.7610931396484375,-0.107086181640625,1.03875732421875
201442,0.8223114013671875,-0.499359130859375,0.9880218505859376
201443,0.7347869873046875,-0.7318572998046875,0.90087890625
201444,0.58111572265625,-0.781585693359375,0.731475830078125
201445,0.4744110107421875,-0.79168701171875,0.572021484375
201446,0.40716552734375,-0.7925262451171875,0.4536895751953125
201447,0.3524322509765625,-0.7803192138671875,0.37432861328125
201448,0.2574005126953125,-0.7870330810546875,0.2908782958984375
201449,0.140594482421875,-0.8431854248046875,0.186737060546875
201450,-0.04656982421875,-0.9863739013671876,0.106048583984375
201451,-0.382965087890625,-1.213455200195312,0.11456298828125
201452,-0.7730560302734375,-1.39056396484375,0.221954345703125
201453,-1.0843505859375,-1.48291015625,0.34088134765625
201454,-1.226272583007812,-1.51904296875,0.4490203857421875
201455,-1.139572143554688,-1.377517700195312,0.407318115234375
201456,-0.87188720703125,-1.05908203125,0.1651153564453125
201457,-0.646392822265625,-0.7741546630859375,-0.137298583984375
201458,-0.515899658203125,-0.5143890380859375,-0.28448486328125
201459,-0.383697509765625,-0.333282470703125,-0.2779998779296875
201460,-0.3023834228515625,-0.234283447265625,-0.2655792236328125
201461,-0.2876129150390625,-0.2066497802734375,-0.1945648193359375
201462,-0.2513580322265625,-0.205322265625,-0.1232757568359375
201463,-0.1858978271484375,-0.17108154296875,-0.1158447265625
201464,-0.1129913330078125,-0.1350250244140625,-0.118865966796875
201465,-0.060546875,-0.1209564208984375,-0.115631103515625
201466,-0.0819244384765625,-0.0976104736328125,-0.1342926025390625
201467,-0.10003662109375,-0.0548248291015625,-0.140838623046875
201468,-0.045074462890625,0.0284881591796875,-0.1280364990234375
201469,0.0921173095703125,0.142059326171875,-0.10357666015625
201470,0.2614288330078125,0.214874267578125,-0.0298919677734375
201471,0.383941650390625,0.235992431640625,0.0832672119140625
201472,0.4982757568359375,0.256591796875,0.216064453125
201473,0.6314239501953125,0.3274688720703125,0.3045806884765625
201474,0.7418060302734375,0.3593292236328125,0.322052001953125
201475,0.76898193359375,0.3022613525390625,0.247528076171875
201476,0.6778564453125,0.21539306640625,0.221649169921875
201477,0.565704345703125,0.2029571533203125,0.2105560302734375
201478,0.478363037109375,0.3138275146484375,0.2207794189453125
201479,0.3998565673828125,0.4247894287109375,0.1814117431640625
201480,0.2843017578125,0.4535980224609375,0.1035614013671875
201481,0.14105224609375,0.409698486328125,-0.0146331787109375
201482,0.2894744873046875,0.3576507568359375,-0.034912109375
201483,1.071578979492188,0.12603759765625,0.153778076171875
201484,1.780609130859375,-0.080322265625,0.4361572265625
201485,1.777999877929688,0.101715087890625,1.0433349609375
201486,1.706024169921875,0.2204742431640625,2.058059692382812
201487,2.19842529296875,-0.0644683837890625,3.085723876953125
201488,2.44140625,-0.5344696044921875,4.160232543945312
201489,1.897354125976562,-0.992523193359375,4.760955810546875
201490,1.107681274414062,-1.396987915039062,4.327880859375
201491,0.54296875,-2.13238525390625,3.952438354492188
201492,-0.2053680419921875,-3.244064331054688,3.399505615234375
201493,-0.4672393798828125,-4.47735595703125,3.625930786132812
201494,-0.2652740478515625,-4.9315185546875,2.45654296875
201495,-0.21728515625,-2.962890625,1.691986083984375
201496,-0.167327880859375,-1.168502807617188,1.31463623046875
201497,0.0736541748046875,-0.6690521240234375,1.218597412109375
201498,0.3336944580078125,-0.5516510009765625,1.1839599609375
201499,0.453887939453125,-0.3828125,1.177459716796875
201500,0.6025543212890625,-0.0518951416015625,1.272369384765625
201501,0.7727508544921875,0.207733154296875,1.26568603515625
201502,0.85565185546875,0.2709197998046875,1.1231689453125
201503,0.8441009521484375,0.14794921875,0.956512451171875
201504,0.7628021240234375,-0.0724029541015625,0.8188934326171875
201505,0.6542510986328125,-0.2319793701171875,0.6826019287109375
201506,0.5121917724609375,-0.308135986328125,0.5243072509765625
201507,0.3609161376953125,-0.3384552001953125,0.4010772705078125
201508,0.2103271484375,-0.393157958984375,0.2448883056640625
201509,0.0558624267578125,-0.5276641845703125,0.2230987548828125
201510,-0.076324462890625,-0.701934814453125,0.394378662109375
201511,-0.1997222900390625,-0.846038818359375,0.556884765625
201512,-0.31683349609375,-1.030349731445312,0.4791412353515625
201513,-0.5243072509765625,-1.32232666015625,0.2689361572265625
201514,-0.845245361328125,-1.668304443359375,0.072296142578125
201515,-1.123764038085938,-1.920761108398438,0.037078857421875
201516,-1.267120361328125,-1.92041015625,0.178009033203125
201517,-1.318145751953125,-1.532638549804688,0.2465972900390625
201518,-1.147506713867188,-0.92474365234375,0.26336669921875
201519,-0.831085205078125,-0.67022705078125,0.1706695556640625
201520,-0.6023406982421875,-0.56488037109375,0.0175323486328125
201521,-0.4518280029296875,-0.5236053466796875,-0.0780792236328125
201522,-0.354888916015625,-0.509307861328125,-0.0993499755859375
201523,-0.203338623046875,-0.49951171875,-0.0885467529296875
201524,-0.069122314453125,-0.4604644775390625,-0.046356201171875
201525,-0.0386505126953125,-0.3861236572265625,0.036590576171875
201526,-0.043670654296875,-0.309600830078125,0.024627685546875
201527,-0.037933349609375,-0.2830352783203125,-0.0838623046875
201528,-0.02105712890625,-0.248016357421875,-0.1415557861328125
201529,-0.01416015625,-0.141082763671875,-0.169891357421875
201530,-0.0234527587890625,-0.0521392822265625,-0.1830596923828125
201531,-0.01171875,0.0349578857421875,-0.1757659912109375
201532,0.0794219970703125,0.1070098876953125,-0.135467529296875
201533,0.2007904052734375,0.1510009765625,-0.0466766357421875
201534,0.310333251953125,0.1592864990234375,0.0859375
201535,0.433380126953125,0.1991424560546875,0.1953887939453125
201536,0.542266845703125,0.273162841796875,0.29766845703125
201537,0.6860504150390625,0.3103179931640625,0.3791656494140625
201538,0.7617950439453125,0.2752227783203125,0.39764404296875
201539,0.672454833984375,0.245025634765625,0.4384613037109375
201540,0.53363037109375,0.2796630859375,0.4567718505859375
201541,0.438507080078125,0.412261962890625,0.433197021484375
201542,0.367034912109375,0.5407257080078125,0.2978363037109375
201543,0.204437255859375,0.459808349609375,0.0433807373046875
201544,0.140716552734375,0.2627716064453125,-0.213623046875
201545,0.584991455078125,0.15863037109375,-0.1566009521484375
201546,1.399826049804688,0.033355712890625,0.1235504150390625
201547,1.82012939453125,-0.0298004150390625,0.5114898681640625
201548,1.640792846679688,0.105743408203125,1.612319946289062
201549,1.446853637695312,0.1114501953125,3.108367919921875
201550,1.73883056640625,-0.2937469482421875,4.321258544921875
201551,1.706954956054688,-0.878997802734375,5.375091552734375
201552,1.235107421875,-1.603744506835938,4.602340698242188
201553,0.5446929931640625,-2.572494506835938,3.50054931640625
201554,0.1436920166015625,-3.665145874023438,3.5386962890625
201555,0.0467529296875,-4.08770751953125,2.66790771484375
201556,0.1190948486328125,-3.18218994140625,1.962570190429688
201557,0.1783599853515625,-1.778610229492188,1.710464477539062
201558,0.08837890625,-0.983489990234375,1.571075439453125
201559,0.1137847900390625,-0.5770416259765625,1.431289672851562
201560,0.278778076171875,-0.333282470703125,1.247573852539062
201561,0.5211334228515625,-0.1929473876953125,1.139236450195312
201562,0.690399169921875,0.0235748291015625,1.193145751953125
201563,0.7304840087890625,0.2125701904296875,1.3138427734375
201564,0.6780853271484375,0.304107666015625,1.322525024414062
201565,0.663665771484375,0.300079345703125,1.189300537109375
201566,0.62969970703125,0.199676513671875,0.9704132080078124
201567,0.52923583984375,0.1509552001953125,0.774749755859375
201568,0.3827056884765625,0.14703369140625,0.4972381591796875
201569,0.2591552734375,0.0649871826171875,0.35906982421875
201570,0.185821533203125,-0.0740509033203125,0.33807373046875
201571,0.12615966796875,-0.2761993408203125,0.3195648193359375
201572,0.0684661865234375,-0.5033721923828125,0.4100494384765625
201573,-0.0289306640625,-0.799591064453125,0.5544891357421875
201574,-0.0918121337890625,-1.228012084960938,0.6340484619140625
201575,-0.18048095703125,-1.63946533203125,0.686370849609375
201576,-0.4431304931640625,-1.974349975585938,0.623748779296875
201577,-0.829742431640625,-2.16888427734375,0.4321136474609375
201578,-1.106292724609375,-1.936553955078125,0.4775848388671875
201579,-1.222610473632812,-1.282470703125,0.608673095703125
201580,-1.062850952148438,-0.648162841796875,0.5968475341796875
201581,-0.7646026611328125,-0.642333984375,0.349700927734375
201582,-0.4950714111328125,-0.7886505126953125,-0.014923095703125
201583,-0.35809326171875,-0.716552734375,-0.2479400634765625
201584,-0.31427001953125,-0.575775146484375,-0.2639923095703125
201585,-0.2958526611328125,-0.485687255859375,-0.19219970703125
201586,-0.255096435546875,-0.4379119873046875,-0.047637939453125
201587,-0.2531280517578125,-0.3592529296875,0.06915283203125
201588,-0.3071136474609375,-0.2816619873046875,0.04058837890625
201589,-0.3240509033203125,-0.2010955810546875,-0.0605010986328125
201590,-0.32373046875,-0.0880279541015625,-0.1376190185546875
201591,-0.3288421630859375,-0.0246734619140625,-0.1331939697265625
201592,-0.3042144775390625,0.035614013671875,-0.128753662109375
201593,-0.214019775390625,0.1070556640625,-0.1434326171875
201594,-0.0637054443359375,0.1422882080078125,-0.1270751953125
201595,0.0914459228515625,0.1428985595703125,-0.0867156982421875
201596,0.2435455322265625,0.0929107666015625,0.0006866455078125
201597,0.3951263427734375,0.07464599609375,0.0896453857421875
201598,0.5643157958984375,0.1312408447265625,0.190643310546875
201599,0.7783203125,0.1904754638671875,0.2872161865234375
201600,0.921905517578125,0.24163818359375,0.370025634765625
201601,0.8848114013671875,0.31982421875,0.3884429931640625
201602,0.6980133056640625,0.4170379638671875,0.37176513671875
201603,0.51544189453125,0.4778900146484375,0.334930419921875
201604,0.352294921875,0.414215087890625,0.1562347412109375
201605,0.1563873291015625,0.2868499755859375,-0.092193603515625
201606,0.0214996337890625,0.21160888671875,-0.236114501953125
201607,0.521759033203125,0.2362213134765625,-0.1488494873046875
201608,1.483963012695312,0.0839691162109375,0.018280029296875
201609,1.869186401367188,0.01837158203125,0.2285919189453125
201610,1.5638427734375,0.190185546875,1.40057373046875
201611,1.3538818359375,0.0516510009765625,3.330795288085938
201612,1.947525024414062,-0.5913848876953125,4.968704223632812
201613,1.960952758789062,-1.659927368164062,6.818405151367188
201614,0.998077392578125,-2.82672119140625,6.129196166992188
201615,-0.353729248046875,-4.160293579101562,4.866256713867188
201616,-0.7359771728515625,-5.177581787109375,3.523605346679688
201617,-0.573883056640625,-4.611587524414062,1.619903564453125
201618,-0.5826873779296875,-2.330551147460938,1.625503540039062
201619,-0.40386962890625,-0.7509613037109375,1.571151733398438
201620,-0.0018463134765625,-0.649871826171875,1.370040893554688
201621,0.2307586669921875,-0.6849212646484375,1.247756958007812
201622,0.462066650390625,-0.511566162109375,1.26708984375
201623,0.6358489990234375,-0.2612457275390625,1.281036376953125
201624,0.868194580078125,-0.00775146484375,1.248733520507812
201625,1.114013671875,0.1655731201171875,1.300079345703125
201626,1.137557983398438,0.31585693359375,1.29656982421875
201627,0.9836883544921876,0.404022216796875,0.9873809814453124
201628,0.7801361083984375,0.3566436767578125,0.6739959716796875
201629,0.645965576171875,0.2191162109375,0.5703125
201630,0.56939697265625,0.1858673095703125,0.323974609375
201631,0.4781951904296875,0.241546630859375,0.00823974609375
201632,0.38653564453125,0.287933349609375,-0.0651397705078125
201633,0.3711090087890625,0.212066650390625,-0.033111572265625
201634,0.437744140625,0.09552001953125,0.056365966796875
201635,0.506866455078125,-0.015350341796875,0.153411865234375
201636,0.417724609375,-0.0898590087890625,0.1964111328125
201637,0.3131866455078125,-0.2522735595703125,0.216033935546875
201638,0.1886444091796875,-0.6012420654296875,0.44586181640625
201639,-0.2754058837890625,-1.084548950195312,0.6312255859375
201640,-0.8998260498046875,-1.679168701171875,0.8563385009765625
201641,-1.912734985351562,-2.624740600585938,0.9932403564453124
201642,-2.7008056640625,-2.806503295898438,0.695587158203125
201643,-1.786651611328125,-1.653549194335938,0.6050872802734375
201644,-0.9680938720703124,-1.42889404296875,0.4102630615234375
201645,-0.485443115234375,-1.023513793945312,0.2503204345703125
201646,-0.173492431640625,-0.6369476318359375,0.033782958984375
201647,-0.0985107421875,-0.538116455078125,-0.2728118896484375
201648,-0.0333099365234375,-0.5950469970703125,-0.48614501953125
201649,0.0959014892578125,-0.6891326904296875,-0.54266357421875
201650,0.0767669677734375,-0.63189697265625,-0.34735107421875
201651,0.02435302734375,-0.4475250244140625,-0.0140380859375
201652,-0.1025238037109375,-0.3351593017578125,0.1493682861328125
201653,-0.3116607666015625,-0.264251708984375,0.2331390380859375
201654,-0.43798828125,-0.188446044921875,0.2895660400390625
201655,-0.5336761474609375,-0.17364501953125,0.27130126953125
201656,-0.585784912109375,-0.217315673828125,0.201690673828125
201657,-0.535736083984375,-0.2667388916015625,0.2091522216796875
201658,-0.5223541259765625,-0.2774200439453125,0.1969146728515625
201659,-0.465423583984375,-0.1995697021484375,0.175262451171875
201660,-0.3549957275390625,-0.10076904296875,0.1614532470703125
201661,-0.2412872314453125,-0.0548095703125,0.0913238525390625
201662,-0.1367340087890625,-0.0751800537109375,-0.0208282470703125
201663,-0.0046844482421875,-0.0618896484375,-0.1389312744140625
201664,0.2672882080078125,-0.0082244873046875,-0.2113494873046875
201665,0.60955810546875,0.00848388671875,-0.2147369384765625
201666,0.915863037109375,0.034454345703125,-0.153717041015625
201667,1.17242431640625,0.2040557861328125,0.0363616943359375
201668,1.661773681640625,0.2753753662109375,0.217620849609375
201669,2.200576782226562,0.1958160400390625,0.41839599609375
201670,2.511199951171875,0.204193115234375,1.36865234375
201671,2.541061401367188,0.3466644287109375,2.372329711914062
201672,2.669021606445312,0.446136474609375,2.9405517578125
201673,2.441986083984375,0.11724853515625,3.51153564453125
201674,1.607803344726562,-0.7058868408203125,4.160293579101562
201675,0.42657470703125,-1.839309692382812,4.88214111328125
201676,-0.6485748291015625,-3.266937255859375,4.213226318359375
201677,-1.3826904296875,-4.991180419921875,3.768234252929688
201678,-1.06915283203125,-6.185592651367188,2.17236328125
201679,-0.747772216796875,-4.887039184570312,0.9100494384765624
201680,-0.618621826171875,-1.756866455078125,0.814971923828125
201681,-0.13031005859375,-0.4605255126953125,0.8118438720703125
201682,0.3582305908203125,-0.3992919921875,1.023101806640625
201683,0.5783233642578125,-0.5134429931640625,1.364044189453125
201684,0.600830078125,-0.4691314697265625,1.6787109375
201685,0.63482666015625,-0.373199462890625,1.76336669921875
201686,0.8580169677734375,-0.4556884765625,1.56024169921875
201687,1.2509765625,-0.545989990234375,1.434555053710938
201688,1.325057983398438,-0.3342437744140625,1.038345336914062
201689,1.13897705078125,-0.121917724609375,0.63653564453125
201690,0.9813690185546876,-0.0148773193359375,0.50506591796875
201691,0.901641845703125,0.059600830078125,0.273223876953125
201692,0.847930908203125,0.1605224609375,-0.034759521484375
201693,0.8048858642578125,0.27264404296875,-0.168365478515625
201694,0.7777099609375,0.356689453125,-0.1394500732421875
201695,0.7591705322265625,0.389373779296875,-0.0463409423828125
201696,0.7269134521484375,0.3833160400390625,0.0150146484375
201697,0.5811614990234375,0.3646392822265625,-0.0332183837890625
201698,0.4154815673828125,0.3312225341796875,-0.0984039306640625
201699,0.225341796875,0.276947021484375,-0.14923095703125
201700,0.1251373291015625,0.1941680908203125,-0.1683349609375
201701,0.1237640380859375,0.118499755859375,-0.259521484375
201702,0.09613037109375,0.08538818359375,-0.326080322265625
201703,-0.047760009765625,0.0601806640625,-0.27630615234375
201704,-0.2644195556640625,0.038238525390625,-0.0848236083984375
201705,-0.524169921875,0.0281982421875,0.1902313232421875
201706,-0.7894134521484375,-0.0414581298828125,0.5038299560546875
201707,-1.071975708007812,-0.204071044921875,0.7399139404296875
201708,-1.369949340820312,-0.506011962890625,0.842254638671875
201709,-1.708465576171875,-0.9413909912109376,0.8866729736328125
201710,-1.992950439453125,-1.373321533203125,0.7316131591796875
201711,-1.997207641601562,-1.72003173828125,0.4979095458984375
201712,-1.640899658203125,-2.148452758789062,0.2081756591796875
201713,-1.036346435546875,-2.886245727539062,0.083526611328125
201714,-0.3417816162109375,-3.571151733398438,0.2443389892578125
201715,-0.025970458984375,-3.0982666015625,0.1065673828125
201716,0.1529083251953125,-2.219284057617188,-0.0368194580078125
201717,0.1447906494140625,-1.772903442382812,-0.0797882080078125
201718,-0.2520904541015625,-1.5191650390625,0.1959228515625
201719,-0.5649261474609375,-1.308013916015625,0.538055419921875
201720,-0.6862030029296875,-1.322265625,0.7421722412109375
201721,-0.6802978515625,-1.429489135742188,0.81787109375
201722,-0.6593780517578125,-1.377182006835938,0.6679229736328125
201723,-0.3802947998046875,-1.1514892578125,0.5229339599609375
201724,-0.0277557373046875,-0.87384033203125,0.3176116943359375
201725,0.2659912109375,-0.5423583984375,0.20166015625
201726,0.399444580078125,-0.1974639892578125,0.1485595703125
201727,0.613922119140625,0.075103759765625,0.33935546875
201728,0.9806976318359376,0.298492431640625,0.5488128662109375
201729,1.1846923828125,0.5697479248046875,0.6146392822265625
201730,1.279586791992188,0.687774658203125,0.67291259765625
201731,1.189422607421875,0.888397216796875,0.5230865478515625
201732,1.102554321289062,0.982666015625,0.3556365966796875
201733,1.055496215820312,0.8964996337890625,0.4517669677734375
201734,0.990264892578125,0.7631683349609375,0.5063934326171875
201735,0.95526123046875,0.728179931640625,0.4140625
201736,0.889373779296875,0.710968017578125,0.223114013671875
201737,0.8468170166015625,0.5887298583984375,0.1173095703125
201738,0.87493896484375,0.376434326171875,0.0341796875
201739,0.81182861328125,0.10491943359375,0.10064697265625
201740,0.6223297119140625,-0.1955413818359375,0.2196502685546875
201741,0.4312896728515625,-0.458160400390625,0.379058837890625
201742,0.3809814453125,-0.64202880859375,0.6681365966796875
201743,0.4980316162109375,-0.7672882080078125,0.832305908203125
201744,0.7350921630859375,-0.840667724609375,0.8410797119140625
201745,0.9122467041015624,-0.9013671875,0.6230316162109375
201746,0.719451904296875,-0.91046142578125,0.8897857666015625
201747,0.3012237548828125,-0.9332733154296876,2.122848510742188
201748,-0.12396240234375,-1.206207275390625,3.386795043945312
201749,-0.5029296875,-1.90478515625,4.165054321289062
201750,-0.458526611328125,-2.920135498046875,4.265869140625
201751,-0.3162384033203125,-3.61956787109375,3.648269653320312
201752,0.1556549072265625,-3.41986083984375,2.571563720703125
201753,0.3545684814453125,-2.4537353515625,1.123947143554688
201754,0.3059539794921875,-1.496383666992188,0.54559326171875
201755,0.420257568359375,-1.144699096679688,0.770355224609375
201756,0.5091094970703125,-0.97357177734375,1.117630004882812
201757,0.61846923828125,-0.7824554443359375,1.356918334960938
201758,0.7118988037109375,-0.5905914306640625,1.529205322265625
201759,0.81097412109375,-0.48150634765625,1.511093139648438
201760,0.9227142333984376,-0.409088134765625,1.33673095703125
201761,1.000244140625,-0.3139801025390625,1.101547241210938
201762,1.009292602539062,-0.15655517578125,0.8589935302734375
201763,0.9495849609375,0.0296173095703125,0.672760009765625
201764,0.8557586669921875,0.15911865234375,0.5644683837890625
201765,0.7544097900390625,0.22735595703125,0.4957427978515625
201766,0.6538238525390625,0.273040771484375,0.3279571533203125
201767,0.5812225341796875,0.27178955078125,0.1188507080078125
201768,0.4800262451171875,0.2350921630859375,-0.0620269775390625
201769,0.3538665771484375,0.2261505126953125,-0.1768646240234375
201770,0.2385406494140625,0.2249755859375,-0.3211212158203125
201771,0.06500244140625,0.23541259765625,-0.44189453125
201772,-0.0033721923828125,0.196990966796875,-0.3833465576171875
201773,0.0251617431640625,0.15289306640625,-0.3438568115234375
201774,0.0744781494140625,0.1145172119140625,-0.328521728515625
201775,0.099822998046875,0.0899505615234375,-0.3028564453125
201776,0.0860748291015625,0.09088134765625,-0.21063232421875
201777,0.0377197265625,0.079986572265625,-0.061248779296875
201778,-0.0402374267578125,0.0601348876953125,0.15234375
201779,-0.1121063232421875,0.025360107421875,0.4092254638671875
201780,-0.183441162109375,-0.07745361328125,0.740936279296875
201781,-0.30169677734375,-0.25079345703125,1.217620849609375
201782,-0.484893798828125,-0.5106658935546875,1.539535522460938
201783,-0.756195068359375,-0.8079376220703125,1.2567138671875
201784,-1.054946899414062,-1.004226684570312,0.7261505126953125
201785,-1.172195434570312,-1.195724487304688,0.3437652587890625
201786,-1.14996337890625,-1.529693603515625,0.433380126953125
201787,-1.1768798828125,-2.090225219726562,0.620697021484375
201788,-1.072311401367188,-3.3414306640625,0.576812744140625
201789,-0.754486083984375,-4.2919921875,0.1175994873046875
201790,-0.515960693359375,-3.437850952148438,0.192169189453125
201791,-0.2417755126953125,-2.112960815429688,0.653106689453125
201792,-0.0208587646484375,-1.333694458007812,0.683197021484375
201793,-0.0387725830078125,-0.8509368896484375,0.692657470703125
201794,-0.113006591796875,-0.7480316162109375,0.676910400390625
201795,-0.0450592041015625,-0.783111572265625,0.565460205078125
201796,0.03277587890625,-0.735809326171875,0.33154296875
201797,0.0016632080078125,-0.547393798828125,0.0379791259765625
201798,-0.184112548828125,-0.2707672119140625,-0.2573089599609375
201799,0.1730194091796875,-0.0615386962890625,0.138336181640625
201800,0.906494140625,0.1031951904296875,0.4964752197265625
201801,1.445663452148438,0.284027099609375,0.8102874755859375
201802,1.64813232421875,0.374267578125,0.980621337890625
201803,1.56915283203125,0.4604339599609375,0.999114990234375
201804,1.3900146484375,0.51727294921875,1.132064819335938
201805,1.106521606445312,0.5028076171875,1.110992431640625
201806,0.742919921875,0.4137725830078125,0.792236328125
201807,0.522705078125,0.2611236572265625,0.38104248046875
201808,0.309814453125,0.2300872802734375,0.184295654296875
201809,0.1155548095703125,0.1802520751953125,0.0339813232421875
201810,-0.04302978515625,0.100616455078125,-0.188385009765625
201811,-0.2077484130859375,0.0554656982421875,-0.36083984375
201812,-0.3902435302734375,0.04766845703125,-0.404876708984375
201813,-0.36724853515625,-0.05596923828125,-0.39495849609375
201814,-0.1649169921875,-0.1918487548828125,-0.283172607421875
201815,0.0252838134765625,-0.35260009765625,-0.0160064697265625
201816,0.2566375732421875,-0.47412109375,0.3521575927734375
201817,0.4540557861328125,-0.4980010986328125,0.9608306884765624
201818,0.6195068359375,-0.5847015380859375,1.932418823242188
201819,0.7627410888671875,-0.8647613525390625,3.207351684570312
201820,1.058609008789062,-1.265518188476562,3.76177978515625
201821,1.446746826171875,-1.418304443359375,4.08740234375
201822,1.720703125,-1.34173583984375,3.793228149414062
201823,1.360275268554688,-1.680618286132812,2.320770263671875
201824,0.7383880615234375,-2.563888549804688,1.387451171875
201825,0.3199920654296875,-2.908905029296875,1.345733642578125
201826,0.3815460205078125,-2.1563720703125,1.735107421875
201827,0.6927032470703125,-1.645477294921875,1.799163818359375
201828,0.662261962890625,-1.395233154296875,1.469879150390625
201829,0.5891265869140625,-0.945068359375,1.27813720703125
201830,0.518402099609375,-0.628082275390625,1.21820068359375
201831,0.437255859375,-0.4508514404296875,1.304595947265625
201832,0.5153350830078125,-0.2526702880859375,1.38568115234375
201833,0.6783905029296875,-0.027374267578125,1.2554931640625
201834,0.7650299072265625,0.1556396484375,0.9810028076171876
201835,0.757720947265625,0.2921905517578125,0.7225189208984375
201836,0.6832427978515625,0.3749237060546875,0.535400390625
201837,0.5691986083984375,0.3250579833984375,0.3808441162109375
201838,0.4426422119140625,0.1988525390625,0.2596435546875
201839,0.3655853271484375,0.128387451171875,0.1417694091796875
201840,0.3350372314453125,0.1058502197265625,0.0275726318359375
201841,0.2727203369140625,0.106109619140625,-0.0800323486328125
201842,0.20550537109375,0.12957763671875,-0.17938232421875
201843,0.0638885498046875,0.132659912109375,-0.312530517578125
201844,-0.02777099609375,0.0970306396484375,-0.3242034912109375
201845,-0.01104736328125,0.065948486328125,-0.259857177734375
201846,0.048797607421875,0.0998687744140625,-0.1928558349609375
201847,0.092437744140625,0.204193115234375,-0.1218719482421875
201848,0.0940399169921875,0.2925262451171875,-0.014678955078125
201849,0.03900146484375,0.2374420166015625,0.135162353515625
201850,-0.065948486328125,0.109710693359375,0.341094970703125
201851,-0.1665496826171875,-0.050201416015625,0.6247406005859375
201852,-0.2880859375,-0.2356109619140625,0.952545166015625
201853,-0.5371856689453125,-0.5433807373046875,1.188262939453125
201854,-0.870758056640625,-0.8914337158203125,1.187713623046875
201855,-1.107025146484375,-1.109619140625,0.9936065673828124
201856,-1.118179321289062,-1.169937133789062,0.6431121826171875
201857,-0.927825927734375,-1.244064331054688,0.46063232421875
201858,-0.79425048828125,-1.51702880859375,0.483306884765625
201859,-0.7443695068359375,-2.118850708007812,0.230316162109375
201860,-0.72705078125,-3.005813598632812,-0.1051177978515625
201861,-0.6996002197265625,-3.205352783203125,0.052764892578125
201862,-0.6793212890625,-2.580764770507812,0.4916229248046875
201863,-0.552337646484375,-1.845504760742188,0.818817138671875
201864,-0.4560089111328125,-1.517013549804688,0.6553497314453125
201865,-0.4583892822265625,-1.45758056640625,0.442535400390625
201866,-0.4333648681640625,-1.313339233398438,0.5045318603515625
201867,-0.3314971923828125,-1.073089599609375,0.4664306640625
201868,-0.1903839111328125,-0.8889617919921875,0.303680419921875
201869,-0.0278778076171875,-0.7790374755859375,0.251922607421875
201870,0.1080322265625,-0.663299560546875,0.236419677734375
201871,0.2330322265625,-0.4533233642578125,0.2168426513671875
201872,0.3456268310546875,-0.201568603515625,0.1396636962890625
201873,0.5782623291015625,0.04168701171875,0.3653564453125
201874,0.8896636962890625,0.3256072998046875,0.650360107421875
201875,1.098602294921875,0.5436553955078125,0.906341552734375
201876,1.196334838867188,0.641021728515625,1.133346557617188
201877,1.111785888671875,0.6222686767578125,1.037918090820312
201878,0.952972412109375,0.5150299072265625,0.7957916259765625
201879,0.7596282958984375,0.37554931640625,0.7303009033203125
201880,0.5530548095703125,0.29901123046875,0.6165008544921875
201881,0.4322509765625,0.2058868408203125,0.4495391845703125
201882,0.358184814453125,0.139404296875,0.30706787109375
201883,0.345458984375,0.1299896240234375,0.2994232177734375
201884,0.3526763916015625,0.1815948486328125,0.200225830078125
201885,0.3413238525390625,0.1268463134765625,-0.1070404052734375
201886,0.2399139404296875,-0.0122528076171875,-0.1519775390625
201887,0.1074981689453125,-0.1278839111328125,-0.4248809814453125
201888,0.007080078125,-0.298126220703125,-0.521453857421875
201889,0.004150390625,-0.4866943359375,-0.159393310546875
201890,0.06488037109375,-0.6310882568359375,0.396270751953125
201891,0.0857086181640625,-0.7061920166015625,0.8807830810546875
201892,-0.0123443603515625,-0.8195037841796875,1.364349365234375
201893,-0.294586181640625,-1.077667236328125,1.970947265625
201894,-0.4564666748046875,-1.390945434570312,2.5572509765625
201895,-0.1130218505859375,-1.50689697265625,3.085922241210938
201896,0.31451416015625,-1.4244384765625,3.32373046875
201897,0.426727294921875,-1.57269287109375,2.795989990234375
201898,0.399658203125,-2.26055908203125,2.340438842773438
201899,0.4373931884765625,-3.141204833984375,2.409393310546875
201900,0.4012603759765625,-3.158187866210938,1.628173828125
201901,0.429931640625,-2.1231689453125,1.4127197265625
201902,0.5327911376953125,-1.391952514648438,1.717758178710938
201903,0.63958740234375,-1.123794555664062,1.809768676757812
201904,0.772186279296875,-0.8565826416015625,1.74725341796875
201905,0.9178619384765624,-0.6838531494140625,1.718978881835938
201906,1.18359375,-0.5879364013671875,1.6666259765625
201907,1.44012451171875,-0.365692138671875,1.475234985351562
201908,1.54180908203125,-0.0424041748046875,1.1558837890625
201909,1.4957275390625,0.2040252685546875,0.8951263427734375
201910,1.339630126953125,0.3274383544921875,0.6968994140625
201911,1.08856201171875,0.3326263427734375,0.4944915771484375
201912,0.8076171875,0.25457763671875,0.3370361328125
201913,0.5553131103515625,0.191925048828125,0.2592926025390625
201914,0.400665283203125,0.1501312255859375,0.2133941650390625
201915,0.36077880859375,0.0957794189453125,0.177581787109375
201916,0.3616180419921875,0.0371551513671875,0.089935302734375
201917,0.3350372314453125,-0.0118865966796875,-0.039093017578125
201918,0.2551422119140625,-0.0395660400390625,-0.1446075439453125
201919,0.082855224609375,-0.060089111328125,-0.3021392822265625
201920,-0.1216888427734375,-0.105316162109375,-0.36529541015625
201921,-0.2229156494140625,-0.11883544921875,-0.2884521484375
201922,-0.2434844970703125,0.0189208984375,-0.1964874267578125
201923,-0.2207489013671875,0.1603851318359375,-0.1729278564453125
201924,-0.1887359619140625,0.2284698486328125,-0.114593505859375
201925,-0.1391754150390625,0.243377685546875,0.0070953369140625
201926,-0.0874481201171875,0.213043212890625,0.152923583984375
201927,-0.068572998046875,0.1495208740234375,0.2919464111328125
201928,-0.0985870361328125,0.06353759765625,0.4822845458984375
201929,-0.1807708740234375,-0.1194305419921875,0.7664947509765625
201930,-0.26495361328125,-0.3824920654296875,1.1549072265625
201931,-0.329681396484375,-0.7010345458984375,1.497802734375
201932,-0.5230865478515625,-1.16021728515625,1.295822143554688
201933,-0.9211578369140624,-1.640106201171875,0.90716552734375
201934,-1.290191650390625,-1.92340087890625,0.8184051513671875
201935,-1.526702880859375,-2.42724609375,0.5372772216796875
