time_idx,accelerometerAccelerationX(G),accelerometerAccelerationY(G),accelerometerAccelerationZ(G)
300000,-0.21038818359375,0.1418914794921875,-0.252960205078125
300001,-0.144622802734375,0.1480712890625,-0.3331451416015625
300002,-0.0968170166015625,0.1317138671875,-0.3998565673828125
300003,-0.0917816162109375,0.1356201171875,-0.382720947265625
300004,-0.0803985595703125,0.1686859130859375,-0.3378448486328125
300005,-0.0621185302734375,0.1994476318359375,-0.253143310546875
300006,-0.034820556640625,0.2525787353515625,-0.1575469970703125
300007,0.0048675537109375,0.319427490234375,-0.1002655029296875
300008,0.0489654541015625,0.3405609130859375,-0.0378265380859375
300009,0.0736846923828125,0.38079833984375,0.0014190673828125
300010,0.0447998046875,0.4394073486328125,0.0304412841796875
300011,-0.00640869140625,0.4648284912109375,0.0506134033203125
300012,-0.03009033203125,0.4392852783203125,0.024627685546875
300013,-0.0596771240234375,0.4079437255859375,0.00421142578125
300014,-0.078155517578125,0.39154052734375,-0.0272979736328125
300015,-0.0848236083984375,0.431365966796875,-0.04571533203125
300016,-0.027679443359375,0.430419921875,0.00653076171875
300017,0.166046142578125,0.3924102783203125,0.1397705078125
300018,0.5623321533203125,0.3383636474609375,0.276611328125
300019,1.212371826171875,0.2093658447265625,0.48504638671875
300020,1.782806396484375,0.105560302734375,1.289566040039062
300021,2.137557983398438,-0.0691070556640625,2.01434326171875
300022,3.121368408203125,-0.859588623046875,1.663665771484375
300023,3.76507568359375,-1.500137329101562,1.41162109375
300024,3.49591064453125,-1.1715087890625,1.298629760742188
300025,3.193817138671875,-0.8246307373046875,1.508804321289062
300026,3.0848388671875,-0.7098846435546875,1.759414672851562
300027,3.031204223632812,-0.9012451171875,2.088211059570312
300028,3.00250244140625,-1.412094116210938,2.612518310546875
300029,2.761642456054688,-2.305419921875,2.857742309570312
300030,2.029464721679688,-3.338027954101562,2.838485717773438
300031,0.5165252685546875,-3.957778930664062,2.5848388671875
300032,-0.841461181640625,-3.322280883789062,2.265213012695312
300033,-1.0201416015625,-2.015579223632812,1.669326782226562
300034,-0.9083709716796876,-1.568374633789062,1.145614624023438
300035,-0.940826416015625,-1.35321044921875,0.71142578125
300036,-0.991363525390625,-0.773468017578125,0.41058349609375
300037,-0.6524658203125,-0.3108062744140625,0.345428466796875
300038,-0.08038330078125,-0.2037200927734375,0.3839569091796875
300039,0.290618896484375,-0.2963409423828125,0.459808349609375
300040,0.4337921142578125,-0.4912872314453125,0.699371337890625
300041,0.5477294921875,-0.6043701171875,0.9408721923828124
300042,0.719940185546875,-0.6624603271484375,1.002365112304688
300043,0.73638916015625,-0.7060089111328125,1.072799682617188
300044,0.6053314208984375,-0.6793670654296875,1.170852661132812
300045,0.3639068603515625,-0.75372314453125,1.014846801757812
300046,0.0012664794921875,-0.8982696533203125,0.793060302734375
300047,-0.313079833984375,-1.024078369140625,0.7121734619140625
300048,-0.745574951171875,-1.160980224609375,0.5629425048828125
300049,-1.140777587890625,-1.318023681640625,0.5880584716796875
300050,-1.234710693359375,-1.354095458984375,0.606170654296875
300051,-1.00689697265625,-1.402114868164062,0.534515380859375
300052,-0.5401611328125,-1.405258178710938,0.3060150146484375
300053,-0.295745849609375,-1.14752197265625,0.0785980224609375
300054,-0.2672882080078125,-0.863128662109375,0.033172607421875
300055,-0.234954833984375,-0.64569091796875,0.048828125
300056,-0.1902618408203125,-0.5036163330078125,0.0102386474609375
300057,-0.164642333984375,-0.36590576171875,-0.05224609375
300058,-0.1595611572265625,-0.195068359375,-0.058197021484375
300059,-0.164093017578125,-0.023162841796875,-0.0330810546875
300060,-0.1552886962890625,0.1210784912109375,-0.0646209716796875
300061,-0.128662109375,0.22918701171875,-0.0861663818359375
300062,-0.1154937744140625,0.2886199951171875,-0.1196746826171875
300063,-0.118988037109375,0.3123779296875,-0.1899871826171875
300064,-0.1015167236328125,0.3134613037109375,-0.2417449951171875
300065,-0.0502471923828125,0.2987518310546875,-0.2515106201171875
300066,-0.0358428955078125,0.30621337890625,-0.258575439453125
300067,-0.038299560546875,0.28173828125,-0.2323760986328125
300068,-0.0304718017578125,0.2577056884765625,-0.1715087890625
300069,-0.0149688720703125,0.2565155029296875,-0.102325439453125
300070,-0.0331573486328125,0.2567901611328125,-0.11199951171875
300071,-0.0799407958984375,0.27349853515625,-0.1334381103515625
300072,-0.146270751953125,0.2971954345703125,-0.1447906494140625
300073,-0.201873779296875,0.2962188720703125,-0.19384765625
300074,-0.24261474609375,0.276153564453125,-0.2389678955078125
300075,-0.292999267578125,0.2531890869140625,-0.2233734130859375
300076,-0.2958526611328125,0.284576416015625,-0.1081390380859375
300077,-0.306976318359375,0.31298828125,0.0576019287109375
300078,-0.2072601318359375,0.293304443359375,0.305389404296875
300079,0.0373992919921875,0.407470703125,0.392791748046875
300080,0.5339813232421875,0.3042144775390625,0.360931396484375
300081,1.284622192382812,-0.118896484375,0.6968536376953125
300082,1.888031005859375,-0.45635986328125,1.755645751953125
300083,2.74700927734375,-0.772430419921875,1.996719360351562
300084,4.867874145507812,-2.130416870117188,2.255661010742188
300085,5.805267333984375,-2.902099609375,2.591766357421875
300086,5.0115966796875,-2.797515869140625,2.39019775390625
300087,3.400985717773438,-2.827362060546875,2.016693115234375
300088,2.22149658203125,-2.953460693359375,2.648818969726562
300089,1.488906860351562,-3.116195678710938,2.955917358398438
300090,1.111099243164062,-3.203338623046875,2.6231689453125
300091,0.712432861328125,-3.031707763671875,2.214080810546875
300092,0.2009429931640625,-2.473236083984375,1.473617553710938
300093,-0.147491455078125,-1.626922607421875,1.253890991210938
300094,-0.365325927734375,-1.172317504882812,1.261856079101562
300095,-0.4152374267578125,-0.9506378173828124,1.28839111328125
300096,-0.40521240234375,-0.77325439453125,1.254150390625
300097,-0.4122161865234375,-0.55279541015625,1.082687377929688
300098,-0.4033203125,-0.4124603271484375,0.97015380859375
300099,-0.3155975341796875,-0.3614349365234375,0.9226837158203124
300100,-0.186767578125,-0.3854522705078125,0.863433837890625
300101,-0.1110687255859375,-0.4386444091796875,0.8578643798828125
300102,-0.0779876708984375,-0.3870849609375,0.839080810546875
300103,-0.0053253173828125,-0.31109619140625,0.6936798095703125
300104,0.079620361328125,-0.3752593994140625,0.4904937744140625
300105,0.04632568359375,-0.5775146484375,0.3555450439453125
300106,-0.1456756591796875,-0.8041229248046875,0.35797119140625
300107,-0.424560546875,-1.01837158203125,0.4313507080078125
300108,-0.7023162841796875,-1.278457641601562,0.556732177734375
300109,-0.99908447265625,-1.515823364257812,0.7116546630859375
300110,-1.012771606445312,-1.609222412109375,0.8371429443359375
300111,-0.69384765625,-1.487960815429688,0.7332611083984375
300112,-0.3047027587890625,-1.159622192382812,0.426361083984375
300113,-0.1925201416015625,-0.8746337890625,0.149932861328125
300114,-0.16357421875,-0.650543212890625,0.1115264892578125
300115,-0.13970947265625,-0.4668426513671875,0.0864105224609375
300116,-0.115081787109375,-0.3312530517578125,0.029083251953125
300117,-0.0618743896484375,-0.2139892578125,0.017120361328125
300118,-0.0528411865234375,-0.09637451171875,-0.0327606201171875
300119,-0.05377197265625,-0.0125274658203125,-0.0648193359375
300120,-0.0745086669921875,0.106597900390625,-0.057861328125
300121,-0.11712646484375,0.2027435302734375,-0.04376220703125
300122,-0.174560546875,0.2825775146484375,-0.0930023193359375
300123,-0.222991943359375,0.348846435546875,-0.1803436279296875
300124,-0.2219085693359375,0.41192626953125,-0.231048583984375
300125,-0.1714324951171875,0.4209442138671875,-0.2726593017578125
300126,-0.1680145263671875,0.3852386474609375,-0.3857879638671875
300127,-0.21514892578125,0.3159942626953125,-0.408538818359375
300128,-0.2688140869140625,0.228485107421875,-0.3312835693359375
300129,-0.3130340576171875,0.1871490478515625,-0.2787322998046875
300130,-0.3182220458984375,0.206451416015625,-0.2532806396484375
300131,-0.2659912109375,0.245086669921875,-0.2002105712890625
300132,-0.1653900146484375,0.2858734130859375,-0.1334686279296875
300133,-0.039947509765625,0.322540283203125,-0.0854949951171875
300134,0.0886077880859375,0.3894805908203125,-0.0810699462890625
300135,0.201385498046875,0.394378662109375,-0.0450897216796875
300136,0.279083251953125,0.3726043701171875,0.020172119140625
300137,0.2738189697265625,0.374053955078125,0.0653839111328125
300138,0.2356109619140625,0.395721435546875,0.160247802734375
300139,0.460052490234375,0.4162139892578125,0.3113555908203125
300140,1.037246704101562,0.3784637451171875,0.591949462890625
300141,1.798309326171875,0.2503662109375,1.413970947265625
300142,2.384689331054688,0.0378570556640625,2.174072265625
300143,3.531631469726562,-0.9676513671875,2.12744140625
300144,4.822540283203125,-1.944076538085938,2.030441284179688
300145,4.722503662109375,-1.718154907226562,1.692840576171875
300146,4.1258544921875,-1.795303344726562,1.510650634765625
300147,3.254730224609375,-2.113662719726562,1.729415893554688
300148,2.531097412109375,-2.340682983398438,2.355072021484375
300149,1.983154296875,-2.800521850585938,2.701492309570312
300150,1.449966430664062,-3.499679565429688,2.95269775390625
300151,0.5999603271484375,-3.956085205078125,2.411895751953125
300152,-0.34613037109375,-3.21978759765625,1.847000122070312
300153,-0.5597381591796875,-1.866134643554688,1.619857788085938
300154,-0.59014892578125,-1.57147216796875,1.433883666992188
300155,-0.61968994140625,-1.4306640625,1.2030029296875
300156,-0.5306854248046875,-0.976043701171875,1.056228637695312
300157,-0.3441009521484375,-0.5556182861328125,0.9002532958984375
300158,-0.11358642578125,-0.4241485595703125,0.80078125
300159,0.0750885009765625,-0.5186767578125,0.827728271484375
300160,0.1770477294921875,-0.6073455810546875,0.8517303466796875
300161,0.248687744140625,-0.58917236328125,0.7849578857421875
300162,0.3077392578125,-0.4849395751953125,0.7549896240234375
300163,0.2953338623046875,-0.34161376953125,0.728057861328125
300164,0.2215576171875,-0.25872802734375,0.693817138671875
300165,0.0977783203125,-0.305877685546875,0.62152099609375
300166,-0.1348114013671875,-0.4376220703125,0.5567474365234375
300167,-0.4773712158203125,-0.628997802734375,0.4849700927734375
300168,-0.8432769775390625,-0.8922119140625,0.49273681640625
300169,-1.215682983398438,-1.257354736328125,0.6231231689453125
300170,-1.393341064453125,-1.49993896484375,0.8363800048828125
300171,-1.127304077148438,-1.48638916015625,0.861602783203125
300172,-0.5234222412109375,-1.352569580078125,0.5975799560546875
300173,-0.17919921875,-1.136032104492188,0.234832763671875
300174,-0.132171630859375,-0.9101409912109376,0.1028900146484375
300175,-0.125579833984375,-0.7090301513671875,0.1435394287109375
300176,-0.108551025390625,-0.5184173583984375,0.145233154296875
300177,-0.0719451904296875,-0.3533935546875,0.1349334716796875
300178,-0.0334320068359375,-0.2070465087890625,0.134063720703125
300179,-0.0602569580078125,-0.055755615234375,0.1156005859375
300180,-0.11053466796875,0.116302490234375,0.1044769287109375
300181,-0.093994140625,0.19805908203125,0.0528411865234375
300182,-0.0576019287109375,0.248443603515625,-0.0450286865234375
300183,-0.051422119140625,0.341796875,-0.180419921875
300184,-0.0580596923828125,0.3950042724609375,-0.306121826171875
300185,-0.037811279296875,0.439300537109375,-0.379669189453125
300186,0.010498046875,0.50860595703125,-0.3838348388671875
300187,0.06536865234375,0.57061767578125,-0.3486480712890625
300188,0.1219940185546875,0.5876922607421875,-0.29046630859375
300189,0.137939453125,0.5243988037109375,-0.2071075439453125
300190,0.12103271484375,0.43011474609375,-0.08843994140625
300191,0.0725860595703125,0.3750457763671875,0.0497283935546875
300192,-0.005645751953125,0.3239288330078125,0.1625213623046875
300193,-0.096771240234375,0.2592315673828125,0.2146148681640625
300194,-0.18621826171875,0.19940185546875,0.1813201904296875
300195,-0.2454376220703125,0.1652374267578125,0.096710205078125
300196,-0.263092041015625,0.1638641357421875,-0.031646728515625
300197,-0.2459716796875,0.1365814208984375,-0.1217803955078125
300198,-0.159332275390625,0.1146392822265625,-0.0441436767578125
300199,-0.0687713623046875,0.23895263671875,0.0756988525390625
300200,0.0967254638671875,0.3254852294921875,0.1629638671875
300201,0.6564178466796875,0.2098236083984375,0.36224365234375
300202,1.570297241210938,-0.0554656982421875,0.8780517578125
300203,2.151214599609375,-0.331634521484375,1.591217041015625
300204,2.76837158203125,-0.795989990234375,1.6817626953125
300205,4.273696899414062,-1.68377685546875,2.107833862304688
300206,4.87286376953125,-1.981765747070312,1.90386962890625
300207,4.353057861328125,-1.642791748046875,2.140853881835938
300208,3.579071044921875,-1.850067138671875,2.424179077148438
300209,2.687606811523438,-2.556304931640625,2.503799438476562
300210,1.863189697265625,-3.23443603515625,2.7733154296875
300211,1.194580078125,-3.538528442382812,2.85308837890625
300212,0.504150390625,-3.6614990234375,2.421356201171875
300213,-0.2200164794921875,-3.279815673828125,1.542129516601562
300214,-0.4944305419921875,-2.166351318359375,1.300003051757812
300215,-0.6461639404296875,-1.520538330078125,1.113861083984375
300216,-0.7272796630859375,-1.281417846679688,1.013580322265625
300217,-0.58551025390625,-0.9311370849609376,0.9180908203125
300218,-0.308929443359375,-0.6358642578125,0.7808685302734375
300219,-0.0283355712890625,-0.466552734375,0.7206268310546875
300220,0.1756134033203125,-0.43096923828125,0.6917877197265625
300221,0.3460845947265625,-0.4937286376953125,0.64312744140625
300222,0.466461181640625,-0.5466766357421875,0.5624542236328125
300223,0.518280029296875,-0.5650177001953125,0.5630950927734375
300224,0.5060882568359375,-0.56683349609375,0.6178131103515625
300225,0.4569244384765625,-0.55255126953125,0.6147003173828125
300226,0.3549041748046875,-0.526123046875,0.563446044921875
300227,0.137359619140625,-0.5567474365234375,0.4736175537109375
300228,-0.1653594970703125,-0.6910400390625,0.3916778564453125
300229,-0.49163818359375,-0.769989013671875,0.4894866943359375
300230,-0.875213623046875,-0.9885101318359376,0.7050628662109375
300231,-1.07196044921875,-1.23236083984375,0.9216461181640624
300232,-0.814849853515625,-1.387466430664062,1.081344604492188
300233,-0.2977294921875,-1.458541870117188,0.9734649658203124
300234,-0.0756072998046875,-1.303878784179688,0.7236175537109375
300235,-0.188018798828125,-1.043930053710938,0.6035003662109375
300236,-0.2526092529296875,-0.794586181640625,0.5118865966796875
300237,-0.2204437255859375,-0.60821533203125,0.3378143310546875
300238,-0.1986846923828125,-0.433349609375,0.1437225341796875
300239,-0.222564697265625,-0.233245849609375,-0.0090484619140625
300240,-0.2614593505859375,-0.046142578125,-0.13470458984375
300241,-0.3485565185546875,0.090362548828125,-0.2781524658203125
300242,-0.483734130859375,0.2032318115234375,-0.37628173828125
300243,-0.5389404296875,0.314666748046875,-0.3993072509765625
300244,-0.5369415283203125,0.4189453125,-0.44000244140625
300245,-0.502716064453125,0.520263671875,-0.4084625244140625
300246,-0.411651611328125,0.544921875,-0.351043701171875
300247,-0.282745361328125,0.510406494140625,-0.2935028076171875
300248,-0.140655517578125,0.463653564453125,-0.214141845703125
300249,-0.0218963623046875,0.423675537109375,-0.1677398681640625
300250,0.087127685546875,0.3656005859375,-0.1486358642578125
300251,0.14141845703125,0.32122802734375,-0.1328125
300252,0.1388397216796875,0.295501708984375,-0.058746337890625
300253,0.1089019775390625,0.2817840576171875,0.0357208251953125
300254,0.061798095703125,0.2633819580078125,0.0828704833984375
300255,-0.0307464599609375,0.25494384765625,0.062835693359375
300256,-0.1008453369140625,0.2745513916015625,0.028594970703125
300257,-0.1951446533203125,0.3355712890625,-0.0125274658203125
300258,-0.294464111328125,0.361968994140625,0.0256500244140625
300259,-0.2828369140625,0.4166259765625,0.180267333984375
300260,0.034637451171875,0.4390106201171875,0.3665618896484375
300261,0.8665771484375,0.2945098876953125,0.468048095703125
300262,2.171630859375,-0.1569976806640625,1.047149658203125
300263,2.7059326171875,-0.3587799072265625,1.689361572265625
300264,3.668197631835938,-0.6676483154296875,2.043258666992188
300265,5.323013305664062,-1.710739135742188,2.355758666992188
300266,5.029342651367188,-1.859588623046875,1.134185791015625
300267,3.483078002929688,-1.633255004882812,1.2462158203125
300268,2.45208740234375,-2.039276123046875,2.109420776367188
300269,2.249404907226562,-2.543502807617188,3.096389770507812
300270,2.167449951171875,-3.006332397460938,3.578125
300271,1.74017333984375,-3.860198974609375,3.43817138671875
300272,0.6031646728515625,-4.188308715820312,2.505447387695312
300273,-0.096832275390625,-2.934844970703125,1.907012939453125
300274,-0.386322021484375,-1.865966796875,1.590301513671875
300275,-0.478179931640625,-1.608062744140625,1.16351318359375
300276,-0.3629913330078125,-1.291732788085938,0.7273712158203125
300277,-0.2230987548828125,-0.8513946533203125,0.4701080322265625
300278,-0.0293426513671875,-0.532135009765625,0.5140533447265625
300279,0.1625213623046875,-0.42303466796875,0.6045684814453125
300280,0.2607421875,-0.4331817626953125,0.637481689453125
300281,0.270965576171875,-0.4926605224609375,0.656494140625
300282,0.2688446044921875,-0.566009521484375,0.6899261474609375
300283,0.2681732177734375,-0.6305084228515625,0.7136993408203125
300284,0.195892333984375,-0.6906890869140625,0.68511962890625
300285,0.065521240234375,-0.677825927734375,0.6021881103515625
300286,-0.311065673828125,-0.8231964111328125,0.4261322021484375
300287,-0.6115570068359375,-0.85693359375,0.436676025390625
300288,-0.85650634765625,-0.9103851318359376,0.426849365234375
300289,-1.243240356445312,-1.102584838867188,0.5048065185546875
300290,-1.4503173828125,-1.143218994140625,0.7029571533203125
300291,-1.166290283203125,-1.149459838867188,0.80224609375
300292,-0.5574798583984375,-1.136062622070312,0.671966552734375
300293,-0.21051025390625,-0.9943084716796876,0.4653472900390625
300294,-0.1090087890625,-0.86865234375,0.4234161376953125
300295,-0.049346923828125,-0.733612060546875,0.4937896728515625
300296,0.0657806396484375,-0.56488037109375,0.441131591796875
300297,0.1846160888671875,-0.3922271728515625,0.3177032470703125
300298,0.2447509765625,-0.2054443359375,0.181396484375
300299,0.182708740234375,-0.05755615234375,0.071533203125
300300,0.049346923828125,0.053619384765625,0.0276641845703125
300301,-0.066802978515625,0.1253814697265625,0.0075531005859375
300302,-0.14483642578125,0.2344512939453125,-0.0912628173828125
300303,-0.1859130859375,0.3524932861328125,-0.214080810546875
300304,-0.2058563232421875,0.434906005859375,-0.3565826416015625
300305,-0.1909332275390625,0.4852447509765625,-0.431884765625
300306,-0.1911773681640625,0.45916748046875,-0.362762451171875
300307,-0.2044830322265625,0.3661041259765625,-0.2612152099609375
300308,-0.1805267333984375,0.2977447509765625,-0.146484375
300309,-0.1193389892578125,0.2337799072265625,-0.0619659423828125
300310,-0.0435028076171875,0.169342041015625,-0.06256103515625
300311,0.0275421142578125,0.11712646484375,-0.114227294921875
300312,0.062469482421875,0.09197998046875,-0.1566925048828125
300313,0.0776519775390625,0.05963134765625,-0.1625518798828125
300314,0.0750732421875,0.044677734375,-0.147735595703125
300315,-0.0052642822265625,0.047607421875,-0.136505126953125
300316,-0.1906890869140625,0.097442626953125,-0.0642547607421875
300317,-0.407806396484375,0.249420166015625,0.03375244140625
300318,-0.5157318115234375,0.4144744873046875,0.0682830810546875
300319,-0.4180450439453125,0.6278228759765625,0.0487060546875
300320,-0.1685791015625,0.6675872802734375,0.071868896484375
300321,0.628631591796875,0.4431610107421875,0.175628662109375
300322,1.668533325195312,-0.01458740234375,0.5485992431640625
300323,1.984939575195312,-0.2098846435546875,1.398361206054688
300324,2.742111206054688,-0.0872955322265625,1.849365234375
300325,5.048202514648438,-1.0009765625,2.90301513671875
300326,6.241119384765625,-1.2635498046875,2.481735229492188
300327,5.256439208984375,-0.780303955078125,1.614654541015625
300328,3.739730834960938,-1.100250244140625,1.899703979492188
300329,2.529922485351562,-1.987258911132812,2.546005249023438
300330,1.614334106445312,-2.95550537109375,3.3890380859375
300331,0.9085693359375,-3.599029541015625,3.933670043945312
300332,0.06512451171875,-4.029220581054688,3.621414184570312
300333,-0.43853759765625,-3.845123291015625,2.1959228515625
300334,-0.52972412109375,-2.699951171875,1.21136474609375
300335,-0.8756256103515625,-1.697052001953125,0.795440673828125
300336,-1.060165405273438,-1.250198364257812,0.5413055419921875
300337,-0.7361297607421875,-0.789154052734375,0.686248779296875
300338,-0.251068115234375,-0.4207763671875,0.9741058349609376
300339,0.143646240234375,-0.1902008056640625,1.015670776367188
300340,0.4247894287109375,-0.1743927001953125,1.053207397460938
300341,0.5744476318359375,-0.2033843994140625,1.107070922851562
300342,0.6555633544921875,-0.269683837890625,0.9834747314453124
300343,0.7635040283203125,-0.3452606201171875,0.8439483642578125
300344,0.8304595947265625,-0.35845947265625,0.831298828125
300345,0.7707366943359375,-0.4322662353515625,0.8442840576171875
300346,0.5552825927734375,-0.54888916015625,0.733642578125
300347,0.2903900146484375,-0.6590576171875,0.6503448486328125
300348,0.0067291259765625,-0.74468994140625,0.5540008544921875
300349,-0.3136138916015625,-0.801727294921875,0.47265625
300350,-0.6779632568359375,-0.9016571044921876,0.5218048095703125
300351,-0.9613800048828124,-0.9467926025390624,0.6222686767578125
300352,-0.9603271484375,-1.002334594726562,0.6204833984375
300353,-0.6182098388671875,-1.079635620117188,0.54913330078125
300354,-0.258087158203125,-1.025985717773438,0.432342529296875
300355,-0.19342041015625,-0.8754119873046875,0.291534423828125
300356,-0.178009033203125,-0.7108917236328125,0.3638153076171875
300357,-0.164276123046875,-0.5478973388671875,0.3072509765625
300358,-0.154571533203125,-0.3826904296875,0.045562744140625
300359,-0.147186279296875,-0.272735595703125,-0.155914306640625
300360,0.0254974365234375,-0.19830322265625,-0.20721435546875
300361,0.1549835205078125,-0.0346221923828125,-0.3816986083984375
300362,0.136474609375,0.100830078125,-0.45550537109375
300363,0.0355224609375,0.156219482421875,-0.3737030029296875
300364,-0.09814453125,0.1992645263671875,-0.299072265625
300365,-0.2081451416015625,0.2401885986328125,-0.1724395751953125
300366,-0.269195556640625,0.25152587890625,-0.061431884765625
300367,-0.3126983642578125,0.22735595703125,-0.0377960205078125
300368,-0.3845672607421875,0.184417724609375,-0.040008544921875
300369,-0.470855712890625,0.1533203125,-0.0034027099609375
300370,-0.4686431884765625,0.138702392578125,0.1038970947265625
300371,-0.358184814453125,0.148895263671875,0.151123046875
300372,-0.1802520751953125,0.1502227783203125,0.120758056640625
300373,0.000823974609375,0.118438720703125,0.022308349609375
300374,0.1340789794921875,0.063201904296875,-0.101226806640625
300375,0.2694091796875,0.0321502685546875,-0.1703643798828125
300376,0.380859375,0.04315185546875,-0.1057281494140625
300377,0.3906097412109375,0.078826904296875,0.0001678466796875
300378,0.2454681396484375,0.1215667724609375,0.0868682861328125
300379,-0.0134735107421875,0.1732330322265625,0.0846710205078125
300380,-0.2235565185546875,0.360595703125,0.177764892578125
300381,-0.0934600830078125,0.571380615234375,0.312347412109375
300382,0.425323486328125,0.5625762939453125,0.4393157958984375
300383,1.23394775390625,0.214752197265625,0.5926971435546875
300384,1.896560668945312,-0.173431396484375,1.259063720703125
300385,2.302032470703125,-0.1431121826171875,1.98095703125
300386,3.759292602539062,-0.5644989013671875,2.807998657226562
300387,5.249725341796875,-1.459320068359375,3.1583251953125
300388,5.085296630859375,-2.159164428710938,2.549163818359375
300389,3.741790771484375,-2.578964233398438,3.174942016601562
300390,2.438919067382812,-2.953201293945312,4.06396484375
300391,1.526138305664062,-3.35260009765625,3.939605712890625
300392,0.562347412109375,-3.517303466796875,3.41204833984375
300393,-0.313140869140625,-2.957656860351562,2.23675537109375
300394,-0.62628173828125,-1.95721435546875,1.3956298828125
300395,-0.7258758544921875,-1.430984497070312,1.186172485351562
300396,-0.7811279296875,-1.058914184570312,0.8030548095703125
300397,-0.56219482421875,-0.6263427734375,0.53997802734375
300398,-0.1519012451171875,-0.2795562744140625,0.538299560546875
300399,0.1862030029296875,-0.0992279052734375,0.638946533203125
300400,0.390228271484375,-0.0515899658203125,0.7691650390625
300401,0.4944000244140625,-0.0717010498046875,0.866485595703125
300402,0.637115478515625,-0.142822265625,0.8923492431640625
300403,0.80535888671875,-0.2260589599609375,0.7894439697265625
300404,0.7914886474609375,-0.36676025390625,0.6390380859375
300405,0.579620361328125,-0.5438232421875,0.5576629638671875
300406,0.2001190185546875,-0.636016845703125,0.361297607421875
300407,-0.1773529052734375,-0.585968017578125,0.3195037841796875
300408,-0.530731201171875,-0.6144256591796875,0.3253021240234375
300409,-0.97015380859375,-0.7484588623046875,0.2701873779296875
300410,-1.333389282226562,-0.9438629150390624,0.2734527587890625
300411,-1.43072509765625,-1.048538208007812,0.4272003173828125
300412,-1.084640502929688,-1.098983764648438,0.6494903564453125
300413,-0.5822296142578125,-1.001434326171875,0.5713958740234375
300414,-0.356292724609375,-0.9073638916015624,0.3304901123046875
300415,-0.2167205810546875,-0.7401123046875,0.3754119873046875
300416,-0.1039581298828125,-0.5243377685546875,0.576171875
300417,-0.0146942138671875,-0.3321380615234375,0.4123077392578125
300418,0.105316162109375,-0.16729736328125,0.036468505859375
300419,0.232940673828125,-0.033660888671875,-0.224517822265625
300420,0.2827606201171875,0.0430908203125,-0.2788238525390625
300421,0.2104949951171875,0.10760498046875,-0.28857421875
300422,0.015869140625,0.1444244384765625,-0.26947021484375
300423,-0.1883087158203125,0.1629180908203125,-0.18878173828125
300424,-0.3763427734375,0.2047576904296875,-0.1658477783203125
300425,-0.503265380859375,0.216339111328125,-0.163970947265625
300426,-0.593475341796875,0.17236328125,-0.222137451171875
300427,-0.638763427734375,0.0855560302734375,-0.20513916015625
300428,-0.6124267578125,0.0484771728515625,-0.1596527099609375
300429,-0.501953125,0.0723724365234375,-0.108551025390625
300430,-0.3407135009765625,0.0839996337890625,-0.096923828125
300431,-0.20733642578125,0.067535400390625,-0.097198486328125
300432,-0.0990447998046875,0.0392303466796875,-0.08990478515625
300433,0.0892486572265625,0.0708770751953125,-0.071563720703125
300434,0.307464599609375,0.0910186767578125,-0.0466766357421875
300435,0.375518798828125,0.047607421875,0.0175018310546875
300436,0.47198486328125,0.03436279296875,0.155364990234375
300437,0.616058349609375,0.210296630859375,0.30474853515625
300438,0.8178863525390625,0.4201507568359375,0.467132568359375
300439,1.166107177734375,0.4311676025390625,0.7694549560546875
300440,1.665618896484375,0.1527252197265625,1.643844604492188
300441,2.1873779296875,-0.04998779296875,2.340438842773438
300442,3.352096557617188,-0.397796630859375,2.782089233398438
300443,4.516036987304688,-1.000595092773438,2.618621826171875
300444,4.680221557617188,-1.348098754882812,1.695831298828125
300445,3.833175659179688,-1.624160766601562,1.631591796875
300446,2.85675048828125,-2.171798706054688,2.66375732421875
300447,2.210357666015625,-2.688583374023438,3.681884765625
300448,1.69647216796875,-3.035812377929688,4.381805419921875
300449,0.7932891845703125,-3.183349609375,3.911575317382812
300450,-0.0230865478515625,-2.565811157226562,2.382736206054688
300451,-0.4576873779296875,-1.5570068359375,1.532730102539062
300452,-0.75579833984375,-1.07257080078125,1.119873046875
300453,-0.7309722900390625,-0.7770538330078125,0.7682037353515625
300454,-0.5528411865234375,-0.5088043212890625,0.531646728515625
300455,-0.3863525390625,-0.283935546875,0.394683837890625
300456,-0.2724151611328125,-0.0740509033203125,0.42877197265625
300457,-0.1327972412109375,0.06787109375,0.627166748046875
300458,-0.0574188232421875,0.160858154296875,0.804290771484375
300459,-0.009613037109375,0.209991455078125,0.83697509765625
300460,-0.0020751953125,0.146728515625,0.7566070556640625
300461,-0.0722198486328125,-0.1070404052734375,0.6698455810546875
300462,-0.1488189697265625,-0.336212158203125,0.613525390625
300463,-0.2173919677734375,-0.409881591796875,0.6314239501953125
300464,-0.4367218017578125,-0.4765777587890625,0.691986083984375
300465,-0.8923492431640625,-0.6162872314453125,0.7578582763671875
300466,-1.210357666015625,-0.60723876953125,0.8332977294921875
300467,-1.282989501953125,-0.623077392578125,0.812713623046875
300468,-1.022903442382812,-0.73492431640625,0.6535797119140625
300469,-0.513336181640625,-0.78387451171875,0.4224853515625
300470,-0.216552734375,-0.704620361328125,0.0738067626953125
300471,-0.141510009765625,-0.5925445556640625,-0.2383880615234375
300472,-0.010711669921875,-0.3943939208984375,-0.4171600341796875
300473,0.2682952880859375,-0.0800018310546875,-0.577789306640625
300474,0.573150634765625,0.250885009765625,-0.688018798828125
300475,0.8596038818359375,0.47845458984375,-0.5992279052734375
300476,0.92767333984375,0.5227813720703125,-0.4117889404296875
300477,0.7660675048828125,0.3843841552734375,-0.05242919921875
300478,0.5260162353515625,0.132415771484375,0.4113922119140625
300479,0.1984710693359375,-0.0164642333984375,0.518951416015625
300480,-0.1049957275390625,0.0466156005859375,0.387237548828125
300481,-0.3778228759765625,0.181793212890625,0.20050048828125
300482,-0.6690216064453125,0.1287078857421875,0.055450439453125
300483,-0.8565673828125,0.0212554931640625,-0.1335906982421875
300484,-0.8515777587890625,-0.017974853515625,-0.299072265625
300485,-0.670440673828125,0.006561279296875,-0.260986328125
300486,-0.3954925537109375,-0.028045654296875,-0.1283721923828125
300487,-0.1086883544921875,-0.1403656005859375,-0.0613250732421875
300488,0.1574554443359375,-0.25732421875,-0.1045074462890625
300489,0.389739990234375,-0.4049224853515625,-0.1252899169921875
300490,0.7580108642578125,-0.5849456787109375,0.0486297607421875
300491,1.305694580078125,-0.823883056640625,0.442840576171875
300492,1.671722412109375,-1.071670532226562,0.8382415771484375
300493,1.725753784179688,-1.098129272460938,1.206329345703125
300494,1.57470703125,-0.871795654296875,1.394256591796875
300495,1.510757446289062,-0.382354736328125,1.550048828125
300496,1.69952392578125,0.1905670166015625,1.882171630859375
300497,2.19580078125,0.3914642333984375,2.094558715820312
300498,2.897354125976562,0.0586395263671875,2.42376708984375
300499,3.501632690429688,-0.61614990234375,2.979644775390625
300500,3.230194091796875,-1.487503051757812,4.202072143554688
300501,2.465011596679688,-2.52911376953125,5.478775024414062
300502,1.793746948242188,-3.366134643554688,5.429061889648438
300503,0.995758056640625,-3.309295654296875,4.657180786132812
300504,0.14068603515625,-2.471771240234375,3.280197143554688
300505,-0.5171356201171875,-2.00909423828125,2.20355224609375
300506,-0.964935302734375,-2.302322387695312,1.795654296875
300507,-1.544937133789062,-2.56512451171875,1.800003051757812
300508,-1.882598876953125,-2.747512817382812,2.0048828125
300509,-1.908538818359375,-2.88397216796875,1.836959838867188
300510,-1.637039184570312,-2.768417358398438,1.5010986328125
300511,-1.177093505859375,-2.026657104492188,1.106201171875
300512,-0.72991943359375,-1.375823974609375,0.7957763671875
300513,-0.3806610107421875,-1.010391235351562,0.5738983154296875
300514,-0.1212005615234375,-0.783599853515625,0.4065704345703125
300515,0.241485595703125,-0.560455322265625,0.3323516845703125
300516,0.34765625,-0.029266357421875,0.1721038818359375
300517,0.386749267578125,0.24072265625,0.1103973388671875
300518,0.838134765625,0.441650390625,0.475494384765625
300519,1.251144409179688,0.7842254638671875,0.8511962890625
300520,1.236862182617188,0.8424072265625,0.819976806640625
300521,0.95654296875,0.5539093017578125,0.5633087158203125
300522,0.6233367919921875,0.278106689453125,0.4266510009765625
300523,0.45587158203125,0.1309967041015625,0.3951263427734375
300524,0.3657989501953125,0.215545654296875,0.45989990234375
300525,0.2324981689453125,0.2568359375,0.310150146484375
300526,0.1368408203125,0.0906524658203125,0.2453155517578125
300527,0.092620849609375,-0.144287109375,0.251953125
300528,0.039398193359375,-0.3118438720703125,0.0881195068359375
300529,-0.006805419921875,-0.4424285888671875,-0.05316162109375
300530,0.01995849609375,-0.4344482421875,-0.108795166015625
300531,0.09747314453125,-0.3233795166015625,-0.1078643798828125
300532,0.127105712890625,-0.237091064453125,-0.1810455322265625
300533,0.1290283203125,-0.288604736328125,-0.2359771728515625
300534,0.060577392578125,-0.4123992919921875,-0.201751708984375
300535,-0.0446014404296875,-0.55596923828125,-0.187042236328125
300536,-0.1409149169921875,-0.7374420166015625,-0.233642578125
300537,-0.3027191162109375,-0.97607421875,-0.295684814453125
300538,-0.599212646484375,-1.21490478515625,-0.196136474609375
300539,-0.991241455078125,-1.449066162109375,0.0569305419921875
300540,-1.284759521484375,-1.44708251953125,0.29669189453125
300541,-1.165863037109375,-1.066314697265625,0.621612548828125
300542,-0.942108154296875,-0.6717987060546875,0.8033905029296875
300543,-0.68023681640625,-0.4163970947265625,0.8087921142578125
300544,-0.082672119140625,-0.358551025390625,0.7153472900390625
300545,0.6385650634765625,-0.347137451171875,0.7629852294921875
300546,1.332748413085938,-0.08331298828125,0.9033050537109376
300547,1.858489990234375,0.0391693115234375,0.879241943359375
300548,2.092681884765625,0.397857666015625,0.6056976318359375
300549,2.047454833984375,0.487274169921875,0.279571533203125
300550,1.773696899414062,0.5525054931640625,0.3966522216796875
300551,1.394424438476562,0.48779296875,0.1678466796875
300552,0.9397125244140624,0.0499267578125,-0.21343994140625
300553,0.418212890625,-0.285064697265625,-0.2781829833984375
300554,0.0630950927734375,-0.4192962646484375,-0.08929443359375
300555,-0.11328125,-0.4212493896484375,0.1065673828125
300556,-0.11322021484375,-0.36578369140625,0.2346343994140625
300557,-0.0986175537109375,-0.2465362548828125,0.210357666015625
300558,-0.13348388671875,-0.057891845703125,0.133697509765625
300559,-0.1636505126953125,-0.003509521484375,0.1724700927734375
300560,-0.0793914794921875,-0.0045623779296875,0.390716552734375
300561,0.0735626220703125,-0.054534912109375,0.6257781982421875
300562,0.1634368896484375,-0.18975830078125,0.70343017578125
300563,0.17816162109375,-0.183868408203125,0.78436279296875
300564,0.3498992919921875,-0.251708984375,0.876495361328125
300565,0.58599853515625,-0.274444580078125,0.7917022705078125
300566,0.6642303466796875,-0.261016845703125,0.636688232421875
300567,0.7874755859375,-0.2451019287109375,0.6243438720703125
300568,0.90142822265625,-0.173004150390625,0.7242279052734375
300569,0.8602752685546875,-0.1156158447265625,0.8542327880859375
300570,0.7224273681640625,-0.0820770263671875,0.8199920654296875
300571,0.5802001953125,-0.0590972900390625,0.6292572021484375
300572,0.446533203125,-0.0533905029296875,0.426971435546875
300573,0.335906982421875,-0.012542724609375,0.2494659423828125
300574,0.1575927734375,0.1856842041015625,0.048553466796875
300575,0.06243896484375,0.322052001953125,-0.0156402587890625
300576,-0.034759521484375,0.362335205078125,-0.0595703125
300577,-0.1866455078125,0.3544158935546875,-0.0393524169921875
300578,-0.35272216796875,0.366943359375,0.0289306640625
300579,-0.440521240234375,0.44482421875,0.0147857666015625
300580,-0.3840789794921875,0.5022735595703125,-0.0799407958984375
300581,-0.3016204833984375,0.462066650390625,-0.237091064453125
300582,-0.09002685546875,0.339019775390625,-0.2775115966796875
300583,0.1011962890625,0.3099822998046875,-0.4238433837890625
300584,0.3155517578125,0.07830810546875,-0.571990966796875
300585,0.584503173828125,-0.147857666015625,-0.47747802734375
300586,0.726470947265625,-0.2563018798828125,-0.2788543701171875
300587,0.70526123046875,-0.2775726318359375,-0.0431976318359375
300588,0.47576904296875,-0.3089447021484375,0.24920654296875
300589,0.21490478515625,-0.417083740234375,0.5298309326171875
300590,0.01031494140625,-0.6981048583984375,0.7438201904296875
300591,-0.2242431640625,-1.317001342773438,1.346267700195312
300592,-0.5305328369140625,-2.779129028320312,3.0465087890625
300593,-1.513961791992188,-6.720687866210938,2.642303466796875
300594,-4.937896728515625,-8.088180541992188,-1.185379028320312
300595,-4.719451904296875,-5.071640014648438,-2.269088745117188
300596,-1.4412841796875,-2.503433227539062,0.4331207275390625
300597,0.077880859375,-2.486572265625,1.249923706054688
300598,0.1634368896484375,-2.506362915039062,1.376022338867188
300599,-0.366455078125,-2.930831909179688,1.337875366210938
300600,-0.987274169921875,-2.842727661132812,1.4320068359375
300601,-1.4342041015625,-2.38446044921875,1.897689819335938
300602,-2.05670166015625,-1.8375244140625,1.39886474609375
300603,-1.84259033203125,-0.9990081787109376,0.914398193359375
300604,-1.124298095703125,-0.490936279296875,0.7833099365234375
300605,-0.5395050048828125,-0.4568023681640625,0.5490264892578125
300606,-0.1236724853515625,-0.57171630859375,0.36358642578125
300607,0.1697845458984375,-0.6129302978515625,0.35931396484375
300608,0.3793487548828125,-0.522369384765625,0.5372772216796875
300609,0.4922332763671875,-0.3329620361328125,0.52099609375
300610,0.6266021728515625,-0.1141357421875,0.3569793701171875
300611,0.6633453369140625,0.119476318359375,0.229217529296875
300612,0.5312042236328125,0.3194580078125,0.17962646484375
300613,0.43902587890625,0.4095001220703125,0.3267822265625
300614,0.51953125,0.3162689208984375,0.4220123291015625
300615,0.65447998046875,0.1460723876953125,0.4399566650390625
300616,0.735076904296875,-0.0746612548828125,0.582733154296875
300617,0.7787933349609375,-0.2956085205078125,0.71307373046875
300618,0.7926025390625,-0.410186767578125,0.6688385009765625
300619,0.7829742431640625,-0.4246826171875,0.6322784423828125
300620,0.7279815673828125,-0.347686767578125,0.7310333251953125
300621,0.68389892578125,-0.1960906982421875,0.6045379638671875
300622,0.6013031005859375,-0.1486053466796875,0.3258056640625
300623,0.5100250244140625,-0.1930389404296875,0.2211761474609375
300624,0.5866851806640625,-0.28094482421875,0.270416259765625
300625,0.822418212890625,-0.306671142578125,0.319610595703125
300626,0.9730987548828124,-0.3004608154296875,0.430694580078125
300627,0.93218994140625,-0.2843780517578125,0.676300048828125
300628,0.768829345703125,-0.309906005859375,1.012100219726562
300629,0.4673309326171875,-0.5626068115234375,1.481109619140625
300630,0.0868072509765625,-0.934234619140625,1.797073364257812
300631,-0.2826385498046875,-1.3533935546875,1.91522216796875
300632,-0.9581146240234376,-2.052154541015625,2.224929809570312
300633,-2.46441650390625,-3.093826293945312,2.059097290039062
300634,-3.437271118164062,-4.36492919921875,0.7786712646484375
300635,-1.987548828125,-5.102264404296875,-0.9208984375
300636,-0.1045989990234375,-4.893997192382812,-0.0179443359375
300637,0.2997283935546875,-3.76910400390625,1.01153564453125
300638,0.2273406982421875,-2.559921264648438,1.322341918945312
300639,-0.0617523193359375,-1.746673583984375,1.143020629882812
300640,-0.349334716796875,-1.20892333984375,0.899658203125
300641,-0.3542633056640625,-1.041000366210938,0.9380340576171876
300642,-0.2622833251953125,-1.069808959960938,1.153091430664062
300643,0.1217803955078125,-1.1300048828125,1.432464599609375
300644,0.1933746337890625,-1.007293701171875,1.143783569335938
300645,0.1627960205078125,-0.87640380859375,1.131393432617188
300646,0.234619140625,-0.685760498046875,0.9178924560546876
300647,0.447021484375,-0.457061767578125,0.7729644775390625
300648,0.5369873046875,-0.3588104248046875,0.913665771484375
300649,0.4291839599609375,-0.418853759765625,0.9946746826171876
300650,0.223175048828125,-0.59014892578125,1.077651977539062
300651,-0.0282135009765625,-0.679962158203125,1.029693603515625
300652,-0.27789306640625,-0.6450653076171875,0.6385345458984375
300653,-0.3897857666015625,-0.602142333984375,0.454681396484375
300654,-0.3904266357421875,-0.7014923095703125,0.5178375244140625
300655,-0.3836669921875,-0.776031494140625,0.4719390869140625
300656,-0.3129425048828125,-0.7613372802734375,0.435577392578125
300657,-0.19342041015625,-0.6643218994140625,0.4188232421875
300658,-0.1110076904296875,-0.5340728759765625,0.3243865966796875
300659,-0.0701751708984375,-0.4224700927734375,0.2381439208984375
300660,-0.04840087890625,-0.280029296875,0.1412353515625
300661,-0.0129852294921875,-0.1345367431640625,0.0134735107421875
300662,0.06573486328125,0.03155517578125,-0.088287353515625
300663,0.158782958984375,0.2592010498046875,-0.1905059814453125
300664,0.237335205078125,0.4754638671875,-0.2635650634765625
300665,0.269256591796875,0.5849761962890625,-0.2476806640625
300666,0.2287139892578125,0.588592529296875,-0.2169036865234375
300667,0.10015869140625,0.476806640625,-0.192230224609375
300668,-0.0378265380859375,0.37957763671875,-0.1732025146484375
300669,-0.142578125,0.32244873046875,-0.2187042236328125
300670,-0.207977294921875,0.1726531982421875,-0.251312255859375
300671,-0.2963409423828125,-0.0628662109375,-0.25628662109375
300672,-0.46990966796875,-0.2866973876953125,-0.2938232421875
300673,-0.5847015380859375,-0.3768463134765625,-0.27508544921875
300674,-0.540435791015625,-0.2923583984375,-0.184600830078125
300675,-0.415679931640625,-0.158599853515625,-0.0532989501953125
300676,-0.2653045654296875,0.0531005859375,0.05279541015625
300677,-0.1042938232421875,0.2999267578125,0.130279541015625
300678,0.0448150634765625,0.3726654052734375,0.192291259765625
300679,0.09423828125,0.320526123046875,0.176788330078125
300680,0.1961517333984375,0.3035888671875,0.2603607177734375
300681,0.30914306640625,0.32275390625,0.3170013427734375
300682,0.533233642578125,0.3706817626953125,0.4417724609375
300683,0.9433746337890624,0.51055908203125,0.596527099609375
300684,1.313217163085938,0.5417022705078125,0.724029541015625
300685,1.578033447265625,0.359039306640625,0.907806396484375
300686,1.95159912109375,0.0515899658203125,1.48095703125
300687,2.8685302734375,-0.4517974853515625,2.848388671875
300688,3.95269775390625,-1.429412841796875,4.441650390625
300689,4.18328857421875,-2.804489135742188,5.338668823242188
300690,3.536285400390625,-3.874114990234375,5.397659301757812
300691,2.1578369140625,-4.4005126953125,3.370315551757812
300692,0.98944091796875,-4.3719482421875,3.05615234375
300693,0.1053314208984375,-3.1539306640625,1.916748046875
300694,-0.14288330078125,-1.799667358398438,1.575729370117188
300695,0.1510467529296875,-1.55511474609375,1.752655029296875
300696,0.404266357421875,-1.330322265625,1.81536865234375
300697,0.5594635009765625,-1.02325439453125,2.072998046875
300698,0.65289306640625,-0.7733917236328125,2.04058837890625
300699,0.7847747802734375,-0.6044769287109375,1.7554931640625
300700,1.01202392578125,-0.392181396484375,1.547195434570312
300701,1.2703857421875,-0.176177978515625,1.404556274414062
300702,1.423263549804688,0.02301025390625,1.152877807617188
300703,1.34429931640625,0.188629150390625,0.7428436279296875
300704,1.022705078125,0.0805816650390625,0.33306884765625
300705,0.506866455078125,-0.406585693359375,-0.1719970703125
300706,-0.0742340087890625,-1.0535888671875,-0.4437103271484375
300707,-0.5599365234375,-1.371185302734375,-0.3070068359375
300708,-0.915069580078125,-1.138275146484375,-0.2042999267578125
300709,-1.38214111328125,-1.108734130859375,-0.1028900146484375
300710,-2.174041748046875,-1.354034423828125,0.010894775390625
300711,-2.622833251953125,-1.429275512695312,-0.2372894287109375
300712,-2.04296875,-1.385482788085938,-0.2501373291015625
300713,-1.195541381835938,-1.292694091796875,-0.127960205078125
300714,-0.7474365234375,-1.175888061523438,-0.0656890869140625
300715,-0.4379119873046875,-0.9398193359375,-0.017730712890625
300716,-0.1361236572265625,-0.6656646728515625,-0.106719970703125
300717,0.2173919677734375,-0.403228759765625,-0.3143310546875
300718,0.5358734130859375,-0.2167205810546875,-0.4164276123046875
300719,0.713653564453125,-0.0831451416015625,-0.3720855712890625
300720,0.751251220703125,0.0491180419921875,-0.227752685546875
300721,0.563262939453125,0.2673797607421875,-0.136688232421875
300722,0.191986083984375,0.4881439208984375,-0.0174407958984375
300723,-0.0743255615234375,0.472686767578125,0.100982666015625
300724,-0.195526123046875,0.363922119140625,0.1539764404296875
300725,-0.270294189453125,0.249053955078125,0.11419677734375
300726,-0.3236236572265625,0.1415863037109375,-0.0607757568359375
300727,-0.3655548095703125,0.062103271484375,-0.248382568359375
300728,-0.3956451416015625,0.0045013427734375,-0.3423614501953125
300729,-0.4243621826171875,-0.0318145751953125,-0.3539886474609375
300730,-0.4483184814453125,-0.0217742919921875,-0.29180908203125
300731,-0.467437744140625,0.08953857421875,-0.1687774658203125
300732,-0.464813232421875,0.2444610595703125,-0.012115478515625
300733,-0.44281005859375,0.3368682861328125,0.0985870361328125
300734,-0.452667236328125,0.4037322998046875,0.1810302734375
300735,-0.5067291259765625,0.452301025390625,0.228302001953125
300736,-0.5204010009765625,0.6010284423828125,0.348907470703125
300737,-0.5147552490234375,0.6651153564453125,0.432281494140625
300738,-0.389556884765625,0.549072265625,0.27227783203125
300739,0.279449462890625,0.32269287109375,-0.0861358642578125
300740,1.39501953125,0.1486968994140625,-0.1321563720703125
300741,2.604339599609375,-0.014678955078125,0.590728759765625
300742,4.369140625,-0.154571533203125,1.045867919921875
300743,6.26947021484375,-0.83050537109375,2.007843017578125
300744,5.938705444335938,-2.04766845703125,3.423065185546875
300745,4.86004638671875,-3.5091552734375,3.9610595703125
300746,3.40625,-4.803512573242188,2.858428955078125
300747,2.844451904296875,-5.333114624023438,2.983505249023438
300748,2.013229370117188,-5.281265258789062,3.176727294921875
300749,0.6660308837890625,-3.5125732421875,1.946182250976562
300750,-0.083099365234375,-2.144729614257812,1.944366455078125
300751,-0.3657379150390625,-1.720596313476562,1.688629150390625
300752,-0.3142242431640625,-1.158767700195312,1.812515258789062
300753,-0.174591064453125,-0.820343017578125,1.833297729492188
300754,0.040252685546875,-0.74285888671875,1.599578857421875
300755,0.255767822265625,-0.703369140625,1.333786010742188
300756,0.4384002685546875,-0.5836334228515625,1.259750366210938
300757,0.6281280517578125,-0.379302978515625,1.188644409179688
300758,0.7587738037109375,-0.118133544921875,1.036422729492188
300759,0.928863525390625,-0.0537109375,0.925018310546875
300760,1.003677368164062,-0.1383819580078125,0.7470703125
300761,0.8302154541015625,-0.3365478515625,0.3612213134765625
300762,0.5869293212890625,-0.6085357666015625,0.1508636474609375
300763,0.39642333984375,-0.65887451171875,0.169952392578125
300764,0.1329345703125,-0.7528228759765625,0.208740234375
300765,-0.273468017578125,-0.9309844970703124,0.3820953369140625
300766,-0.6921844482421875,-1.151412963867188,0.6428375244140625
300767,-0.93548583984375,-1.260238647460938,0.814697265625
300768,-0.8257293701171875,-1.237350463867188,0.936492919921875
300769,-0.38134765625,-1.134506225585938,0.885894775390625
300770,-0.21258544921875,-0.965301513671875,0.534942626953125
300771,-0.2601165771484375,-0.8494415283203125,0.44110107421875
300772,-0.2649383544921875,-0.6874542236328125,0.5557098388671875
300773,-0.3173828125,-0.518524169921875,0.455474853515625
300774,-0.372772216796875,-0.36492919921875,0.203338623046875
300775,-0.3213348388671875,-0.1196136474609375,-0.0576324462890625
300776,-0.172637939453125,0.0634002685546875,-0.3989410400390625
300777,-0.133544921875,0.1684112548828125,-0.52496337890625
300778,-0.115875244140625,0.261688232421875,-0.56805419921875
300779,-0.0946044921875,0.310882568359375,-0.616973876953125
300780,-0.127471923828125,0.293548583984375,-0.63568115234375
300781,-0.1500091552734375,0.2415008544921875,-0.5319976806640625
300782,-0.1776580810546875,0.2826690673828125,-0.2794342041015625
300783,-0.2300872802734375,0.2895965576171875,-0.0006561279296875
300784,-0.256500244140625,0.2727508544921875,0.1731109619140625
300785,-0.2480621337890625,0.2743988037109375,0.250823974609375
300786,-0.1962127685546875,0.2541961669921875,0.2213287353515625
300787,-0.134674072265625,0.241424560546875,0.158294677734375
300788,-0.1221160888671875,0.2338409423828125,0.1385650634765625
300789,-0.1338653564453125,0.1851043701171875,0.03570556640625
300790,-0.1634674072265625,0.169891357421875,-0.0435943603515625
300791,-0.2577667236328125,0.167816162109375,-0.0134429931640625
300792,-0.389984130859375,0.2576141357421875,-0.0006561279296875
300793,-0.0771942138671875,0.5053863525390625,0.2859649658203125
300794,0.799957275390625,0.5916595458984375,0.4476776123046875
300795,1.824859619140625,0.5333099365234375,0.769622802734375
300796,2.480926513671875,0.3959808349609375,1.583663940429688
300797,3.338638305664062,0.249359130859375,1.698165893554688
300798,4.524612426757812,0.04925537109375,2.216629028320312
300799,5.050323486328125,-0.25592041015625,1.827789306640625
300800,4.025726318359375,-0.3850860595703125,1.286956787109375
300801,2.623153686523438,-0.49871826171875,1.868865966796875
300802,1.8336181640625,-0.959381103515625,2.543869018554688
300803,1.234634399414062,-1.5531005859375,3.085464477539062
300804,0.4895782470703125,-2.316070556640625,3.231887817382812
300805,-0.1922454833984375,-2.6553955078125,2.907333374023438
300806,-0.2066497802734375,-2.448715209960938,2.417938232421875
300807,0.2418365478515625,-1.9996337890625,1.773269653320312
300808,0.54052734375,-1.712371826171875,0.896820068359375
300809,0.3351593017578125,-1.451446533203125,0.6139678955078125
300810,0.2255096435546875,-0.962890625,0.7274322509765625
300811,0.43524169921875,-0.536712646484375,0.7692718505859375
300812,0.70989990234375,-0.4709930419921875,1.049530029296875
300813,0.8918914794921875,-0.612091064453125,1.219070434570312
300814,0.9373931884765624,-0.74322509765625,1.24481201171875
300815,0.8549346923828125,-0.7990875244140625,1.34490966796875
300816,0.6583404541015625,-0.762054443359375,1.277481079101562
300817,0.423004150390625,-0.7533416748046875,1.11834716796875
300818,0.1944427490234375,-0.863372802734375,1.030197143554688
300819,-0.0751495361328125,-1.010055541992188,0.82476806640625
300820,-0.3958282470703125,-1.050613403320312,0.4703826904296875
300821,-0.678955078125,-0.9681549072265624,0.2431793212890625
300822,-0.8492584228515625,-0.7689361572265625,0.3022003173828125
300823,-0.99554443359375,-0.66253662109375,0.342987060546875
300824,-1.135757446289062,-0.7569580078125,0.3043365478515625
300825,-1.10235595703125,-0.9061431884765624,0.275146484375
300826,-0.6909027099609375,-0.9363555908203124,0.2669525146484375
300827,-0.273040771484375,-0.7887725830078125,0.2100982666015625
300828,-0.204315185546875,-0.6692352294921875,0.16961669921875
300829,-0.2501983642578125,-0.5930633544921875,0.2071533203125
300830,-0.1837615966796875,-0.476043701171875,0.1777496337890625
300831,-0.0201416015625,-0.3175506591796875,0.0814361572265625
300832,0.137603759765625,-0.166473388671875,-0.009918212890625
300833,0.2472381591796875,-0.056121826171875,-0.092681884765625
300834,0.3165435791015625,0.0275115966796875,-0.1288299560546875
300835,0.3678436279296875,0.1212310791015625,-0.102020263671875
300836,0.386505126953125,0.1891021728515625,-0.0674285888671875
300837,0.3975067138671875,0.216156005859375,-0.051239013671875
300838,0.3935394287109375,0.2481536865234375,-0.090789794921875
300839,0.398529052734375,0.2622528076171875,-0.108856201171875
300840,0.3621673583984375,0.2148895263671875,-0.1245269775390625
300841,0.250946044921875,0.1109466552734375,-0.0565032958984375
300842,0.081695556640625,0.019500732421875,0.07843017578125
300843,-0.1553192138671875,-0.0281829833984375,0.216888427734375
300844,-0.3992462158203125,-0.0262298583984375,0.2597503662109375
300845,-0.543701171875,-0.0358734130859375,0.03887939453125
300846,-0.5275726318359375,-0.1136322021484375,-0.165740966796875
300847,-0.411590576171875,-0.1546630859375,-0.26715087890625
300848,-0.3290863037109375,-0.094757080078125,-0.3573150634765625
300849,-0.3137359619140625,0.005157470703125,-0.4564971923828125
300850,-0.3576507568359375,0.0732269287109375,-0.5217437744140625
300851,-0.509674072265625,0.1630859375,-0.551422119140625
300852,-0.678619384765625,0.3350067138671875,-0.41754150390625
300853,-0.6109771728515625,0.588409423828125,-0.0723724365234375
300854,-0.2350616455078125,0.73590087890625,0.237457275390625
300855,0.6418914794921875,0.7663421630859375,0.3067779541015625
300856,1.429672241210938,0.3520355224609375,0.7325592041015625
300857,1.613510131835938,-0.2249908447265625,1.580001831054688
300858,2.7861328125,-0.533447265625,1.245346069335938
300859,4.901779174804688,-0.867919921875,3.033187866210938
300860,6.210113525390625,-1.637405395507812,3.825302124023438
300861,5.860977172851562,-2.201278686523438,3.005035400390625
300862,4.352691650390625,-2.395584106445312,2.807815551757812
300863,2.904891967773438,-2.515335083007812,2.896209716796875
300864,1.562896728515625,-2.833419799804688,3.066116333007812
300865,0.573577880859375,-2.839080810546875,2.731475830078125
300866,0.02288818359375,-2.2637939453125,1.995758056640625
300867,0.0037078857421875,-1.515045166015625,1.781341552734375
300868,0.055633544921875,-1.321624755859375,1.073257446289062
300869,-0.0544891357421875,-1.15423583984375,0.7462615966796875
300870,-0.0980072021484375,-0.74261474609375,0.578643798828125
300871,0.0681915283203125,-0.3271484375,0.72052001953125
300872,0.3241424560546875,-0.2449188232421875,0.906982421875
300873,0.483001708984375,-0.303924560546875,0.908050537109375
300874,0.5410003662109375,-0.41143798828125,0.8209228515625
300875,0.5345001220703125,-0.4773406982421875,0.762481689453125
300876,0.5045928955078125,-0.4414215087890625,0.77374267578125
300877,0.451446533203125,-0.305206298828125,0.7151947021484375
300878,0.3622283935546875,-0.2345733642578125,0.6213226318359375
300879,0.22222900390625,-0.2752532958984375,0.4774322509765625
300880,0.0013885498046875,-0.4163055419921875,0.3385009765625
300881,-0.320037841796875,-0.5948486328125,0.3003692626953125
300882,-0.62249755859375,-0.7959136962890625,0.3806610107421875
300883,-0.887725830078125,-1.027755737304688,0.4226837158203125
300884,-1.0421142578125,-1.211776733398438,0.537322998046875
300885,-1.041854858398438,-1.219253540039062,0.7497100830078125
300886,-0.78277587890625,-1.17169189453125,0.637115478515625
300887,-0.4677734375,-0.967041015625,0.3824920654296875
300888,-0.3233795166015625,-0.722198486328125,0.189666748046875
300889,-0.2877960205078125,-0.5208892822265625,0.12445068359375
300890,-0.3017730712890625,-0.384124755859375,0.10125732421875
300891,-0.2603912353515625,-0.243896484375,0.00543212890625
300892,-0.160552978515625,-0.088623046875,-0.18463134765625
300893,-0.0704803466796875,0.0306396484375,-0.34368896484375
300894,0.0023345947265625,0.126800537109375,-0.325958251953125
300895,0.014617919921875,0.2123870849609375,-0.2502899169921875
300896,-0.033721923828125,0.254364013671875,-0.229339599609375
300897,-0.0979156494140625,0.2779998779296875,-0.213653564453125
300898,-0.1410980224609375,0.2472686767578125,-0.222198486328125
300899,-0.186553955078125,0.13800048828125,-0.261688232421875
300900,-0.266082763671875,0.04998779296875,-0.244415283203125
300901,-0.357269287109375,-7.62939453125e-05,-0.153289794921875
300902,-0.4276885986328125,-0.0412445068359375,0.0015106201171875
300903,-0.47637939453125,-0.058746337890625,0.1235198974609375
300904,-0.4509124755859375,-0.085205078125,0.16729736328125
300905,-0.3703460693359375,-0.0856475830078125,0.0763092041015625
300906,-0.2819061279296875,-0.052337646484375,-0.013916015625
300907,-0.1545257568359375,-0.0058441162109375,-0.0950164794921875
300908,0.0273284912109375,0.03515625,-0.1192779541015625
300909,0.237335205078125,0.0291595458984375,0.00225830078125
300910,0.296234130859375,0.2100982666015625,0.2375640869140625
300911,0.3723297119140625,0.55609130859375,0.5316314697265625
300912,0.8332366943359375,0.709625244140625,0.65924072265625
300913,1.726303100585938,0.4047088623046875,1.09991455078125
300914,2.087860107421875,0.02838134765625,2.003265380859375
300915,3.269378662109375,-0.7605133056640625,2.777633666992188
300916,4.958755493164062,-1.268081665039062,1.5167236328125
300917,5.232925415039062,-0.9756317138671876,0.1755828857421875
300918,4.081863403320312,-0.7065887451171875,1.02508544921875
300919,2.921783447265625,-1.049484252929688,1.669830322265625
300920,2.564987182617188,-1.566696166992188,2.369461059570312
300921,2.640869140625,-1.974075317382812,3.296875
300922,2.578277587890625,-2.510452270507812,4.049957275390625
300923,1.883590698242188,-3.201446533203125,3.742874145507812
300924,0.7401580810546875,-3.284713745117188,2.5267333984375
300925,0.1049652099609375,-2.249801635742188,2.03753662109375
300926,-0.083526611328125,-1.488967895507812,1.61279296875
300927,-0.1380157470703125,-1.1676025390625,1.037933349609375
300928,-0.002960205078125,-0.8181915283203125,0.606201171875
300929,0.079986572265625,-0.4878387451171875,0.52532958984375
300930,0.1057891845703125,-0.333953857421875,0.4698028564453125
300931,0.147674560546875,-0.326507568359375,0.4586334228515625
300932,0.218658447265625,-0.2762908935546875,0.50927734375
300933,0.276641845703125,-0.22149658203125,0.6009368896484375
300934,0.29150390625,-0.2921905517578125,0.6302337646484375
300935,0.2521820068359375,-0.3649444580078125,0.6660614013671875
300936,0.072265625,-0.444122314453125,0.6376953125
300937,-0.2960205078125,-0.53680419921875,0.4457244873046875
300938,-0.8711395263671875,-0.5953216552734375,0.22222900390625
300939,-1.397506713867188,-0.66693115234375,0.3374176025390625
300940,-1.688919067382812,-0.7616119384765625,0.553558349609375
300941,-1.81988525390625,-0.8258209228515625,0.569915771484375
300942,-1.70489501953125,-0.8542327880859375,0.518218994140625
300943,-1.177490234375,-0.8788299560546875,0.4448394775390625
300944,-0.7058563232421875,-0.723175048828125,0.2318267822265625
300945,-0.4737396240234375,-0.53961181640625,-0.0728759765625
300946,-0.2596435546875,-0.3974609375,-0.3469085693359375
300947,-0.0499267578125,-0.25213623046875,-0.620147705078125
300948,0.1739044189453125,-0.064239501953125,-0.785675048828125
300949,0.4141082763671875,0.1796417236328125,-0.7812957763671875
300950,0.6997528076171875,0.3938446044921875,-0.5918121337890625
300951,0.9275360107421876,0.523345947265625,-0.2208099365234375
300952,0.990325927734375,0.57635498046875,0.2195587158203125
300953,0.8512420654296875,0.5565948486328125,0.443267822265625
300954,0.4512786865234375,0.3674774169921875,0.444549560546875
300955,0.0808258056640625,0.20538330078125,0.404876708984375
300956,-0.0442962646484375,0.123443603515625,0.3236236572265625
300957,-0.196075439453125,0.030059814453125,0.27777099609375
300958,-0.427825927734375,0.00970458984375,0.2813720703125
300959,-0.5239715576171875,0.108612060546875,0.3312225341796875
300960,-0.4797515869140625,0.18963623046875,0.2935638427734375
300961,-0.368377685546875,0.15472412109375,0.0760955810546875
300962,-0.1829986572265625,0.0531463623046875,-0.1060791015625
300963,0.0269012451171875,-0.069183349609375,-0.1783905029296875
300964,0.1960601806640625,-0.224151611328125,-0.17236328125
300965,0.32586669921875,-0.3575286865234375,-0.01568603515625
300966,0.415496826171875,-0.3830108642578125,0.29180908203125
300967,0.216949462890625,-0.3710479736328125,0.4860992431640625
300968,-0.082763671875,-0.22808837890625,0.5121307373046875
300969,-0.07861328125,-0.108245849609375,0.655670166015625
300970,0.2608184814453125,-0.16400146484375,0.8355560302734375
300971,0.657989501953125,-0.328460693359375,0.5154266357421875
300972,0.984588623046875,-0.504058837890625,0.290496826171875
300973,1.493194580078125,-0.6888275146484375,0.821044921875
300974,1.90899658203125,-0.7721405029296875,1.558563232421875
300975,2.722244262695312,-1.163497924804688,1.865951538085938
300976,3.7674560546875,-1.931671142578125,2.159683227539062
300977,4.3370361328125,-2.067352294921875,3.02349853515625
300978,3.88958740234375,-1.810699462890625,3.831588745117188
300979,2.715240478515625,-2.081985473632812,4.094451904296875
300980,2.19097900390625,-2.4422607421875,3.636077880859375
300981,1.565338134765625,-2.077407836914062,2.674285888671875
300982,0.7275848388671875,-1.204071044921875,2.13909912109375
300983,0.5289459228515625,-0.8404998779296875,1.351028442382812
300984,0.7178497314453125,-1.043426513671875,0.8972320556640625
300985,0.8126373291015625,-1.019363403320312,0.903472900390625
300986,0.707855224609375,-0.640289306640625,0.865814208984375
300987,0.5641326904296875,-0.3724517822265625,0.8876495361328125
300988,0.5621337890625,-0.1001434326171875,0.9418487548828124
300989,0.744781494140625,0.1614532470703125,1.045913696289062
300990,1.021575927734375,0.3570556640625,1.267562866210938
300991,1.055740356445312,0.370697021484375,1.608444213867188
300992,0.6875457763671875,0.1833648681640625,2.102432250976562
300993,0.2858428955078125,-0.4190826416015625,2.266830444335938
300994,-0.1870574951171875,-1.256301879882812,2.049758911132812
300995,-0.76605224609375,-1.726287841796875,1.591629028320312
300996,-1.271713256835938,-1.642593383789062,0.702056884765625
300997,-1.641983032226562,-1.6590576171875,0.2265472412109375
300998,-1.56683349609375,-1.743820190429688,0.2537078857421875
300999,-1.178573608398438,-1.897415161132812,-0.001922607421875
301000,-1.18109130859375,-1.8768310546875,0.226348876953125
301001,-1.310440063476562,-2.025314331054688,0.75653076171875
301002,-1.2406005859375,-2.112533569335938,0.67047119140625
301003,-0.9298553466796876,-1.922286987304688,0.54296875
301004,-0.6647796630859375,-1.527084350585938,0.8343963623046875
301005,-0.3898162841796875,-1.035552978515625,1.01220703125
301006,-0.05572509765625,-0.658203125,0.98114013671875
301007,0.3702850341796875,-0.2387542724609375,0.760711669921875
301008,0.6324462890625,0.0879364013671875,0.636627197265625
301009,0.6107330322265625,0.131011962890625,0.732574462890625
301010,0.40277099609375,0.05792236328125,0.84210205078125
301011,0.2057647705078125,0.10833740234375,0.9443206787109376
301012,0.0204010009765625,0.2208404541015625,0.936279296875
301013,-0.064849853515625,0.16375732421875,0.60614013671875
301014,0.0460052490234375,0.04296875,0.1235504150390625
301015,0.2495880126953125,0.0446014404296875,-0.0738983154296875
301016,0.3401336669921875,0.0830230712890625,0.0089569091796875
301017,0.3418121337890625,0.0272369384765625,-0.0252227783203125
301018,0.2912750244140625,-0.08807373046875,-0.092803955078125
301019,0.143768310546875,-0.272308349609375,-0.0353851318359375
301020,-0.0369720458984375,-0.6264495849609375,0.148284912109375
301021,-0.180389404296875,-0.98309326171875,0.56866455078125
301022,-0.386962890625,-1.191070556640625,0.9802093505859376
301023,-0.7114410400390625,-1.208587646484375,1.070037841796875
301024,-0.9711456298828124,-1.243072509765625,1.001190185546875
301025,-1.0035400390625,-1.235626220703125,0.762725830078125
301026,-0.850860595703125,-0.8323822021484375,0.4900970458984375
301027,-0.65838623046875,-0.5986328125,0.8172607421875
301028,-0.173614501953125,-1.015365600585938,1.46929931640625
301029,0.523651123046875,-1.128753662109375,1.275115966796875
301030,1.218917846679688,-0.0289764404296875,0.5545654296875
301031,1.391220092773438,0.6696014404296875,0.316864013671875
301032,1.4013671875,0.2354888916015625,0.2775726318359375
301033,1.2320556640625,0.2149658203125,0.304290771484375
301034,1.055023193359375,0.36761474609375,0.3952178955078125
301035,0.9490814208984376,0.407562255859375,0.49139404296875
301036,0.88128662109375,0.54583740234375,0.3580169677734375
301037,0.8353271484375,0.2871246337890625,-0.0811614990234375
301038,0.450958251953125,-0.0392608642578125,-0.13568115234375
301039,-0.018768310546875,-0.2656707763671875,0.05499267578125
301040,-0.1577301025390625,-0.237335205078125,0.165618896484375
301041,-0.1041717529296875,-0.115692138671875,0.107330322265625
301042,-0.002960205078125,0.011810302734375,0.0486907958984375
301043,0.1090087890625,0.1323394775390625,0.010955810546875
301044,0.234161376953125,0.257843017578125,0.0240325927734375
301045,0.3452606201171875,0.3648681640625,0.119873046875
301046,0.3665313720703125,0.4213714599609375,0.2393646240234375
301047,0.38665771484375,0.3213348388671875,0.3892669677734375
301048,0.6081695556640625,0.1468505859375,0.60040283203125
301049,0.5935516357421875,0.048553466796875,0.4428863525390625
301050,0.5326385498046875,-0.0781707763671875,0.4166259765625
301051,0.46112060546875,-0.1282806396484375,0.30206298828125
301052,0.4325408935546875,-0.071441650390625,0.2446441650390625
301053,0.4654693603515625,-0.0627899169921875,0.355712890625
301054,0.414459228515625,-0.108428955078125,0.4076995849609375
301055,0.282440185546875,-0.21881103515625,0.4294891357421875
301056,0.1434173583984375,-0.2755889892578125,0.4285430908203125
301057,0.0416259765625,-0.323394775390625,0.4107666015625
301058,0.0064697265625,-0.38043212890625,0.4384918212890625
301059,-0.020751953125,-0.4176177978515625,0.551727294921875
301060,-0.0392608642578125,-0.3858795166015625,0.5270233154296875
301061,-0.0081634521484375,-0.385467529296875,0.32781982421875
301062,-0.010528564453125,-0.2752227783203125,0.2013397216796875
301063,-0.141845703125,-0.0959930419921875,0.113800048828125
301064,-0.3114166259765625,0.1282501220703125,0.0261077880859375
301065,-0.358428955078125,0.26483154296875,-0.14349365234375
301066,-0.42828369140625,0.3458099365234375,-0.1247711181640625
301067,-0.4866943359375,0.3563232421875,-0.1108856201171875
301068,-0.390777587890625,0.3486328125,-0.18780517578125
301069,-0.2251434326171875,0.4673614501953125,-0.2345733642578125
301070,-0.0848236083984375,0.643524169921875,-0.3684539794921875
301071,0.0960693359375,0.5985260009765625,-0.51617431640625
301072,0.368011474609375,0.3170166015625,-0.4668121337890625
301073,0.7028350830078125,0.04827880859375,-0.2999725341796875
301074,1.118804931640625,-0.19134521484375,-0.1075592041015625
301075,1.25958251953125,-0.240264892578125,0.2724761962890625
301076,1.040557861328125,-0.0552825927734375,0.52203369140625
301077,0.683563232421875,0.101287841796875,0.44683837890625
301078,0.2350616455078125,-0.131011962890625,0.3448486328125
301079,-0.217742919921875,-0.5171051025390625,0.4391021728515625
301080,-0.46044921875,-0.8175811767578125,0.7327728271484375
301081,-0.6955718994140625,-1.4168701171875,1.351806640625
301082,-1.268173217773438,-3.556732177734375,2.143905639648438
301083,-2.859207153320312,-7.160415649414062,1.928390502929688
301084,-3.3763427734375,-8.059371948242188,-0.4363555908203125
301085,-2.429351806640625,-5.7745361328125,-0.7523193359375
301086,-1.301513671875,-3.139434814453125,-0.6866302490234375
301087,-0.1203765869140625,-2.507003784179688,0.1214599609375
301088,-0.252593994140625,-2.927200317382812,0.9753875732421876
301089,-0.8947906494140625,-3.576614379882812,1.687713623046875
301090,-1.062637329101562,-2.899139404296875,1.532913208007812
301091,-0.5304412841796875,-1.831405639648438,0.9417877197265624
301092,-0.205047607421875,-1.396804809570312,0.7454071044921875
301093,0.17681884765625,-1.344940185546875,1.074905395507812
301094,0.9246826171875,-1.43817138671875,1.603240966796875
301095,1.259780883789062,-1.537521362304688,1.632400512695312
301096,1.305862426757812,-1.413131713867188,1.048843383789062
301097,1.2454833984375,-0.951263427734375,0.6371307373046875
301098,1.01556396484375,-0.295440673828125,0.6459503173828125
301099,0.6039886474609375,0.2779541015625,0.47607421875
301100,0.268585205078125,0.6627197265625,0.1920013427734375
301101,0.27569580078125,0.671142578125,0.0043182373046875
301102,0.58026123046875,0.3312835693359375,-0.196746826171875
301103,0.8448638916015625,0.0352020263671875,-0.1839599609375
301104,0.8724365234375,-0.085601806640625,-0.026031494140625
301105,0.701019287109375,-0.205596923828125,0.29815673828125
301106,0.541778564453125,-0.2104949951171875,0.7416534423828125
301107,0.35723876953125,-0.2222137451171875,1.008163452148438
301108,-0.0070343017578125,-0.30279541015625,0.9482879638671876
301109,-0.077178955078125,-0.1224365234375,0.73529052734375
301110,0.0771636962890625,0.0781707763671875,0.427337646484375
301111,0.2607269287109375,0.1606597900390625,0.3050994873046875
301112,0.479522705078125,0.231597900390625,0.3333892822265625
301113,0.7387847900390625,0.3004913330078125,0.2543487548828125
301114,1.020828247070312,0.3400421142578125,0.1420745849609375
301115,1.125564575195312,0.211395263671875,0.113311767578125
301116,0.945587158203125,-0.140899658203125,0.61602783203125
301117,0.344696044921875,-0.7736053466796875,1.762832641601562
301118,-0.2830657958984375,-1.371612548828125,3.226303100585938
301119,-1.003524780273438,-1.773223876953125,3.23187255859375
301120,-2.20489501953125,-1.70916748046875,2.097946166992188
301121,-3.052703857421875,-1.788543701171875,1.561767578125
301122,-1.565765380859375,-2.923629760742188,0.6382293701171875
301123,0.78564453125,-4.288070678710938,0.9638671875
301124,1.009063720703125,-3.652359008789062,1.032440185546875
301125,1.501174926757812,-2.18377685546875,0.7984771728515625
301126,1.990081787109375,-1.663055419921875,0.87835693359375
301127,1.82720947265625,-1.527694702148438,1.268722534179688
301128,1.781600952148438,-0.946014404296875,2.140975952148438
301129,1.840972900390625,-0.3076629638671875,2.157257080078125
301130,1.652481079101562,0.2042388916015625,1.585525512695312
301131,1.3511962890625,0.2476806640625,1.184219360351562
301132,1.104766845703125,0.0023956298828125,1.172454833984375
301133,0.9005279541015625,-0.178314208984375,1.1202392578125
301134,0.73162841796875,-0.3585052490234375,0.7960662841796875
301135,0.4295654296875,-0.5216827392578125,0.636688232421875
301136,-0.0140228271484375,-0.6793060302734375,0.5706024169921875
301137,-0.49566650390625,-0.8832244873046875,0.553924560546875
301138,-0.878997802734375,-1.139572143554688,0.6959075927734375
301139,-1.11566162109375,-1.215118408203125,0.6472930908203125
301140,-1.312362670898438,-1.062881469726562,0.2832489013671875
301141,-1.469863891601562,-0.7825927734375,0.165771484375
301142,-1.471298217773438,-0.5229339599609375,0.087371826171875
301143,-1.255950927734375,-0.29144287109375,0.01947021484375
301144,-0.7781524658203125,-0.1487579345703125,0.0015716552734375
301145,-0.3583984375,0.01629638671875,-0.008453369140625
301146,-0.0558319091796875,0.101409912109375,0.0604705810546875
301147,0.1490325927734375,0.1221771240234375,0.0509185791015625
301148,0.2505340576171875,0.1193695068359375,0.0180816650390625
301149,0.2940673828125,0.1242523193359375,-0.027130126953125
301150,0.434814453125,0.25408935546875,-0.092132568359375
301151,0.664886474609375,0.358123779296875,-0.0594940185546875
301152,0.91375732421875,0.31695556640625,0.164703369140625
301153,1.04168701171875,0.1820526123046875,0.2912750244140625
301154,0.8701934814453125,0.0330047607421875,0.17041015625
301155,0.4876556396484375,-0.0431060791015625,0.085784912109375
301156,0.1462554931640625,-0.1457366943359375,0.0741424560546875
301157,-0.190032958984375,-0.2132568359375,0.0213165283203125
301158,-0.4820404052734375,-0.213348388671875,-0.0113677978515625
301159,-0.6685333251953125,-0.190460205078125,-0.0076751708984375
301160,-0.6888885498046875,-0.175933837890625,0.0804595947265625
301161,-0.524810791015625,-0.121246337890625,0.14398193359375
301162,-0.2904052734375,-0.038604736328125,0.0944061279296875
301163,-0.0818634033203125,0.0244598388671875,0.03448486328125
301164,0.0586395263671875,0.111907958984375,0.0027923583984375
301165,0.1898345947265625,0.2364654541015625,0.0341644287109375
301166,0.407806396484375,0.395660400390625,0.118896484375
301167,0.67706298828125,0.48883056640625,0.2533111572265625
301168,1.010116577148438,0.4105072021484375,0.5678558349609375
301169,1.470413208007812,0.229339599609375,0.6792449951171875
301170,1.968780517578125,0.0615997314453125,0.5538787841796875
301171,2.251708984375,-0.0343780517578125,0.4714202880859375
301172,2.459442138671875,-0.1987152099609375,0.8586578369140625
301173,2.748779296875,-0.65960693359375,1.71881103515625
301174,2.762176513671875,-1.28570556640625,2.271682739257812
301175,2.1705322265625,-1.824081420898438,3.26519775390625
301176,1.746185302734375,-2.4366455078125,4.438919067382812
301177,1.5673828125,-3.299240112304688,4.092376708984375
301178,0.98406982421875,-3.715789794921875,2.87347412109375
301179,0.331573486328125,-3.273361206054688,2.27655029296875
301180,-0.0727386474609375,-2.316909790039062,2.406509399414062
301181,-0.075531005859375,-1.978042602539062,2.2037353515625
301182,0.1487579345703125,-1.587570190429688,1.575851440429688
301183,0.4917144775390625,-0.9949798583984376,0.9686737060546876
301184,0.8818359375,-0.6378021240234375,0.9817352294921876
301185,1.197845458984375,-0.4883880615234375,1.381317138671875
301186,1.331756591796875,-0.423980712890625,1.5999755859375
301187,1.319900512695312,-0.3471832275390625,1.696304321289062
301188,1.222366333007812,-0.2939453125,1.633041381835938
301189,1.079757690429688,-0.162841796875,1.379379272460938
301190,0.9278717041015624,0.0316162109375,1.0985107421875
301191,0.662750244140625,-0.032958984375,0.8357086181640625
301192,0.3496856689453125,-0.2488861083984375,0.6060638427734375
301193,-0.099884033203125,-0.5523834228515625,0.2086639404296875
301194,-0.631683349609375,-0.8687286376953125,-0.27618408203125
301195,-1.093124389648438,-0.806884765625,-0.505615234375
301196,-1.489059448242188,-0.7996063232421875,-0.3838348388671875
301197,-1.822494506835938,-0.833099365234375,-0.189239501953125
301198,-2.026931762695312,-0.8539276123046875,-0.0286712646484375
301199,-1.753860473632812,-0.8463897705078125,0.04864501953125
301200,-0.9950408935546876,-0.7490234375,0.2013092041015625
301201,-0.5874786376953125,-0.7015380859375,0.20037841796875
301202,-0.432281494140625,-0.6098480224609375,0.2400665283203125
301203,-0.3253936767578125,-0.6086273193359375,0.1231842041015625
301204,-0.3336334228515625,-0.78955078125,-0.45416259765625
301205,0.56622314453125,0.3103790283203125,-0.80816650390625
301206,0.878936767578125,0.1041107177734375,-0.2071380615234375
301207,1.204269409179688,0.0850677490234375,-0.26220703125
301208,1.350006103515625,0.2061309814453125,-0.1836700439453125
301209,1.094375610351562,0.3907012939453125,0.233062744140625
301210,0.5968780517578125,0.448577880859375,0.3352508544921875
301211,0.204376220703125,0.35186767578125,0.313568115234375
301212,-0.0420074462890625,0.2739715576171875,0.2645263671875
301213,-0.2220611572265625,0.249969482421875,0.137908935546875
301214,-0.42120361328125,0.2691192626953125,0.009490966796875
301215,-0.5986480712890625,0.27581787109375,-0.1223907470703125
301216,-0.6043853759765625,0.2649688720703125,-0.28326416015625
301217,-0.4626922607421875,0.1598052978515625,-0.418914794921875
301218,-0.2839508056640625,0.041717529296875,-0.4256591796875
301219,-0.1663360595703125,0.01275634765625,-0.34881591796875
301220,-0.1583404541015625,0.0369873046875,-0.2144317626953125
301221,-0.2256622314453125,0.02545166015625,0.0074615478515625
301222,-0.2718658447265625,0.011871337890625,0.26593017578125
301223,-0.2328338623046875,0.19769287109375,0.4488525390625
301224,-0.1306915283203125,0.4378814697265625,0.5315399169921875
301225,0.0064697265625,0.2877197265625,0.6322174072265625
301226,0.3802032470703125,0.123565673828125,0.6324310302734375
301227,1.115249633789062,-0.0403289794921875,0.94329833984375
301228,1.81451416015625,-0.2039337158203125,1.547149658203125
301229,2.623977661132812,-0.2391204833984375,2.0787353515625
301230,4.02801513671875,-0.6312713623046875,3.191421508789062
301231,4.800430297851562,-1.446319580078125,3.626571655273438
301232,4.402435302734375,-2.469268798828125,3.3138427734375
301233,3.058609008789062,-3.068679809570312,3.3359375
301234,1.493667602539062,-3.584487915039062,3.45233154296875
301235,0.36322021484375,-3.52374267578125,3.054672241210938
301236,0.3675689697265625,-2.6802978515625,2.386489868164062
301237,0.3271026611328125,-1.948211669921875,1.929122924804688
301238,-0.2816162109375,-1.37884521484375,1.550552368164062
301239,-0.698974609375,-0.7093353271484375,1.299560546875
301240,-0.630950927734375,-0.3252716064453125,1.18951416015625
301241,-0.3234405517578125,-0.10394287109375,1.09368896484375
301242,0.0687408447265625,0.0785369873046875,1.049285888671875
301243,0.3628082275390625,0.0966949462890625,1.000030517578125
301244,0.4526519775390625,0.0491943359375,0.9202423095703124
301245,0.4187469482421875,0.003387451171875,0.8989715576171875
301246,0.2416839599609375,-0.1101837158203125,0.854278564453125
301247,-0.0882568359375,-0.228271484375,0.770355224609375
301248,-0.378570556640625,-0.1723480224609375,0.76495361328125
301249,-0.676727294921875,-0.2431793212890625,0.6779327392578125
301250,-0.905059814453125,-0.372222900390625,0.7060546875
301251,-1.0467529296875,-0.44970703125,0.7044525146484375
301252,-1.125717163085938,-0.5488433837890625,0.609222412109375
301253,-0.962066650390625,-0.5448150634765625,0.4919586181640625
301254,-0.5394744873046875,-0.5946502685546875,0.390472412109375
301255,-0.0774078369140625,-0.6197662353515625,0.1190032958984375
301256,0.2221221923828125,-0.4989471435546875,-0.3251495361328125
301257,0.550811767578125,-0.2919158935546875,-0.5331878662109375
301258,0.88531494140625,-0.055084228515625,-0.5130767822265625
301259,1.183303833007812,0.1326446533203125,-0.37664794921875
301260,1.393035888671875,0.4514007568359375,-0.30389404296875
301261,1.358551025390625,0.8526763916015625,-0.2639923095703125
301262,1.119705200195312,0.8654632568359375,0.1043701171875
301263,0.5415496826171875,0.3434906005859375,0.281341552734375
301264,-0.0645294189453125,0.0584869384765625,0.1549072265625
301265,-0.43890380859375,0.1254730224609375,0.025115966796875
301266,-0.777191162109375,0.0629119873046875,0.104278564453125
301267,-1.346588134765625,-0.2294769287109375,0.2396392822265625
301268,-2.016098022460938,-0.394927978515625,0.3302154541015625
301269,-2.35687255859375,-0.3285980224609375,0.293609619140625
301270,-2.153854370117188,-0.1033935546875,0.056243896484375
301271,-1.51458740234375,0.0907440185546875,-0.3076934814453125
301272,-0.7469482421875,0.0719146728515625,-0.63677978515625
301273,-0.080657958984375,-0.1344146728515625,-0.8406524658203125
301274,0.4954376220703125,-0.49310302734375,-0.80914306640625
301275,1.178512573242188,-0.8436431884765625,-0.561309814453125
301276,1.808242797851562,-0.6966552734375,-0.0091400146484375
301277,1.966232299804688,-0.1731109619140625,0.6908111572265625
301278,1.568161010742188,-0.0041351318359375,1.448486328125
301279,1.02252197265625,-0.0086822509765625,1.898025512695312
301280,0.899993896484375,0.1762542724609375,1.554275512695312
301281,1.1900634765625,0.2820281982421875,0.8805389404296875
301282,1.974655151367188,0.1145172119140625,0.8247833251953125
301283,3.256820678710938,-0.244720458984375,1.609146118164062
301284,4.446609497070312,-0.444488525390625,1.871063232421875
301285,5.5517578125,-0.8179168701171875,2.047836303710938
301286,6.075286865234375,-1.221267700195312,3.8231201171875
301287,5.162139892578125,-1.389251708984375,6.063400268554688
301288,4.052566528320312,-2.119049072265625,7.006988525390625
301289,2.855255126953125,-2.892242431640625,6.729888916015625
301290,1.288665771484375,-3.617431640625,5.692611694335938
301291,-0.3666534423828125,-4.218841552734375,3.847854614257812
301292,-1.179824829101562,-4.792236328125,2.338180541992188
301293,-1.767562866210938,-5.50555419921875,0.17144775390625
301294,-2.723190307617188,-4.57330322265625,-0.009552001953125
301295,-2.836135864257812,-3.00189208984375,0.6869659423828125
301296,-2.101242065429688,-2.06475830078125,0.72906494140625
301297,-1.474746704101562,-1.423355102539062,0.68475341796875
301298,-0.890228271484375,-1.139846801757812,0.709228515625
301299,-0.503173828125,-0.8599700927734375,0.721832275390625
301300,-0.349609375,-0.5879058837890625,0.4662628173828125
301301,-0.2623138427734375,-0.352783203125,0.0363922119140625
301302,0.0088348388671875,0.3552093505859375,0.0809478759765625
301303,0.3055419921875,0.695526123046875,0.274261474609375
301304,0.4255523681640625,0.66326904296875,0.2249908447265625
301305,0.678375244140625,0.582427978515625,0.21234130859375
301306,0.8707427978515625,0.5160980224609375,0.155792236328125
301307,0.8628692626953125,0.4802703857421875,0.1390380859375
301308,0.7779693603515625,0.2918548583984375,0.0744171142578125
301309,0.6500244140625,0.032379150390625,0.1035614013671875
301310,0.4526214599609375,-0.1180267333984375,0.26568603515625
301311,0.224334716796875,-0.198394775390625,0.353179931640625
301312,0.1140899658203125,-0.1889495849609375,0.2943878173828125
301313,0.1647796630859375,-0.0893707275390625,0.3084716796875
301314,0.2972259521484375,-0.0319061279296875,0.2812042236328125
301315,0.3790283203125,-0.018157958984375,0.1414947509765625
301316,0.40142822265625,-0.0133056640625,-0.044921875
301317,0.470916748046875,-0.0146636962890625,-0.1293792724609375
301318,0.4257049560546875,-0.059783935546875,0.0252532958984375
301319,0.31732177734375,-0.115142822265625,0.1002044677734375
301320,0.1785125732421875,-0.259063720703125,0.1284637451171875
301321,-0.001373291015625,-0.457061767578125,0.1100006103515625
301322,-0.1227874755859375,-0.5457305908203125,0.189697265625
301323,-0.14691162109375,-0.670074462890625,0.3952484130859375
301324,-0.17633056640625,-0.9974365234375,0.6229400634765625
301325,-0.6855621337890625,-1.992385864257812,0.900604248046875
301326,-1.593170166015625,-2.725082397460938,0.7906646728515625
301327,-1.82275390625,-1.675567626953125,0.3765716552734375
301328,-1.212234497070312,-0.7113494873046875,0.220458984375
301329,-0.0874176025390625,-1.029083251953125,1.033172607421875
301330,0.628265380859375,-0.93377685546875,1.105148315429688
301331,1.140945434570312,-0.189300537109375,0.9275665283203124
301332,1.640853881835938,0.180328369140625,1.242218017578125
301333,1.840179443359375,0.2618560791015625,1.485000610351562
301334,1.838455200195312,0.2687530517578125,1.091171264648438
301335,1.486709594726562,0.61297607421875,0.5204925537109375
301336,1.210357666015625,0.941558837890625,0.1389617919921875
301337,1.138595581054688,0.584442138671875,-0.0814056396484375
301338,0.9401397705078124,0.1983642578125,-0.25048828125
301339,0.5466461181640625,-0.2681884765625,-0.2973785400390625
301340,-0.043609619140625,-0.604888916015625,-0.1599578857421875
301341,-0.4468536376953125,-0.806182861328125,0.1068572998046875
301342,-0.532135009765625,-0.7748260498046875,0.25958251953125
301343,-0.3054046630859375,-0.5377197265625,0.009552001953125
301344,-0.1767730712890625,-0.1711578369140625,-0.2700958251953125
301345,-0.2347564697265625,-0.0082244873046875,-0.239837646484375
301346,-0.212158203125,0.02313232421875,-0.1216583251953125
301347,-0.0258026123046875,0.0919647216796875,0.100616455078125
301348,0.2362518310546875,0.1929168701171875,0.3199310302734375
301349,0.2680816650390625,0.2484588623046875,0.3393096923828125
301350,0.34588623046875,0.0949249267578125,0.4870452880859375
301351,0.38543701171875,0.02392578125,0.679534912109375
301352,0.534912109375,0.0381011962890625,0.7556610107421875
301353,0.6950836181640625,0.0016632080078125,0.697418212890625
301354,0.826629638671875,0.021148681640625,0.7881622314453125
301355,0.986175537109375,-0.033538818359375,0.9114532470703124
301356,0.98785400390625,-0.0953521728515625,0.8664093017578125
301357,0.829986572265625,-0.13568115234375,0.886138916015625
301358,0.556060791015625,-0.047332763671875,0.795166015625
301359,0.3283233642578125,0.03289794921875,0.4727783203125
301360,0.3364715576171875,0.0139007568359375,0.2464752197265625
301361,0.3455810546875,0.032684326171875,0.2019195556640625
301362,0.2640380859375,0.0762939453125,0.110992431640625
301363,0.151947021484375,0.1414794921875,0.0240325927734375
301364,0.0219573974609375,0.1923828125,-0.1032867431640625
301365,-0.1890869140625,0.2667999267578125,-0.2318572998046875
301366,-0.3928375244140625,0.2369842529296875,-0.3327178955078125
301367,-0.4074859619140625,0.1058349609375,-0.4031829833984375
301368,-0.346221923828125,0.016265869140625,-0.269134521484375
301369,-0.354827880859375,-0.033447265625,-0.1115875244140625
301370,-0.4415740966796875,0.037811279296875,-0.1165771484375
301371,-0.448577880859375,0.183990478515625,-0.303619384765625
301372,-0.2530364990234375,0.3484039306640625,-0.47515869140625
301373,0.097991943359375,0.4947967529296875,-0.4792938232421875
301374,0.4951324462890625,0.631439208984375,-0.42498779296875
301375,0.9021453857421876,0.7934722900390625,-0.19580078125
301376,1.166275024414062,0.7723236083984375,0.0395355224609375
301377,1.060287475585938,0.2457427978515625,0.04888916015625
301378,0.8724212646484375,-0.1605987548828125,-0.014556884765625
301379,0.565155029296875,-0.345458984375,-0.0623779296875
301380,-0.01019287109375,-0.409698486328125,-0.0303802490234375
301381,-0.4403839111328125,-0.3577728271484375,0.2119140625
301382,-0.6392974853515625,-0.2857513427734375,0.5836944580078125
301383,-0.792388916015625,-0.6699676513671875,1.227706909179688
301384,-0.957275390625,-2.042984008789062,3.311141967773438
301385,-2.708755493164062,-6.77587890625,2.8465576171875
301386,-4.975845336914062,-8.1600341796875,-1.410934448242188
301387,-3.104949951171875,-6.318252563476562,-0.15740966796875
301388,-1.358306884765625,-3.48968505859375,-0.123748779296875
301389,0.0338592529296875,-2.798126220703125,0.6096343994140625
301390,0.130950927734375,-3.141571044921875,1.1214599609375
301391,0.0146026611328125,-3.799957275390625,0.8413848876953125
301392,-0.214569091796875,-3.41558837890625,1.239593505859375
301393,-0.539825439453125,-2.70489501953125,2.048751831054688
301394,-0.9894561767578124,-2.375625610351562,1.969207763671875
301395,-0.8159942626953125,-1.516326904296875,1.241653442382812
301396,-0.353485107421875,-0.742462158203125,1.09613037109375
301397,-0.011871337890625,-0.5284881591796875,1.045639038085938
301398,0.0288238525390625,-0.5938720703125,0.7582855224609375
301399,-0.2817535400390625,-0.7556915283203125,0.7401275634765625
301400,-0.6054229736328125,-0.823333740234375,0.88958740234375
301401,-0.5567169189453125,-0.6727752685546875,0.8312225341796875
301402,-0.27008056640625,-0.4822845458984375,0.4334716796875
301403,0.087127685546875,-0.243255615234375,-0.0532379150390625
301404,0.430816650390625,0.072967529296875,-0.38232421875
301405,0.6879730224609375,0.2793426513671875,-0.4715118408203125
301406,0.971588134765625,0.3607177734375,-0.3338623046875
301407,1.343231201171875,0.43505859375,-0.00732421875
301408,1.6334228515625,0.5821685791015625,0.5046539306640625
301409,1.464675903320312,0.53857421875,1.020095825195312
301410,0.8475494384765625,0.093841552734375,1.08441162109375
301411,0.2557373046875,-0.2831268310546875,0.9058990478515624
301412,-0.067962646484375,-0.276123046875,0.815948486328125
301413,-0.152496337890625,0.0267181396484375,0.564605712890625
301414,-0.0213165283203125,0.083770751953125,0.27447509765625
301415,0.1874237060546875,-0.0240325927734375,0.138824462890625
301416,0.3561248779296875,-0.0152130126953125,0.1707611083984375
301417,0.4275970458984375,-0.0696868896484375,0.1244659423828125
301418,0.4789276123046875,-0.173980712890625,0.0708465576171875
301419,0.5376739501953125,-0.181304931640625,0.1634674072265625
301420,0.516143798828125,-0.351593017578125,0.4231719970703125
301421,0.459625244140625,-1.007980346679688,1.560028076171875
301422,-0.0974884033203125,-1.994415283203125,2.768508911132812
301423,-1.133636474609375,-2.25848388671875,2.407073974609375
301424,-1.689987182617188,-1.819961547851562,1.465255737304688
301425,-1.817398071289062,-1.766815185546875,1.392257690429688
301426,-1.879867553710938,-2.405792236328125,1.105697631835938
301427,-0.8145751953125,-3.21734619140625,0.867401123046875
301428,0.417144775390625,-3.438034057617188,0.7812957763671875
301429,1.1077880859375,-2.448516845703125,0.640289306640625
301430,1.578125,-1.3424072265625,0.484588623046875
301431,1.829788208007812,-0.613006591796875,0.4986419677734375
301432,1.597152709960938,-0.4060211181640625,1.056716918945312
301433,0.9906158447265624,-0.671630859375,1.36846923828125
301434,0.7588958740234375,-0.702880859375,1.703475952148438
301435,1.357330322265625,-0.634033203125,2.353561401367188
301436,1.45489501953125,-0.7174835205078125,2.040252685546875
301437,1.1795654296875,-0.7727203369140625,1.726150512695312
301438,0.734588623046875,-0.78997802734375,1.479629516601562
301439,0.2675933837890625,-0.7792816162109375,1.2998046875
301440,-0.1597137451171875,-0.753448486328125,1.007781982421875
301441,-0.4277191162109375,-0.7120513916015625,0.7087249755859375
301442,-0.5646209716796875,-0.7233123779296875,0.572967529296875
301443,-0.668548583984375,-0.7776947021484375,0.581298828125
301444,-0.6841278076171875,-0.8571624755859375,0.671661376953125
301445,-0.669677734375,-0.9280242919921876,0.7855987548828125
301446,-0.6934051513671875,-0.9359130859375,0.720306396484375
301447,-0.714385986328125,-0.8919525146484375,0.4707794189453125
301448,-0.65826416015625,-0.879119873046875,0.2573699951171875
301449,-0.47210693359375,-0.86090087890625,0.14483642578125
301450,-0.299163818359375,-0.7125244140625,-0.0684967041015625
301451,-0.1596221923828125,-0.5429229736328125,-0.2894134521484375
301452,-0.04241943359375,-0.3968505859375,-0.32244873046875
301453,0.0572967529296875,-0.23956298828125,-0.205963134765625
301454,0.1327362060546875,-0.069976806640625,-0.1151123046875
301455,0.201690673828125,0.1182098388671875,-0.0744171142578125
301456,0.2838592529296875,0.270355224609375,-0.0531158447265625
301457,0.364044189453125,0.3621063232421875,0.021636962890625
301458,0.3720245361328125,0.37445068359375,0.151947021484375
301459,0.2407379150390625,0.323883056640625,0.19921875
301460,0.056243896484375,0.2567596435546875,0.234222412109375
301461,-0.0830841064453125,0.2049102783203125,0.2414703369140625
301462,-0.214141845703125,0.1522369384765625,0.01739501953125
301463,-0.3299102783203125,0.0788726806640625,-0.2683563232421875
301464,-0.35540771484375,0.066070556640625,-0.4139404296875
301465,-0.2869873046875,0.235015869140625,-0.4168701171875
301466,-0.1410980224609375,0.4057159423828125,-0.33612060546875
301467,0.040924072265625,0.358489990234375,-0.2038726806640625
301468,0.1703338623046875,0.25311279296875,-0.0579681396484375
301469,0.238677978515625,0.1710205078125,0.0803070068359375
301470,0.32220458984375,0.23040771484375,0.29046630859375
301471,0.6441192626953125,0.4875030517578125,0.5693511962890625
301472,1.158447265625,0.6632232666015625,0.723358154296875
301473,1.694976806640625,0.627471923828125,0.7547607421875
301474,2.369049072265625,0.403045654296875,1.071578979492188
301475,3.167022705078125,0.10491943359375,1.507354736328125
301476,3.92120361328125,-0.1700286865234375,1.579132080078125
301477,4.409332275390625,-0.4296112060546875,1.595260620117188
301478,3.9957275390625,-0.74462890625,2.11505126953125
301479,2.93231201171875,-1.562042236328125,3.471435546875
301480,2.043807983398438,-2.5865478515625,4.999908447265625
301481,1.649215698242188,-3.716705322265625,4.653778076171875
301482,0.7002105712890625,-4.329864501953125,2.870529174804688
301483,-0.2703094482421875,-3.122329711914062,1.70758056640625
301484,-0.6891021728515625,-1.607467651367188,1.6513671875
301485,-0.58428955078125,-0.99420166015625,1.318710327148438
301486,-0.166351318359375,-0.5784454345703125,0.5489044189453125
301487,0.2728424072265625,-0.32562255859375,0.2075042724609375
301488,0.635284423828125,-0.3261566162109375,0.475250244140625
301489,0.9533538818359376,-0.3615264892578125,1.077011108398438
301490,1.097625732421875,-0.3936004638671875,1.468017578125
301491,1.099517822265625,-0.5018157958984375,1.312026977539062
301492,0.947998046875,-0.8054351806640625,1.088104248046875
301493,0.85687255859375,-0.9365234375,1.407058715820312
301494,0.6403350830078125,-1.092514038085938,1.510299682617188
301495,0.099853515625,-1.477737426757812,1.00640869140625
301496,-0.6828765869140625,-1.740768432617188,0.2194061279296875
301497,-1.242111206054688,-1.552291870117188,-0.1736907958984375
301498,-1.448745727539062,-1.111465454101562,-0.1556549072265625
301499,-1.721954345703125,-0.9405364990234376,-0.1820526123046875
301500,-2.173980712890625,-0.8842926025390625,-0.5895538330078125
301501,-2.298965454101562,-0.9283294677734376,-0.4851226806640625
301502,-1.609573364257812,-0.8648834228515625,0.0007171630859375
301503,-0.8871612548828125,-0.673248291015625,0.21087646484375
301504,-0.5261383056640625,-0.5469512939453125,0.2038726806640625
301505,-0.3342742919921875,-0.426727294921875,0.0433807373046875
301506,-0.1110076904296875,-0.275146484375,-0.1062469482421875
301507,0.1967620849609375,-0.098052978515625,-0.2186279296875
301508,0.4989471435546875,0.0500335693359375,-0.2975006103515625
301509,0.749603271484375,0.1043243408203125,-0.277984619140625
301510,0.90374755859375,0.08123779296875,-0.1672515869140625
301511,0.926055908203125,0.0745697021484375,-0.0404815673828125
301512,0.8249969482421875,0.1460723876953125,0.0898590087890625
301513,0.5681610107421875,0.3114471435546875,0.13714599609375
301514,0.2748260498046875,0.3719635009765625,0.0890655517578125
301515,0.044891357421875,0.302947998046875,0.1086578369140625
301516,-0.1199798583984375,0.2871856689453125,0.126007080078125
301517,-0.2634735107421875,0.220489501953125,0.11090087890625
301518,-0.400146484375,0.1148834228515625,0.0886688232421875
301519,-0.4439849853515625,0.024566650390625,0.060882568359375
301520,-0.3490753173828125,0.0269927978515625,0.044219970703125
301521,-0.2087249755859375,0.0842742919921875,0.00994873046875
301522,-0.0267181396484375,0.122650146484375,0.00604248046875
301523,0.143035888671875,0.11529541015625,0.059783935546875
301524,0.2670440673828125,0.0777740478515625,0.190887451171875
301525,0.344268798828125,0.212005615234375,0.303924560546875
301526,0.4597625732421875,0.4668121337890625,0.480621337890625
301527,0.6838836669921875,0.6681060791015625,0.515594482421875
301528,1.160186767578125,0.66650390625,0.5274810791015625
301529,1.594863891601562,0.50079345703125,0.863250732421875
301530,1.946380615234375,0.39776611328125,1.206283569335938
301531,2.900894165039062,0.308074951171875,1.183120727539062
301532,4.06793212890625,0.135589599609375,1.662368774414062
301533,4.6533203125,0.1776123046875,1.84820556640625
301534,4.344436645507812,0.2288665771484375,1.870651245117188
301535,3.551467895507812,-0.26788330078125,2.107025146484375
301536,2.788772583007812,-1.021041870117188,2.42926025390625
301537,2.214813232421875,-1.620361328125,3.177536010742188
301538,1.456741333007812,-2.57012939453125,4.03460693359375
301539,0.06939697265625,-3.902450561523438,4.168777465820312
301540,-0.8973846435546875,-3.642471313476562,3.064208984375
301541,-0.7412261962890625,-2.428756713867188,1.80303955078125
301542,-0.368255615234375,-1.8077392578125,0.067413330078125
301543,-0.4535369873046875,-1.4307861328125,-0.0903778076171875
301544,-0.68170166015625,-0.9095916748046876,0.1691131591796875
301545,-0.498748779296875,-0.4524078369140625,0.3658905029296875
301546,-0.0484466552734375,-0.15423583984375,0.793701171875
301547,0.2028350830078125,-0.0265655517578125,1.078201293945312
301548,0.1950531005859375,-0.0891571044921875,1.319168090820312
301549,-0.1398773193359375,-0.3441619873046875,1.214859008789062
301550,-0.5754547119140625,-0.517333984375,1.084426879882812
301551,-0.77606201171875,-0.4952392578125,0.99072265625
301552,-0.832183837890625,-0.696624755859375,0.81658935546875
301553,-0.9173736572265624,-0.7451324462890625,0.805419921875
301554,-0.91253662109375,-0.7593231201171875,0.86712646484375
301555,-0.7565155029296875,-0.8892669677734375,0.7445526123046875
301556,-0.4631500244140625,-1.091461181640625,0.502899169921875
301557,-0.127349853515625,-1.136367797851562,0.25994873046875
301558,0.0796966552734375,-0.9274139404296876,0.012451171875
301559,0.164093017578125,-0.7419281005859375,-0.0833282470703125
301560,0.28466796875,-0.5586090087890625,0.0201568603515625
301561,0.4136810302734375,-0.2801666259765625,0.0731964111328125
301562,0.5507354736328125,0.1087799072265625,-0.0484466552734375
301563,0.740081787109375,0.4660186767578125,-0.075408935546875
301564,0.7850799560546875,0.63043212890625,-0.0478515625
301565,0.6721649169921875,0.609527587890625,-0.06817626953125
301566,0.5387115478515625,0.484039306640625,-0.0688629150390625
301567,0.458892822265625,0.359527587890625,-0.0368194580078125
301568,0.300323486328125,0.2925567626953125,-0.061553955078125
301569,0.0513458251953125,0.2593231201171875,-0.16168212890625
301570,-0.2065582275390625,0.251617431640625,-0.308074951171875
301571,-0.424560546875,0.2610626220703125,-0.3302154541015625
301572,-0.6068115234375,0.229583740234375,-0.114471435546875
301573,-0.7085723876953125,0.136932373046875,-0.0136871337890625
301574,-0.725067138671875,0.0524749755859375,0.1141204833984375
301575,-0.68975830078125,0.019683837890625,0.28350830078125
301576,-0.587982177734375,0.0020599365234375,0.2860107421875
301577,-0.3935699462890625,-0.0576324462890625,0.144073486328125
301578,-0.1673126220703125,-0.150634765625,-0.07135009765625
301579,0.127532958984375,-0.252593994140625,-0.15008544921875
301580,0.4916229248046875,-0.298828125,-0.0868377685546875
301581,0.8691253662109375,-0.27984619140625,0.0021514892578125
301582,1.271255493164062,-0.191741943359375,0.3137054443359375
301583,1.695037841796875,-0.0980072021484375,0.85040283203125
301584,1.904708862304688,0.092254638671875,1.456787109375
301585,1.988922119140625,0.3661651611328125,1.639541625976562
301586,2.57781982421875,0.6619720458984375,1.508438110351562
301587,3.5394287109375,0.59796142578125,1.94580078125
301588,4.507980346679688,0.0293731689453125,1.678497314453125
301589,4.933914184570312,-0.3387603759765625,1.634490966796875
301590,4.602813720703125,-0.587677001953125,2.9443359375
301591,3.619125366210938,-1.192779541015625,4.221908569335938
301592,2.869430541992188,-2.029953002929688,5.643753051757812
301593,2.193939208984375,-3.638839721679688,6.514694213867188
301594,0.5780792236328125,-5.148849487304688,6.033279418945312
301595,-1.165863037109375,-4.865020751953125,3.640182495117188
301596,-2.03558349609375,-3.694137573242188,0.795989990234375
301597,-2.23260498046875,-3.770843505859375,-0.509796142578125
301598,-2.252410888671875,-4.289306640625,-0.1416473388671875
301599,-2.264816284179688,-4.088790893554688,0.58038330078125
301600,-1.8424072265625,-3.259735107421875,1.183807373046875
301601,-1.031402587890625,-2.218429565429688,1.60015869140625
301602,-0.52691650390625,-1.440475463867188,1.618270874023438
301603,-0.1363067626953125,-0.973663330078125,1.3135986328125
301604,0.182769775390625,-0.551513671875,0.9571075439453124
301605,0.3731231689453125,-0.10589599609375,0.5566864013671875
301606,0.6150360107421875,0.168914794921875,0.3968353271484375
301607,0.8764495849609375,0.29425048828125,0.523406982421875
301608,0.9919281005859376,0.3773956298828125,0.594024658203125
301609,0.98590087890625,0.4388427734375,0.6297149658203125
301610,0.7990875244140625,0.5254058837890625,0.5513458251953125
301611,0.6036224365234375,0.569061279296875,0.4430084228515625
301612,0.4992523193359375,0.4955291748046875,0.2470245361328125
301613,0.438079833984375,0.3624114990234375,-0.0459747314453125
301614,0.4051513671875,0.2392425537109375,-0.196563720703125
301615,0.2773590087890625,0.1742401123046875,-0.203887939453125
301616,0.0917205810546875,0.1610260009765625,-0.2046051025390625
301617,-0.011444091796875,0.150299072265625,-0.073516845703125
301618,0.0152587890625,0.13690185546875,0.0955963134765625
301619,-0.026611328125,0.0723114013671875,0.1793365478515625
301620,-0.1607666015625,-0.0509185791015625,0.0599822998046875
301621,-0.1819915771484375,-0.1943817138671875,-0.17010498046875
301622,0.006622314453125,-0.3978424072265625,-0.2252960205078125
301623,0.1331329345703125,-0.594024658203125,-0.1232757568359375
301624,0.0949859619140625,-0.5995025634765625,0.173797607421875
301625,0.1376495361328125,-0.537078857421875,0.40887451171875
301626,0.21221923828125,-0.559112548828125,0.38238525390625
301627,0.2137451171875,-0.62298583984375,0.2998199462890625
301628,0.13671875,-0.683502197265625,0.328948974609375
301629,0.0214996337890625,-0.783966064453125,0.3421783447265625
301630,-0.137725830078125,-1.032440185546875,0.360260009765625
301631,-0.423004150390625,-1.317901611328125,0.5697174072265625
301632,-0.816619873046875,-1.260543823242188,0.7301788330078125
301633,-1.048980712890625,-0.8442535400390625,0.9169921875
301634,-0.853546142578125,-0.42596435546875,1.20648193359375
301635,-0.51300048828125,-0.051727294921875,0.815093994140625
301636,0.0509490966796875,0.0382843017578125,0.148406982421875
301637,0.5054931640625,0.110809326171875,0.0614776611328125
301638,0.816741943359375,0.07769775390625,0.0735321044921875
301639,1.148605346679688,0.0239715576171875,0.0089111328125
301640,1.43890380859375,0.1505279541015625,-0.06842041015625
301641,1.60052490234375,0.2812957763671875,-0.2119598388671875
301642,1.671478271484375,0.3581695556640625,-0.2156829833984375
301643,1.307357788085938,0.210784912109375,0.0810699462890625
301644,0.7143096923828125,-0.2168426513671875,0.2510528564453125
301645,0.2758331298828125,-0.463653564453125,0.2049713134765625
301646,0.0247039794921875,-0.4185028076171875,0.1154327392578125
301647,-0.0845794677734375,-0.3025054931640625,0.0502471923828125
301648,-0.0971527099609375,-0.281524658203125,0.069122314453125
301649,-0.101318359375,-0.2261962890625,0.076385498046875
301650,-0.1391448974609375,-0.0612945556640625,0.07647705078125
301651,-0.1479339599609375,0.0425567626953125,0.1281890869140625
301652,-0.118133544921875,0.07415771484375,0.2311553955078125
301653,-0.07147216796875,0.0572509765625,0.331756591796875
301654,-0.011932373046875,0.0241851806640625,0.3933563232421875
301655,0.0438385009765625,-0.0137786865234375,0.396453857421875
301656,0.1060638427734375,-0.042999267578125,0.392425537109375
301657,0.19464111328125,-0.0754241943359375,0.4273223876953125
301658,0.3104248046875,-0.0755767822265625,0.457275390625
301659,0.3909759521484375,-0.03375244140625,0.438751220703125
301660,0.4931793212890625,-0.01947021484375,0.4293212890625
301661,0.5943756103515625,0.002593994140625,0.4449310302734375
301662,0.6611175537109375,0.0166473388671875,0.498779296875
301663,0.627838134765625,0.020111083984375,0.485260009765625
301664,0.524444580078125,0.012054443359375,0.4283599853515625
301665,0.4109649658203125,0.0679931640625,0.3271331787109375
301666,0.3177337646484375,0.1577301025390625,0.228240966796875
301667,0.2492523193359375,0.27703857421875,0.176666259765625
301668,0.242950439453125,0.3797149658203125,0.175933837890625
301669,0.2624969482421875,0.4369964599609375,0.197357177734375
301670,0.2425689697265625,0.390167236328125,0.0941925048828125
301671,0.2925567626953125,0.21624755859375,0.05596923828125
301672,0.3637542724609375,0.0464324951171875,0.02545166015625
301673,0.32037353515625,-0.1859588623046875,-0.0675506591796875
301674,0.2043914794921875,-0.3911590576171875,-0.016204833984375
301675,0.0634918212890625,-0.4947662353515625,0.1201934814453125
301676,-0.12750244140625,-0.65911865234375,0.340301513671875
301677,-0.3266754150390625,-0.8809661865234375,0.5118255615234375
301678,-0.4278717041015625,-1.166961669921875,0.9630584716796876
301679,-0.401153564453125,-1.973648071289062,2.154556274414062
301680,-0.82391357421875,-4.907516479492188,2.266586303710938
301681,-3.164657592773438,-8.0380859375,0.229522705078125
301682,-4.11993408203125,-6.64251708984375,-0.2035064697265625
301683,-1.7620849609375,-2.943069458007812,0.3133392333984375
301684,0.1005706787109375,-2.766616821289062,1.500106811523438
301685,-0.6336669921875,-3.71588134765625,1.401443481445312
301686,-1.333602905273438,-3.8748779296875,1.200653076171875
301687,-1.5023193359375,-3.114593505859375,1.644088745117188
301688,-2.101425170898438,-2.077072143554688,1.573394775390625
301689,-2.15936279296875,-1.055130004882812,1.237350463867188
301690,-1.683639526367188,-0.6573944091796875,1.09185791015625
301691,-1.122024536132812,-0.5435943603515625,0.8487396240234375
301692,-0.5316009521484375,-0.5993194580078125,0.625732421875
301693,0.0593414306640625,-0.6330108642578125,0.4781494140625
301694,0.438140869140625,-0.5766143798828125,0.3378143310546875
301695,0.6053619384765625,-0.4115142822265625,0.3407440185546875
301696,0.7364044189453125,-0.1570587158203125,0.4138641357421875
301697,0.918060302734375,0.1747894287109375,0.382415771484375
301698,1.05560302734375,0.5108642578125,0.22772216796875
301699,1.057327270507812,0.6234588623046875,0.1005859375
301700,0.9285430908203124,0.4995269775390625,0.07373046875
301701,0.749359130859375,0.344390869140625,0.2339019775390625
301702,0.679473876953125,0.2012481689453125,0.517578125
301703,0.662322998046875,0.04937744140625,0.637847900390625
301704,0.588226318359375,-0.126983642578125,0.69744873046875
301705,0.4971466064453125,-0.2805938720703125,0.864654541015625
301706,0.4259490966796875,-0.3297576904296875,0.8778533935546875
301707,0.325653076171875,-0.3323822021484375,0.6277008056640625
301708,0.2394866943359375,-0.2390899658203125,0.3589324951171875
301709,0.2334747314453125,-0.217315673828125,0.0894012451171875
301710,0.31182861328125,-0.2960968017578125,0.032806396484375
301711,0.510650634765625,-0.337615966796875,0.1548614501953125
301712,0.800018310546875,-0.4085540771484375,0.0557098388671875
301713,1.095977783203125,-0.575103759765625,0.1466522216796875
301714,1.303970336914062,-0.6783599853515625,0.6226959228515625
301715,1.197799682617188,-0.770538330078125,1.256317138671875
301716,0.580352783203125,-0.984588623046875,1.929931640625
301717,-0.007781982421875,-1.10821533203125,2.256179809570312
301718,-0.6368255615234375,-1.665206909179688,1.994354248046875
301719,-1.347732543945312,-2.7823486328125,1.633438110351562
301720,-1.949050903320312,-3.64190673828125,1.11907958984375
301721,-1.892135620117188,-3.727096557617188,0.752777099609375
301722,-1.045181274414062,-3.935653686523438,0.40118408203125
301723,-0.33673095703125,-3.95196533203125,0.5772247314453125
301724,0.135894775390625,-3.567840576171875,0.9899139404296876
301725,0.0848236083984375,-2.8565673828125,1.128463745117188
301726,-0.0615997314453125,-2.081390380859375,0.689239501953125
301727,-0.1402435302734375,-1.535430908203125,0.191986083984375
301728,-0.000762939453125,-1.046295166015625,0.1693572998046875
301729,0.27044677734375,-0.587493896484375,0.3939361572265625
301730,0.6334075927734375,-0.2428741455078125,0.7853546142578125
301731,0.8283843994140625,0.0217742919921875,0.944122314453125
301732,0.665985107421875,0.291259765625,0.9787139892578124
301733,0.508544921875,0.3821563720703125,1.211776733398438
301734,0.362579345703125,0.108917236328125,1.088043212890625
301735,0.067535400390625,-0.2405548095703125,0.64056396484375
301736,-0.1726226806640625,-0.4459075927734375,0.5488739013671875
301737,-0.3454742431640625,-0.6609649658203125,0.702850341796875
301738,-0.5924835205078125,-0.9300537109375,0.7792816162109375
301739,-0.783203125,-1.133743286132812,0.9176025390625
301740,-0.7437591552734375,-1.114715576171875,0.9362030029296876
301741,-0.44256591796875,-0.913665771484375,0.92999267578125
301742,-0.1090545654296875,-0.70660400390625,0.789794921875
301743,0.028076171875,-0.5684967041015625,0.5331268310546875
301744,0.0661773681640625,-0.548583984375,0.3623809814453125
301745,0.1608734130859375,-0.5153961181640625,0.33575439453125
301746,0.3017578125,-0.3343658447265625,0.3007659912109375
301747,0.381317138671875,-0.084869384765625,0.1941986083984375
301748,0.4100341796875,0.1524658203125,0.1058349609375
301749,0.4508514404296875,0.3518218994140625,0.0242919921875
301750,0.51373291015625,0.517974853515625,-0.043304443359375
301751,0.5490875244140625,0.6190948486328125,-0.1396484375
301752,0.5830230712890625,0.5973358154296875,-0.13037109375
301753,0.5390777587890625,0.4611053466796875,-0.1151123046875
301754,0.42645263671875,0.33258056640625,-0.093048095703125
301755,0.2916259765625,0.2554779052734375,-0.090545654296875
301756,0.1723175048828125,0.179931640625,-0.0476837158203125
301757,0.0667572021484375,0.062103271484375,-0.01837158203125
301758,-0.0380096435546875,-0.0979461669921875,-0.0543212890625
301759,-0.1194305419921875,-0.27191162109375,-0.142547607421875
301760,-0.1728363037109375,-0.3705291748046875,-0.2016754150390625
301761,-0.15728759765625,-0.35443115234375,-0.1808013916015625
301762,-0.1114959716796875,-0.2170257568359375,-0.08807373046875
301763,-0.074920654296875,-0.080291748046875,0.012298583984375
301764,-0.076751708984375,0.008697509765625,0.1083984375
301765,-0.1355438232421875,0.06964111328125,0.09478759765625
301766,-0.1171417236328125,0.0989990234375,0.162994384765625
301767,-0.0874481201171875,0.1628570556640625,0.258270263671875
301768,0.1009368896484375,0.294464111328125,0.3150482177734375
301769,0.566619873046875,0.3441619873046875,0.5954742431640625
301770,1.214447021484375,0.221282958984375,0.957000732421875
301771,1.887435913085938,-0.087005615234375,1.085250854492188
301772,2.587265014648438,-0.414520263671875,1.143356323242188
301773,3.707916259765625,-1.058731079101562,1.813827514648438
301774,4.57440185546875,-2.110092163085938,2.708206176757812
301775,4.68096923828125,-3.270706176757812,3.378387451171875
301776,4.157730102539062,-4.468795776367188,4.069839477539062
301777,3.188186645507812,-5.055816650390625,3.540451049804688
301778,1.638473510742188,-4.60284423828125,3.38531494140625
301779,0.5204925537109375,-3.0946044921875,2.75421142578125
301780,-0.2899322509765625,-1.940536499023438,1.629257202148438
301781,-0.7032623291015625,-2.1405029296875,1.673385620117188
301782,-0.709747314453125,-2.030075073242188,1.497406005859375
301783,-0.5918121337890625,-1.62255859375,1.29168701171875
301784,-0.4076690673828125,-1.299728393554688,1.210403442382812
301785,-0.258270263671875,-0.9315643310546876,1.259185791015625
301786,-0.1139678955078125,-0.731475830078125,1.21856689453125
301787,0.0366668701171875,-0.67572021484375,1.079559326171875
301788,0.27880859375,-0.578643798828125,0.95306396484375
301789,0.580780029296875,-0.4232330322265625,0.73272705078125
301790,0.753997802734375,-0.46966552734375,0.3218536376953125
301791,0.5394134521484375,-0.6840362548828125,0.1056976318359375
301792,0.128570556640625,-1.053466796875,0.196868896484375
301793,-0.1712493896484375,-1.03387451171875,0.2288970947265625
301794,-0.4695281982421875,-0.8076019287109375,-0.0542144775390625
301795,-0.7725677490234375,-0.853240966796875,-0.2608795166015625
301796,-1.0963134765625,-0.9565887451171876,-0.2671966552734375
301797,-1.090057373046875,-1.013702392578125,-0.3266754150390625
301798,-0.7102508544921875,-1.041671752929688,-0.212005615234375
301799,-0.3770751953125,-0.9613037109375,-0.0695648193359375
301800,-0.2063751220703125,-0.8433074951171875,-0.0053253173828125
301801,-0.08984375,-0.686920166015625,0.1292724609375
301802,0.0238037109375,-0.4644775390625,0.2436370849609375
301803,0.147186279296875,-0.233428955078125,0.264495849609375
301804,0.2816619873046875,-0.0169219970703125,0.1944580078125
301805,0.3909454345703125,0.22906494140625,0.0540924072265625
301806,0.4118194580078125,0.454010009765625,-0.0242462158203125
301807,0.3681182861328125,0.6274566650390625,0.059112548828125
301808,0.2814178466796875,0.7394561767578125,0.1486968994140625
301809,0.1449737548828125,0.779327392578125,0.1222686767578125
301810,-0.03216552734375,0.7146148681640625,0.0470123291015625
301811,-0.1543121337890625,0.5869140625,0.0653228759765625
301812,-0.1759490966796875,0.4432220458984375,0.0840606689453125
301813,-0.2575225830078125,0.3120880126953125,0.0086669921875
301814,-0.3342132568359375,0.186920166015625,-0.090545654296875
301815,-0.3130340576171875,0.0962066650390625,-0.1392059326171875
301816,-0.2008514404296875,0.04156494140625,-0.0800628662109375
301817,-0.08282470703125,-0.0197906494140625,-0.0499725341796875
301818,0.0467987060546875,-0.109466552734375,-0.03424072265625
301819,0.1293487548828125,-0.2152557373046875,0.0647735595703125
301820,0.0820770263671875,-0.3033294677734375,0.152435302734375
301821,-0.0756988525390625,-0.2946929931640625,0.30133056640625
301822,-0.247344970703125,0.0160980224609375,0.5333404541015625
301823,-0.37359619140625,0.4781494140625,0.6314697265625
301824,-0.4246368408203125,0.5288238525390625,0.3058624267578125
301825,-0.4352264404296875,0.1622772216796875,-0.148681640625
301826,-0.1274566650390625,0.09942626953125,-0.1163330078125
301827,0.68243408203125,0.213348388671875,0.3038787841796875
301828,1.435943603515625,0.2674102783203125,0.558807373046875
301829,1.965957641601562,0.21905517578125,0.96014404296875
301830,2.314834594726562,0.141510009765625,1.437591552734375
301831,3.008468627929688,-0.208831787109375,2.538925170898438
301832,4.37255859375,-1.124237060546875,3.873809814453125
301833,5.334609985351562,-2.295730590820312,4.347549438476562
301834,4.637115478515625,-3.331329345703125,4.025344848632812
301835,2.866012573242188,-4.20379638671875,3.200531005859375
301836,1.371734619140625,-4.455078125,3.296722412109375
301837,0.831268310546875,-3.600830078125,2.531890869140625
301838,0.5695343017578125,-2.366424560546875,1.549774169921875
301839,0.0718994140625,-2.07537841796875,1.616302490234375
301840,-0.2471160888671875,-1.602523803710938,1.384124755859375
301841,-0.0315093994140625,-1.063705444335938,1.524063110351562
301842,0.40496826171875,-1.03338623046875,1.508026123046875
301843,0.5648040771484375,-1.064498901367188,1.304183959960938
301844,0.66729736328125,-1.0020751953125,1.061981201171875
301845,0.7561187744140625,-0.8298492431640625,0.8002777099609375
301846,0.7891845703125,-0.605712890625,0.613525390625
301847,0.7169952392578125,-0.4578704833984375,0.4402618408203125
301848,0.5090789794921875,-0.48345947265625,0.334381103515625
301849,0.2326202392578125,-0.5675506591796875,0.1603546142578125
301850,-0.080230712890625,-0.5730438232421875,0.04998779296875
301851,-0.4321441650390625,-0.59722900390625,0.03546142578125
301852,-0.8139190673828125,-0.7481231689453125,-0.0258941650390625
301853,-1.036544799804688,-0.8797607421875,-0.1372833251953125
301854,-0.960723876953125,-0.99407958984375,-0.2109527587890625
301855,-0.48992919921875,-1.021270751953125,0.0182647705078125
301856,-0.064971923828125,-0.9056243896484376,0.2498016357421875
301857,0.04693603515625,-0.808868408203125,0.234893798828125
301858,0.02947998046875,-0.7423095703125,0.2590789794921875
301859,0.0764617919921875,-0.6207733154296875,0.430755615234375
301860,0.1151275634765625,-0.4680328369140625,0.4821319580078125
301861,0.0818328857421875,-0.2758941650390625,0.33355712890625
301862,0.0515899658203125,-0.0452880859375,0.132598876953125
301863,0.03326416015625,0.210845947265625,-0.0037384033203125
301864,0.0388946533203125,0.4228668212890625,-0.075958251953125
301865,0.0647735595703125,0.5260467529296875,-0.21246337890625
301866,0.014801025390625,0.5613555908203125,-0.3085784912109375
301867,-0.0921478271484375,0.53997802734375,-0.23504638671875
301868,-0.2633209228515625,0.4935760498046875,-0.09698486328125
301869,-0.47003173828125,0.430511474609375,-0.0102081298828125
301870,-0.6501312255859375,0.2264404296875,-0.0500030517578125
301871,-0.714019775390625,0.01910400390625,-0.158355712890625
301872,-0.582305908203125,-0.0525360107421875,-0.228118896484375
301873,-0.3494110107421875,-0.0684356689453125,-0.2894439697265625
301874,-0.1337890625,-0.1483917236328125,-0.3208160400390625
301875,-0.02099609375,-0.2703399658203125,-0.263214111328125
301876,-0.01739501953125,-0.3446502685546875,-0.1587371826171875
301877,-0.0726776123046875,-0.3708343505859375,-0.0454559326171875
301878,-0.1553497314453125,-0.3946685791015625,0.0670013427734375
301879,-0.28228759765625,-0.29449462890625,0.0699920654296875
301880,-0.472320556640625,0.05767822265625,0.001495361328125
301881,-0.5492095947265625,0.7149810791015625,0.081207275390625
301882,-0.449981689453125,1.076095581054688,0.1100616455078125
301883,-0.12567138671875,0.6428070068359375,0.16241455078125
301884,0.7103729248046875,0.2706451416015625,0.2162933349609375
301885,1.556198120117188,-0.0209503173828125,0.5346832275390625
301886,2.4002685546875,-0.1925201416015625,1.569580078125
301887,4.788543701171875,-0.37457275390625,2.0621337890625
301888,7.703720092773438,-1.3258056640625,3.507659912109375
301889,7.96368408203125,-2.9622802734375,4.112640380859375
301890,6.4326171875,-3.699005126953125,2.681259155273438
301891,3.172988891601562,-4.506988525390625,2.51544189453125
301892,1.144119262695312,-4.338958740234375,2.871337890625
301893,0.5397186279296875,-3.089370727539062,2.413604736328125
301894,0.422393798828125,-2.034866333007812,2.015274047851562
301895,0.0364227294921875,-2.05963134765625,1.355010986328125
301896,-0.4442291259765625,-1.952865600585938,0.8614959716796875
301897,-0.4768218994140625,-1.32501220703125,0.8327789306640625
301898,-0.126617431640625,-0.8588104248046875,0.758331298828125
301899,0.1322479248046875,-0.45513916015625,0.7563934326171875
301900,0.2009735107421875,-0.1744232177734375,0.97186279296875
301901,0.3300933837890625,-0.1479644775390625,0.85247802734375
301902,0.5677337646484375,-0.15106201171875,0.6798095703125
301903,0.691925048828125,-0.1986541748046875,0.579833984375
301904,0.60479736328125,-0.4290924072265625,0.352203369140625
301905,0.2666168212890625,-0.5803985595703125,0.218597412109375
301906,-0.0960235595703125,-0.601470947265625,0.3321075439453125
301907,-0.2985382080078125,-0.713958740234375,0.4560394287109375
301908,-0.613922119140625,-1.006423950195312,0.5071258544921875
301909,-1.024261474609375,-1.257278442382812,0.5375213623046875
301910,-1.117324829101562,-1.254486083984375,0.5893402099609375
301911,-0.8092803955078125,-1.107528686523438,0.69073486328125
301912,-0.2954254150390625,-0.9091796875,0.5610198974609375
301913,-0.0635833740234375,-0.6880645751953125,0.286468505859375
301914,-0.023101806640625,-0.589508056640625,0.181976318359375
301915,-0.02264404296875,-0.3689117431640625,0.247283935546875
301916,-0.1075439453125,-0.125946044921875,0.2708892822265625
301917,-0.1472015380859375,-0.0258026123046875,0.21307373046875
301918,-0.0952606201171875,0.03875732421875,0.0706787109375
301919,-0.050628662109375,0.1304931640625,-0.1037445068359375
301920,-0.0792083740234375,0.21112060546875,-0.2723846435546875
301921,-0.1530914306640625,0.266448974609375,-0.3708953857421875
301922,-0.2608642578125,0.2927398681640625,-0.411285400390625
301923,-0.36456298828125,0.2828826904296875,-0.3912506103515625
301924,-0.450103759765625,0.213470458984375,-0.3512115478515625
301925,-0.537872314453125,0.14617919921875,-0.293731689453125
301926,-0.6436767578125,0.0651397705078125,-0.2385711669921875
301927,-0.7033843994140625,0.0112152099609375,-0.1093902587890625
301928,-0.696746826171875,-0.0167388916015625,0.034271240234375
301929,-0.6388397216796875,-0.0491180419921875,0.071258544921875
