time_idx,accelerometerAccelerationX(G),accelerometerAccelerationY(G),accelerometerAccelerationZ(G)
260000,-0.922637939453125,-0.781768798828125,0.665771484375
260001,-0.8024444580078125,-0.7890625,0.473236083984375
260002,-0.673065185546875,-0.7923736572265625,0.4116058349609375
260003,-0.573089599609375,-0.7924041748046875,0.3932342529296875
260004,-0.4715576171875,-0.787933349609375,0.3634185791015625
260005,-0.364837646484375,-0.76947021484375,0.3447265625
260006,-0.251678466796875,-0.7443084716796875,0.38995361328125
260007,-0.1058502197265625,-0.7278594970703125,0.52099609375
260008,0.0948944091796875,-0.7228851318359375,0.7017364501953125
260009,0.30621337890625,-0.7252349853515625,0.882476806640625
260010,0.5106658935546875,-0.7520904541015625,1.135025024414062
260011,0.6935577392578125,-0.768951416015625,1.393142700195312
260012,0.8271026611328125,-0.6638336181640625,1.538406372070312
260013,0.9309539794921876,-0.5534210205078125,1.488327026367188
260014,1.064056396484375,-0.5567474365234375,1.356674194335938
260015,1.088546752929688,-0.4700164794921875,1.234024047851562
260016,0.9295654296875,-0.2819671630859375,1.087570190429688
260017,0.7720489501953125,-0.154052734375,0.9183349609375
260018,0.72039794921875,-0.08709716796875,0.7936859130859375
260019,0.72100830078125,-0.02972412109375,0.725494384765625
260020,0.7388916015625,0.025238037109375,0.659423828125
260021,0.7578125,0.0518951416015625,0.565155029296875
260022,0.7782135009765625,0.0331878662109375,0.521820068359375
260023,0.8062744140625,-0.0245361328125,0.5484466552734375
260024,0.8436431884765625,-0.13055419921875,0.608154296875
260025,0.8819122314453125,-0.245941162109375,0.6757049560546875
260026,0.9134521484375,-0.3249969482421875,0.744842529296875
260027,0.91845703125,-0.39373779296875,0.7819976806640625
260028,0.8939971923828125,-0.45263671875,0.798431396484375
260029,0.8570098876953125,-0.49212646484375,0.836151123046875
260030,0.8375701904296875,-0.521697998046875,0.9330596923828124
260031,0.8537750244140625,-0.522186279296875,1.07562255859375
260032,0.9043426513671876,-0.495819091796875,1.184661865234375
260033,0.9400634765625,-0.46746826171875,1.182037353515625
260034,0.9210205078125,-0.431365966796875,1.12078857421875
260035,0.8570098876953125,-0.382965087890625,1.071380615234375
260036,0.7682952880859375,-0.3254241943359375,1.041412353515625
260037,0.6795196533203125,-0.2974090576171875,1.02874755859375
260038,0.5942840576171875,-0.3115081787109375,0.99285888671875
260039,0.47021484375,-0.325286865234375,0.8954620361328125
260040,0.3280181884765625,-0.3649749755859375,0.7642822265625
260041,0.144134521484375,-0.3754730224609375,0.6226348876953125
260042,-0.0771331787109375,-0.3636474609375,0.4842376708984375
260043,-0.25921630859375,-0.380584716796875,0.4011993408203125
260044,-0.3859100341796875,-0.3904876708984375,0.346343994140625
260045,-0.4860076904296875,-0.3690032958984375,0.2814178466796875
260046,-0.536834716796875,-0.38671875,0.2385406494140625
260047,-0.538665771484375,-0.45855712890625,0.189422607421875
260048,-0.4943389892578125,-0.5706329345703125,0.1371307373046875
260049,-0.3983001708984375,-0.7017059326171875,0.1096343994140625
260050,-0.296722412109375,-0.8185577392578125,0.1601409912109375
260051,-0.27099609375,-0.910400390625,0.2850341796875
260052,-0.3383941650390625,-0.9866485595703124,0.4535980224609375
260053,-0.431976318359375,-1.1075439453125,0.627777099609375
260054,-0.5113677978515625,-1.242507934570312,0.797698974609375
260055,-0.5257720947265625,-1.34210205078125,1.020095825195312
260056,-0.4299468994140625,-1.367507934570312,1.273635864257812
260057,-0.250396728515625,-1.269302368164062,1.4752197265625
260058,-0.019866943359375,-1.085174560546875,1.574005126953125
260059,0.1780548095703125,-0.88671875,1.492843627929688
260060,0.3278350830078125,-0.7700042724609375,1.286239624023438
260061,0.4598236083984375,-0.7005462646484375,1.11895751953125
260062,0.514739990234375,-0.5748443603515625,1.044342041015625
260063,0.5161590576171875,-0.413909912109375,1.033889770507812
260064,0.499847412109375,-0.2548980712890625,1.048370361328125
260065,0.4811859130859375,-0.17413330078125,1.038436889648438
260066,0.4665069580078125,-0.1500091552734375,1.0035400390625
260067,0.433349609375,-0.1726837158203125,0.9378509521484376
260068,0.3956451416015625,-0.2164764404296875,0.87017822265625
260069,0.3691253662109375,-0.2548980712890625,0.7957305908203125
260070,0.368682861328125,-0.2773895263671875,0.7336273193359375
260071,0.4017791748046875,-0.287109375,0.68316650390625
260072,0.43975830078125,-0.27264404296875,0.6281890869140625
260073,0.4858245849609375,-0.253265380859375,0.59759521484375
260074,0.52911376953125,-0.20782470703125,0.5672454833984375
260075,0.57647705078125,-0.1493682861328125,0.5413055419921875
260076,0.633575439453125,-0.0909881591796875,0.518310546875
260077,0.689056396484375,-0.0422210693359375,0.522491455078125
260078,0.73046875,-0.0033111572265625,0.554046630859375
260079,0.7735137939453125,0.006103515625,0.6093597412109375
260080,0.798370361328125,-0.0075225830078125,0.67669677734375
260081,0.7886810302734375,-0.047119140625,0.7341461181640625
260082,0.739501953125,-0.096221923828125,0.7879486083984375
260083,0.6811370849609375,-0.143035888671875,0.859375
260084,0.612640380859375,-0.1958770751953125,0.92236328125
260085,0.5301666259765625,-0.2630615234375,0.9509429931640624
260086,0.4476318359375,-0.342254638671875,0.953399658203125
260087,0.3674774169921875,-0.4302215576171875,0.9527435302734376
260088,0.2989501953125,-0.520965576171875,0.957183837890625
260089,0.2639617919921875,-0.5825042724609375,0.9409332275390624
260090,0.26824951171875,-0.602294921875,0.89910888671875
260091,0.2940216064453125,-0.6038970947265625,0.8555755615234375
260092,0.3509521484375,-0.60748291015625,0.833526611328125
260093,0.428741455078125,-0.615386962890625,0.839996337890625
260094,0.5063018798828125,-0.6298370361328125,0.845458984375
260095,0.576263427734375,-0.6313323974609375,0.8333740234375
260096,0.6262054443359375,-0.62628173828125,0.8183441162109375
260097,0.6416015625,-0.6400909423828125,0.8267974853515625
260098,0.57562255859375,-0.6589813232421875,0.8538818359375
260099,0.4393157958984375,-0.6947479248046875,0.9055633544921876
260100,0.2793426513671875,-0.735107421875,0.9405059814453124
260101,0.1105194091796875,-0.75921630859375,0.9093475341796876
260102,-0.04193115234375,-0.787811279296875,0.87127685546875
260103,-0.1425018310546875,-0.8262786865234375,0.825408935546875
260104,-0.206390380859375,-0.852203369140625,0.7680206298828125
260105,-0.28753662109375,-0.834259033203125,0.6981048583984375
260106,-0.39935302734375,-0.80975341796875,0.6510467529296875
260107,-0.531219482421875,-0.7956085205078125,0.617095947265625
260108,-0.6480560302734375,-0.75970458984375,0.569580078125
260109,-0.7220306396484375,-0.6890106201171875,0.5579986572265625
260110,-0.7062835693359375,-0.6043548583984375,0.5032501220703125
260111,-0.6331939697265625,-0.5782928466796875,0.385772705078125
260112,-0.5526580810546875,-0.59979248046875,0.306396484375
260113,-0.481170654296875,-0.628509521484375,0.2921600341796875
260114,-0.3924713134765625,-0.6472015380859375,0.3557891845703125
260115,-0.2925872802734375,-0.6379852294921875,0.465179443359375
260116,-0.17901611328125,-0.62725830078125,0.60919189453125
260117,-0.052093505859375,-0.62518310546875,0.7506866455078125
260118,0.09417724609375,-0.6488800048828125,0.90240478515625
260119,0.2838897705078125,-0.67181396484375,1.112960815429688
260120,0.4856109619140625,-0.616455078125,1.270034790039062
260121,0.6823883056640625,-0.5333404541015625,1.3040771484375
260122,0.8708038330078125,-0.5343780517578125,1.2725830078125
260123,1.026382446289062,-0.52203369140625,1.239364624023438
260124,1.09954833984375,-0.3935089111328125,1.20672607421875
260125,1.059738159179688,-0.215087890625,1.144180297851562
260126,0.9766387939453124,-0.070648193359375,1.021347045898438
260127,0.9654541015625,-0.009918212890625,0.883758544921875
260128,1.004547119140625,0.0228271484375,0.807891845703125
260129,1.030731201171875,0.06646728515625,0.741455078125
260130,1.019760131835938,0.0757293701171875,0.6597900390625
260131,0.9942169189453124,0.0134124755859375,0.656951904296875
260132,0.9697723388671876,-0.090301513671875,0.67852783203125
260133,0.96014404296875,-0.1899871826171875,0.6959381103515625
260134,0.9589691162109376,-0.2645111083984375,0.692962646484375
260135,0.9526824951171876,-0.3267059326171875,0.6733551025390625
260136,0.9329986572265624,-0.3795318603515625,0.6673126220703125
260137,0.90203857421875,-0.428985595703125,0.726806640625
260138,0.870880126953125,-0.46966552734375,0.85107421875
260139,0.8420562744140625,-0.4997406005859375,0.9880523681640624
260140,0.82049560546875,-0.522705078125,1.081710815429688
260141,0.796539306640625,-0.5089263916015625,1.114364624023438
260142,0.7578277587890625,-0.464080810546875,1.090652465820312
260143,0.6986541748046875,-0.4145660400390625,1.038360595703125
260144,0.6238250732421875,-0.374908447265625,0.9855804443359376
260145,0.5466461181640625,-0.36639404296875,0.93963623046875
260146,0.4769287109375,-0.3974456787109375,0.8902130126953125
260147,0.383453369140625,-0.4437713623046875,0.82208251953125
260148,0.250335693359375,-0.47967529296875,0.745452880859375
260149,0.1063995361328125,-0.4859771728515625,0.6935577392578125
260150,-0.0228118896484375,-0.4842071533203125,0.673675537109375
260151,-0.1247406005859375,-0.5018157958984375,0.6424102783203125
260152,-0.192840576171875,-0.5443267822265625,0.609039306640625
260153,-0.23870849609375,-0.61114501953125,0.5548095703125
260154,-0.2632598876953125,-0.6846160888671875,0.46649169921875
260155,-0.2539825439453125,-0.7352294921875,0.3968353271484375
260156,-0.1935272216796875,-0.7668609619140625,0.3824615478515625
260157,-0.090606689453125,-0.7978515625,0.3999176025390625
260158,-0.0001373291015625,-0.8390655517578125,0.4378662109375
260159,0.0670166015625,-0.8783416748046875,0.5074920654296875
260160,0.100128173828125,-0.9200439453125,0.5811614990234375
260161,0.069091796875,-0.9913787841796876,0.6563262939453125
260162,-0.0548858642578125,-1.109588623046875,0.7593841552734375
260163,-0.2469024658203125,-1.247360229492188,0.859375
260164,-0.467559814453125,-1.3353271484375,0.898834228515625
260165,-0.626129150390625,-1.355880737304688,0.906097412109375
260166,-0.710479736328125,-1.25396728515625,0.904052734375
260167,-0.68798828125,-1.023529052734375,0.9065704345703124
260168,-0.5934600830078125,-0.782928466796875,0.8680572509765625
260169,-0.5035400390625,-0.6538238525390625,0.792266845703125
260170,-0.3926849365234375,-0.59625244140625,0.7329864501953125
260171,-0.286773681640625,-0.57354736328125,0.7035369873046875
260172,-0.1808319091796875,-0.5584259033203125,0.706207275390625
260173,-0.0668182373046875,-0.5255279541015625,0.7430877685546875
260174,0.0217742919921875,-0.4708709716796875,0.8126678466796875
260175,0.0980377197265625,-0.4215087890625,0.871124267578125
260176,0.19207763671875,-0.38812255859375,0.9068756103515624
260177,0.30535888671875,-0.347991943359375,0.9461517333984376
260178,0.421905517578125,-0.299835205078125,0.9696502685546876
260179,0.5339508056640625,-0.2600860595703125,0.963226318359375
260180,0.646759033203125,-0.240264892578125,0.9628448486328124
260181,0.77496337890625,-0.2283935546875,0.9656219482421876
260182,0.8991241455078125,-0.206390380859375,0.961944580078125
260183,1.009796142578125,-0.189453125,0.958160400390625
260184,1.146438598632812,-0.179901123046875,0.936370849609375
260185,1.22760009765625,-0.1536407470703125,0.926422119140625
260186,1.252456665039062,-0.138580322265625,0.9352264404296876
260187,1.227981567382812,-0.1092376708984375,0.937042236328125
260188,1.163619995117188,-0.0569305419921875,0.926910400390625
260189,1.084243774414062,-0.0135650634765625,0.8994903564453125
260190,0.99688720703125,0.0028533935546875,0.8570709228515625
260191,0.899505615234375,-0.0116424560546875,0.7920074462890625
260192,0.803375244140625,-0.0555877685546875,0.7271881103515625
260193,0.7148284912109375,-0.1116485595703125,0.682037353515625
260194,0.6322784423828125,-0.15582275390625,0.6681365966796875
260195,0.5663604736328125,-0.198760986328125,0.67279052734375
260196,0.5067138671875,-0.23968505859375,0.6776123046875
260197,0.44915771484375,-0.27911376953125,0.6884002685546875
260198,0.4063720703125,-0.3184661865234375,0.7184295654296875
260199,0.3807220458984375,-0.361572265625,0.756011962890625
260200,0.37298583984375,-0.40869140625,0.79547119140625
260201,0.3805694580078125,-0.4498748779296875,0.8416900634765625
260202,0.391510009765625,-0.471099853515625,0.874847412109375
260203,0.3914794921875,-0.47412109375,0.89471435546875
260204,0.375823974609375,-0.471405029296875,0.9063873291015624
260205,0.3491058349609375,-0.472381591796875,0.922027587890625
260206,0.3062286376953125,-0.49517822265625,0.9217071533203124
260207,0.23565673828125,-0.5470428466796875,0.8955535888671875
260208,0.1357879638671875,-0.623626708984375,0.8702545166015625
260209,0.018402099609375,-0.698883056640625,0.8651123046875
260210,-0.111419677734375,-0.7444305419921875,0.88726806640625
260211,-0.23876953125,-0.752044677734375,0.9083709716796876
260212,-0.3417816162109375,-0.7335052490234375,0.8664703369140625
260213,-0.418121337890625,-0.6944580078125,0.7585601806640625
260214,-0.458251953125,-0.66424560546875,0.6121826171875
260215,-0.4712982177734375,-0.6465301513671875,0.47406005859375
260216,-0.4511260986328125,-0.6639556884765625,0.38677978515625
260217,-0.43756103515625,-0.7190093994140625,0.3505859375
260218,-0.4574432373046875,-0.7940826416015625,0.37103271484375
260219,-0.501983642578125,-0.850799560546875,0.444549560546875
260220,-0.54937744140625,-0.85223388671875,0.537322998046875
260221,-0.5775299072265625,-0.8067779541015625,0.60296630859375
260222,-0.5915069580078125,-0.7529144287109375,0.6020660400390625
260223,-0.5684661865234375,-0.72357177734375,0.57342529296875
260224,-0.5044403076171875,-0.7129058837890625,0.53863525390625
260225,-0.3942413330078125,-0.708251953125,0.5187225341796875
260226,-0.2479095458984375,-0.7052001953125,0.521484375
260227,-0.082275390625,-0.7050018310546875,0.5482025146484375
260228,0.1104736328125,-0.7262725830078125,0.62744140625
260229,0.269134521484375,-0.7172393798828125,0.7420654296875
260230,0.416961669921875,-0.7050628662109375,0.896636962890625
260231,0.5573883056640625,-0.6710205078125,1.074005126953125
260232,0.70501708984375,-0.623016357421875,1.241287231445312
260233,0.881134033203125,-0.5761566162109375,1.32635498046875
260234,1.049072265625,-0.504364013671875,1.326431274414062
260235,1.19732666015625,-0.4391326904296875,1.3038330078125
260236,1.283370971679688,-0.3623199462890625,1.239730834960938
260237,1.325485229492188,-0.25335693359375,1.1661376953125
260238,1.371322631835938,-0.1737213134765625,1.104354858398438
260239,1.432159423828125,-0.139251708984375,0.992431640625
260240,1.486465454101562,-0.1440582275390625,0.8673095703125
260241,1.478973388671875,-0.17047119140625,0.7523651123046875
260242,1.401077270507812,-0.2192230224609375,0.6916046142578125
260243,1.285003662109375,-0.2784423828125,0.6520843505859375
260244,1.185379028320312,-0.324188232421875,0.6072998046875
260245,1.104049682617188,-0.3412933349609375,0.5600738525390625
260246,1.03436279296875,-0.3623809814453125,0.5310211181640625
260247,0.9818878173828124,-0.3933258056640625,0.5308380126953125
260248,0.9423675537109376,-0.4319610595703125,0.553802490234375
260249,0.910247802734375,-0.4732513427734375,0.6058349609375
260250,0.8897857666015625,-0.5144195556640625,0.682037353515625
260251,0.8711090087890625,-0.5457000732421875,0.7721405029296875
260252,0.835296630859375,-0.5509490966796875,0.8653717041015625
260253,0.7904205322265625,-0.532867431640625,0.9373321533203124
260254,0.7456207275390625,-0.5052337646484375,0.987060546875
260255,0.699249267578125,-0.4712371826171875,1.011260986328125
260256,0.6212310791015625,-0.4305419921875,1.010482788085938
260257,0.4904937744140625,-0.4080657958984375,0.9935760498046876
260258,0.3183135986328125,-0.4470977783203125,0.9809722900390624
260259,0.114654541015625,-0.5364990234375,0.9519805908203124
260260,-0.089569091796875,-0.60260009765625,0.903289794921875
260261,-0.291046142578125,-0.652252197265625,0.85186767578125
260262,-0.4761199951171875,-0.6912384033203125,0.77789306640625
260263,-0.625640869140625,-0.7016754150390625,0.6494293212890625
260264,-0.7291259765625,-0.715484619140625,0.5014801025390625
260265,-0.734344482421875,-0.71484375,0.300872802734375
260266,-0.636260986328125,-0.74383544921875,0.095001220703125
260267,-0.4460906982421875,-0.8295440673828125,-0.0055389404296875
260268,-0.2437896728515625,-0.8748016357421875,0.00439453125
260269,-0.132537841796875,-0.8788909912109375,0.06109619140625
260270,-0.0676116943359375,-0.903045654296875,0.188323974609375
260271,-0.0317535400390625,-0.9297943115234376,0.37255859375
260272,-0.035797119140625,-0.943328857421875,0.5725860595703125
260273,-0.07513427734375,-0.926544189453125,0.7359619140625
260274,-0.1508941650390625,-0.8871002197265625,0.8256988525390625
260275,-0.2536468505859375,-0.856781005859375,0.863067626953125
260276,-0.348358154296875,-0.8549041748046875,0.8885040283203125
260277,-0.3795318603515625,-0.8756561279296875,0.929351806640625
260278,-0.333038330078125,-0.786529541015625,0.9386138916015624
260279,-0.2703094482421875,-0.6177215576171875,0.8630828857421875
260280,-0.1985015869140625,-0.53643798828125,0.762176513671875
260281,-0.108154296875,-0.502899169921875,0.7159271240234375
260282,-0.0075836181640625,-0.4653778076171875,0.68853759765625
260283,0.11297607421875,-0.4113616943359375,0.702911376953125
260284,0.210601806640625,-0.3475189208984375,0.753631591796875
260285,0.27227783203125,-0.324859619140625,0.8280181884765625
260286,0.3187255859375,-0.32342529296875,0.8946380615234375
260287,0.3621673583984375,-0.302734375,0.93768310546875
260288,0.3806915283203125,-0.263763427734375,0.9489898681640624
260289,0.4078826904296875,-0.2468719482421875,0.936279296875
260290,0.468109130859375,-0.244598388671875,0.9376068115234376
260291,0.5566864013671875,-0.191650390625,0.9387359619140624
260292,0.611663818359375,-0.158050537109375,0.9450531005859376
260293,0.6679534912109375,-0.1713409423828125,0.9517974853515624
260294,0.6956634521484375,-0.1724853515625,0.949615478515625
260295,0.7334136962890625,-0.18804931640625,0.9292449951171876
260296,0.7727508544921875,-0.190338134765625,0.9169921875
260297,0.79925537109375,-0.154876708984375,0.904876708984375
260298,0.81549072265625,-0.1089630126953125,0.8829345703125
260299,0.81634521484375,-0.0747222900390625,0.8488616943359375
260300,0.7987060546875,-0.0530242919921875,0.8201446533203125
260301,0.7851104736328125,-0.0469512939453125,0.799102783203125
260302,0.7677001953125,-0.0596466064453125,0.7652130126953125
260303,0.7436065673828125,-0.108856201171875,0.7399444580078125
260304,0.7165069580078125,-0.179779052734375,0.735565185546875
260305,0.6904296875,-0.25836181640625,0.7596435546875
260306,0.6669769287109375,-0.3522796630859375,0.7744293212890625
260307,0.64984130859375,-0.45196533203125,0.7726898193359375
260308,0.6237030029296875,-0.542236328125,0.7657623291015625
260309,0.5971221923828125,-0.6203155517578125,0.7781219482421875
260310,0.5747528076171875,-0.6456298828125,0.8050689697265625
260311,0.5391998291015625,-0.683990478515625,0.843292236328125
260312,0.4851837158203125,-0.7241363525390625,0.88165283203125
260313,0.4305877685546875,-0.75152587890625,0.9060211181640624
260314,0.3932952880859375,-0.7449798583984375,0.9013519287109376
260315,0.37359619140625,-0.713287353515625,0.861846923828125
260316,0.367095947265625,-0.66912841796875,0.802490234375
260317,0.3614654541015625,-0.6262969970703125,0.7572784423828125
260318,0.36444091796875,-0.587188720703125,0.7228546142578125
260319,0.390228271484375,-0.5570526123046875,0.7106170654296875
260320,0.419403076171875,-0.5316314697265625,0.6981048583984375
260321,0.4253082275390625,-0.5352325439453125,0.702972412109375
260322,0.410308837890625,-0.5627899169921875,0.7401885986328125
260323,0.3876190185546875,-0.6090087890625,0.7997283935546875
260324,0.347900390625,-0.6798248291015625,0.8754425048828125
260325,0.2518463134765625,-0.75836181640625,0.9381103515625
260326,0.1325225830078125,-0.85150146484375,0.972991943359375
260327,0.0124969482421875,-0.969024658203125,0.9536590576171876
260328,-0.1730804443359375,-1.0777587890625,0.9127349853515624
260329,-0.408660888671875,-1.153564453125,0.8665618896484375
260330,-0.611297607421875,-1.158645629882812,0.7720794677734375
260331,-0.7385711669921875,-1.1156005859375,0.649932861328125
260332,-0.802734375,-1.061065673828125,0.489105224609375
260333,-0.771209716796875,-1.009994506835938,0.3124542236328125
260334,-0.63433837890625,-0.955078125,0.2083740234375
260335,-0.535888671875,-0.892852783203125,0.178558349609375
260336,-0.4786224365234375,-0.8453369140625,0.184539794921875
260337,-0.3996124267578125,-0.8144989013671875,0.2440338134765625
260338,-0.3073577880859375,-0.7855224609375,0.321685791015625
260339,-0.2028656005859375,-0.7401580810546875,0.393524169921875
260340,-0.0694122314453125,-0.6837310791015625,0.4646148681640625
260341,0.0842437744140625,-0.627197265625,0.5550384521484375
260342,0.23638916015625,-0.5945587158203125,0.6760406494140625
260343,0.354248046875,-0.562103271484375,0.8156280517578125
260344,0.4724884033203125,-0.5613861083984375,1.036575317382812
260345,0.6326446533203125,-0.5402069091796875,1.308380126953125
260346,0.783782958984375,-0.4474639892578125,1.4759521484375
260347,0.935546875,-0.3465118408203125,1.446029663085938
260348,1.096908569335938,-0.312591552734375,1.29473876953125
260349,1.183700561523438,-0.333740234375,1.133956909179688
260350,1.1632080078125,-0.3165283203125,0.9613494873046876
260351,1.088912963867188,-0.23236083984375,0.800872802734375
260352,1.070053100585938,-0.1285247802734375,0.6828155517578125
260353,1.106033325195312,-0.010833740234375,0.6080169677734375
260354,1.173324584960938,0.0689544677734375,0.5553741455078125
260355,1.225082397460938,0.0859375,0.476409912109375
260356,1.240631103515625,0.0501708984375,0.447174072265625
260357,1.205093383789062,0.0027008056640625,0.4463653564453125
260358,1.135818481445312,-0.078369140625,0.4597320556640625
260359,1.0618896484375,-0.1730499267578125,0.4871063232421875
260360,1.015289306640625,-0.224456787109375,0.524383544921875
260361,0.9644775390625,-0.2675933837890625,0.568603515625
260362,0.910736083984375,-0.312255859375,0.6565399169921875
260363,0.8806610107421875,-0.3594818115234375,0.78411865234375
260364,0.8765106201171875,-0.4019317626953125,0.9095001220703124
260365,0.88580322265625,-0.4237823486328125,0.9847869873046876
260366,0.90997314453125,-0.4316253662109375,1.009597778320312
260367,0.9407501220703124,-0.431396484375,1.0050048828125
260368,0.9378662109375,-0.434295654296875,0.985015869140625
260369,0.88555908203125,-0.407745361328125,0.94573974609375
260370,0.8056488037109375,-0.3419647216796875,0.890838623046875
260371,0.68035888671875,-0.3049468994140625,0.8648834228515625
260372,0.5434722900390625,-0.3207244873046875,0.85357666015625
260373,0.4028778076171875,-0.3623504638671875,0.8040313720703125
260374,0.2398223876953125,-0.4177398681640625,0.743621826171875
260375,0.071014404296875,-0.4998931884765625,0.6884002685546875
260376,-0.0850067138671875,-0.592376708984375,0.6479949951171875
260377,-0.2473297119140625,-0.6841583251953125,0.6185455322265625
260378,-0.37152099609375,-0.798095703125,0.568756103515625
260379,-0.4731903076171875,-0.914306640625,0.5066680908203125
260380,-0.5688934326171875,-1.025787353515625,0.4221649169921875
260381,-0.6047821044921875,-1.106292724609375,0.3078155517578125
260382,-0.566070556640625,-1.14239501953125,0.2115020751953125
260383,-0.465301513671875,-1.149276733398438,0.19671630859375
260384,-0.3865203857421875,-1.14141845703125,0.2360687255859375
260385,-0.4193267822265625,-1.156494140625,0.2933197021484375
260386,-0.4642333984375,-1.1497802734375,0.40631103515625
260387,-0.4630889892578125,-1.119964599609375,0.515380859375
260388,-0.4438934326171875,-1.1005859375,0.60211181640625
260389,-0.4497528076171875,-1.076828002929688,0.626129150390625
260390,-0.47637939453125,-1.046340942382812,0.6170806884765625
260391,-0.475555419921875,-1.001022338867188,0.622802734375
260392,-0.46917724609375,-0.9364166259765624,0.64093017578125
260393,-0.470947265625,-0.82666015625,0.6392974853515625
260394,-0.4487457275390625,-0.708587646484375,0.6251220703125
260395,-0.3954010009765625,-0.657440185546875,0.617095947265625
260396,-0.318939208984375,-0.6348724365234375,0.6221466064453125
260397,-0.2194061279296875,-0.613006591796875,0.65325927734375
260398,-0.0840911865234375,-0.587371826171875,0.727142333984375
260399,0.049713134765625,-0.53271484375,0.8459014892578125
260400,0.21722412109375,-0.484466552734375,0.9394073486328124
260401,0.36767578125,-0.4321746826171875,1.0517578125
260402,0.4744720458984375,-0.37310791015625,1.176483154296875
260403,0.5838775634765625,-0.3241729736328125,1.26080322265625
260404,0.736358642578125,-0.266265869140625,1.260055541992188
260405,0.89111328125,-0.204315185546875,1.205642700195312
260406,1.003662109375,-0.144775390625,1.124710083007812
260407,1.0731201171875,-0.0820159912109375,1.032501220703125
260408,1.101821899414062,-0.0156707763671875,0.952301025390625
260409,1.131912231445312,0.00775146484375,0.8830108642578125
260410,1.19000244140625,-0.009368896484375,0.8484039306640625
260411,1.250274658203125,-0.0350189208984375,0.8351287841796875
260412,1.284500122070312,-0.061553955078125,0.8342132568359375
260413,1.296096801757812,-0.084228515625,0.8346710205078125
260414,1.258499145507812,-0.0730743408203125,0.851898193359375
260415,1.205062866210938,-0.0531768798828125,0.870025634765625
260416,1.15472412109375,-0.041259765625,0.8617095947265625
260417,1.088760375976562,-0.0469970703125,0.8330078125
260418,0.9964752197265624,-0.0740203857421875,0.79949951171875
260419,0.890350341796875,-0.121673583984375,0.7698516845703125
260420,0.798065185546875,-0.1780548095703125,0.757598876953125
260421,0.7289276123046875,-0.226043701171875,0.753143310546875
260422,0.6781463623046875,-0.260467529296875,0.750518798828125
260423,0.6280975341796875,-0.293609619140625,0.7272186279296875
260424,0.5703887939453125,-0.340972900390625,0.6927490234375
260425,0.5045623779296875,-0.4059600830078125,0.66571044921875
260426,0.443695068359375,-0.4820556640625,0.64959716796875
260427,0.3744964599609375,-0.54498291015625,0.6375732421875
260428,0.3108978271484375,-0.577545166015625,0.6357269287109375
260429,0.2490081787109375,-0.6095123291015625,0.6390533447265625
260430,0.184783935546875,-0.686798095703125,0.6254730224609375
260431,0.1228790283203125,-0.781524658203125,0.6021728515625
260432,0.0639190673828125,-0.860565185546875,0.5730438232421875
260433,-0.0024261474609375,-0.9127655029296876,0.5542755126953125
260434,-0.081268310546875,-0.93524169921875,0.56463623046875
260435,-0.1447906494140625,-0.9129638671875,0.6125335693359375
260436,-0.188690185546875,-0.8357086181640625,0.6669769287109375
260437,-0.2092132568359375,-0.7469329833984375,0.6428375244140625
260438,-0.19427490234375,-0.702545166015625,0.553619384765625
260439,-0.134185791015625,-0.71331787109375,0.4852752685546875
260440,-0.0750579833984375,-0.747802734375,0.480712890625
260441,-0.0758209228515625,-0.790374755859375,0.546844482421875
260442,-0.1414337158203125,-0.8308868408203125,0.6433868408203125
260443,-0.2468719482421875,-0.8471221923828125,0.7032012939453125
260444,-0.3310089111328125,-0.872161865234375,0.71856689453125
260445,-0.382415771484375,-0.8928375244140625,0.7128753662109375
260446,-0.415740966796875,-0.9101715087890624,0.7042388916015625
260447,-0.425994873046875,-0.9078369140625,0.7173919677734375
260448,-0.4247283935546875,-0.872406005859375,0.7451629638671875
260449,-0.42462158203125,-0.837371826171875,0.76727294921875
260450,-0.441436767578125,-0.808807373046875,0.7423553466796875
260451,-0.446044921875,-0.78009033203125,0.6888885498046875
260452,-0.4097442626953125,-0.7645721435546875,0.6182098388671875
260453,-0.3531646728515625,-0.74017333984375,0.5473480224609375
260454,-0.262939453125,-0.7027740478515625,0.4925994873046875
260455,-0.15814208984375,-0.667724609375,0.459381103515625
260456,-0.0388946533203125,-0.64385986328125,0.4820556640625
260457,0.1024169921875,-0.624359130859375,0.589111328125
260458,0.2772064208984375,-0.59991455078125,0.777435302734375
260459,0.4437713623046875,-0.5572662353515625,1.047088623046875
260460,0.5727386474609375,-0.5116729736328125,1.325759887695312
260461,0.720794677734375,-0.51385498046875,1.427825927734375
260462,0.947662353515625,-0.540802001953125,1.397598266601562
260463,1.20733642578125,-0.5294036865234375,1.367874145507812
260464,1.407272338867188,-0.4497528076171875,1.366073608398438
260465,1.505218505859375,-0.304107666015625,1.313430786132812
260466,1.51934814453125,-0.12640380859375,1.189178466796875
260467,1.5439453125,0.0118560791015625,1.044937133789062
260468,1.571258544921875,0.109649658203125,0.84515380859375
260469,1.538833618164062,0.174224853515625,0.655303955078125
260470,1.452621459960938,0.1580963134765625,0.562469482421875
260471,1.335357666015625,0.049285888671875,0.523956298828125
260472,1.222869873046875,-0.0819244384765625,0.5067138671875
260473,1.143722534179688,-0.1669769287109375,0.4668731689453125
260474,1.087142944335938,-0.241851806640625,0.416168212890625
260475,1.027175903320312,-0.313262939453125,0.3955535888671875
260476,0.963409423828125,-0.3959197998046875,0.42022705078125
260477,0.897613525390625,-0.486328125,0.495941162109375
260478,0.84259033203125,-0.5664825439453125,0.6283721923828125
260479,0.8070220947265625,-0.610748291015625,0.795318603515625
260480,0.7916412353515625,-0.61944580078125,0.9520721435546876
260481,0.7858123779296875,-0.6181793212890625,1.0540771484375
260482,0.7540740966796875,-0.633331298828125,1.10675048828125
260483,0.6802520751953125,-0.672882080078125,1.114700317382812
260484,0.5506591796875,-0.700714111328125,1.075286865234375
260485,0.3816375732421875,-0.6830291748046875,1.021636962890625
260486,0.1504974365234375,-0.563079833984375,0.9521942138671876
260487,-0.01953125,-0.5278472900390625,0.8253936767578125
260488,-0.1216888427734375,-0.5752105712890625,0.6490325927734375
260489,-0.22222900390625,-0.648284912109375,0.4751129150390625
260490,-0.310302734375,-0.6841583251953125,0.34112548828125
260491,-0.3950653076171875,-0.684906005859375,0.26568603515625
260492,-0.478240966796875,-0.664154052734375,0.25396728515625
260493,-0.543670654296875,-0.6685943603515625,0.2781829833984375
260494,-0.557647705078125,-0.6712188720703125,0.3050689697265625
260495,-0.5308990478515625,-0.6785736083984375,0.300811767578125
260496,-0.504058837890625,-0.72625732421875,0.3218841552734375
260497,-0.470001220703125,-0.75836181640625,0.37713623046875
260498,-0.441162109375,-0.79638671875,0.44091796875
260499,-0.4135589599609375,-0.82647705078125,0.5077667236328125
260500,-0.365814208984375,-0.8430023193359375,0.5578460693359375
260501,-0.2962799072265625,-0.8455047607421875,0.5743560791015625
260502,-0.2205352783203125,-0.84112548828125,0.566192626953125
260503,-0.1394500732421875,-0.844879150390625,0.5621337890625
260504,-0.07037353515625,-0.8554840087890625,0.5796051025390625
260505,-0.0364990234375,-0.86602783203125,0.6252593994140625
260506,-0.03570556640625,-0.878509521484375,0.68023681640625
260507,-0.040191650390625,-0.8756866455078125,0.742218017578125
260508,-0.0574493408203125,-0.8339080810546875,0.7923736572265625
260509,-0.081878662109375,-0.7561798095703125,0.8270111083984375
260510,-0.0802001953125,-0.692840576171875,0.849090576171875
260511,-0.027862548828125,-0.6552276611328125,0.8740081787109375
260512,0.0511474609375,-0.6223297119140625,0.9168701171875
260513,0.13037109375,-0.6046142578125,0.994232177734375
260514,0.2066802978515625,-0.58642578125,1.062896728515625
260515,0.2696380615234375,-0.5290374755859375,1.089706420898438
260516,0.3396148681640625,-0.49273681640625,1.085113525390625
260517,0.4122772216796875,-0.4564666748046875,1.069488525390625
260518,0.5625457763671875,-0.3686065673828125,1.0667724609375
260519,0.717071533203125,-0.2495269775390625,1.088653564453125
260520,0.8278045654296875,-0.1914825439453125,1.072006225585938
260521,0.957275390625,-0.1538848876953125,1.047317504882812
260522,1.066879272460938,-0.0859527587890625,1.031524658203125
260523,1.134109497070312,-0.022491455078125,1.00726318359375
260524,1.168167114257812,0.0074615478515625,0.9573822021484376
260525,1.151992797851562,0.0109710693359375,0.907012939453125
260526,1.100357055664062,-0.0053253173828125,0.881378173828125
260527,1.044265747070312,-0.0257568359375,0.8530731201171875
260528,0.98919677734375,-0.0323028564453125,0.8326416015625
260529,0.9282989501953124,-0.020904541015625,0.8271942138671875
260530,0.8552093505859375,-0.0048980712890625,0.8189697265625
260531,0.7823028564453125,-0.001068115234375,0.7911376953125
260532,0.7200164794921875,-0.01702880859375,0.749725341796875
260533,0.667327880859375,-0.0509490966796875,0.708343505859375
260534,0.6185150146484375,-0.1054534912109375,0.6735382080078125
260535,0.5757293701171875,-0.1725921630859375,0.6551971435546875
260536,0.5358428955078125,-0.2349853515625,0.6497039794921875
260537,0.5042877197265625,-0.2970428466796875,0.6537017822265625
260538,0.4698944091796875,-0.35943603515625,0.670074462890625
260539,0.42578125,-0.424468994140625,0.6787109375
260540,0.3655242919921875,-0.494964599609375,0.694122314453125
260541,0.304412841796875,-0.5768585205078125,0.7224273681640625
260542,0.2620391845703125,-0.6657867431640625,0.7540435791015625
260543,0.2415924072265625,-0.7489776611328125,0.7874603271484375
260544,0.224822998046875,-0.8048553466796875,0.80157470703125
260545,0.20556640625,-0.82159423828125,0.797119140625
260546,0.1822662353515625,-0.81097412109375,0.767059326171875
260547,0.160491943359375,-0.7836151123046875,0.7065582275390625
260548,0.1592254638671875,-0.7447509765625,0.6435089111328125
260549,0.1808013916015625,-0.6913299560546875,0.5894012451171875
260550,0.2219085693359375,-0.6453857421875,0.5381622314453125
260551,0.2796783447265625,-0.6263580322265625,0.5175018310546875
260552,0.323486328125,-0.638092041015625,0.5287322998046875
260553,0.3336944580078125,-0.6661834716796875,0.58441162109375
260554,0.30853271484375,-0.7008819580078125,0.672149658203125
260555,0.258575439453125,-0.73480224609375,0.759429931640625
260556,0.1768951416015625,-0.7958526611328125,0.8574981689453125
260557,0.057220458984375,-0.8890838623046875,0.931182861328125
260558,-0.1130523681640625,-0.985504150390625,0.972503662109375
260559,-0.30072021484375,-1.079391479492188,0.97265625
260560,-0.4632110595703125,-1.147506713867188,0.94097900390625
260561,-0.5643463134765625,-1.146026611328125,0.8797149658203125
260562,-0.5703582763671875,-1.041915893554688,0.7738037109375
260563,-0.5052490234375,-0.891082763671875,0.638519287109375
260564,-0.4228973388671875,-0.8106231689453125,0.4928741455078125
260565,-0.3417510986328125,-0.7548065185546875,0.3907928466796875
260566,-0.28033447265625,-0.7096710205078125,0.3499908447265625
260567,-0.240264892578125,-0.6802520751953125,0.3545074462890625
260568,-0.2115936279296875,-0.656951904296875,0.389251708984375
260569,-0.1845245361328125,-0.630859375,0.4314727783203125
260570,-0.154998779296875,-0.5816650390625,0.4720611572265625
260571,-0.1003570556640625,-0.5252685546875,0.529541015625
260572,-0.044403076171875,-0.46136474609375,0.598724365234375
260573,0.03460693359375,-0.436614990234375,0.6994781494140625
260574,0.156341552734375,-0.45184326171875,0.803375244140625
260575,0.2553253173828125,-0.447967529296875,0.9155731201171876
260576,0.3935546875,-0.488006591796875,1.06378173828125
260577,0.5462493896484375,-0.5077667236328125,1.209884643554688
260578,0.744171142578125,-0.5110321044921875,1.337600708007812
260579,1.02020263671875,-0.5087738037109375,1.41839599609375
260580,1.312026977539062,-0.4479827880859375,1.428817749023438
260581,1.539749145507812,-0.326507568359375,1.359390258789062
260582,1.665847778320312,-0.16156005859375,1.239913940429688
260583,1.708816528320312,0.006378173828125,1.105575561523438
260584,1.698638916015625,0.1340484619140625,0.9649200439453124
260585,1.623687744140625,0.2054290771484375,0.7923431396484375
260586,1.492263793945312,0.2169342041015625,0.653289794921875
260587,1.350509643554688,0.1646575927734375,0.56964111328125
260588,1.214279174804688,0.0475921630859375,0.523406982421875
260589,1.082901000976562,-0.0425872802734375,0.5033416748046875
260590,0.977813720703125,-0.0907135009765625,0.4958038330078125
260591,0.91015625,-0.1433563232421875,0.4918670654296875
260592,0.8679962158203125,-0.2033233642578125,0.4910430908203125
260593,0.8372955322265625,-0.2801513671875,0.5042724609375
260594,0.8186492919921875,-0.3757781982421875,0.54925537109375
260595,0.7948760986328125,-0.469940185546875,0.62548828125
260596,0.7749481201171875,-0.550933837890625,0.7200469970703125
260597,0.7696380615234375,-0.5892333984375,0.8157806396484375
260598,0.7835845947265625,-0.60906982421875,0.909637451171875
260599,0.782745361328125,-0.629913330078125,0.9951324462890624
260600,0.72711181640625,-0.6304779052734375,1.050674438476562
260601,0.612640380859375,-0.606536865234375,1.09527587890625
260602,0.453460693359375,-0.579498291015625,1.129409790039062
260603,0.2825469970703125,-0.5556488037109375,1.126861572265625
260604,0.119873046875,-0.539764404296875,1.0819091796875
260605,-0.052154541015625,-0.542022705078125,0.9819183349609376
260606,-0.2364501953125,-0.5491180419921875,0.8594512939453125
260607,-0.38818359375,-0.544464111328125,0.7469635009765625
260608,-0.4904632568359375,-0.5416717529296875,0.6367645263671875
260609,-0.5583038330078125,-0.5428009033203125,0.458984375
260610,-0.59674072265625,-0.559295654296875,0.2869873046875
260611,-0.6119842529296875,-0.5726470947265625,0.1594390869140625
260612,-0.6204071044921875,-0.578277587890625,0.0699615478515625
260613,-0.633819580078125,-0.55987548828125,0.0774688720703125
260614,-0.6209564208984375,-0.558319091796875,0.184356689453125
260615,-0.5741729736328125,-0.5796966552734375,0.299896240234375
260616,-0.5321197509765625,-0.610626220703125,0.4020843505859375
260617,-0.50567626953125,-0.66448974609375,0.48577880859375
260618,-0.4619140625,-0.725189208984375,0.560791015625
260619,-0.389801025390625,-0.754791259765625,0.6193695068359375
260620,-0.2958984375,-0.7720184326171875,0.6021881103515625
260621,-0.1872100830078125,-0.805084228515625,0.5528411865234375
260622,-0.076324462890625,-0.86041259765625,0.54241943359375
260623,-0.0064697265625,-0.90679931640625,0.5708465576171875
260624,0.0127410888671875,-0.9418182373046876,0.6669158935546875
260625,-0.0088043212890625,-0.969818115234375,0.797943115234375
260626,-0.068084716796875,-0.9799652099609376,0.8845672607421875
260627,-0.13470458984375,-0.95477294921875,0.941162109375
260628,-0.1587066650390625,-0.8626556396484375,0.985809326171875
260629,-0.1175994873046875,-0.7357635498046875,1.041732788085938
260630,-0.0454254150390625,-0.6512603759765625,1.074142456054688
260631,0.03680419921875,-0.61407470703125,1.100006103515625
260632,0.11871337890625,-0.564910888671875,1.12445068359375
260633,0.200469970703125,-0.50836181640625,1.14532470703125
260634,0.2914276123046875,-0.451934814453125,1.141510009765625
260635,0.391510009765625,-0.392852783203125,1.133346557617188
260636,0.4969024658203125,-0.3520965576171875,1.09381103515625
260637,0.604644775390625,-0.3261566162109375,1.062057495117188
260638,0.706024169921875,-0.298370361328125,1.026351928710938
260639,0.82293701171875,-0.2358551025390625,1.01422119140625
260640,0.927154541015625,-0.141510009765625,1.012176513671875
260641,1.017654418945312,-0.055633544921875,1.022659301757812
260642,1.1123046875,-0.0191497802734375,1.036514282226562
260643,1.209762573242188,-0.0157623291015625,1.05645751953125
260644,1.27069091796875,-0.0266876220703125,1.064437866210938
260645,1.260238647460938,-0.037078857421875,1.06024169921875
260646,1.206146240234375,-0.04010009765625,1.043594360351562
260647,1.137725830078125,-0.020538330078125,1.014007568359375
260648,1.057403564453125,0.003021240234375,0.9731597900390624
260649,0.9575958251953124,0.0119781494140625,0.9092254638671876
260650,0.8363800048828125,-0.0037994384765625,0.836273193359375
260651,0.7132720947265625,-0.0477142333984375,0.7744903564453125
260652,0.606597900390625,-0.09661865234375,0.734771728515625
260653,0.5162506103515625,-0.1390838623046875,0.7064208984375
260654,0.4390869140625,-0.185394287109375,0.6910247802734375
260655,0.381072998046875,-0.247711181640625,0.6874847412109375
260656,0.3292999267578125,-0.3138885498046875,0.687896728515625
260657,0.266815185546875,-0.347900390625,0.6855621337890625
260658,0.2159423828125,-0.3649749755859375,0.673614501953125
260659,0.1800384521484375,-0.3797607421875,0.648193359375
260660,0.14141845703125,-0.3971710205078125,0.634918212890625
260661,0.10009765625,-0.439300537109375,0.6519927978515625
260662,0.0482025146484375,-0.4798431396484375,0.6971282958984375
260663,-0.0151214599609375,-0.530426025390625,0.7403564453125
260664,-0.06927490234375,-0.5866546630859375,0.75091552734375
260665,-0.1202392578125,-0.6373291015625,0.7383575439453125
260666,-0.151214599609375,-0.680419921875,0.704833984375
260667,-0.1368408203125,-0.7104949951171875,0.67083740234375
260668,-0.0822296142578125,-0.706756591796875,0.6484527587890625
260669,-0.019683837890625,-0.694366455078125,0.629669189453125
260670,0.019927978515625,-0.706390380859375,0.6219329833984375
260671,0.01422119140625,-0.725311279296875,0.6486968994140625
260672,-0.01837158203125,-0.776092529296875,0.7014312744140625
260673,-0.08697509765625,-0.848297119140625,0.761871337890625
260674,-0.1856231689453125,-0.9118499755859376,0.810272216796875
260675,-0.30059814453125,-0.9535369873046876,0.818511962890625
260676,-0.3906707763671875,-0.9762115478515624,0.7925567626953125
260677,-0.4202880859375,-0.975830078125,0.742584228515625
260678,-0.3594512939453125,-0.905670166015625,0.69677734375
260679,-0.28387451171875,-0.8151397705078125,0.65240478515625
260680,-0.266845703125,-0.768646240234375,0.6375274658203125
260681,-0.2927398681640625,-0.7362518310546875,0.656890869140625
260682,-0.33251953125,-0.70428466796875,0.681732177734375
260683,-0.349578857421875,-0.6861724853515625,0.6918182373046875
260684,-0.338714599609375,-0.674072265625,0.6771392822265625
260685,-0.2972869873046875,-0.6669921875,0.6582183837890625
260686,-0.244171142578125,-0.633636474609375,0.6452178955078125
260687,-0.162994384765625,-0.5875244140625,0.6641082763671875
260688,-0.059234619140625,-0.5414581298828125,0.690765380859375
260689,0.0792236328125,-0.5145111083984375,0.7465667724609375
260690,0.2520904541015625,-0.5033721923828125,0.8195343017578125
260691,0.420562744140625,-0.4702606201171875,0.905120849609375
260692,0.56365966796875,-0.42547607421875,0.99676513671875
260693,0.6939849853515625,-0.39776611328125,1.08966064453125
260694,0.8167877197265625,-0.3839111328125,1.137802124023438
260695,0.97698974609375,-0.34857177734375,1.15277099609375
260696,1.099838256835938,-0.2943267822265625,1.206451416015625
260697,1.176925659179688,-0.2350006103515625,1.243026733398438
260698,1.219772338867188,-0.167938232421875,1.231155395507812
260699,1.264785766601562,-0.1250152587890625,1.178115844726562
260700,1.298065185546875,-0.0945892333984375,1.07183837890625
260701,1.32330322265625,-0.0918731689453125,0.94305419921875
260702,1.321548461914062,-0.1108245849609375,0.8537750244140625
260703,1.273345947265625,-0.1461181640625,0.806793212890625
260704,1.17364501953125,-0.19610595703125,0.766357421875
260705,1.061569213867188,-0.2389678955078125,0.71112060546875
260706,0.970306396484375,-0.2518463134765625,0.652099609375
260707,0.9075775146484376,-0.260894775390625,0.59588623046875
260708,0.8657989501953125,-0.2791748046875,0.5439910888671875
260709,0.83172607421875,-0.303802490234375,0.5168609619140625
260710,0.80841064453125,-0.3353424072265625,0.5126495361328125
260711,0.7885894775390625,-0.3802337646484375,0.524566650390625
260712,0.78271484375,-0.4032745361328125,0.558380126953125
260713,0.7773590087890625,-0.405181884765625,0.6233673095703125
260714,0.75872802734375,-0.4146575927734375,0.70623779296875
260715,0.7304534912109375,-0.429534912109375,0.7990570068359375
260716,0.7042236328125,-0.460235595703125,0.898834228515625
260717,0.662200927734375,-0.4871978759765625,0.99554443359375
260718,0.605438232421875,-0.534149169921875,1.07440185546875
260719,0.4869232177734375,-0.57855224609375,1.121170043945312
260720,0.29644775390625,-0.618560791015625,1.147842407226562
260721,0.0813751220703125,-0.678192138671875,1.132354736328125
260722,-0.0912322998046875,-0.7134246826171875,1.0732421875
260723,-0.2564849853515625,-0.7033233642578125,0.9930572509765624
260724,-0.4427947998046875,-0.682861328125,0.87823486328125
260725,-0.579986572265625,-0.66192626953125,0.734649658203125
260726,-0.634185791015625,-0.632965087890625,0.584197998046875
260727,-0.620361328125,-0.598297119140625,0.4249114990234375
260728,-0.5631103515625,-0.5835418701171875,0.28558349609375
260729,-0.4723052978515625,-0.598968505859375,0.174835205078125
260730,-0.341796875,-0.6285400390625,0.10687255859375
260731,-0.201171875,-0.6735076904296875,0.1083831787109375
260732,-0.10546875,-0.7335357666015625,0.192169189453125
260733,-0.0780792236328125,-0.8048553466796875,0.30621337890625
260734,-0.0849609375,-0.8568572998046875,0.4338836669921875
260735,-0.0972442626953125,-0.8984832763671875,0.5493621826171875
260736,-0.1043243408203125,-0.9337005615234376,0.6221466064453125
260737,-0.114349365234375,-0.960418701171875,0.67572021484375
260738,-0.1163177490234375,-0.9925994873046876,0.731201171875
260739,-0.1174163818359375,-1.014450073242188,0.779327392578125
260740,-0.1130218505859375,-1.024932861328125,0.8237457275390625
260741,-0.102935791015625,-1.010711669921875,0.8625946044921875
260742,-0.1121368408203125,-0.9327392578125,0.88360595703125
260743,-0.1099090576171875,-0.808074951171875,0.8616943359375
260744,-0.0620880126953125,-0.691375732421875,0.817352294921875
260745,0.027191162109375,-0.6212921142578125,0.79034423828125
260746,0.131378173828125,-0.581756591796875,0.8132781982421875
260747,0.206939697265625,-0.5386199951171875,0.8733367919921875
260748,0.276580810546875,-0.4892120361328125,0.95391845703125
260749,0.35968017578125,-0.4200592041015625,1.022750854492188
260750,0.4485931396484375,-0.394744873046875,1.037582397460938
260751,0.520477294921875,-0.37420654296875,1.041015625
260752,0.5474853515625,-0.34893798828125,1.044204711914062
260753,0.52423095703125,-0.3416748046875,1.057449340820312
260754,0.582061767578125,-0.303863525390625,1.076797485351562
260755,0.6717071533203125,-0.1688690185546875,1.081436157226562
260756,0.7128143310546875,-0.0691375732421875,1.05010986328125
260757,0.7649993896484375,-0.040771484375,1.015335083007812
260758,0.81744384765625,-0.021759033203125,1.018524169921875
260759,0.864349365234375,-0.009857177734375,1.0146484375
260760,0.9176025390625,-0.003265380859375,0.98724365234375
260761,0.95306396484375,0.0103607177734375,0.959228515625
260762,0.9689178466796876,0.0078887939453125,0.9356231689453124
260763,0.9496002197265624,-0.0047607421875,0.89666748046875
260764,0.881622314453125,-0.017852783203125,0.85394287109375
260765,0.809661865234375,-0.028594970703125,0.825347900390625
260766,0.733245849609375,-0.0331268310546875,0.8129730224609375
260767,0.6434478759765625,-0.049896240234375,0.8205413818359375
260768,0.5549774169921875,-0.0811614990234375,0.82745361328125
260769,0.474884033203125,-0.11871337890625,0.83587646484375
260770,0.40631103515625,-0.1619415283203125,0.855194091796875
260771,0.342041015625,-0.2179718017578125,0.8798828125
260772,0.2757110595703125,-0.2885284423828125,0.895751953125
260773,0.2006683349609375,-0.36981201171875,0.9013214111328124
260774,0.1292877197265625,-0.4679412841796875,0.894500732421875
260775,0.06683349609375,-0.5698699951171875,0.8831634521484375
260776,0.02374267578125,-0.655609130859375,0.86346435546875
260777,-0.002105712890625,-0.6971435546875,0.8234710693359375
260778,-0.004150390625,-0.7048492431640625,0.771331787109375
260779,0.0187530517578125,-0.7013702392578125,0.7092742919921875
260780,0.0661773681640625,-0.700469970703125,0.64044189453125
260781,0.1326904296875,-0.702301025390625,0.5753631591796875
260782,0.198394775390625,-0.7190093994140625,0.538116455078125
260783,0.2691497802734375,-0.739837646484375,0.5410614013671875
260784,0.342864990234375,-0.738739013671875,0.591705322265625
260785,0.38885498046875,-0.729766845703125,0.67352294921875
260786,0.382965087890625,-0.735198974609375,0.7689361572265625
260787,0.3272247314453125,-0.7391815185546875,0.848907470703125
260788,0.2514495849609375,-0.7325897216796875,0.8913421630859375
260789,0.181488037109375,-0.7127227783203125,0.911712646484375
260790,0.1012115478515625,-0.6729583740234375,0.9127960205078124
260791,0.015777587890625,-0.6353607177734375,0.890838623046875
260792,-0.07769775390625,-0.59796142578125,0.8327789306640625
260793,-0.1901397705078125,-0.5615081787109375,0.7457733154296875
260794,-0.265960693359375,-0.561767578125,0.657318115234375
260795,-0.283233642578125,-0.6037139892578125,0.5744171142578125
260796,-0.27032470703125,-0.65545654296875,0.4858551025390625
260797,-0.2583770751953125,-0.688720703125,0.424530029296875
260798,-0.2665863037109375,-0.6869354248046875,0.4054107666015625
260799,-0.2800445556640625,-0.6573486328125,0.4150238037109375
260800,-0.28466796875,-0.6404876708984375,0.437103271484375
260801,-0.26422119140625,-0.644317626953125,0.47515869140625
260802,-0.220977783203125,-0.6600341796875,0.511962890625
260803,-0.1636810302734375,-0.6647796630859375,0.5490875244140625
260804,-0.0838623046875,-0.648834228515625,0.59515380859375
260805,0.015106201171875,-0.623046875,0.6650848388671875
260806,0.113677978515625,-0.599884033203125,0.7475128173828125
260807,0.1889495849609375,-0.5670318603515625,0.87969970703125
260808,0.2783203125,-0.546630859375,1.051162719726562
260809,0.3928680419921875,-0.49346923828125,1.162109375
260810,0.5388336181640625,-0.4520263671875,1.215744018554688
260811,0.7028045654296875,-0.473602294921875,1.225601196289062
260812,0.8564300537109375,-0.48291015625,1.24285888671875
260813,0.9691619873046876,-0.426910400390625,1.256927490234375
260814,1.03363037109375,-0.34765625,1.229415893554688
260815,1.065719604492188,-0.2852783203125,1.184234619140625
260816,1.111465454101562,-0.23638916015625,1.131912231445312
260817,1.168045043945312,-0.1905517578125,1.047378540039062
260818,1.1982421875,-0.1412506103515625,0.94012451171875
260819,1.167984008789062,-0.1036376953125,0.8399658203125
260820,1.089492797851562,-0.0977630615234375,0.7813720703125
260821,1.00518798828125,-0.135498046875,0.76458740234375
260822,0.9409027099609376,-0.1981048583984375,0.7509002685546875
260823,0.893280029296875,-0.2461090087890625,0.7223968505859375
260824,0.857421875,-0.2764129638671875,0.6773681640625
260825,0.814483642578125,-0.2979888916015625,0.6203460693359375
260826,0.769683837890625,-0.326629638671875,0.5814971923828125
260827,0.7357940673828125,-0.36065673828125,0.5738677978515625
260828,0.7090911865234375,-0.3999176025390625,0.6103363037109375
260829,0.6931610107421875,-0.4381561279296875,0.6790313720703125
260830,0.679443359375,-0.4699554443359375,0.7642669677734375
260831,0.66595458984375,-0.5030364990234375,0.846527099609375
260832,0.6504364013671875,-0.5413665771484375,0.9055633544921876
260833,0.631622314453125,-0.5867462158203125,0.946441650390625
260834,0.5760650634765625,-0.62432861328125,0.9781951904296876
260835,0.450897216796875,-0.6469573974609375,1.007827758789062
260836,0.2707672119140625,-0.6664581298828125,1.030181884765625
260837,0.0879974365234375,-0.684356689453125,1.011276245117188
260838,-0.0440673828125,-0.67364501953125,0.960357666015625
260839,-0.1466827392578125,-0.64117431640625,0.88922119140625
260840,-0.2460174560546875,-0.61883544921875,0.7933502197265625
260841,-0.3126373291015625,-0.6057586669921875,0.69952392578125
260842,-0.3292236328125,-0.5762176513671875,0.6225128173828125
260843,-0.3083648681640625,-0.5336151123046875,0.552154541015625
260844,-0.2711639404296875,-0.5279083251953125,0.4979400634765625
260845,-0.2286224365234375,-0.5559234619140625,0.45404052734375
260846,-0.173492431640625,-0.5725555419921875,0.428558349609375
260847,-0.1174468994140625,-0.5842132568359375,0.427764892578125
260848,-0.0839080810546875,-0.6163787841796875,0.4557342529296875
260849,-0.0703887939453125,-0.668853759765625,0.5110015869140625
260850,-0.0498809814453125,-0.72283935546875,0.573974609375
260851,-0.016387939453125,-0.78143310546875,0.621978759765625
260852,0.0113372802734375,-0.856658935546875,0.661102294921875
260853,0.03363037109375,-0.9390716552734376,0.69476318359375
260854,0.0576019287109375,-1.002838134765625,0.73138427734375
260855,0.06170654296875,-1.0196533203125,0.7751617431640625
260856,0.037628173828125,-0.9779205322265624,0.80450439453125
260857,0.0017242431640625,-0.9008331298828124,0.785064697265625
260858,-0.026153564453125,-0.8258209228515625,0.736907958984375
260859,-0.05206298828125,-0.74688720703125,0.7025299072265625
260860,-0.068328857421875,-0.6923065185546875,0.688140869140625
260861,-0.0659637451171875,-0.6662139892578125,0.674102783203125
260862,-0.071533203125,-0.6318206787109375,0.6714324951171875
260863,-0.0733795166015625,-0.596832275390625,0.6932373046875
260864,-0.038116455078125,-0.5651092529296875,0.7191009521484375
260865,0.0270843505859375,-0.509521484375,0.7600555419921875
260866,0.105621337890625,-0.4339447021484375,0.7993621826171875
260867,0.1926422119140625,-0.3722686767578125,0.8539581298828125
260868,0.2711029052734375,-0.324798583984375,0.9250030517578124
260869,0.3248291015625,-0.30157470703125,0.9975128173828124
260870,0.38067626953125,-0.2949066162109375,1.05511474609375
260871,0.4637298583984375,-0.2572174072265625,1.09283447265625
260872,0.561004638671875,-0.2010650634765625,1.10394287109375
260873,0.65234375,-0.1341094970703125,1.089996337890625
260874,0.7349700927734375,-0.0938873291015625,1.07257080078125
260875,0.8126983642578125,-0.0589141845703125,1.047866821289062
260876,0.874725341796875,-0.0149383544921875,1.014938354492188
260877,0.9098052978515624,0.02447509765625,0.976715087890625
260878,0.916046142578125,0.0372772216796875,0.939727783203125
260879,0.9085235595703124,0.0356292724609375,0.8989715576171875
260880,0.878387451171875,0.0342864990234375,0.8505401611328125
260881,0.8431396484375,0.0302581787109375,0.8150177001953125
260882,0.80487060546875,0.02044677734375,0.792999267578125
260883,0.762603759765625,0.0087738037109375,0.7953643798828125
260884,0.7030181884765625,0.0093536376953125,0.8113555908203125
260885,0.628143310546875,0.0006561279296875,0.8323822021484375
260886,0.5601806640625,-0.026885986328125,0.8535614013671875
260887,0.50811767578125,-0.08184814453125,0.8747406005859375
260888,0.458953857421875,-0.157012939453125,0.889556884765625
260889,0.410186767578125,-0.2294464111328125,0.9087066650390624
260890,0.3551025390625,-0.29962158203125,0.9246368408203124
260891,0.30084228515625,-0.3883056640625,0.9349212646484376
260892,0.2545623779296875,-0.491485595703125,0.932830810546875
260893,0.228607177734375,-0.581573486328125,0.92333984375
260894,0.23077392578125,-0.6392822265625,0.8818817138671875
260895,0.26171875,-0.6822509765625,0.8131256103515625
260896,0.31658935546875,-0.7203216552734375,0.7521820068359375
260897,0.370025634765625,-0.740386962890625,0.693328857421875
260898,0.4063568115234375,-0.753021240234375,0.6588592529296875
260899,0.4371185302734375,-0.7604217529296875,0.651123046875
260900,0.4634246826171875,-0.7416839599609375,0.6486358642578125
260901,0.48822021484375,-0.6999969482421875,0.6488037109375
260902,0.510284423828125,-0.65850830078125,0.649017333984375
260903,0.5286712646484375,-0.616607666015625,0.6575775146484375
260904,0.53094482421875,-0.5844879150390625,0.6600189208984375
260905,0.506103515625,-0.556365966796875,0.6592864990234375
260906,0.46380615234375,-0.537078857421875,0.6513519287109375
260907,0.39569091796875,-0.536834716796875,0.6349639892578125
260908,0.288360595703125,-0.5701751708984375,0.6283111572265625
260909,0.1542510986328125,-0.6377105712890625,0.6309814453125
260910,-0.010406494140625,-0.71453857421875,0.641876220703125
260911,-0.18695068359375,-0.80242919921875,0.6631011962890625
260912,-0.3604888916015625,-0.8787384033203125,0.698883056640625
260913,-0.5147705078125,-0.9244384765625,0.73724365234375
260914,-0.6240692138671875,-0.932281494140625,0.7728118896484375
260915,-0.6721343994140625,-0.9003448486328125,0.796661376953125
260916,-0.654266357421875,-0.8323974609375,0.766357421875
260917,-0.54888916015625,-0.7760162353515625,0.658599853515625
260918,-0.396148681640625,-0.7576141357421875,0.5144500732421875
260919,-0.2936248779296875,-0.7176055908203125,0.4265289306640625
260920,-0.2601776123046875,-0.6927947998046875,0.412872314453125
260921,-0.2559814453125,-0.689971923828125,0.43359375
260922,-0.240570068359375,-0.6975555419921875,0.4796600341796875
260923,-0.225982666015625,-0.685760498046875,0.549713134765625
260924,-0.1915740966796875,-0.6535797119140625,0.6284027099609375
260925,-0.125701904296875,-0.6116485595703125,0.69140625
260926,-0.03631591796875,-0.571533203125,0.7606201171875
260927,0.0725555419921875,-0.5520172119140625,0.83868408203125
260928,0.2384185791015625,-0.5544891357421875,0.9632110595703124
260929,0.4348907470703125,-0.5470733642578125,1.111587524414062
260930,0.6444244384765625,-0.5529937744140625,1.228408813476562
260931,0.878265380859375,-0.588531494140625,1.262939453125
260932,1.137725830078125,-0.5829925537109375,1.245941162109375
260933,1.328567504882812,-0.487945556640625,1.188919067382812
260934,1.4100341796875,-0.3218994140625,1.1329345703125
260935,1.382186889648438,-0.1153564453125,1.08038330078125
260936,1.342208862304688,0.037353515625,1.022216796875
260937,1.33746337890625,0.10565185546875,0.92022705078125
260938,1.317337036132812,0.1181640625,0.786376953125
260939,1.259933471679688,0.0829010009765625,0.6727752685546875
260940,1.198638916015625,0.0041351318359375,0.64605712890625
260941,1.149017333984375,-0.1062469482421875,0.6593475341796875
260942,1.091995239257812,-0.2099609375,0.6599273681640625
260943,1.033370971679688,-0.2895965576171875,0.6389007568359375
260944,0.9836578369140624,-0.36773681640625,0.6116943359375
260945,0.933135986328125,-0.4458465576171875,0.59808349609375
260946,0.8823089599609375,-0.516693115234375,0.6215057373046875
260947,0.8379058837890625,-0.572662353515625,0.6979827880859375
260948,0.8055267333984375,-0.5909423828125,0.803985595703125
260949,0.7954864501953125,-0.5709381103515625,0.9072418212890624
260950,0.8067779541015625,-0.5356903076171875,0.97027587890625
260951,0.82391357421875,-0.503173828125,1.00396728515625
260952,0.8238677978515625,-0.4810943603515625,1.0150146484375
260953,0.7782745361328125,-0.485198974609375,1.009506225585938
260954,0.6637725830078125,-0.4970703125,0.998992919921875
260955,0.50091552734375,-0.4856414794921875,0.9825897216796876
260956,0.33203125,-0.4819488525390625,0.9353485107421876
260957,0.1862640380859375,-0.49945068359375,0.8526611328125
260958,0.06512451171875,-0.5111236572265625,0.754425048828125
260959,-0.0626983642578125,-0.5103302001953125,0.6436614990234375
260960,-0.19952392578125,-0.5228118896484375,0.560455322265625
260961,-0.3342742919921875,-0.5171356201171875,0.496063232421875
260962,-0.44061279296875,-0.526947021484375,0.4503631591796875
260963,-0.5130615234375,-0.5415496826171875,0.425140380859375
260964,-0.5432891845703125,-0.554595947265625,0.38519287109375
260965,-0.5310211181640625,-0.5674591064453125,0.335357666015625
260966,-0.47314453125,-0.583984375,0.3080291748046875
260967,-0.395599365234375,-0.601837158203125,0.3030548095703125
260968,-0.338134765625,-0.6362457275390625,0.3319091796875
260969,-0.30584716796875,-0.665802001953125,0.398284912109375
260970,-0.2890472412109375,-0.6965179443359375,0.480804443359375
260971,-0.277252197265625,-0.740234375,0.5654296875
260972,-0.245941162109375,-0.8100738525390625,0.64349365234375
260973,-0.2213897705078125,-0.862213134765625,0.7093963623046875
260974,-0.192108154296875,-0.885467529296875,0.758148193359375
260975,-0.1561737060546875,-0.90460205078125,0.784942626953125
260976,-0.1448516845703125,-0.9090118408203124,0.813720703125
260977,-0.1535186767578125,-0.92803955078125,0.84112548828125
260978,-0.1816253662109375,-0.950897216796875,0.840576171875
260979,-0.2279205322265625,-0.9479217529296876,0.836212158203125
260980,-0.2637176513671875,-0.8928070068359375,0.81695556640625
260981,-0.2556915283203125,-0.790679931640625,0.80694580078125
260982,-0.208740234375,-0.6846466064453125,0.81451416015625
260983,-0.151611328125,-0.592437744140625,0.820770263671875
260984,-0.075439453125,-0.52777099609375,0.84954833984375
260985,0.0069732666015625,-0.50311279296875,0.882659912109375
260986,0.0999298095703125,-0.5052947998046875,0.94866943359375
260987,0.1976470947265625,-0.4846954345703125,1.005889892578125
260988,0.3077239990234375,-0.4586334228515625,1.059341430664062
260989,0.43218994140625,-0.427642822265625,1.101577758789062
260990,0.5302581787109375,-0.4035186767578125,1.117462158203125
260991,0.6744232177734375,-0.3428955078125,1.115371704101562
260992,0.7597198486328125,-0.26495361328125,1.11260986328125
260993,0.827178955078125,-0.1917724609375,1.100082397460938
260994,0.8870697021484375,-0.1261749267578125,1.10711669921875
260995,0.91473388671875,-0.081298828125,1.08734130859375
260996,0.936553955078125,-0.0671539306640625,1.035751342773438
260997,0.9413299560546876,-0.049072265625,0.972015380859375
260998,0.9568634033203124,-0.035125732421875,0.8997802734375
260999,0.9650421142578124,-0.0081024169921875,0.8181304931640625
261000,0.9649200439453124,0.023345947265625,0.75384521484375
261001,0.943389892578125,0.046356201171875,0.6843414306640625
261002,0.9024658203125,0.0517425537109375,0.6313018798828125
261003,0.8441619873046875,0.0460052490234375,0.61322021484375
261004,0.76898193359375,0.030242919921875,0.6303558349609375
261005,0.6829376220703125,-0.0205078125,0.6795501708984375
261006,0.5990142822265625,-0.0795745849609375,0.734832763671875
261007,0.5431060791015625,-0.129669189453125,0.809539794921875
261008,0.502685546875,-0.186004638671875,0.878173828125
261009,0.4399871826171875,-0.26220703125,0.9318389892578124
261010,0.357147216796875,-0.3580322265625,0.990264892578125
261011,0.2711334228515625,-0.46307373046875,1.050552368164062
261012,0.1860198974609375,-0.5685882568359375,1.102951049804688
261013,0.1075897216796875,-0.643096923828125,1.128097534179688
261014,0.04345703125,-0.6897430419921875,1.103530883789062
261015,-0.01483154296875,-0.713043212890625,1.014846801757812
261016,-0.062164306640625,-0.725372314453125,0.891571044921875
261017,-0.070892333984375,-0.73675537109375,0.718994140625
261018,-0.0140380859375,-0.7476806640625,0.5208587646484375
261019,0.091766357421875,-0.7425994873046875,0.379180908203125
261020,0.2056121826171875,-0.7169036865234375,0.3056182861328125
261021,0.3179779052734375,-0.709075927734375,0.310394287109375
261022,0.405548095703125,-0.7252197265625,0.37249755859375
261023,0.43487548828125,-0.7191314697265625,0.4704742431640625
261024,0.39849853515625,-0.6870574951171875,0.5721893310546875
261025,0.3007049560546875,-0.6574249267578125,0.6664886474609375
261026,0.184967041015625,-0.657196044921875,0.770172119140625
261027,0.0912628173828125,-0.680267333984375,0.8692626953125
261028,0.0023651123046875,-0.71002197265625,0.9589996337890624
261029,-0.10552978515625,-0.7378997802734375,1.029083251953125
261030,-0.242584228515625,-0.764892578125,1.064773559570312
261031,-0.3797454833984375,-0.7719268798828125,1.05072021484375
261032,-0.4657745361328125,-0.7333831787109375,1.016082763671875
261033,-0.491241455078125,-0.6414642333984375,0.929534912109375
261034,-0.45806884765625,-0.57867431640625,0.74346923828125
261035,-0.3826904296875,-0.565155029296875,0.5431365966796875
261036,-0.294281005859375,-0.572906494140625,0.4119873046875
261037,-0.2209625244140625,-0.58514404296875,0.3648681640625
261038,-0.164031982421875,-0.594329833984375,0.377685546875
261039,-0.1065673828125,-0.5991973876953125,0.4212799072265625
261040,-0.0421142578125,-0.5963897705078125,0.481170654296875
261041,0.0139312744140625,-0.5826568603515625,0.5668182373046875
261042,0.0499267578125,-0.561309814453125,0.66558837890625
261043,0.078338623046875,-0.5439605712890625,0.740509033203125
261044,0.124420166015625,-0.52459716796875,0.803619384765625
261045,0.1815338134765625,-0.4991607666015625,0.869781494140625
261046,0.253570556640625,-0.489044189453125,0.9555206298828124
261047,0.3684234619140625,-0.5197296142578125,1.070159912109375
261048,0.521240234375,-0.5616607666015625,1.178619384765625
261049,0.7128448486328125,-0.5905914306640625,1.243392944335938
261050,0.9072113037109376,-0.5820159912109375,1.245712280273438
261051,1.076370239257812,-0.5588531494140625,1.199234008789062
261052,1.201431274414062,-0.50103759765625,1.156784057617188
261053,1.259719848632812,-0.3895721435546875,1.090438842773438
261054,1.263336181640625,-0.244659423828125,1.026763916015625
261055,1.2198486328125,-0.118011474609375,0.9548187255859376
261056,1.1685791015625,-0.069000244140625,0.8672943115234375
261057,1.1083984375,-0.0644683837890625,0.756561279296875
261058,1.038909912109375,-0.0807342529296875,0.6748199462890625
261059,0.9862060546875,-0.1246337890625,0.636962890625
261060,0.963653564453125,-0.1862640380859375,0.630401611328125
261061,0.97076416015625,-0.266357421875,0.6324920654296875
261062,0.9812774658203124,-0.357513427734375,0.6284027099609375
261063,0.96588134765625,-0.43701171875,0.624847412109375
261064,0.9288177490234376,-0.506561279296875,0.6286468505859375
261065,0.88433837890625,-0.5671234130859375,0.660247802734375
261066,0.8419647216796875,-0.627410888671875,0.7282562255859375
261067,0.804473876953125,-0.6837921142578125,0.8210296630859375
261068,0.761871337890625,-0.7277984619140625,0.9169464111328124
261069,0.6983642578125,-0.747955322265625,0.992340087890625
261070,0.60028076171875,-0.73455810546875,1.044769287109375
261071,0.4809417724609375,-0.6961212158203125,1.069122314453125
261072,0.326416015625,-0.643341064453125,1.054656982421875
261073,0.1538848876953125,-0.5937042236328125,1.016708374023438
261074,0.0079803466796875,-0.5327911376953125,0.9441375732421876
261075,-0.0921783447265625,-0.47052001953125,0.8371734619140625
261076,-0.1602325439453125,-0.4315032958984375,0.6982269287109375
261077,-0.22442626953125,-0.4353790283203125,0.6022491455078125
261078,-0.2832489013671875,-0.4335479736328125,0.543792724609375
261079,-0.3058013916015625,-0.438751220703125,0.4945068359375
261080,-0.3070220947265625,-0.4544830322265625,0.454437255859375
261081,-0.2909393310546875,-0.4750213623046875,0.4342803955078125
261082,-0.2609405517578125,-0.4933624267578125,0.446868896484375
261083,-0.2353363037109375,-0.5128631591796875,0.478271484375
261084,-0.2213592529296875,-0.5150299072265625,0.52423095703125
261085,-0.184326171875,-0.5026092529296875,0.58270263671875
261086,-0.1268768310546875,-0.4722900390625,0.6317138671875
261087,-0.082733154296875,-0.433990478515625,0.6853179931640625
261088,-0.063720703125,-0.437835693359375,0.7487945556640625
261089,-0.0512847900390625,-0.47955322265625,0.7873382568359375
261090,-0.03509521484375,-0.5160064697265625,0.7978057861328125
261091,-0.008636474609375,-0.551025390625,0.7819366455078125
261092,0.0326385498046875,-0.60137939453125,0.755035400390625
261093,0.0952911376953125,-0.6607513427734375,0.7271881103515625
261094,0.1617584228515625,-0.7111663818359375,0.706573486328125
261095,0.20489501953125,-0.734466552734375,0.7190704345703125
261096,0.209869384765625,-0.7580413818359375,0.7565765380859375
261097,0.18988037109375,-0.8123626708984375,0.7854766845703125
261098,0.132476806640625,-0.872100830078125,0.828887939453125
261099,0.04180908203125,-0.9168548583984376,0.868621826171875
261100,-0.04681396484375,-0.950042724609375,0.86871337890625
261101,-0.1232147216796875,-0.951324462890625,0.8284912109375
261102,-0.176239013671875,-0.9161224365234376,0.784423828125
261103,-0.2041473388671875,-0.834808349609375,0.776275634765625
261104,-0.168243408203125,-0.73980712890625,0.7826690673828125
261105,-0.099395751953125,-0.6543121337890625,0.808746337890625
261106,-0.028717041015625,-0.59130859375,0.85589599609375
261107,0.05181884765625,-0.559722900390625,0.87286376953125
261108,0.142608642578125,-0.53125,0.902618408203125
261109,0.231109619140625,-0.483306884765625,0.9427337646484376
261110,0.31829833984375,-0.437255859375,0.977294921875
261111,0.37725830078125,-0.416717529296875,0.9981536865234376
261112,0.4635467529296875,-0.4322509765625,0.991302490234375
261113,0.5765228271484375,-0.39910888671875,0.998565673828125
261114,0.6422576904296875,-0.349090576171875,0.9958953857421876
261115,0.6796417236328125,-0.29022216796875,0.98211669921875
261116,0.7155914306640625,-0.2311553955078125,0.975677490234375
261117,0.7696533203125,-0.1837310791015625,0.96588134765625
261118,0.84600830078125,-0.131744384765625,0.9420928955078124
261119,0.9141387939453124,-0.0623016357421875,0.909698486328125
261120,0.971435546875,-0.0043487548828125,0.8777008056640625
261121,1.005722045898438,0.0276947021484375,0.84124755859375
261122,0.990203857421875,0.0683746337890625,0.8058013916015625
261123,0.96734619140625,0.076812744140625,0.79071044921875
261124,0.9257965087890624,0.0787200927734375,0.797393798828125
261125,0.8481903076171875,0.0773468017578125,0.814117431640625
261126,0.753326416015625,0.0575714111328125,0.8471221923828125
261127,0.670501708984375,0.0178070068359375,0.9017791748046876
261128,0.60272216796875,-0.0425567626953125,0.9763641357421876
261129,0.5391082763671875,-0.1263427734375,1.0313720703125
261130,0.4647979736328125,-0.2132720947265625,1.0533447265625
261131,0.40252685546875,-0.31878662109375,1.062042236328125
261132,0.343658447265625,-0.4282379150390625,1.05999755859375
261133,0.2691192626953125,-0.517120361328125,1.058609008789062
261134,0.1869659423828125,-0.58551025390625,1.044036865234375
261135,0.11334228515625,-0.616180419921875,0.977813720703125
261136,0.0527496337890625,-0.6089935302734375,0.854766845703125
261137,0.0221405029296875,-0.607025146484375,0.7043609619140625
261138,0.035736083984375,-0.6119384765625,0.5609130859375
261139,0.09027099609375,-0.59881591796875,0.4623870849609375
261140,0.165191650390625,-0.5792083740234375,0.417694091796875
261141,0.229339599609375,-0.568878173828125,0.4225616455078125
261142,0.2696533203125,-0.5760040283203125,0.4822845458984375
261143,0.29278564453125,-0.5787353515625,0.575836181640625
261144,0.2947845458984375,-0.567626953125,0.6830596923828125
261145,0.26220703125,-0.566802978515625,0.7923583984375
261146,0.1939697265625,-0.5968780517578125,0.8809356689453125
261147,0.083740234375,-0.6389312744140625,0.9507904052734376
261148,-0.0374298095703125,-0.691925048828125,1.006118774414062
261149,-0.1596527099609375,-0.7331085205078125,1.038589477539062
261150,-0.2781524658203125,-0.7492218017578125,1.046356201171875
261151,-0.3743133544921875,-0.7157745361328125,1.009063720703125
261152,-0.4544830322265625,-0.6586761474609375,0.9417877197265624
261153,-0.502227783203125,-0.6308746337890625,0.837310791015625
261154,-0.51055908203125,-0.6227264404296875,0.685821533203125
261155,-0.4846343994140625,-0.6146087646484375,0.51483154296875
261156,-0.4443359375,-0.614166259765625,0.3814849853515625
261157,-0.3794403076171875,-0.6349639892578125,0.284637451171875
261158,-0.28369140625,-0.6712188720703125,0.2210235595703125
261159,-0.1695556640625,-0.703857421875,0.2473602294921875
261160,-0.064910888671875,-0.7119140625,0.3742523193359375
261161,0.0050201416015625,-0.7087249755859375,0.5531158447265625
261162,0.033538818359375,-0.694183349609375,0.7378082275390625
261163,0.0518341064453125,-0.6559600830078125,0.8975372314453125
261164,0.0830841064453125,-0.5717926025390625,0.989837646484375
261165,0.1486358642578125,-0.4671630859375,1.064132690429688
261166,0.24847412109375,-0.3832855224609375,1.125808715820312
261167,0.369415283203125,-0.349884033203125,1.136489868164062
261168,0.5089111328125,-0.3488006591796875,1.111236572265625
261169,0.6729736328125,-0.36248779296875,1.080352783203125
261170,0.8323974609375,-0.36993408203125,1.038131713867188
261171,0.942047119140625,-0.345916748046875,1.031356811523438
261172,0.9975433349609376,-0.299957275390625,1.040267944335938
261173,1.025314331054688,-0.244476318359375,1.0450439453125
261174,1.025894165039062,-0.1892547607421875,1.03106689453125
261175,1.000030517578125,-0.1482086181640625,0.974395751953125
261176,0.9496612548828124,-0.1266632080078125,0.88299560546875
261177,0.9095306396484376,-0.1253662109375,0.838958740234375
261178,0.894775390625,-0.1228179931640625,0.837188720703125
261179,0.8929595947265625,-0.1222686767578125,0.839874267578125
261180,0.89471435546875,-0.128997802734375,0.85125732421875
261181,0.8936767578125,-0.141815185546875,0.886444091796875
261182,0.8951263427734375,-0.1663970947265625,0.9393310546875
261183,0.8965606689453125,-0.2106781005859375,0.9864654541015624
261184,0.8858184814453125,-0.2577972412109375,1.005447387695312
261185,0.863128662109375,-0.2982940673828125,0.994781494140625
261186,0.8314056396484375,-0.329620361328125,0.9499359130859376
261187,0.793975830078125,-0.3531951904296875,0.878753662109375
261188,0.751708984375,-0.3691558837890625,0.8053436279296875
261189,0.69561767578125,-0.3670654296875,0.7477264404296875
261190,0.625152587890625,-0.355194091796875,0.72222900390625
261191,0.5464630126953125,-0.3450469970703125,0.71856689453125
261192,0.48065185546875,-0.370269775390625,0.7402496337890625
261193,0.376495361328125,-0.3485107421875,0.7032623291015625
261194,0.2431182861328125,-0.3115081787109375,0.6957244873046875
261195,0.12322998046875,-0.2844696044921875,0.7461090087890625
261196,0.042083740234375,-0.2664642333984375,0.76690673828125
261197,0.0025787353515625,-0.2323150634765625,0.743255615234375
261198,-0.0212554931640625,-0.20904541015625,0.75
261199,-0.0142364501953125,-0.2133331298828125,0.783966064453125
261200,0.0162353515625,-0.2301025390625,0.81927490234375
261201,0.069305419921875,-0.2719573974609375,0.853302001953125
261202,0.1321258544921875,-0.324615478515625,0.883209228515625
261203,0.1900634765625,-0.3613739013671875,0.9131622314453124
261204,0.22943115234375,-0.37567138671875,0.9527587890625
261205,0.2465057373046875,-0.38250732421875,0.9751129150390624
261206,0.246124267578125,-0.3842315673828125,0.956207275390625
261207,0.2477264404296875,-0.38671875,0.8977508544921875
261208,0.2542572021484375,-0.4061279296875,0.8249053955078125
261209,0.257659912109375,-0.4343719482421875,0.7695770263671875
261210,0.2397918701171875,-0.4960479736328125,0.74298095703125
261211,0.2149810791015625,-0.572998046875,0.73077392578125
261212,0.1828155517578125,-0.6468048095703125,0.7281646728515625
261213,0.13311767578125,-0.72967529296875,0.7482452392578125
261214,0.063690185546875,-0.816070556640625,0.76873779296875
261215,-0.0188140869140625,-0.8904266357421875,0.7882537841796875
261216,-0.0873565673828125,-0.9418487548828124,0.807037353515625
261217,-0.1181793212890625,-0.968475341796875,0.8072357177734375
261218,-0.1343841552734375,-0.984375,0.790802001953125
261219,-0.1532745361328125,-0.975616455078125,0.7609100341796875
261220,-0.17431640625,-0.9346160888671876,0.704345703125
261221,-0.183990478515625,-0.864532470703125,0.628936767578125
261222,-0.1739654541015625,-0.777618408203125,0.5743408203125
261223,-0.1562957763671875,-0.717376708984375,0.5661163330078125
261224,-0.1438140869140625,-0.6920928955078125,0.6034088134765625
261225,-0.1412811279296875,-0.6786956787109375,0.6598052978515625
261226,-0.1250152587890625,-0.6789703369140625,0.7146759033203125
261227,-0.089385986328125,-0.6825408935546875,0.7821807861328125
261228,-0.033172607421875,-0.6867218017578125,0.858856201171875
261229,0.043212890625,-0.6875152587890625,0.9429168701171876
261230,0.1201019287109375,-0.657470703125,1.019012451171875
261231,0.206329345703125,-0.6054840087890625,1.079391479492188
261232,0.276611328125,-0.533538818359375,1.109405517578125
261233,0.33172607421875,-0.484100341796875,1.097488403320312
261234,0.380096435546875,-0.42645263671875,1.04266357421875
261235,0.410430908203125,-0.35723876953125,0.9802703857421876
261236,0.44171142578125,-0.27777099609375,0.9065399169921876
261237,0.46539306640625,-0.193878173828125,0.82464599609375
261238,0.4700469970703125,-0.132720947265625,0.7992401123046875
261239,0.4937286376953125,-0.0805511474609375,0.8062896728515625
261240,0.5372467041015625,-0.0232086181640625,0.8263397216796875
261241,0.59686279296875,0.0360565185546875,0.86846923828125
261242,0.6555938720703125,0.0857696533203125,0.932220458984375
261243,0.7184600830078125,0.11749267578125,1.0374755859375
261244,0.77960205078125,0.1357421875,1.148483276367188
261245,0.81903076171875,0.1343994140625,1.259368896484375
261246,0.828125,0.1047821044921875,1.350692749023438
261247,0.819976806640625,0.0506591796875,1.419265747070312
261248,0.7821502685546875,-0.019012451171875,1.42767333984375
261249,0.7128753662109375,-0.099151611328125,1.355850219726562
261250,0.622283935546875,-0.1611480712890625,1.230300903320312
261251,0.5394439697265625,-0.1940155029296875,1.086883544921875
261252,0.4649505615234375,-0.2242431640625,0.953521728515625
261253,0.4015960693359375,-0.2769012451171875,0.814666748046875
261254,0.3490142822265625,-0.3357086181640625,0.7005462646484375
261255,0.3152313232421875,-0.3797760009765625,0.6272430419921875
261256,0.295684814453125,-0.4026336669921875,0.5755767822265625
261257,0.2570953369140625,-0.3999481201171875,0.5537109375
261258,0.199127197265625,-0.386688232421875,0.561248779296875
261259,0.1522369384765625,-0.388458251953125,0.584197998046875
261260,0.1199188232421875,-0.3983154296875,0.6153411865234375
261261,0.0977020263671875,-0.4063568115234375,0.6629180908203125
261262,0.08599853515625,-0.419647216796875,0.7162017822265625
261263,0.080963134765625,-0.4495391845703125,0.74493408203125
261264,0.0771942138671875,-0.4975738525390625,0.7572479248046875
261265,0.0832366943359375,-0.56011962890625,0.7664337158203125
261266,0.0960235595703125,-0.6315460205078125,0.7742767333984375
261267,0.0892791748046875,-0.6863861083984375,0.8076324462890625
261268,0.0686492919921875,-0.7157440185546875,0.87786865234375
261269,0.02508544921875,-0.7199554443359375,0.9497528076171876
261270,-0.0434417724609375,-0.7026214599609375,0.991973876953125
261271,-0.11383056640625,-0.6606597900390625,0.9864959716796876
261272,-0.1605987548828125,-0.5918121337890625,0.91156005859375
261273,-0.1682586669921875,-0.491058349609375,0.8081817626953125
261274,-0.144805908203125,-0.4231109619140625,0.6996307373046875
261275,-0.13690185546875,-0.4246826171875,0.60125732421875
261276,-0.140655517578125,-0.4404449462890625,0.5367584228515625
261277,-0.1624908447265625,-0.453704833984375,0.4860992431640625
261278,-0.2211761474609375,-0.469329833984375,0.4533233642578125
261279,-0.298919677734375,-0.46807861328125,0.46551513671875
261280,-0.3584747314453125,-0.43902587890625,0.5242156982421875
261281,-0.375457763671875,-0.41595458984375,0.6108245849609375
261282,-0.3780517578125,-0.4425048828125,0.7060546875
261283,-0.3499908447265625,-0.497100830078125,0.7946929931640625
261284,-0.2727508544921875,-0.55133056640625,0.8741302490234375
261285,-0.1693572998046875,-0.61181640625,0.94207763671875
261286,-0.029327392578125,-0.70306396484375,1.012725830078125
261287,0.1728668212890625,-0.7900543212890625,1.077423095703125
261288,0.4500732421875,-0.86419677734375,1.141738891601562
261289,0.7176971435546875,-0.89544677734375,1.213424682617188
261290,0.9159393310546876,-0.8713836669921875,1.264541625976562
261291,1.04119873046875,-0.7728118896484375,1.270111083984375
261292,1.068313598632812,-0.5991058349609375,1.227920532226562
261293,1.024566650390625,-0.426483154296875,1.171646118164062
261294,0.9674835205078124,-0.3447265625,1.12164306640625
261295,0.9160308837890624,-0.3466796875,1.086380004882812
261296,0.865081787109375,-0.35748291015625,1.079269409179688
261297,0.8136138916015625,-0.3372955322265625,1.049713134765625
261298,0.7835540771484375,-0.3182525634765625,1.01788330078125
261299,0.743011474609375,-0.255706787109375,0.9876556396484376
261300,0.7183990478515625,-0.203643798828125,0.9225921630859376
261301,0.7200469970703125,-0.1811370849609375,0.8620147705078125
261302,0.7263031005859375,-0.1722564697265625,0.8284759521484375
261303,0.7295074462890625,-0.1688995361328125,0.805084228515625
261304,0.732086181640625,-0.1738128662109375,0.7710723876953125
261305,0.709625244140625,-0.1801910400390625,0.718597412109375
261306,0.684417724609375,-0.200439453125,0.685333251953125
261307,0.6681060791015625,-0.2315216064453125,0.67962646484375
261308,0.6501312255859375,-0.2714080810546875,0.682708740234375
261309,0.6262664794921875,-0.308380126953125,0.691680908203125
261310,0.58660888671875,-0.338226318359375,0.7039794921875
261311,0.533599853515625,-0.3511962890625,0.7021636962890625
261312,0.4975128173828125,-0.34112548828125,0.7079010009765625
261313,0.4828033447265625,-0.317535400390625,0.7113800048828125
261314,0.4636077880859375,-0.2709197998046875,0.717559814453125
261315,0.39599609375,-0.1916656494140625,0.7116546630859375
261316,0.2886810302734375,-0.1263427734375,0.718597412109375
261317,0.1595916748046875,-0.089599609375,0.7417144775390625
261318,0.1279296875,-0.185546875,0.782379150390625
261319,0.095550537109375,-0.2673797607421875,0.8538055419921875
261320,0.050872802734375,-0.28314208984375,0.923583984375
261321,0.0200042724609375,-0.2720184326171875,0.9884033203125
261322,0.006378173828125,-0.272674560546875,0.996185302734375
261323,0.001495361328125,-0.290374755859375,0.9391937255859376
261324,-0.0031890869140625,-0.301666259765625,0.910919189453125
261325,-0.006866455078125,-0.312591552734375,0.87286376953125
261326,-0.011505126953125,-0.3499755859375,0.8048553466796875
261327,-0.027374267578125,-0.401458740234375,0.810455322265625
261328,-0.0648040771484375,-0.441192626953125,0.8624420166015625
261329,-0.0906829833984375,-0.4823455810546875,0.9134979248046876
261330,-0.099029541015625,-0.5386810302734375,0.941619873046875
261331,-0.076812744140625,-0.608306884765625,0.92193603515625
261332,-0.022308349609375,-0.66961669921875,0.865478515625
261333,0.0215301513671875,-0.7091217041015625,0.8186187744140625
261334,0.056182861328125,-0.7217864990234375,0.7901458740234375
261335,0.0717926025390625,-0.715606689453125,0.7589874267578125
261336,0.0837249755859375,-0.70428466796875,0.7506256103515625
261337,0.083892822265625,-0.695465087890625,0.7526702880859375
261338,0.0503387451171875,-0.6750640869140625,0.7618408203125
261339,0.0216522216796875,-0.6371307373046875,0.771759033203125
261340,0.0187225341796875,-0.5901947021484375,0.792572021484375
261341,0.0276947021484375,-0.5415802001953125,0.821197509765625
261342,0.0233306884765625,-0.4647216796875,0.865325927734375
261343,0.0030975341796875,-0.430908203125,0.9416046142578124
261344,-0.01519775390625,-0.4919891357421875,0.977752685546875
261345,0.017333984375,-0.6236419677734375,1.00518798828125
261346,0.1104888916015625,-0.6533660888671875,1.09344482421875
261347,0.1401519775390625,-0.4659271240234375,1.102279663085938
261348,0.1925811767578125,-0.4955902099609375,1.040328979492188
261349,0.2795562744140625,-0.5708160400390625,0.9894866943359376
261350,0.33642578125,-0.52081298828125,0.9580535888671876
261351,0.3834991455078125,-0.4601593017578125,0.9375152587890624
261352,0.431549072265625,-0.412750244140625,0.9123687744140624
261353,0.48162841796875,-0.354339599609375,0.89215087890625
261354,0.5089111328125,-0.301788330078125,0.85968017578125
261355,0.5354461669921875,-0.24432373046875,0.8618316650390625
261356,0.572296142578125,-0.1883697509765625,0.8763885498046875
261357,0.626983642578125,-0.1588592529296875,0.865692138671875
261358,0.6820526123046875,-0.1535491943359375,0.841888427734375
261359,0.731109619140625,-0.1446533203125,0.8290557861328125
261360,0.7587432861328125,-0.122161865234375,0.822235107421875
261361,0.7534637451171875,-0.1070556640625,0.8376007080078125
261362,0.7285614013671875,-0.097869873046875,0.8642730712890625
261363,0.685577392578125,-0.0955352783203125,0.88836669921875
261364,0.6380615234375,-0.109619140625,0.9156494140625
261365,0.5865936279296875,-0.1397857666015625,0.944854736328125
261366,0.5206146240234375,-0.1861724853515625,0.9793853759765624
261367,0.4388275146484375,-0.2401885986328125,1.009307861328125
261368,0.3446044921875,-0.2982940673828125,1.024398803710938
261369,0.250091552734375,-0.3558502197265625,1.021224975585938
261370,0.1602935791015625,-0.4152679443359375,0.9948883056640624
261371,0.0736083984375,-0.4715118408203125,0.9536590576171876
261372,-0.0081329345703125,-0.516937255859375,0.8900146484375
261373,-0.0769500732421875,-0.5606689453125,0.8124847412109375
261374,-0.1250457763671875,-0.6009521484375,0.734619140625
261375,-0.14129638671875,-0.637908935546875,0.6611480712890625
261376,-0.11767578125,-0.662200927734375,0.6023712158203125
261377,-0.0358734130859375,-0.676513671875,0.58099365234375
261378,0.0994720458984375,-0.6982574462890625,0.5988311767578125
261379,0.237518310546875,-0.7150421142578125,0.6457366943359375
261380,0.3428192138671875,-0.708465576171875,0.702117919921875
261381,0.4508209228515625,-0.697509765625,0.7520294189453125
261382,0.576446533203125,-0.69683837890625,0.8049163818359375
261383,0.6603851318359375,-0.677764892578125,0.8689422607421875
261384,0.6387939453125,-0.6358489990234375,0.9476318359375
261385,0.5138397216796875,-0.5849609375,1.00616455078125
261386,0.3480682373046875,-0.5329742431640625,1.03436279296875
261387,0.2195587158203125,-0.510284423828125,1.065109252929688
261388,0.12139892578125,-0.5110626220703125,1.021331787109375
261389,0.0550537109375,-0.516265869140625,0.93280029296875
261390,0.0212554931640625,-0.527313232421875,0.82452392578125
261391,0.005462646484375,-0.5364837646484375,0.710968017578125
261392,0.004119873046875,-0.54638671875,0.606842041015625
261393,-0.000213623046875,-0.5436248779296875,0.5275115966796875
261394,-0.0109100341796875,-0.5136566162109375,0.4803009033203125
261395,-0.0306396484375,-0.4630126953125,0.45404052734375
261396,-0.0444183349609375,-0.408172607421875,0.4531097412109375
261397,-0.0368499755859375,-0.3467864990234375,0.471221923828125
261398,-0.0128631591796875,-0.287811279296875,0.4911956787109375
261399,0.0065460205078125,-0.249053955078125,0.5148468017578125
261400,0.013671875,-0.226165771484375,0.567840576171875
261401,0.0215911865234375,-0.22479248046875,0.6390380859375
261402,0.0274200439453125,-0.2328033447265625,0.7319183349609375
261403,0.030120849609375,-0.258392333984375,0.8241119384765625
261404,0.075042724609375,-0.311431884765625,0.8937225341796875
261405,0.1885223388671875,-0.35601806640625,0.940643310546875
261406,0.3468170166015625,-0.4085540771484375,0.984893798828125
261407,0.5472412109375,-0.4685821533203125,1.015579223632812
261408,0.7796478271484375,-0.481689453125,1.07098388671875
261409,0.9984588623046876,-0.420562744140625,1.118133544921875
261410,1.204666137695312,-0.380096435546875,1.103775024414062
261411,1.330902099609375,-0.3290557861328125,1.060287475585938
261412,1.353988647460938,-0.2451324462890625,1.03729248046875
261413,1.270599365234375,-0.163970947265625,1.052352905273438
261414,1.136810302734375,-0.1633148193359375,1.092514038085938
261415,1.039169311523438,-0.213592529296875,1.109939575195312
261416,0.9813690185546876,-0.26947021484375,1.07611083984375
261417,0.9330291748046876,-0.3415679931640625,1.009048461914062
261418,0.8817138671875,-0.408416748046875,0.929931640625
261419,0.8259429931640625,-0.4468231201171875,0.8605194091796875
261420,0.777587890625,-0.466156005859375,0.8098297119140625
261421,0.7350921630859375,-0.488494873046875,0.771636962890625
261422,0.6965789794921875,-0.515533447265625,0.7423858642578125
261423,0.66070556640625,-0.5381622314453125,0.7359771728515625
261424,0.6307830810546875,-0.5509490966796875,0.756561279296875
261425,0.6107025146484375,-0.55438232421875,0.802825927734375
261426,0.5853118896484375,-0.5320587158203125,0.873443603515625
261427,0.54132080078125,-0.4856719970703125,0.951934814453125
261428,0.479949951171875,-0.4308624267578125,1.0234375
261429,0.41436767578125,-0.39697265625,1.075469970703125
261430,0.3307037353515625,-0.3811492919921875,1.109329223632812
261431,0.2210540771484375,-0.3748016357421875,1.120010375976562
261432,0.1041107177734375,-0.359375,1.094802856445312
261433,0.0033416748046875,-0.3070220947265625,1.040679931640625
261434,-0.0582427978515625,-0.265380859375,0.977325439453125
261435,-0.09161376953125,-0.2492218017578125,0.90087890625
261436,-0.1003875732421875,-0.2299041748046875,0.80694580078125
261437,-0.0757598876953125,-0.2150115966796875,0.7073822021484375
261438,-0.0353546142578125,-0.2030487060546875,0.6339111328125
261439,0.0265655517578125,-0.1956329345703125,0.611907958984375
261440,0.1006622314453125,-0.1884307861328125,0.627716064453125
261441,0.170379638671875,-0.1659393310546875,0.67041015625
261442,0.22662353515625,-0.1395111083984375,0.7181396484375
261443,0.2628326416015625,-0.13446044921875,0.768157958984375
261444,0.2835540771484375,-0.1445159912109375,0.8116607666015625
261445,0.278717041015625,-0.1789093017578125,0.85394287109375
261446,0.237823486328125,-0.212646484375,0.8962860107421875
261447,0.181854248046875,-0.2516632080078125,0.9221954345703124
261448,0.1153717041015625,-0.3156890869140625,0.905242919921875
261449,0.05841064453125,-0.3972015380859375,0.858642578125
261450,0.002532958984375,-0.4842376708984375,0.8113555908203125
261451,-0.0627288818359375,-0.56292724609375,0.7850494384765625
261452,-0.1195526123046875,-0.6362152099609375,0.794921875
261453,-0.1566619873046875,-0.6996612548828125,0.7912750244140625
261454,-0.1986083984375,-0.74810791015625,0.7781524658203125
261455,-0.2565460205078125,-0.7908935546875,0.7923583984375
261456,-0.326751708984375,-0.8297576904296875,0.8110198974609375
261457,-0.401702880859375,-0.83929443359375,0.8321075439453125
261458,-0.4572906494140625,-0.8153533935546875,0.83563232421875
261459,-0.4654998779296875,-0.7584075927734375,0.79071044921875
261460,-0.4175872802734375,-0.677490234375,0.7197113037109375
261461,-0.3288726806640625,-0.588592529296875,0.658172607421875
261462,-0.2096710205078125,-0.5242156982421875,0.6346588134765625
261463,-0.085784912109375,-0.5030364990234375,0.675140380859375
261464,0.0164794921875,-0.5049285888671875,0.753662109375
261465,0.09039306640625,-0.4933319091796875,0.837646484375
261466,0.1696319580078125,-0.45684814453125,0.91455078125
261467,0.239105224609375,-0.40277099609375,0.9639739990234376
261468,0.3159637451171875,-0.335968017578125,0.991790771484375
261469,0.403717041015625,-0.30145263671875,1.011627197265625
261470,0.46881103515625,-0.2760772705078125,1.021072387695312
261471,0.536956787109375,-0.2538604736328125,1.0103759765625
261472,0.59271240234375,-0.2165679931640625,0.9836273193359376
261473,0.629974365234375,-0.184112548828125,0.9435272216796876
261474,0.64349365234375,-0.1757659912109375,0.89593505859375
261475,0.6526031494140625,-0.1844329833984375,0.852081298828125
261476,0.6700897216796875,-0.1940155029296875,0.8104248046875
261477,0.7120819091796875,-0.2067108154296875,0.786651611328125
261478,0.77032470703125,-0.2134857177734375,0.7812042236328125
261479,0.841949462890625,-0.22052001953125,0.7902069091796875
261480,0.8961029052734375,-0.226104736328125,0.7962646484375
261481,0.9219970703125,-0.2290496826171875,0.7982025146484375
261482,0.935516357421875,-0.2143096923828125,0.825439453125
261483,0.9186859130859376,-0.18243408203125,0.8812408447265625
261484,0.863433837890625,-0.137603759765625,0.946136474609375
261485,0.7853851318359375,-0.1126708984375,1.014144897460938
261486,0.6970672607421875,-0.1223602294921875,1.06903076171875
261487,0.5903472900390625,-0.1279754638671875,1.092391967773438
261488,0.4700469970703125,-0.1332244873046875,1.060760498046875
261489,0.3563690185546875,-0.154754638671875,0.990753173828125
261490,0.2672271728515625,-0.1994781494140625,0.91339111328125
261491,0.2001800537109375,-0.2555694580078125,0.840911865234375
261492,0.14862060546875,-0.31976318359375,0.7654876708984375
261493,0.123046875,-0.3839874267578125,0.7007293701171875
261494,0.1006622314453125,-0.4363861083984375,0.64837646484375
261495,0.0896453857421875,-0.4856414794921875,0.608551025390625
261496,0.10333251953125,-0.5136871337890625,0.57867431640625
261497,0.12908935546875,-0.53692626953125,0.56573486328125
261498,0.17376708984375,-0.554534912109375,0.5616912841796875
261499,0.251007080078125,-0.5778045654296875,0.578582763671875
261500,0.367706298828125,-0.621063232421875,0.6379241943359375
261501,0.477691650390625,-0.6614990234375,0.729736328125
261502,0.5461578369140625,-0.6771240234375,0.8327789306640625
261503,0.5756072998046875,-0.6683502197265625,0.942840576171875
261504,0.5689697265625,-0.6439056396484375,1.057571411132812
261505,0.53204345703125,-0.6027679443359375,1.14776611328125
261506,0.4789276123046875,-0.558929443359375,1.180023193359375
261507,0.4033966064453125,-0.5339508056640625,1.12884521484375
261508,0.27276611328125,-0.5334320068359375,1.008529663085938
261509,0.104034423828125,-0.5761871337890625,0.8715667724609375
261510,-0.04510498046875,-0.6497344970703125,0.76983642578125
261511,-0.1631011962890625,-0.7252044677734375,0.7128143310546875
261512,-0.252197265625,-0.7783355712890625,0.6712799072265625
261513,-0.3144378662109375,-0.8047637939453125,0.641021728515625
261514,-0.354644775390625,-0.799591064453125,0.602752685546875
261515,-0.399322509765625,-0.7626495361328125,0.5630340576171875
261516,-0.4323577880859375,-0.7000274658203125,0.55010986328125
261517,-0.4553680419921875,-0.63751220703125,0.549163818359375
261518,-0.4595794677734375,-0.60137939453125,0.51104736328125
261519,-0.4255523681640625,-0.5936279296875,0.447235107421875
261520,-0.365692138671875,-0.5857696533203125,0.4214324951171875
261521,-0.283905029296875,-0.59716796875,0.444244384765625
261522,-0.178741455078125,-0.612457275390625,0.480926513671875
261523,-0.0544281005859375,-0.6122283935546875,0.5749359130859375
261524,0.0845794677734375,-0.6109771728515625,0.7257537841796875
261525,0.247833251953125,-0.6288299560546875,0.8985137939453125
261526,0.437530517578125,-0.6360931396484375,1.083724975585938
261527,0.6152801513671875,-0.5964813232421875,1.225753784179688
261528,0.7917633056640625,-0.590423583984375,1.23199462890625
261529,0.983642578125,-0.634368896484375,1.175872802734375
261530,1.135879516601562,-0.611572265625,1.13458251953125
261531,1.205764770507812,-0.502716064453125,1.114578247070312
261532,1.224685668945312,-0.352020263671875,1.037261962890625
261533,1.207015991210938,-0.2360076904296875,0.9585418701171876
261534,1.197647094726562,-0.184967041015625,0.8720703125
261535,1.1846923828125,-0.1552276611328125,0.759063720703125
261536,1.146408081054688,-0.1333160400390625,0.681732177734375
261537,1.100189208984375,-0.1255645751953125,0.62451171875
261538,1.05841064453125,-0.1321258544921875,0.607269287109375
261539,1.021560668945312,-0.15057373046875,0.6084136962890625
261540,0.9922332763671876,-0.188262939453125,0.59185791015625
261541,0.951568603515625,-0.2408599853515625,0.56744384765625
261542,0.913543701171875,-0.2847137451171875,0.5611419677734375
261543,0.885528564453125,-0.31353759765625,0.5623931884765625
261544,0.8453521728515625,-0.3408203125,0.596099853515625
261545,0.7960357666015625,-0.3728485107421875,0.6762237548828125
261546,0.7634429931640625,-0.4134368896484375,0.7852630615234375
261547,0.7414703369140625,-0.4470367431640625,0.8895263671875
261548,0.7327728271484375,-0.472259521484375,0.9749603271484376
261549,0.7359771728515625,-0.4819488525390625,1.023895263671875
261550,0.7271728515625,-0.459991455078125,1.041366577148438
261551,0.70562744140625,-0.42803955078125,1.052871704101562
261552,0.652679443359375,-0.3841552734375,1.044357299804688
261553,0.5513916015625,-0.347686767578125,1.030914306640625
261554,0.4434356689453125,-0.3487396240234375,1.004592895507812
261555,0.3440704345703125,-0.3632965087890625,0.95880126953125
261556,0.2383880615234375,-0.364654541015625,0.8955535888671875
261557,0.122833251953125,-0.3740081787109375,0.841705322265625
261558,-0.0008087158203125,-0.3885498046875,0.7883758544921875
261559,-0.128631591796875,-0.4344635009765625,0.7569732666015625
261560,-0.232391357421875,-0.4695587158203125,0.7181549072265625
261561,-0.2805633544921875,-0.5068206787109375,0.6619873046875
261562,-0.2776641845703125,-0.566558837890625,0.6044464111328125
261563,-0.2793426513671875,-0.6331787109375,0.5447540283203125
261564,-0.2823333740234375,-0.67645263671875,0.5225067138671875
261565,-0.2626190185546875,-0.702606201171875,0.532867431640625
261566,-0.207794189453125,-0.7173614501953125,0.5442657470703125
261567,-0.1423797607421875,-0.7371673583984375,0.577301025390625
261568,-0.129150390625,-0.7494659423828125,0.639556884765625
261569,-0.1508331298828125,-0.763427734375,0.716033935546875
261570,-0.19586181640625,-0.8086700439453125,0.7786865234375
261571,-0.2635498046875,-0.894683837890625,0.8321990966796875
261572,-0.360809326171875,-1.000274658203125,0.8829803466796875
261573,-0.484710693359375,-1.06634521484375,0.9060211181640624
261574,-0.6057281494140625,-1.057815551757812,0.895904541015625
261575,-0.680938720703125,-0.9867401123046876,0.83544921875
261576,-0.654754638671875,-0.88140869140625,0.7607269287109375
261577,-0.545928955078125,-0.7497406005859375,0.722900390625
261578,-0.4234771728515625,-0.645477294921875,0.707550048828125
261579,-0.300750732421875,-0.5917816162109375,0.71221923828125
261580,-0.173675537109375,-0.5532073974609375,0.734588623046875
261581,-0.0483856201171875,-0.500518798828125,0.775390625
261582,0.073272705078125,-0.4391937255859375,0.8313446044921875
261583,0.192596435546875,-0.39581298828125,0.894866943359375
261584,0.3122711181640625,-0.362640380859375,0.9514312744140624
261585,0.4063873291015625,-0.3404693603515625,0.9795989990234376
261586,0.505828857421875,-0.318267822265625,1.028152465820312
261587,0.6047515869140625,-0.3081512451171875,1.066192626953125
261588,0.672210693359375,-0.27978515625,1.087051391601562
261589,0.7069549560546875,-0.2535400390625,1.072113037109375
261590,0.73248291015625,-0.2393798828125,1.016433715820312
261591,0.729736328125,-0.2224273681640625,0.928253173828125
261592,0.7056884765625,-0.19384765625,0.8252716064453125
261593,0.700714111328125,-0.1741790771484375,0.7174835205078125
261594,0.74700927734375,-0.1688385009765625,0.647308349609375
261595,0.839813232421875,-0.1732635498046875,0.595184326171875
261596,0.9261016845703124,-0.16839599609375,0.5341949462890625
261597,1.002853393554688,-0.1832733154296875,0.49725341796875
261598,1.073211669921875,-0.219512939453125,0.511688232421875
261599,1.107635498046875,-0.2607421875,0.575927734375
261600,1.10052490234375,-0.300506591796875,0.654266357421875
261601,1.051620483398438,-0.3240966796875,0.7376251220703125
261602,0.9720001220703124,-0.32440185546875,0.83087158203125
261603,0.8834991455078125,-0.3137969970703125,0.925994873046875
261604,0.801513671875,-0.2964935302734375,1.008438110351562
261605,0.7218017578125,-0.2662811279296875,1.058349609375
261606,0.636932373046875,-0.2419891357421875,1.082489013671875
261607,0.538177490234375,-0.241241455078125,1.077774047851562
261608,0.4488677978515625,-0.2723846435546875,1.056427001953125
261609,0.3585205078125,-0.3226470947265625,1.026519775390625
261610,0.2535400390625,-0.388214111328125,1.01202392578125
261611,0.1323394775390625,-0.4584197998046875,1.000930786132812
261612,-0.0045166015625,-0.50018310546875,0.9539642333984376
261613,-0.129547119140625,-0.512908935546875,0.8714447021484375
261614,-0.2019500732421875,-0.52197265625,0.7427825927734375
261615,-0.2266998291015625,-0.537506103515625,0.603363037109375
261616,-0.204071044921875,-0.5615692138671875,0.471282958984375
261617,-0.1124114990234375,-0.59857177734375,0.355010986328125
261618,0.06048583984375,-0.6315460205078125,0.318023681640625
261619,0.2717742919921875,-0.637237548828125,0.40216064453125
261620,0.3967742919921875,-0.62255859375,0.41839599609375
261621,0.39959716796875,-0.67034912109375,0.599945068359375
261622,0.3489837646484375,-0.695556640625,0.87237548828125
261623,0.285491943359375,-0.637908935546875,1.0640869140625
261624,0.1923980712890625,-0.59307861328125,1.191329956054688
261625,0.0574951171875,-0.5515899658203125,1.1585693359375
261626,-0.0460357666015625,-0.5029296875,1.078948974609375
261627,-0.0961761474609375,-0.496368408203125,1.00970458984375
261628,-0.1519927978515625,-0.5328521728515625,0.9055938720703124
261629,-0.2481842041015625,-0.578765869140625,0.773345947265625
261630,-0.3707427978515625,-0.605010986328125,0.6455078125
261631,-0.4772796630859375,-0.60711669921875,0.553009033203125
261632,-0.54742431640625,-0.60406494140625,0.454010009765625
261633,-0.5748443603515625,-0.6110687255859375,0.355010986328125
261634,-0.546539306640625,-0.636505126953125,0.305023193359375
261635,-0.4837493896484375,-0.63592529296875,0.336181640625
261636,-0.4254150390625,-0.62249755859375,0.41693115234375
261637,-0.3394012451171875,-0.64105224609375,0.495758056640625
261638,-0.2125701904296875,-0.669158935546875,0.55413818359375
261639,-0.0576629638671875,-0.69122314453125,0.631317138671875
261640,0.1129150390625,-0.7147674560546875,0.7759246826171875
261641,0.27484130859375,-0.7372894287109375,0.9811859130859376
261642,0.446563720703125,-0.7604217529296875,1.223098754882812
261643,0.642120361328125,-0.760284423828125,1.43853759765625
261644,0.828887939453125,-0.7039947509765625,1.532333374023438
261645,0.9893035888671876,-0.652801513671875,1.488754272460938
261646,1.116714477539062,-0.6192474365234375,1.399276733398438
261647,1.1708984375,-0.551910400390625,1.284774780273438
261648,1.12353515625,-0.4583587646484375,1.092117309570312
261649,1.04656982421875,-0.37127685546875,0.9221343994140624
261650,1.036087036132812,-0.327606201171875,0.822967529296875
261651,1.045745849609375,-0.2822265625,0.7599029541015625
261652,1.041305541992188,-0.2379913330078125,0.7130584716796875
261653,1.011978149414062,-0.2159423828125,0.6623382568359375
261654,0.95281982421875,-0.213623046875,0.646575927734375
261655,0.897613525390625,-0.2268218994140625,0.634552001953125
261656,0.8814544677734375,-0.249725341796875,0.613616943359375
261657,0.8932342529296875,-0.2795867919921875,0.5892181396484375
261658,0.8818359375,-0.3073577880859375,0.5568695068359375
261659,0.8486785888671875,-0.3291778564453125,0.5446929931640625
261660,0.8053436279296875,-0.33642578125,0.573089599609375
261661,0.757354736328125,-0.3418121337890625,0.6375274658203125
261662,0.712432861328125,-0.3582305908203125,0.7139892578125
261663,0.6804046630859375,-0.386871337890625,0.7880401611328125
261664,0.6612701416015625,-0.41815185546875,0.84442138671875
261665,0.6436767578125,-0.433929443359375,0.878143310546875
261666,0.6163482666015625,-0.411407470703125,0.8812408447265625
261667,0.5930023193359375,-0.446868896484375,0.876373291015625
261668,0.5595855712890625,-0.486663818359375,0.896759033203125
261669,0.5284881591796875,-0.40887451171875,0.8643798828125
261670,0.490875244140625,-0.34271240234375,0.865447998046875
261671,0.4472198486328125,-0.333160400390625,0.897308349609375
261672,0.3977813720703125,-0.3752899169921875,0.90509033203125
261673,0.3055877685546875,-0.433746337890625,0.9080963134765624
261674,0.1636199951171875,-0.459869384765625,0.8983917236328125
261675,0.0262298583984375,-0.4598236083984375,0.9037933349609376
261676,-0.073455810546875,-0.473236083984375,0.92364501953125
261677,-0.1632232666015625,-0.53863525390625,0.9156341552734376
261678,-0.2689056396484375,-0.61004638671875,0.867828369140625
261679,-0.3710784912109375,-0.65570068359375,0.7386627197265625
261680,-0.425048828125,-0.699432373046875,0.5854034423828125
261681,-0.4553375244140625,-0.7316741943359375,0.5009765625
261682,-0.4644012451171875,-0.7688140869140625,0.48553466796875
261683,-0.4695281982421875,-0.816680908203125,0.4937744140625
261684,-0.4620361328125,-0.8529815673828125,0.521575927734375
261685,-0.398956298828125,-0.8583221435546875,0.5490875244140625
261686,-0.3075103759765625,-0.8372039794921875,0.563690185546875
261687,-0.2192535400390625,-0.7871246337890625,0.5907440185546875
261688,-0.14483642578125,-0.7327117919921875,0.6266632080078125
261689,-0.1024932861328125,-0.7062835693359375,0.6666259765625
261690,-0.1092681884765625,-0.68212890625,0.746856689453125
261691,-0.14190673828125,-0.66961669921875,0.8310699462890625
261692,-0.1744537353515625,-0.6981353759765625,0.8869171142578125
261693,-0.17694091796875,-0.75042724609375,0.9193878173828124
261694,-0.1494293212890625,-0.789398193359375,0.9095916748046876
261695,-0.108245849609375,-0.75830078125,0.92669677734375
261696,-0.046600341796875,-0.6675872802734375,0.9875335693359376
261697,0.0380096435546875,-0.5907135009765625,1.054794311523438
261698,0.1185302734375,-0.55767822265625,1.073074340820312
261699,0.1585235595703125,-0.5035858154296875,1.064529418945312
261700,0.19195556640625,-0.459442138671875,1.031387329101562
261701,0.2205810546875,-0.4332733154296875,1.00140380859375
261702,0.2619171142578125,-0.3925933837890625,0.98077392578125
261703,0.3066864013671875,-0.3321685791015625,0.940155029296875
261704,0.3476104736328125,-0.273773193359375,0.891815185546875
261705,0.3766937255859375,-0.2256317138671875,0.845916748046875
261706,0.3911285400390625,-0.1990203857421875,0.8003997802734375
261707,0.4261474609375,-0.1930999755859375,0.762908935546875
261708,0.46575927734375,-0.185302734375,0.7024688720703125
261709,0.5126495361328125,-0.1732177734375,0.6701812744140625
261710,0.57965087890625,-0.148284912109375,0.672607421875
261711,0.671142578125,-0.104888916015625,0.683319091796875
261712,0.768524169921875,-0.0605010986328125,0.693450927734375
261713,0.87091064453125,-0.03662109375,0.6961212158203125
261714,0.97100830078125,-0.0515899658203125,0.70233154296875
261715,1.03662109375,-0.08160400390625,0.7216796875
261716,1.054031372070312,-0.114776611328125,0.756988525390625
261717,1.005218505859375,-0.132568359375,0.8207244873046875
261718,0.9092254638671876,-0.14007568359375,0.8972625732421875
261719,0.8189544677734375,-0.160430908203125,0.975830078125
261720,0.751495361328125,-0.1890106201171875,1.033340454101562
261721,0.693084716796875,-0.221954345703125,1.06048583984375
261722,0.6421051025390625,-0.2677001953125,1.069107055664062
261723,0.579833984375,-0.320648193359375,1.052154541015625
261724,0.49456787109375,-0.378631591796875,1.018218994140625
261725,0.3944091796875,-0.440948486328125,0.9869842529296876
261726,0.3049468994140625,-0.4925079345703125,0.9793853759765624
261727,0.222442626953125,-0.51678466796875,0.98406982421875
261728,0.13336181640625,-0.527252197265625,0.967681884765625
261729,0.0447540283203125,-0.5251312255859375,0.9062957763671876
261730,-0.0228729248046875,-0.5094451904296875,0.7957611083984375
261731,-0.063751220703125,-0.5229644775390625,0.7220001220703125
261732,-0.057159423828125,-0.5262298583984375,0.6122589111328125
261733,-0.033172607421875,-0.5623626708984375,0.533538818359375
261734,0.013885498046875,-0.6174774169921875,0.4880523681640625
261735,0.1090850830078125,-0.7036590576171875,0.477264404296875
261736,0.200592041015625,-0.7909088134765625,0.540191650390625
261737,0.272003173828125,-0.8207550048828125,0.63555908203125
261738,0.351837158203125,-0.8265838623046875,0.772003173828125
261739,0.3956298828125,-0.8256378173828125,0.9186553955078124
261740,0.3813934326171875,-0.8268585205078125,1.024002075195312
261741,0.31329345703125,-0.8321990966796875,1.073348999023438
261742,0.2005767822265625,-0.8199005126953125,1.062057495117188
261743,0.07135009765625,-0.777862548828125,1.0211181640625
261744,-0.0332489013671875,-0.720062255859375,0.9907379150390624
261745,-0.100372314453125,-0.67071533203125,0.940399169921875
261746,-0.1461181640625,-0.6418609619140625,0.84869384765625
261747,-0.1876678466796875,-0.6370391845703125,0.75555419921875
261748,-0.2215728759765625,-0.6443634033203125,0.6796722412109375
261749,-0.24359130859375,-0.6515655517578125,0.6202545166015625
261750,-0.24951171875,-0.6500244140625,0.5828094482421875
261751,-0.2369842529296875,-0.6265716552734375,0.5640716552734375
261752,-0.2110137939453125,-0.574493408203125,0.5684051513671875
261753,-0.17559814453125,-0.519622802734375,0.582183837890625
261754,-0.1340179443359375,-0.4760284423828125,0.59112548828125
261755,-0.0870208740234375,-0.4391632080078125,0.600677490234375
261756,-0.031280517578125,-0.3983001708984375,0.6152191162109375
261757,0.0283355712890625,-0.367095947265625,0.637176513671875
261758,0.087554931640625,-0.34619140625,0.6901092529296875
261759,0.1347503662109375,-0.3216705322265625,0.7791900634765625
261760,0.146575927734375,-0.313934326171875,0.8605499267578125
261761,0.1558380126953125,-0.3454742431640625,0.914947509765625
261762,0.1823272705078125,-0.3751983642578125,0.94573974609375
261763,0.252960205078125,-0.3963775634765625,0.9691162109375
261764,0.33660888671875,-0.3702545166015625,0.9844818115234376
261765,0.419464111328125,-0.33380126953125,0.97833251953125
261766,0.50946044921875,-0.344879150390625,0.9569549560546876
261767,0.6108245849609375,-0.3761138916015625,0.91998291015625
261768,0.7158355712890625,-0.381927490234375,0.8855743408203125
261769,0.804656982421875,-0.3686370849609375,0.8571624755859375
261770,0.870025634765625,-0.3508453369140625,0.842803955078125
261771,0.927642822265625,-0.3430938720703125,0.8575439453125
261772,0.9748382568359376,-0.3416290283203125,0.8789520263671875
261773,0.9956207275390624,-0.3314971923828125,0.91021728515625
261774,1.000228881835938,-0.3120880126953125,0.9250335693359376
261775,1.011123657226562,-0.296844482421875,0.9263458251953124
261776,1.022140502929688,-0.2833099365234375,0.9182281494140624
261777,1.01312255859375,-0.2754974365234375,0.88482666015625
261778,0.983551025390625,-0.2815704345703125,0.83489990234375
261779,0.9401092529296876,-0.30078125,0.7732086181640625
261780,0.886932373046875,-0.309600830078125,0.7030792236328125
261781,0.8364105224609375,-0.3200225830078125,0.6467742919921875
261782,0.7798004150390625,-0.345428466796875,0.612701416015625
261783,0.7183380126953125,-0.3630828857421875,0.5970306396484375
261784,0.660675048828125,-0.365966796875,0.618377685546875
261785,0.614105224609375,-0.38714599609375,0.6734771728515625
261786,0.56036376953125,-0.4033355712890625,0.7463531494140625
261787,0.516204833984375,-0.419158935546875,0.839752197265625
261788,0.4933624267578125,-0.433135986328125,0.960174560546875
261789,0.4790191650390625,-0.4319915771484375,1.080596923828125
261790,0.47381591796875,-0.4609222412109375,1.179519653320312
261791,0.4480133056640625,-0.5229034423828125,1.243301391601562
261792,0.3856048583984375,-0.583251953125,1.282073974609375
261793,0.3058929443359375,-0.614898681640625,1.252456665039062
261794,0.2230987548828125,-0.602630615234375,1.193252563476562
261795,0.15179443359375,-0.5542144775390625,1.147674560546875
261796,0.1052703857421875,-0.491943359375,1.038177490234375
261797,0.0674896240234375,-0.4472198486328125,0.8967742919921875
261798,0.031402587890625,-0.413421630859375,0.7762603759765625
261799,-0.0034332275390625,-0.38897705078125,0.70904541015625
261800,-0.0339508056640625,-0.3856048583984375,0.69140625
261801,-0.04296875,-0.41448974609375,0.7179107666015625
261802,-0.0629119873046875,-0.490234375,0.7428741455078125
261803,-0.1001739501953125,-0.571868896484375,0.7717132568359375
261804,-0.1308746337890625,-0.622222900390625,0.809600830078125
261805,-0.154449462890625,-0.6485443115234375,0.848419189453125
261806,-0.169281005859375,-0.669342041015625,0.857421875
261807,-0.18157958984375,-0.702117919921875,0.8234100341796875
261808,-0.198974609375,-0.733551025390625,0.7733917236328125
261809,-0.23883056640625,-0.7650146484375,0.7193450927734375
261810,-0.305908203125,-0.7947845458984375,0.6988525390625
261811,-0.3647308349609375,-0.802947998046875,0.71514892578125
261812,-0.3962554931640625,-0.777862548828125,0.7530364990234375
261813,-0.386444091796875,-0.7129974365234375,0.7769775390625
261814,-0.34844970703125,-0.6365203857421875,0.75823974609375
261815,-0.2913818359375,-0.581939697265625,0.724578857421875
261816,-0.225677490234375,-0.539337158203125,0.68804931640625
261817,-0.163330078125,-0.5261383056640625,0.6495513916015625
261818,-0.10595703125,-0.53582763671875,0.66400146484375
261819,-0.048980712890625,-0.5283050537109375,0.7262420654296875
261820,-0.0152587890625,-0.5389556884765625,0.7919464111328125
261821,-0.0087432861328125,-0.5586395263671875,0.8356170654296875
261822,-0.02459716796875,-0.5390777587890625,0.876129150390625
261823,-0.0428466796875,-0.5152740478515625,0.8775787353515625
261824,-0.0269317626953125,-0.498077392578125,0.87371826171875
261825,-0.011810302734375,-0.4757080078125,0.8523101806640625
261826,-0.0006256103515625,-0.4404449462890625,0.8249053955078125
261827,0.0248870849609375,-0.38848876953125,0.805572509765625
261828,0.045135498046875,-0.30816650390625,0.8045654296875
261829,0.0837860107421875,-0.2413177490234375,0.817230224609375
261830,0.158935546875,-0.2313995361328125,0.8025360107421875
261831,0.2383880615234375,-0.2401885986328125,0.7716064453125
261832,0.3184051513671875,-0.2314910888671875,0.7472076416015625
261833,0.3991546630859375,-0.227081298828125,0.698455810546875
261834,0.4902801513671875,-0.214141845703125,0.6644744873046875
261835,0.5999755859375,-0.200439453125,0.6583099365234375
261836,0.6954803466796875,-0.179229736328125,0.6569671630859375
261837,0.7960968017578125,-0.1717529296875,0.67694091796875
261838,0.8809356689453125,-0.158538818359375,0.718841552734375
261839,0.938018798828125,-0.1498870849609375,0.7890625
261840,0.95196533203125,-0.152069091796875,0.869964599609375
261841,0.9315338134765624,-0.1545257568359375,0.961669921875
261842,0.8910980224609375,-0.15020751953125,1.068115234375
261843,0.836883544921875,-0.15301513671875,1.173370361328125
261844,0.7699432373046875,-0.1675262451171875,1.24560546875
261845,0.6939697265625,-0.19403076171875,1.288284301757812
261846,0.5976104736328125,-0.2257843017578125,1.301666259765625
261847,0.47479248046875,-0.2528839111328125,1.301910400390625
261848,0.337432861328125,-0.2931060791015625,1.283218383789062
261849,0.2104034423828125,-0.355194091796875,1.231201171875
261850,0.129913330078125,-0.4225616455078125,1.146743774414062
261851,0.079925537109375,-0.46832275390625,1.062164306640625
261852,0.03955078125,-0.4991607666015625,0.9973297119140624
261853,-0.01910400390625,-0.517181396484375,0.921417236328125
261854,-0.080810546875,-0.525848388671875,0.836883544921875
261855,-0.115570068359375,-0.529571533203125,0.76849365234375
261856,-0.1046600341796875,-0.5367279052734375,0.73284912109375
261857,-0.054351806640625,-0.5528411865234375,0.7030792236328125
261858,0.005340576171875,-0.5651702880859375,0.6817474365234375
261859,0.07861328125,-0.5887451171875,0.6643218994140625
261860,0.17626953125,-0.62738037109375,0.6713104248046875
261861,0.2837066650390625,-0.6630401611328125,0.7244415283203125
261862,0.3645172119140625,-0.67425537109375,0.7872314453125
261863,0.445098876953125,-0.6974029541015625,0.86383056640625
261864,0.5030059814453125,-0.724761962890625,0.9484710693359376
261865,0.4824066162109375,-0.7330169677734375,1.025146484375
261866,0.3943023681640625,-0.7125091552734375,1.079269409179688
261867,0.2399444580078125,-0.668304443359375,1.095977783203125
261868,0.0753631591796875,-0.6239471435546875,1.107254028320312
261869,-0.0617523193359375,-0.60858154296875,1.089675903320312
261870,-0.1797332763671875,-0.5991363525390625,0.9861907958984376
261871,-0.251434326171875,-0.5907440185546875,0.8329010009765625
261872,-0.2934112548828125,-0.5829010009765625,0.66485595703125
261873,-0.3176116943359375,-0.57586669921875,0.4899444580078125
261874,-0.2979888916015625,-0.5703582763671875,0.3532867431640625
261875,-0.2522735595703125,-0.55828857421875,0.259185791015625
261876,-0.1956634521484375,-0.5356597900390625,0.19927978515625
261877,-0.132568359375,-0.4898223876953125,0.1788177490234375
261878,-0.0683441162109375,-0.4251861572265625,0.1964263916015625
261879,-0.0145721435546875,-0.3701324462890625,0.249114990234375
261880,0.0332794189453125,-0.32916259765625,0.3378143310546875
261881,0.0783538818359375,-0.3226318359375,0.4446563720703125
261882,0.114105224609375,-0.345245361328125,0.5647125244140625
261883,0.1436767578125,-0.3655853271484375,0.72186279296875
261884,0.1738433837890625,-0.357421875,0.8977508544921875
261885,0.225982666015625,-0.344573974609375,1.028640747070312
261886,0.32183837890625,-0.333343505859375,1.1187744140625
261887,0.453125,-0.3371734619140625,1.189117431640625
261888,0.619384765625,-0.3563232421875,1.23004150390625
261889,0.79595947265625,-0.3762054443359375,1.245941162109375
261890,0.9261474609375,-0.374969482421875,1.21209716796875
261891,0.974395751953125,-0.3529510498046875,1.167190551757812
261892,0.9705047607421876,-0.3177337646484375,1.100799560546875
261893,0.8962860107421875,-0.2630462646484375,1.023193359375
261894,0.814605712890625,-0.258514404296875,0.9342041015625
261895,0.7593841552734375,-0.273193359375,0.8402862548828125
261896,0.7100067138671875,-0.2716064453125,0.7748870849609375
261897,0.6678619384765625,-0.265533447265625,0.7610931396484375
261898,0.65374755859375,-0.2673492431640625,0.7826995849609375
261899,0.6803131103515625,-0.286773681640625,0.8219757080078125
261900,0.7331695556640625,-0.3336181640625,0.8671417236328125
261901,0.7867279052734375,-0.389373779296875,0.9021453857421876
261902,0.839874267578125,-0.445709228515625,0.93109130859375
261903,0.88214111328125,-0.4943695068359375,0.9536590576171876
261904,0.9125518798828124,-0.545013427734375,0.9787139892578124
261905,0.922454833984375,-0.5897979736328125,0.9999542236328124
261906,0.89764404296875,-0.608123779296875,1.019454956054688
261907,0.8446502685546875,-0.5975189208984375,1.033096313476562
261908,0.75909423828125,-0.552764892578125,1.021453857421875
261909,0.6771392822265625,-0.51434326171875,1.005859375
261910,0.5984649658203125,-0.5048828125,0.977294921875
261911,0.4718780517578125,-0.5057830810546875,0.928924560546875
261912,0.341888427734375,-0.47210693359375,0.9215087890625
261913,0.3076324462890625,-0.3564300537109375,0.9430694580078124
261914,0.33209228515625,-0.2902679443359375,0.8568572998046875
261915,0.34503173828125,-0.2768402099609375,0.7606658935546875
261916,0.2878875732421875,-0.2764892578125,0.7473297119140625
261917,0.2161865234375,-0.2358551025390625,0.7296600341796875
261918,0.2465362548828125,-0.161834716796875,0.6836090087890625
261919,0.311431884765625,-0.1031341552734375,0.6710205078125
261920,0.3251495361328125,-0.0953521728515625,0.713470458984375
261921,0.2920989990234375,-0.113861083984375,0.7769775390625
261922,0.277374267578125,-0.139892578125,0.82611083984375
261923,0.282989501953125,-0.16351318359375,0.8876953125
261924,0.296173095703125,-0.1198883056640625,0.9316864013671876
261925,0.3226165771484375,-0.06640625,0.9745941162109376
261926,0.3007659912109375,-0.093536376953125,1.039016723632812
261927,0.2759857177734375,-0.165191650390625,1.044158935546875
261928,0.2987823486328125,-0.22857666015625,0.98614501953125
261929,0.3489837646484375,-0.302642822265625,0.8978424072265625
261930,0.4222564697265625,-0.3868408203125,0.8178863525390625
261931,0.484710693359375,-0.471435546875,0.76947021484375
