time_idx,accelerometerAccelerationX(G),accelerometerAccelerationY(G),accelerometerAccelerationZ(G)
40000,0.2120819091796875,0.9937591552734376,0.0155181884765625
40001,0.2071533203125,0.9808197021484376,0.013031005859375
40002,0.2047271728515625,0.9686126708984376,0.013702392578125
40003,0.2043304443359375,0.96044921875,0.0140228271484375
40004,0.203704833984375,0.959747314453125,0.010284423828125
40005,0.2041168212890625,0.9644927978515624,0.0089263916015625
40006,0.2064361572265625,0.97161865234375,0.0081329345703125
40007,0.2048797607421875,0.9744720458984376,0.0051116943359375
40008,0.2069854736328125,0.973236083984375,0.0020904541015625
40009,0.204864501953125,0.977203369140625,-0.00152587890625
40010,0.203887939453125,0.979248046875,0.00067138671875
40011,0.201324462890625,0.982391357421875,0.00238037109375
40012,0.1980743408203125,0.9865875244140624,0.0055084228515625
40013,0.1948394775390625,0.9899749755859376,0.0072021484375
40014,0.1907501220703125,0.9893035888671876,0.0086212158203125
40015,0.1879119873046875,0.9884490966796876,0.0092315673828125
40016,0.1867218017578125,0.982513427734375,0.0102996826171875
40017,0.1851959228515625,0.97802734375,0.00860595703125
40018,0.1916656494140625,0.9702911376953124,0.0067901611328125
40019,0.197662353515625,0.9615020751953124,0.0045928955078125
40020,0.2046356201171875,0.9563751220703124,0.0014801025390625
40021,0.2054595947265625,0.957733154296875,-0.0023345947265625
40022,0.208648681640625,0.9583740234375,-0.0069732666015625
40023,0.20989990234375,0.964202880859375,-0.0061798095703125
40024,0.2068328857421875,0.9734649658203124,-0.005126953125
40025,0.2027740478515625,0.9847869873046876,-0.0013580322265625
40026,0.1978759765625,0.9945220947265624,0.00335693359375
40027,0.19232177734375,0.9948883056640624,0.008331298828125
40028,0.18304443359375,0.9970703125,0.0113372802734375
40029,0.1748504638671875,0.994659423828125,0.0124053955078125
40030,0.1721954345703125,0.9864044189453124,0.011077880859375
40031,0.1720123291015625,0.9813690185546876,0.0092315673828125
40032,0.16827392578125,0.9792938232421876,0.0069427490234375
40033,0.1645660400390625,0.98492431640625,0.0068206787109375
40034,0.15777587890625,0.9927978515625,0.00299072265625
40035,0.149932861328125,1.001495361328125,0.003173828125
40036,0.1405792236328125,1.010238647460938,0.0037078857421875
40037,0.1301116943359375,1.017898559570312,0.0052490234375
40038,0.121978759765625,1.016311645507812,0.0033111572265625
40039,0.11578369140625,1.0140380859375,-0.0008087158203125
40040,0.1108245849609375,1.0103759765625,-0.0088653564453125
40041,0.1103668212890625,1.005203247070312,-0.01763916015625
40042,0.1128387451171875,1.00054931640625,-0.0247344970703125
40043,0.113067626953125,0.99530029296875,-0.0281982421875
40044,0.11114501953125,0.9880218505859376,-0.0292205810546875
40045,0.1057586669921875,0.974700927734375,-0.02642822265625
40046,0.09735107421875,0.9620513916015624,-0.0237579345703125
40047,0.0848846435546875,0.954132080078125,-0.0194854736328125
40048,0.0708465576171875,0.952239990234375,-0.0139923095703125
40049,0.0549468994140625,0.9534149169921876,-0.0097198486328125
40050,0.0406494140625,0.9588623046875,-0.0062103271484375
40051,0.025787353515625,0.9701080322265624,-0.0077667236328125
40052,0.016082763671875,0.9798126220703124,-0.0099029541015625
40053,0.009307861328125,0.989593505859375,-0.0117645263671875
40054,0.007293701171875,0.9959716796875,-0.0162353515625
40055,0.009490966796875,0.9986724853515624,-0.0183563232421875
40056,0.0184173583984375,0.9972686767578124,-0.020477294921875
40057,0.0277099609375,0.995269775390625,-0.02301025390625
40058,0.0351715087890625,0.9984588623046876,-0.024261474609375
40059,0.044189453125,1.005020141601562,-0.0237274169921875
40060,0.05224609375,1.012725830078125,-0.0261077880859375
40061,0.05792236328125,1.021453857421875,-0.0284576416015625
40062,0.0550079345703125,1.026947021484375,-0.0334930419921875
40063,0.0447845458984375,1.024139404296875,-0.0348358154296875
40064,0.0307159423828125,1.012969970703125,-0.0300445556640625
40065,0.0131378173828125,1.001922607421875,-0.02783203125
40066,-0.0062408447265625,0.99151611328125,-0.0312652587890625
40067,-0.02105712890625,0.9839935302734376,-0.0365142822265625
40068,-0.029388427734375,0.9801177978515624,-0.041107177734375
40069,-0.032806396484375,0.9796142578125,-0.043243408203125
40070,-0.0344390869140625,0.9818267822265624,-0.0462493896484375
40071,-0.0339202880859375,0.9810791015625,-0.0502471923828125
40072,-0.0293731689453125,0.97991943359375,-0.050750732421875
40073,-0.0243072509765625,0.979278564453125,-0.0492401123046875
40074,-0.01837158203125,0.977386474609375,-0.04669189453125
40075,-0.0128631591796875,0.975250244140625,-0.044525146484375
40076,-0.007537841796875,0.9761199951171876,-0.041412353515625
40077,-0.00103759765625,0.982666015625,-0.0396881103515625
40078,0.0063323974609375,0.9912872314453124,-0.036590576171875
40079,0.0146636962890625,1.000396728515625,-0.03338623046875
40080,0.02392578125,1.005828857421875,-0.0286407470703125
40081,0.0315093994140625,1.005294799804688,-0.0257110595703125
40082,0.03717041015625,1.0020751953125,-0.021270751953125
40083,0.043304443359375,0.999267578125,-0.0166778564453125
40084,0.0473175048828125,1.001602172851562,-0.0137176513671875
40085,0.049774169921875,1.006622314453125,-0.0128936767578125
40086,0.0531768798828125,1.011886596679688,-0.0117950439453125
40087,0.0548553466796875,1.0174560546875,-0.0105133056640625
40088,0.055419921875,1.022491455078125,-0.0084228515625
40089,0.0521240234375,1.02655029296875,-0.0062255859375
40090,0.048980712890625,1.030319213867188,-0.0056610107421875
40091,0.04632568359375,1.035781860351562,-0.0036468505859375
40092,0.043731689453125,1.041641235351562,-0.0047607421875
40093,0.04248046875,1.045654296875,-0.004852294921875
40094,0.0402374267578125,1.047805786132812,-0.0051422119140625
40095,0.04150390625,1.049453735351562,-0.0039520263671875
40096,0.0420379638671875,1.052902221679688,-0.0042266845703125
40097,0.0366058349609375,1.060272216796875,-0.0051727294921875
40098,0.03033447265625,1.066192626953125,-0.0066680908203125
40099,0.023284912109375,1.068984985351562,-0.006927490234375
40100,0.017333984375,1.062576293945312,-0.010498046875
40101,0.017425537109375,1.047805786132812,-0.0146484375
40102,0.01416015625,1.035888671875,-0.01739501953125
40103,0.007171630859375,1.027450561523438,-0.022491455078125
40104,-0.0094451904296875,1.018707275390625,-0.0313873291015625
40105,-0.024383544921875,1.006195068359375,-0.03521728515625
40106,-0.0391082763671875,0.9952850341796876,-0.039459228515625
40107,-0.0556488037109375,0.98828125,-0.0439910888671875
40108,-0.06951904296875,0.9842071533203124,-0.0516510009765625
40109,-0.076995849609375,0.9846343994140624,-0.063934326171875
40110,-0.07989501953125,0.98883056640625,-0.0742645263671875
40111,-0.077911376953125,0.9910430908203124,-0.0844268798828125
40112,-0.0753631591796875,0.9891204833984376,-0.0930328369140625
40113,-0.0699615478515625,0.98260498046875,-0.09490966796875
40114,-0.0623779296875,0.9747772216796876,-0.0893402099609375
40115,-0.0557403564453125,0.97015380859375,-0.0826416015625
40116,-0.045806884765625,0.9665985107421876,-0.0745849609375
40117,-0.0335540771484375,0.9634552001953124,-0.0647735595703125
40118,-0.019683837890625,0.960845947265625,-0.055389404296875
40119,-0.0056610107421875,0.9578094482421876,-0.049163818359375
40120,0.0089874267578125,0.956573486328125,-0.0423736572265625
40121,0.0209503173828125,0.9535980224609376,-0.0381927490234375
40122,0.0276947021484375,0.9522552490234376,-0.0332489013671875
40123,0.0325164794921875,0.9542083740234376,-0.02886962890625
40124,0.035369873046875,0.9527740478515624,-0.02960205078125
40125,0.0349273681640625,0.9499664306640624,-0.0331573486328125
40126,0.0354766845703125,0.946441650390625,-0.039764404296875
40127,0.037567138671875,0.94317626953125,-0.0471343994140625
40128,0.0436859130859375,0.9384918212890624,-0.0555572509765625
40129,0.050384521484375,0.9362640380859376,-0.0609130859375
40130,0.054595947265625,0.9405364990234376,-0.059234619140625
40131,0.05712890625,0.9510498046875,-0.0504913330078125
40132,0.0573883056640625,0.9634246826171876,-0.0398101806640625
40133,0.0514984130859375,0.9800262451171876,-0.0248870849609375
40134,0.0424041748046875,1.00225830078125,-0.0090179443359375
40135,0.0362091064453125,1.025421142578125,0.0070037841796875
40136,0.029205322265625,1.0458984375,0.01519775390625
40137,0.0198974609375,1.05975341796875,0.0143280029296875
40138,0.014862060546875,1.062606811523438,0.0114898681640625
40139,0.01495361328125,1.062026977539062,0.0103759765625
40140,0.0134124755859375,1.058975219726562,0.004791259765625
40141,0.020172119140625,1.04827880859375,-0.00341796875
40142,0.0303802490234375,1.029052734375,-0.0118560791015625
40143,0.045166015625,1.011276245117188,-0.0187225341796875
40144,0.065155029296875,1.001052856445312,-0.0191650390625
40145,0.0891265869140625,0.9933929443359376,-0.0171051025390625
40146,0.1132659912109375,0.9915924072265624,-0.013671875
40147,0.137237548828125,0.9970855712890624,-0.0131988525390625
40148,0.16064453125,1.010238647460938,-0.017547607421875
40149,0.1840972900390625,1.02197265625,-0.0170745849609375
40150,0.1971588134765625,1.03460693359375,-0.0120391845703125
40151,0.2027435302734375,1.046066284179688,-0.0012664794921875
40152,0.1983489990234375,1.051712036132812,0.013641357421875
40153,0.1779937744140625,1.047073364257812,0.0203704833984375
40154,0.14862060546875,1.032913208007812,0.02288818359375
40155,0.1180267333984375,1.013153076171875,0.024169921875
40156,0.094940185546875,0.9893646240234376,0.0179290771484375
40157,0.079254150390625,0.9660797119140624,0.00830078125
40158,0.072967529296875,0.9479217529296876,0.0021820068359375
40159,0.0689697265625,0.9431610107421876,-0.0025482177734375
40160,0.0657806396484375,0.9448394775390624,-0.00537109375
40161,0.0675811767578125,0.9528045654296876,-0.009796142578125
40162,0.071502685546875,0.9647369384765624,-0.01641845703125
40163,0.0804290771484375,0.9713897705078124,-0.01739501953125
40164,0.0935211181640625,0.97332763671875,-0.016754150390625
40165,0.1104888916015625,0.9706878662109376,-0.0128936767578125
40166,0.1244964599609375,0.9685516357421876,-0.0054168701171875
40167,0.1356353759765625,0.966094970703125,-0.0020599365234375
40168,0.1463165283203125,0.9685211181640624,0.003997802734375
40169,0.153076171875,0.9763946533203124,0.0063018798828125
40170,0.1593475341796875,0.9882965087890624,0.0162353515625
40171,0.1590576171875,0.9995880126953124,0.0237579345703125
40172,0.155975341796875,1.009384155273438,0.0305328369140625
40173,0.156219482421875,1.015518188476562,0.041473388671875
40174,0.1545257568359375,1.006790161132812,0.0407257080078125
40175,0.148040771484375,0.9947662353515624,0.0361785888671875
40176,0.1399078369140625,0.98370361328125,0.033447265625
40177,0.1259918212890625,0.9704437255859376,0.0278167724609375
40178,0.1068878173828125,0.9603424072265624,0.0213623046875
40179,0.0861053466796875,0.9552764892578124,0.011688232421875
40180,0.067779541015625,0.9539794921875,-0.002593994140625
40181,0.0564727783203125,0.9588165283203124,-0.023834228515625
40182,0.0516510009765625,0.9629974365234376,-0.0557403564453125
40183,0.0583648681640625,0.9691314697265624,-0.0852813720703125
40184,0.0781707763671875,0.981842041015625,-0.0981903076171875
40185,0.1137237548828125,1.005996704101562,-0.089630126953125
40186,0.1583099365234375,1.036636352539062,-0.063140869140625
40187,0.1995391845703125,1.057540893554688,-0.0283203125
40188,0.2310333251953125,1.056686401367188,0.001373291015625
40189,0.2414093017578125,1.040725708007812,0.026336669921875
40190,0.23358154296875,1.023696899414062,0.04754638671875
40191,0.22430419921875,1.0146484375,0.0587158203125
40192,0.2148895263671875,1.02099609375,0.06121826171875
40193,0.2059173583984375,1.04669189453125,0.063232421875
40194,0.2003021240234375,1.090606689453125,0.0697174072265625
40195,0.196380615234375,1.120391845703125,0.0361328125
40196,0.1807098388671875,1.119216918945312,-0.0009765625
40197,0.1660308837890625,1.087020874023438,-0.0136260986328125
40198,0.1629180908203125,1.01934814453125,-0.016632080078125
40199,0.1854400634765625,0.95745849609375,-0.035400390625
40200,0.21990966796875,0.921630859375,-0.072845458984375
40201,0.2669219970703125,0.902191162109375,-0.1190185546875
40202,0.3191986083984375,0.8955535888671875,-0.144012451171875
40203,0.3501129150390625,0.8984375,-0.1343841552734375
40204,0.3543853759765625,0.91290283203125,-0.102752685546875
40205,0.3479156494140625,0.9388275146484376,-0.0613250732421875
40206,0.3359527587890625,0.9654998779296876,-0.023529052734375
40207,0.315216064453125,0.976776123046875,0.0022735595703125
40208,0.29229736328125,0.9693756103515624,0.01312255859375
40209,0.2733917236328125,0.946624755859375,0.0079498291015625
40210,0.266021728515625,0.9167633056640624,-0.0106658935546875
40211,0.268829345703125,0.88751220703125,-0.0319061279296875
40212,0.2771759033203125,0.8697967529296875,-0.0542144775390625
40213,0.2891387939453125,0.8672637939453125,-0.079498291015625
40214,0.294769287109375,0.8783721923828125,-0.0989532470703125
40215,0.2965545654296875,0.904815673828125,-0.1125335693359375
40216,0.295684814453125,0.9398651123046876,-0.1182403564453125
40217,0.2841796875,0.97216796875,-0.1112823486328125
40218,0.2659149169921875,0.985931396484375,-0.0958251953125
40219,0.242706298828125,0.97918701171875,-0.0776214599609375
40220,0.2143402099609375,0.97393798828125,-0.05828857421875
40221,0.1849822998046875,0.9778900146484376,-0.047698974609375
40222,0.1587371826171875,0.99517822265625,-0.04156494140625
40223,0.1337890625,1.032608032226562,-0.035888671875
40224,0.110687255859375,1.086044311523438,-0.025604248046875
40225,0.0902099609375,1.137039184570312,-0.013427734375
40226,0.0767364501953125,1.164718627929688,-0.00439453125
40227,0.071563720703125,1.159988403320312,-1.52587890625e-05
40228,0.0729217529296875,1.12762451171875,-0.002410888671875
40229,0.0845794677734375,1.075027465820312,-0.007568359375
40230,0.1025543212890625,1.016143798828125,-0.019317626953125
40231,0.120819091796875,0.9681396484375,-0.032989501953125
40232,0.134552001953125,0.943359375,-0.0467529296875
40233,0.139373779296875,0.93597412109375,-0.0581207275390625
40234,0.1366424560546875,0.9392547607421876,-0.058746337890625
40235,0.130584716796875,0.9483795166015624,-0.050689697265625
40236,0.1114044189453125,0.9614105224609376,-0.0406494140625
40237,0.0780181884765625,0.980133056640625,-0.028289794921875
40238,0.044647216796875,1.000579833984375,-0.017913818359375
40239,0.0147857666015625,1.013412475585938,-0.00604248046875
40240,-0.007720947265625,1.0211181640625,0.0023040771484375
40241,-0.0212860107421875,1.018798828125,0.0043792724609375
40242,-0.02496337890625,1.008926391601562,0.0062408447265625
40243,-0.0215301513671875,0.99835205078125,0.00372314453125
40244,-0.0099945068359375,0.98223876953125,-0.002227783203125
40245,0.0009613037109375,0.96807861328125,-0.00726318359375
40246,0.0099639892578125,0.9598541259765624,-0.01397705078125
40247,0.0193328857421875,0.9571380615234376,-0.0235595703125
40248,0.0255279541015625,0.957672119140625,-0.0336456298828125
40249,0.029388427734375,0.965423583984375,-0.0402374267578125
40250,0.0272216796875,0.9754791259765624,-0.037689208984375
40251,0.021728515625,0.9863128662109376,-0.02325439453125
40252,0.0122222900390625,0.9932403564453124,-0.002960205078125
40253,-0.00140380859375,0.996734619140625,0.021392822265625
40254,-0.015228271484375,0.9951934814453124,0.04119873046875
40255,-0.0299072265625,0.9969024658203124,0.049591064453125
40256,-0.0352630615234375,0.998809814453125,0.048614501953125
40257,-0.030426025390625,1.004302978515625,0.0438232421875
40258,-0.0236053466796875,1.010055541992188,0.032440185546875
40259,-0.0125579833984375,1.008331298828125,0.022186279296875
40260,-0.0030364990234375,1.007186889648438,0.0119781494140625
40261,0.0023956298828125,1.006668090820312,0.0002899169921875
40262,0.00537109375,0.9997711181640624,-0.0064544677734375
40263,0.006256103515625,0.997406005859375,-0.0088653564453125
40264,0.0099945068359375,0.992645263671875,-0.008758544921875
40265,0.013031005859375,0.9890899658203124,-0.00372314453125
40266,0.013580322265625,0.9891357421875,0.0006561279296875
40267,0.0121917724609375,0.9897613525390624,0.0039215087890625
40268,0.009429931640625,0.9894256591796876,0.00787353515625
40269,0.008880615234375,0.9911956787109376,0.0126953125
40270,0.0095672607421875,0.9921112060546876,0.0169219970703125
40271,0.0101165771484375,0.993499755859375,0.0185394287109375
40272,0.007293701171875,0.993743896484375,0.0168304443359375
40273,0.002838134765625,0.989105224609375,0.0182037353515625
40274,-0.006927490234375,0.9885711669921876,0.017425537109375
40275,-0.0186920166015625,0.9897918701171876,0.0151824951171875
40276,-0.0293121337890625,0.9931793212890624,0.0075225830078125
40277,-0.0391693115234375,0.9971923828125,0.0044708251953125
40278,-0.043548583984375,0.99871826171875,0.0065155029296875
40279,-0.042510986328125,0.9983367919921876,0.008270263671875
40280,-0.036865234375,0.9942779541015624,0.0107269287109375
40281,-0.0269317626953125,0.990234375,0.011962890625
40282,-0.016082763671875,0.990203857421875,0.014404296875
40283,-0.0081329345703125,0.993133544921875,0.01739501953125
40284,-0.00042724609375,0.9956817626953124,0.0203094482421875
40285,0.005126953125,1.001174926757812,0.022918701171875
40286,0.0105438232421875,1.007614135742188,0.024078369140625
40287,0.0165252685546875,1.011978149414062,0.0249176025390625
40288,0.021575927734375,1.013671875,0.0261688232421875
40289,0.02630615234375,1.01165771484375,0.0281524658203125
40290,0.0301971435546875,1.005355834960938,0.0315704345703125
40291,0.0345611572265625,0.99749755859375,0.034393310546875
40292,0.0381011962890625,0.9909820556640624,0.0359954833984375
40293,0.03857421875,0.9871368408203124,0.0355987548828125
40294,0.03759765625,0.9838104248046876,0.0349884033203125
40295,0.03729248046875,0.982147216796875,0.03582763671875
40296,0.0372161865234375,0.9841766357421876,0.0355377197265625
40297,0.0347900390625,0.98681640625,0.035736083984375
40298,0.034271240234375,0.987884521484375,0.0361785888671875
40299,0.0315399169921875,0.989532470703125,0.0377960205078125
40300,0.0285186767578125,0.9913330078125,0.0402069091796875
40301,0.0230712890625,0.9937286376953124,0.043792724609375
40302,0.0162200927734375,0.9946441650390624,0.0479583740234375
40303,0.0111541748046875,0.995269775390625,0.050140380859375
40304,0.0080108642578125,0.9963226318359376,0.0506439208984375
40305,0.0074462890625,0.994140625,0.0507659912109375
40306,0.009185791015625,0.994537353515625,0.0515594482421875
40307,0.0106658935546875,0.9922027587890624,0.05181884765625
40308,0.01422119140625,0.9925537109375,0.054046630859375
40309,0.016326904296875,0.9950714111328124,0.056060791015625
40310,0.0206451416015625,0.99822998046875,0.056182861328125
40311,0.02789306640625,1.00146484375,0.0557861328125
40312,0.0344390869140625,1.003021240234375,0.05340576171875
40313,0.039093017578125,1.0050048828125,0.054229736328125
40314,0.0440673828125,1.006423950195312,0.053680419921875
40315,0.04718017578125,1.005813598632812,0.05322265625
40316,0.048614501953125,1.004150390625,0.054534912109375
40317,0.04827880859375,1.001693725585938,0.0564422607421875
40318,0.043792724609375,0.9967498779296876,0.0557403564453125
40319,0.0370635986328125,0.9907073974609376,0.055877685546875
40320,0.033233642578125,0.9882659912109376,0.057586669921875
40321,0.0235443115234375,0.9847564697265624,0.0592803955078125
40322,0.0109710693359375,0.9888153076171876,0.0609893798828125
40323,-0.001251220703125,0.9932098388671876,0.0607452392578125
40324,-0.0098419189453125,0.996612548828125,0.0631866455078125
40325,-0.01727294921875,0.9996795654296876,0.06494140625
40326,-0.02264404296875,1.002182006835938,0.06805419921875
40327,-0.029632568359375,1.003829956054688,0.0691680908203125
40328,-0.034088134765625,1.002395629882812,0.06756591796875
40329,-0.025146484375,0.997802734375,0.073883056640625
40330,-0.0204620361328125,0.9904327392578124,0.0807952880859375
40331,-0.0480499267578125,1.017868041992188,0.0699005126953125
40332,-0.02825927734375,1.044357299804688,0.075775146484375
40333,0.0053863525390625,1.043106079101562,0.0817108154296875
40334,0.0306396484375,1.02935791015625,0.079376220703125
40335,0.0326690673828125,1.026412963867188,0.070526123046875
40336,0.0277862548828125,1.001678466796875,0.0676727294921875
40337,0.029052734375,0.97540283203125,0.069122314453125
40338,0.0408782958984375,0.961944580078125,0.0425872802734375
40339,0.0546417236328125,0.9705352783203124,0.0238800048828125
40340,0.0599517822265625,0.9945068359375,0.0481719970703125
40341,0.054962158203125,1.002059936523438,0.0770721435546875
40342,0.0450286865234375,0.995361328125,0.083892822265625
40343,0.034942626953125,0.996795654296875,0.06793212890625
40344,0.028289794921875,1.00299072265625,0.0513916015625
40345,0.025146484375,1.007675170898438,0.0486297607421875
40346,0.0249786376953125,1.01287841796875,0.0566253662109375
40347,0.027557373046875,1.014816284179688,0.063629150390625
40348,0.031158447265625,1.015518188476562,0.055908203125
40349,0.0380706787109375,1.012969970703125,0.0430908203125
40350,0.0440673828125,1.004043579101562,0.03155517578125
40351,0.05023193359375,0.9919891357421876,0.0271148681640625
40352,0.0533599853515625,0.9791259765625,0.02862548828125
40353,0.0481719970703125,0.9695281982421876,0.0366363525390625
40354,0.0376129150390625,0.9638824462890624,0.042388916015625
40355,0.0230255126953125,0.963165283203125,0.046722412109375
40356,0.009552001953125,0.9715118408203124,0.0517578125
40357,0.00103759765625,0.988372802734375,0.0545806884765625
40358,-0.003326416015625,1.011245727539062,0.054595947265625
40359,-0.003570556640625,1.03497314453125,0.0525665283203125
40360,0.0011138916015625,1.052642822265625,0.0463104248046875
40361,0.01080322265625,1.055450439453125,0.03515625
40362,0.0254669189453125,1.0382080078125,0.023590087890625
40363,0.042694091796875,1.0089111328125,0.0169830322265625
40364,0.05914306640625,0.97918701171875,0.0115203857421875
40365,0.0731048583984375,0.953948974609375,0.0067291259765625
40366,0.082489013671875,0.94036865234375,0.0037384033203125
40367,0.0874176025390625,0.936737060546875,-0.0031280517578125
40368,0.087646484375,0.941741943359375,-0.010833740234375
40369,0.0879974365234375,0.9476318359375,-0.016204833984375
40370,0.08758544921875,0.9559173583984376,-0.0152740478515625
40371,0.0867767333984375,0.962677001953125,-0.01104736328125
40372,0.0850067138671875,0.968536376953125,-0.0069427490234375
40373,0.0830535888671875,0.9733428955078124,-0.0036468505859375
40374,0.084075927734375,0.9756011962890624,-0.003265380859375
40375,0.0878143310546875,0.972900390625,-0.0064544677734375
40376,0.093170166015625,0.9701995849609376,-0.0096588134765625
40377,0.0974884033203125,0.9671478271484376,-0.012542724609375
40378,0.1014251708984375,0.9604034423828124,-0.0154571533203125
40379,0.1063232421875,0.9542236328125,-0.0186004638671875
40380,0.1107635498046875,0.9521484375,-0.019622802734375
40381,0.1168975830078125,0.95330810546875,-0.01995849609375
40382,0.1209869384765625,0.9582977294921876,-0.02032470703125
40383,0.123931884765625,0.96466064453125,-0.0186309814453125
40384,0.124114990234375,0.9703521728515624,-0.01220703125
40385,0.123870849609375,0.9744110107421876,-0.0039215087890625
40386,0.123321533203125,0.976104736328125,0.0047454833984375
40387,0.121429443359375,0.9785919189453124,0.011199951171875
40388,0.1166534423828125,0.9835968017578124,0.013031005859375
40389,0.1136322021484375,0.9878692626953124,0.011474609375
40390,0.110260009765625,0.992340087890625,0.01287841796875
40391,0.1062774658203125,0.9961395263671876,0.01715087890625
40392,0.1016998291015625,1.002166748046875,0.0244903564453125
40393,0.09698486328125,1.005172729492188,0.0302581787109375
40394,0.0891265869140625,1.005661010742188,0.034759521484375
40395,0.079742431640625,1.007293701171875,0.040618896484375
40396,0.0728302001953125,1.006240844726562,0.0449371337890625
40397,0.0626373291015625,1.005538940429688,0.0479736328125
40398,0.0539093017578125,1.005889892578125,0.0503387451171875
40399,0.0462188720703125,1.010650634765625,0.0549774169921875
40400,0.039825439453125,1.0167236328125,0.0565338134765625
40401,0.0344696044921875,1.020645141601562,0.055206298828125
40402,0.0329437255859375,1.02593994140625,0.05145263671875
40403,0.0311126708984375,1.030136108398438,0.04852294921875
40404,0.02899169921875,1.028533935546875,0.0497589111328125
40405,0.0306854248046875,1.027679443359375,0.0567626953125
40406,0.0343475341796875,1.023834228515625,0.0648956298828125
40407,0.0335540771484375,1.022994995117188,0.070587158203125
40408,0.0326995849609375,1.02020263671875,0.069305419921875
40409,0.0364532470703125,1.013320922851562,0.066802978515625
40410,0.038848876953125,1.008163452148438,0.0665435791015625
40411,0.038482666015625,1.006668090820312,0.0647735595703125
40412,0.03668212890625,1.008071899414062,0.0596160888671875
40413,0.0315704345703125,1.012069702148438,0.0560302734375
40414,0.0205230712890625,1.013031005859375,0.0579071044921875
40415,0.005157470703125,1.0079345703125,0.0604248046875
40416,-0.0115966796875,0.997039794921875,0.0592041015625
40417,-0.0239105224609375,0.9851226806640624,0.056060791015625
40418,-0.0344696044921875,0.978790283203125,0.0495452880859375
40419,-0.0451202392578125,0.9795379638671876,0.0414886474609375
40420,-0.0482940673828125,0.98126220703125,0.0342559814453125
40421,-0.0455780029296875,0.985198974609375,0.02984619140625
40422,-0.0412139892578125,0.9921722412109376,0.0270843505859375
40423,-0.0348968505859375,0.99737548828125,0.0277252197265625
40424,-0.0297393798828125,0.9969329833984376,0.028411865234375
40425,-0.0174713134765625,0.9913482666015624,0.03082275390625
40426,-0.0035552978515625,0.9842681884765624,0.0305328369140625
40427,0.01092529296875,0.9840240478515624,0.0264129638671875
40428,0.0296478271484375,0.9858245849609376,0.022003173828125
40429,0.0482940673828125,0.989410400390625,0.0142822265625
40430,0.064605712890625,0.9944610595703124,0.007720947265625
40431,0.07550048828125,1.0015869140625,0.0045623779296875
40432,0.085662841796875,1.00628662109375,0.0053253173828125
40433,0.092132568359375,1.011077880859375,0.0070037841796875
40434,0.092010498046875,1.014877319335938,0.00726318359375
40435,0.0889434814453125,1.013763427734375,0.0095672607421875
40436,0.0819854736328125,1.007858276367188,0.013671875
40437,0.0733489990234375,1.001052856445312,0.0158233642578125
40438,0.062530517578125,0.991729736328125,0.017913818359375
40439,0.049407958984375,0.978179931640625,0.018463134765625
40440,0.0368194580078125,0.9691314697265624,0.0189056396484375
40441,0.02264404296875,0.967926025390625,0.0206146240234375
40442,0.0115814208984375,0.97540283203125,0.0224151611328125
40443,0.0037384033203125,0.986724853515625,0.0219268798828125
40444,0.0001373291015625,0.9994049072265624,0.0186309814453125
40445,0.0008697509765625,1.011520385742188,0.0160675048828125
40446,0.0038909912109375,1.020126342773438,0.01275634765625
40447,0.006622314453125,1.025787353515625,0.01123046875
40448,0.0127716064453125,1.027053833007812,0.0112152099609375
40449,0.0198822021484375,1.024581909179688,0.012939453125
40450,0.0277099609375,1.016387939453125,0.014923095703125
40451,0.0366668701171875,1.0084228515625,0.0164031982421875
40452,0.0473175048828125,1.003662109375,0.017547607421875
40453,0.05548095703125,1.003158569335938,0.017913818359375
40454,0.063720703125,1.003326416015625,0.01715087890625
40455,0.06903076171875,1.007965087890625,0.01751708984375
40456,0.074371337890625,1.012603759765625,0.022003173828125
40457,0.07635498046875,1.014373779296875,0.0237884521484375
40458,0.0758514404296875,1.011215209960938,0.025634765625
40459,0.074920654296875,1.003494262695312,0.02679443359375
40460,0.0742340087890625,0.991790771484375,0.0269775390625
40461,0.0720977783203125,0.9818878173828124,0.0272216796875
40462,0.0702972412109375,0.9749755859375,0.0276031494140625
40463,0.0695953369140625,0.9745330810546876,0.026641845703125
40464,0.069000244140625,0.9797821044921876,0.0269012451171875
40465,0.069122314453125,0.98406982421875,0.028533935546875
40466,0.0674285888671875,0.9915924072265624,0.032928466796875
40467,0.0656890869140625,1.001907348632812,0.038909912109375
40468,0.0617218017578125,1.009872436523438,0.043853759765625
40469,0.05511474609375,1.017623901367188,0.04876708984375
40470,0.046966552734375,1.023422241210938,0.0538177490234375
40471,0.0410003662109375,1.02880859375,0.0569610595703125
40472,0.036376953125,1.031646728515625,0.058197021484375
40473,0.031219482421875,1.03607177734375,0.0561370849609375
40474,0.0282440185546875,1.041366577148438,0.051971435546875
40475,0.0307769775390625,1.043304443359375,0.04718017578125
40476,0.0371246337890625,1.041793823242188,0.0447845458984375
40477,0.04449462890625,1.040374755859375,0.0433349609375
40478,0.0537872314453125,1.040420532226562,0.0430755615234375
40479,0.067962646484375,1.034454345703125,0.0429840087890625
40480,0.0825347900390625,1.02447509765625,0.0459136962890625
40481,0.0961456298828125,1.0172119140625,0.0509033203125
40482,0.1067352294921875,1.011962890625,0.050506591796875
40483,0.1144256591796875,1.008499145507812,0.047210693359375
40484,0.1197509765625,1.00787353515625,0.043701171875
40485,0.1224517822265625,1.008163452148438,0.0366363525390625
40486,0.1190643310546875,1.010971069335938,0.0269622802734375
40487,0.1174468994140625,1.007736206054688,0.021820068359375
40488,0.123291015625,0.9997406005859376,0.01812744140625
40489,0.1289520263671875,0.9934234619140624,0.0142364501953125
40490,0.142974853515625,0.9883880615234376,0.011016845703125
40491,0.149627685546875,0.979095458984375,0.0052490234375
40492,0.1634674072265625,0.966064453125,0.0004119873046875
40493,0.185028076171875,0.95428466796875,-0.00189208984375
40494,0.2057037353515625,0.9451751708984376,-0.0145721435546875
40495,0.234649658203125,0.9340362548828124,-0.0391693115234375
40496,0.2774200439453125,0.916839599609375,-0.0701446533203125
40497,0.311492919921875,0.914337158203125,-0.0835723876953125
40498,0.3295745849609375,0.9483184814453124,-0.0615692138671875
40499,0.3258514404296875,0.9954071044921876,-0.028533935546875
40500,0.3089447021484375,1.022216796875,-0.0081024169921875
40501,0.29437255859375,1.023681640625,-0.011199951171875
40502,0.2866973876953125,1.008819580078125,-0.016143798828125
40503,0.27886962890625,0.9892425537109376,-0.017730712890625
40504,0.2673492431640625,0.967803955078125,-0.0185394287109375
40505,0.255584716796875,0.9470367431640624,-0.024139404296875
40506,0.24053955078125,0.9386749267578124,-0.0316162109375
40507,0.226715087890625,0.9373321533203124,-0.0454864501953125
40508,0.21697998046875,0.9430694580078124,-0.060791015625
40509,0.2077484130859375,0.9512786865234376,-0.076690673828125
40510,0.199005126953125,0.9634552001953124,-0.084808349609375
40511,0.19244384765625,0.9755706787109376,-0.08892822265625
40512,0.1891326904296875,0.9813385009765624,-0.0838623046875
40513,0.18603515625,0.97601318359375,-0.0776214599609375
40514,0.1824188232421875,0.961090087890625,-0.0723724365234375
40515,0.17852783203125,0.9449920654296876,-0.0675811767578125
40516,0.1750335693359375,0.9326629638671876,-0.0637359619140625
40517,0.1747589111328125,0.929595947265625,-0.067718505859375
40518,0.176177978515625,0.9345855712890624,-0.078033447265625
40519,0.1828155517578125,0.9428558349609376,-0.09295654296875
40520,0.1952667236328125,0.950408935546875,-0.108306884765625
40521,0.2057037353515625,0.9557037353515624,-0.1254425048828125
40522,0.2123565673828125,0.953521728515625,-0.1384735107421875
40523,0.2189178466796875,0.94403076171875,-0.1399993896484375
40524,0.2232513427734375,0.938446044921875,-0.13531494140625
40525,0.227325439453125,0.936676025390625,-0.1277313232421875
40526,0.234375,0.949066162109375,-0.110504150390625
40527,0.2448577880859375,0.9737091064453124,-0.095458984375
40528,0.25469970703125,1.006820678710938,-0.084197998046875
40529,0.253570556640625,1.04180908203125,-0.0670013427734375
40530,0.2410888671875,1.077804565429688,-0.0443115234375
40531,0.2267913818359375,1.103424072265625,-0.0256195068359375
40532,0.2224884033203125,1.10150146484375,-0.0169219970703125
40533,0.2365875244140625,1.060897827148438,-0.0175628662109375
40534,0.2291259765625,1.026153564453125,-0.0289764404296875
40535,0.1770782470703125,1.017837524414062,-0.039398193359375
40536,0.1382293701171875,1.003890991210938,-0.00775146484375
40537,0.106201171875,0.9852752685546876,0.009307861328125
40538,0.0882720947265625,0.9750823974609376,-0.02044677734375
40539,0.0771484375,0.9636688232421876,-0.0260772705078125
40540,0.0534820556640625,0.9363250732421876,-0.0263519287109375
40541,0.040130615234375,0.9109954833984376,-0.0545501708984375
40542,0.0335693359375,0.891815185546875,-0.0766448974609375
40543,0.0283355712890625,0.8700103759765625,-0.074859619140625
40544,0.0556182861328125,0.840576171875,-0.0652313232421875
40545,0.0774688720703125,0.8309173583984375,-0.0681304931640625
40546,0.085601806640625,0.8462677001953125,-0.0682830810546875
40547,0.1006011962890625,0.8748779296875,-0.0606842041015625
40548,0.1046600341796875,0.9116058349609376,-0.051483154296875
40549,0.0947113037109375,0.9538726806640624,-0.02996826171875
40550,0.0778656005859375,0.9938201904296876,0.0150299072265625
40551,0.056304931640625,1.026214599609375,0.0640869140625
40552,0.0385589599609375,1.048660278320312,0.100341796875
40553,0.02667236328125,1.0579833984375,0.1181182861328125
40554,0.0180816650390625,1.053787231445312,0.1172637939453125
40555,0.015472412109375,1.041946411132812,0.1117706298828125
40556,0.008941650390625,1.030136108398438,0.099456787109375
40557,-0.0079193115234375,1.017898559570312,0.0705718994140625
40558,-0.0245819091796875,1.014022827148438,0.0549163818359375
40559,-0.0387420654296875,1.018722534179688,0.037445068359375
40560,-0.060943603515625,1.018386840820312,0.011260986328125
40561,-0.0797576904296875,1.013336181640625,-0.016510009765625
40562,-0.085479736328125,1.004730224609375,-0.0305938720703125
40563,-0.0848846435546875,0.9892425537109376,-0.03643798828125
40564,-0.0858612060546875,0.9735870361328124,-0.0413970947265625
40565,-0.08807373046875,0.967864990234375,-0.0352935791015625
40566,-0.0834808349609375,0.9626922607421876,-0.0401458740234375
40567,-0.0699615478515625,0.9648590087890624,-0.0480499267578125
40568,-0.0476531982421875,0.9737396240234376,-0.049285888671875
40569,-0.034912109375,0.9978485107421876,-0.05120849609375
40570,-0.0315704345703125,1.025741577148438,-0.04901123046875
40571,-0.0356597900390625,1.061691284179688,-0.0455474853515625
40572,-0.0418548583984375,1.091796875,-0.0727691650390625
40573,-0.0412750244140625,1.101852416992188,-0.0991973876953125
40574,-0.0284423828125,1.088882446289062,-0.1195526123046875
40575,-0.0113983154296875,1.063980102539062,-0.1228790283203125
40576,0.0084991455078125,1.03082275390625,-0.114501953125
40577,0.0233306884765625,1.01611328125,-0.0974578857421875
40578,0.0357666015625,1.014785766601562,-0.0745697021484375
40579,0.03936767578125,1.022003173828125,-0.049163818359375
40580,0.0391998291015625,1.027740478515625,-0.026153564453125
40581,0.0346527099609375,1.028640747070312,-0.0148468017578125
40582,0.0282440185546875,1.030487060546875,-0.0195770263671875
40583,0.0272979736328125,1.029083251953125,-0.03302001953125
40584,0.0300445556640625,1.023910522460938,-0.0391387939453125
40585,0.0320281982421875,1.014694213867188,-0.0441741943359375
40586,0.03253173828125,1.00262451171875,-0.0492706298828125
40587,0.0278778076171875,0.9941864013671876,-0.053375244140625
40588,0.025299072265625,0.99273681640625,-0.056243896484375
40589,0.025238037109375,0.999267578125,-0.05364990234375
40590,0.0261993408203125,1.007888793945312,-0.05194091796875
40591,0.0321807861328125,1.01470947265625,-0.0562286376953125
40592,0.0449066162109375,1.015304565429688,-0.06671142578125
40593,0.058013916015625,1.012741088867188,-0.07037353515625
40594,0.07470703125,1.006500244140625,-0.069854736328125
40595,0.091766357421875,0.9972076416015624,-0.0739288330078125
40596,0.10723876953125,0.9913330078125,-0.076446533203125
40597,0.119384765625,0.988525390625,-0.0786590576171875
40598,0.1279144287109375,0.99163818359375,-0.0800323486328125
40599,0.1343994140625,1.001327514648438,-0.080078125
40600,0.135589599609375,1.010040283203125,-0.0740203857421875
40601,0.13250732421875,1.013412475585938,-0.064483642578125
40602,0.1238555908203125,1.014450073242188,-0.0570220947265625
40603,0.10992431640625,1.0205078125,-0.053192138671875
40604,0.0897064208984375,1.027557373046875,-0.064483642578125
40605,0.074920654296875,1.025955200195312,-0.086273193359375
40606,0.070953369140625,1.015106201171875,-0.1098785400390625
40607,0.06982421875,0.9977874755859376,-0.12933349609375
40608,0.0636138916015625,0.9827728271484376,-0.1391143798828125
40609,0.050079345703125,0.9759979248046876,-0.146820068359375
40610,0.0329437255859375,0.9773406982421876,-0.151702880859375
40611,0.011993408203125,0.98095703125,-0.1538543701171875
40612,-0.0069732666015625,0.99285888671875,-0.153106689453125
40613,-0.0033111572265625,1.01416015625,-0.1446990966796875
40614,0.0390625,1.034164428710938,-0.1174468994140625
40615,0.1046295166015625,1.051162719726562,-0.07708740234375
40616,0.166900634765625,1.059906005859375,-0.0295257568359375
40617,0.200714111328125,1.025482177734375,0.019073486328125
40618,0.2252349853515625,0.9631805419921876,0.057647705078125
40619,0.2240753173828125,0.9320220947265624,0.077423095703125
40620,0.211700439453125,0.9034881591796876,0.085174560546875
40621,0.2035675048828125,0.8975372314453125,0.0701904296875
40622,0.2019195556640625,0.9072265625,0.04290771484375
40623,0.1896820068359375,0.9230194091796876,0.0242767333984375
40624,0.163543701171875,0.940948486328125,0.0112457275390625
40625,0.122772216796875,0.9588470458984376,-0.0039825439453125
40626,0.0830230712890625,0.9784393310546876,-0.020416259765625
40627,0.05096435546875,1.001068115234375,-0.0335845947265625
40628,0.0305633544921875,1.022018432617188,-0.0410614013671875
40629,0.0194091796875,1.033798217773438,-0.0450592041015625
40630,0.0133514404296875,1.030609130859375,-0.0463409423828125
40631,0.02532958984375,1.017807006835938,-0.04998779296875
40632,0.0539093017578125,1.004226684570312,-0.0574798583984375
40633,0.092315673828125,0.990081787109375,-0.068695068359375
40634,0.136199951171875,0.9724578857421876,-0.0689697265625
40635,0.18408203125,0.958770751953125,-0.063079833984375
40636,0.2300262451171875,0.9570159912109376,-0.05035400390625
40637,0.2662811279296875,0.9716644287109376,-0.04046630859375
40638,0.2995758056640625,0.9835968017578124,-0.0256500244140625
40639,0.3238372802734375,0.994476318359375,-0.0072479248046875
40640,0.3377532958984375,0.996307373046875,0.009002685546875
40641,0.3484649658203125,0.985504150390625,0.0218963623046875
40642,0.35040283203125,0.9628753662109376,0.0215911865234375
40643,0.3514862060546875,0.946044921875,0.01373291015625
40644,0.348052978515625,0.937408447265625,-0.001708984375
40645,0.341278076171875,0.9350433349609376,-0.0218048095703125
40646,0.3369293212890625,0.9446563720703124,-0.0479736328125
40647,0.3349609375,0.9664459228515624,-0.0728607177734375
40648,0.3307037353515625,0.9934844970703124,-0.0937652587890625
40649,0.313873291015625,1.009017944335938,-0.115936279296875
40650,0.28497314453125,1.005447387695312,-0.131256103515625
40651,0.2489166259765625,0.9806060791015624,-0.1407012939453125
40652,0.2158660888671875,0.9496307373046876,-0.1412506103515625
40653,0.1984710693359375,0.933624267578125,-0.133270263671875
40654,0.1925201416015625,0.925994873046875,-0.127655029296875
40655,0.17095947265625,0.9364776611328124,-0.1254425048828125
40656,0.1626739501953125,0.96234130859375,-0.1134796142578125
40657,0.1564483642578125,0.9678955078125,-0.118011474609375
40658,0.18292236328125,0.992034912109375,-0.1147918701171875
40659,0.2466888427734375,0.998992919921875,-0.09625244140625
40660,0.297149658203125,0.97039794921875,-0.1085052490234375
40661,0.34381103515625,0.9476165771484376,-0.1946258544921875
40662,0.3697967529296875,0.942840576171875,-0.20684814453125
40663,0.357269287109375,0.9287261962890624,-0.1479339599609375
40664,0.3159637451171875,0.9156494140625,-0.080810546875
40665,0.2720947265625,0.9173431396484376,-0.0251312255859375
40666,0.239288330078125,0.9227752685546876,-0.005126953125
40667,0.211669921875,0.9330291748046876,-0.025054931640625
40668,0.19696044921875,0.9452972412109376,-0.05902099609375
40669,0.1908111572265625,0.9521942138671876,-0.081207275390625
40670,0.1930389404296875,0.96136474609375,-0.0888214111328125
40671,0.200408935546875,0.9707794189453124,-0.090545654296875
40672,0.2105865478515625,0.979522705078125,-0.0807952880859375
40673,0.22314453125,0.987213134765625,-0.06744384765625
40674,0.2371673583984375,0.9934539794921876,-0.060638427734375
40675,0.2509918212890625,0.9984893798828124,-0.059967041015625
40676,0.2606048583984375,1.000244140625,-0.0612945556640625
40677,0.2649993896484375,0.99627685546875,-0.0568389892578125
40678,0.262725830078125,0.988006591796875,-0.0464935302734375
40679,0.25775146484375,0.9769287109375,-0.0309600830078125
40680,0.249237060546875,0.96795654296875,-0.0111846923828125
40681,0.239044189453125,0.965423583984375,0.0056915283203125
40682,0.228240966796875,0.9688262939453124,0.0136566162109375
40683,0.2202301025390625,0.9790496826171876,0.0095062255859375
40684,0.2132720947265625,0.986663818359375,-0.002197265625
40685,0.207427978515625,0.990142822265625,-0.0173797607421875
40686,0.2032623291015625,0.9896240234375,-0.0320892333984375
40687,0.2009429931640625,0.982818603515625,-0.040679931640625
40688,0.1997833251953125,0.968017578125,-0.0445098876953125
40689,0.201904296875,0.947906494140625,-0.0441741943359375
40690,0.2027435302734375,0.9282379150390624,-0.0441436767578125
40691,0.205535888671875,0.9170379638671876,-0.0382843017578125
40692,0.2064971923828125,0.9181976318359376,-0.0305938720703125
40693,0.20928955078125,0.928863525390625,-0.02496337890625
40694,0.21551513671875,0.9514923095703124,-0.016021728515625
40695,0.22210693359375,0.9882354736328124,-0.00482177734375
40696,0.22015380859375,1.021163940429688,-0.0050811767578125
40697,0.2215576171875,1.04193115234375,-0.0118865966796875
40698,0.23028564453125,1.059066772460938,-0.009002685546875
40699,0.24334716796875,1.070938110351562,-0.0018310546875
40700,0.266632080078125,1.066940307617188,0.009735107421875
40701,0.2890625,1.04425048828125,0.019073486328125
40702,0.2908782958984375,1.020095825195312,0.0200958251953125
40703,0.2654266357421875,1.006271362304688,0.0234527587890625
40704,0.232818603515625,0.997589111328125,0.0302734375
40705,0.2037353515625,0.9925994873046876,0.03448486328125
40706,0.1791839599609375,0.99188232421875,0.040069580078125
40707,0.1576385498046875,0.9891204833984376,0.0428009033203125
40708,0.1346282958984375,0.9849090576171876,0.0469818115234375
40709,0.1098480224609375,0.987213134765625,0.0453033447265625
40710,0.0792083740234375,0.993682861328125,0.0345611572265625
40711,0.046905517578125,0.987579345703125,0.0248870849609375
40712,0.034759521484375,0.979949951171875,0.0251617431640625
40713,0.0503997802734375,0.9752197265625,0.022491455078125
40714,0.0662689208984375,0.9748382568359376,0.003875732421875
40715,0.0832061767578125,0.967742919921875,-0.020172119140625
40716,0.1103057861328125,0.9616546630859376,-0.0363616943359375
40717,0.1377105712890625,0.957244873046875,-0.045501708984375
40718,0.1494293212890625,0.9623565673828124,-0.0382232666015625
40719,0.14044189453125,0.969573974609375,-0.0188140869140625
40720,0.1208648681640625,0.974395751953125,0.004852294921875
40721,0.0950927734375,0.984527587890625,0.0193328857421875
40722,0.0686187744140625,1.00286865234375,0.0211181640625
40723,0.0546875,1.013916015625,0.0140533447265625
40724,0.0505218505859375,1.01788330078125,0.0091552734375
40725,0.0563507080078125,1.011566162109375,0.0073394775390625
40726,0.0712432861328125,0.99383544921875,0.01348876953125
40727,0.0837554931640625,0.9795379638671876,0.0178985595703125
40728,0.0860748291015625,0.968780517578125,0.0132293701171875
40729,0.083831787109375,0.9660491943359376,0.00494384765625
40730,0.0827789306640625,0.97314453125,-0.0027313232421875
40731,0.0833282470703125,0.9859466552734376,-0.0120849609375
40732,0.08270263671875,0.9937744140625,-0.0204620361328125
40733,0.07720947265625,0.9984588623046876,-0.023651123046875
40734,0.066436767578125,1.003753662109375,-0.020416259765625
40735,0.0567779541015625,1.002166748046875,-0.0152587890625
40736,0.0475616455078125,0.9990997314453124,-0.0049896240234375
40737,0.0369873046875,0.9960784912109376,0.0014190673828125
40738,0.0281219482421875,0.992767333984375,0.0040435791015625
40739,0.0239105224609375,0.9910888671875,0.00872802734375
40740,0.0214385986328125,0.99078369140625,0.013702392578125
40741,0.0203399658203125,0.9907073974609376,0.02197265625
40742,0.0162200927734375,0.9950714111328124,0.026092529296875
40743,0.011383056640625,0.998504638671875,0.019134521484375
40744,0.0104217529296875,1.000518798828125,0.0096435546875
40745,0.0014495849609375,0.997955322265625,-0.0015869140625
40746,-0.0120086669921875,0.9961090087890624,0.004180908203125
40747,-0.0049896240234375,0.9959869384765624,0.00958251953125
40748,-0.0137786865234375,0.9920806884765624,0.010894775390625
40749,-0.0228271484375,0.9888916015625,0.0090484619140625
40750,-0.029022216796875,0.9805450439453124,0.0042877197265625
40751,-0.0313262939453125,0.9761505126953124,-0.0003204345703125
40752,-0.038848876953125,0.97503662109375,0.0022430419921875
40753,-0.0475616455078125,0.975128173828125,0.0090789794921875
40754,-0.0536956787109375,0.9811248779296876,0.00677490234375
40755,-0.052825927734375,0.989501953125,0.0009765625
40756,-0.0474395751953125,1.001251220703125,-0.0068359375
40757,-0.0406646728515625,1.010177612304688,-0.0142822265625
40758,-0.0334930419921875,1.017974853515625,-0.014373779296875
40759,-0.0277099609375,1.020584106445312,-0.0131683349609375
40760,-0.026123046875,1.018035888671875,-0.008270263671875
40761,-0.0286102294921875,1.0147705078125,-0.0054931640625
40762,-0.0272064208984375,1.013580322265625,-0.0050048828125
40763,-0.025787353515625,1.011795043945312,-0.0107269287109375
40764,-0.025970458984375,1.013839721679688,-0.0170135498046875
40765,-0.028045654296875,1.012542724609375,-0.0181427001953125
40766,-0.03125,1.011550903320312,-0.0143890380859375
40767,-0.0374755859375,1.01416015625,-0.011993408203125
40768,-0.0431060791015625,1.011459350585938,-0.016998291015625
40769,-0.04425048828125,1.008071899414062,-0.0220489501953125
40770,-0.0447845458984375,1.007476806640625,-0.034332275390625
40771,-0.0434722900390625,1.009262084960938,-0.047119140625
40772,-0.0410308837890625,1.011077880859375,-0.059844970703125
40773,-0.034271240234375,1.013763427734375,-0.0729522705078125
40774,-0.0238494873046875,1.019180297851562,-0.0857391357421875
40775,-0.0180511474609375,1.022857666015625,-0.1005096435546875
40776,-0.0112457275390625,1.020782470703125,-0.1174163818359375
40777,-0.0131683349609375,1.013290405273438,-0.13427734375
40778,-0.01849365234375,1.006057739257812,-0.14349365234375
40779,-0.02679443359375,1.001815795898438,-0.1478118896484375
40780,-0.03558349609375,0.9963226318359376,-0.1462554931640625
40781,-0.0420684814453125,0.995208740234375,-0.13604736328125
40782,-0.042144775390625,0.9986419677734376,-0.1208343505859375
40783,-0.0383758544921875,1.001876831054688,-0.104583740234375
40784,-0.028289794921875,1.00311279296875,-0.0908203125
40785,-0.01397705078125,1.002777099609375,-0.0810546875
40786,0.0059967041015625,1.00079345703125,-0.0753021240234375
40787,0.0297088623046875,0.99664306640625,-0.07513427734375
40788,0.059906005859375,0.991973876953125,-0.0750732421875
40789,0.0876007080078125,0.993560791015625,-0.0733642578125
40790,0.1103668212890625,0.99261474609375,-0.0716400146484375
40791,0.1256256103515625,0.990478515625,-0.065887451171875
40792,0.127197265625,0.9864959716796876,-0.0596771240234375
40793,0.1165313720703125,0.9798736572265624,-0.052459716796875
40794,0.10113525390625,0.978179931640625,-0.0459747314453125
40795,0.086212158203125,0.98114013671875,-0.0421600341796875
40796,0.0687408447265625,0.988983154296875,-0.0464630126953125
40797,0.053192138671875,0.9956207275390624,-0.052581787109375
40798,0.04425048828125,0.9997406005859376,-0.060089111328125
40799,0.0395660400390625,1.000885009765625,-0.0704345703125
40800,0.04290771484375,0.998870849609375,-0.07940673828125
40801,0.046905517578125,0.9967041015625,-0.084625244140625
40802,0.0419158935546875,0.991973876953125,-0.0905303955078125
40803,0.023895263671875,0.9800567626953124,-0.0961761474609375
40804,0.0111083984375,0.9739532470703124,-0.0947265625
40805,0.0091552734375,0.9680328369140624,-0.094451904296875
40806,0.0009918212890625,0.962127685546875,-0.0972747802734375
40807,-0.0076751708984375,0.9585723876953124,-0.100494384765625
40808,-0.0231781005859375,0.96014404296875,-0.104583740234375
40809,-0.0425262451171875,0.976470947265625,-0.1150970458984375
40810,-0.06280517578125,0.9907989501953124,-0.1295928955078125
40811,-0.079376220703125,0.9936676025390624,-0.1404876708984375
40812,-0.0902862548828125,0.98626708984375,-0.143646240234375
40813,-0.0838165283203125,0.9716644287109376,-0.1356964111328125
40814,-0.0592193603515625,0.9489898681640624,-0.117431640625
40815,-0.021881103515625,0.920013427734375,-0.096771240234375
40816,0.0242156982421875,0.895538330078125,-0.0716552734375
40817,0.0713348388671875,0.882568359375,-0.0506591796875
40818,0.1124114990234375,0.89031982421875,-0.0380859375
40819,0.1361083984375,0.920257568359375,-0.0348663330078125
40820,0.1385498046875,0.955718994140625,-0.03857421875
40821,0.1278839111328125,0.9768218994140624,-0.039398193359375
40822,0.1110076904296875,0.980499267578125,-0.0223388671875
40823,0.09326171875,0.9747314453125,0.0028839111328125
40824,0.0714569091796875,0.9670562744140624,0.0272369384765625
40825,0.04180908203125,0.967803955078125,0.042694091796875
40826,0.0127410888671875,0.976470947265625,0.0380096435546875
40827,-0.0046844482421875,0.994293212890625,0.0278472900390625
40828,-0.0103302001953125,1.019256591796875,0.0111083984375
40829,-0.0072784423828125,1.04876708984375,-0.01373291015625
40830,-0.003936767578125,1.072616577148438,-0.044952392578125
40831,-0.0047454833984375,1.083648681640625,-0.0682373046875
40832,-0.0124359130859375,1.07281494140625,-0.0829620361328125
40833,-0.0244903564453125,1.042465209960938,-0.0880584716796875
40834,-0.0271759033203125,0.991485595703125,-0.0811614990234375
40835,-0.0092926025390625,0.926483154296875,-0.0649261474609375
40836,0.02203369140625,0.8614654541015625,-0.0380401611328125
40837,0.0699920654296875,0.80267333984375,-0.0156097412109375
40838,0.1190948486328125,0.7924652099609375,0.00140380859375
40839,0.1446075439453125,0.8733673095703125,0.015045166015625
40840,0.168548583984375,0.9738616943359376,0.0124053955078125
40841,0.219329833984375,1.060379028320312,-0.0046234130859375
40842,0.2712860107421875,1.139068603515625,-0.025115966796875
40843,0.310272216796875,1.192581176757812,-0.037811279296875
40844,0.331329345703125,1.227340698242188,-0.034210205078125
40845,0.3268585205078125,1.23431396484375,-0.023651123046875
40846,0.301483154296875,1.203857421875,-0.0244598388671875
40847,0.26629638671875,1.147109985351562,-0.0418548583984375
40848,0.2348175048828125,1.073959350585938,-0.0628204345703125
40849,0.21270751953125,1.012069702148438,-0.082550048828125
40850,0.1962432861328125,0.9775390625,-0.102142333984375
40851,0.18145751953125,0.974029541015625,-0.121917724609375
40852,0.17181396484375,0.9848785400390624,-0.135986328125
40853,0.1726531982421875,0.9979248046875,-0.13922119140625
40854,0.180511474609375,1.005203247070312,-0.13836669921875
40855,0.186767578125,1.005996704101562,-0.137176513671875
40856,0.192047119140625,1.000259399414062,-0.1404876708984375
40857,0.195068359375,0.991943359375,-0.14422607421875
40858,0.197998046875,0.980194091796875,-0.1470184326171875
40859,0.2009735107421875,0.9643096923828124,-0.1485595703125
40860,0.202484130859375,0.9459991455078124,-0.1475372314453125
40861,0.205291748046875,0.9318084716796876,-0.1517333984375
40862,0.209320068359375,0.925872802734375,-0.1541900634765625
40863,0.2158660888671875,0.9282379150390624,-0.1542510986328125
40864,0.2223663330078125,0.935699462890625,-0.1579132080078125
40865,0.2288818359375,0.9475555419921876,-0.154937744140625
40866,0.2399444580078125,0.9666290283203124,-0.1468963623046875
40867,0.2584686279296875,0.989715576171875,-0.1298370361328125
40868,0.2796173095703125,1.01251220703125,-0.10980224609375
40869,0.292144775390625,1.0316162109375,-0.0972442626953125
40870,0.28338623046875,1.048858642578125,-0.08074951171875
40871,0.2572784423828125,1.060775756835938,-0.067047119140625
40872,0.20684814453125,1.056716918945312,-0.0654296875
40873,0.1377716064453125,1.035064697265625,-0.0578155517578125
40874,0.060699462890625,1.012664794921875,-0.055267333984375
40875,0.000701904296875,1.01190185546875,-0.070281982421875
40876,-0.0040283203125,0.9906005859375,-0.0871124267578125
40877,0.0026092529296875,0.936614990234375,-0.1207275390625
40878,0.0092010498046875,0.8903656005859375,-0.146942138671875
40879,0.022308349609375,0.8832244873046875,-0.1482696533203125
40880,0.04412841796875,0.9142608642578124,-0.14349365234375
40881,0.0687103271484375,0.971038818359375,-0.1402740478515625
40882,0.086517333984375,1.045074462890625,-0.1147003173828125
40883,0.099578857421875,1.120803833007812,-0.0625
40884,0.0772857666015625,1.213211059570312,-0.0102386474609375
40885,0.0621337890625,1.24169921875,0.0060882568359375
40886,0.0883331298828125,1.177749633789062,-0.01361083984375
40887,0.12310791015625,1.057952880859375,-0.0319671630859375
40888,0.1380157470703125,0.9552154541015624,-0.0566558837890625
40889,0.14111328125,0.9276885986328124,-0.071502685546875
40890,0.1402435302734375,0.93048095703125,-0.06939697265625
40891,0.1311492919921875,0.9222259521484376,-0.053955078125
40892,0.1119232177734375,0.9022369384765624,-0.0489044189453125
40893,0.093536376953125,0.88934326171875,-0.076629638671875
40894,0.0888214111328125,0.9018402099609376,-0.132354736328125
40895,0.0812225341796875,0.937957763671875,-0.1977386474609375
40896,0.0594024658203125,0.969573974609375,-0.260406494140625
40897,0.029937744140625,0.9768218994140624,-0.29290771484375
40898,0.0152587890625,0.9629364013671876,-0.2856597900390625
40899,0.0112457275390625,0.9377288818359376,-0.2687835693359375
40900,-0.00543212890625,0.9175567626953124,-0.266845703125
40901,-0.0137786865234375,0.9077301025390624,-0.2716827392578125
40902,0.00677490234375,0.9005584716796875,-0.2739410400390625
40903,0.041534423828125,0.9059295654296876,-0.27703857421875
40904,0.0720672607421875,0.932281494140625,-0.2742767333984375
40905,0.090087890625,0.966583251953125,-0.2703399658203125
40906,0.095062255859375,0.99285888671875,-0.2645721435546875
40907,0.0965576171875,1.00299072265625,-0.2576141357421875
40908,0.0926513671875,0.9945220947265624,-0.2526092529296875
40909,0.083831787109375,0.978973388671875,-0.2486572265625
40910,0.0789031982421875,0.9658050537109376,-0.246612548828125
40911,0.0675506591796875,0.9614410400390624,-0.2472076416015625
40912,0.049957275390625,0.960174560546875,-0.25146484375
40913,0.0317230224609375,0.9589080810546876,-0.25689697265625
40914,0.0142974853515625,0.960723876953125,-0.2597198486328125
40915,0.004119873046875,0.9650421142578124,-0.2637786865234375
40916,-0.004119873046875,0.97296142578125,-0.2637176513671875
40917,-0.008453369140625,0.9854278564453124,-0.2553253173828125
40918,-0.01300048828125,1.000701904296875,-0.24322509765625
40919,-0.0180511474609375,1.014633178710938,-0.2281646728515625
40920,-0.0204925537109375,1.027496337890625,-0.2124481201171875
40921,-0.02203369140625,1.03118896484375,-0.1955413818359375
40922,-0.0213470458984375,1.023208618164062,-0.180999755859375
40923,-0.0242919921875,1.012069702148438,-0.168304443359375
40924,-0.02825927734375,1.001068115234375,-0.16265869140625
40925,-0.03399658203125,0.99444580078125,-0.1668548583984375
40926,-0.041900634765625,0.9893341064453124,-0.168609619140625
40927,-0.051361083984375,0.986724853515625,-0.17071533203125
40928,-0.0577545166015625,0.9861297607421876,-0.1740875244140625
40929,-0.0627899169921875,0.9900360107421876,-0.16790771484375
40930,-0.06182861328125,0.9966583251953124,-0.15545654296875
40931,-0.0566558837890625,1.003097534179688,-0.14776611328125
40932,-0.049957275390625,1.00213623046875,-0.13922119140625
40933,-0.040618896484375,0.99749755859375,-0.1288909912109375
40934,-0.031890869140625,0.9920501708984376,-0.1171417236328125
40935,-0.022186279296875,0.989044189453125,-0.102630615234375
40936,-0.0116729736328125,0.986236572265625,-0.092254638671875
40937,-0.00390625,0.986358642578125,-0.0850982666015625
40938,0.0055084228515625,0.9904937744140624,-0.081756591796875
40939,0.012969970703125,0.98687744140625,-0.0828704833984375
40940,0.04510498046875,0.96136474609375,-0.0797576904296875
40941,-0.0036773681640625,0.982940673828125,-0.090484619140625
40942,-0.007110595703125,0.9716644287109376,-0.1101531982421875
40943,-0.028961181640625,0.973236083984375,-0.131988525390625
40944,-0.06695556640625,0.999114990234375,-0.1214141845703125
40945,-0.0460205078125,1.04052734375,-0.0836944580078125
40946,-0.0245208740234375,1.056884765625,-0.0572662353515625
40947,-0.0288238525390625,1.04913330078125,-0.027130126953125
40948,-0.05859375,1.033615112304688,0.0043487548828125
40949,-0.1025848388671875,1.018463134765625,0.017669677734375
40950,-0.1444854736328125,0.9866180419921876,0.0070648193359375
40951,-0.1493988037109375,0.948822021484375,0.0106964111328125
40952,-0.154632568359375,0.9139556884765624,-0.000946044921875
40953,-0.15460205078125,0.8901824951171875,-0.011871337890625
40954,-0.1384124755859375,0.8820953369140625,-0.0219573974609375
40955,-0.129638671875,0.9138031005859376,-0.0191497802734375
40956,-0.116302490234375,0.974639892578125,-0.010162353515625
40957,-0.0928497314453125,1.04241943359375,-0.007354736328125
40958,-0.070037841796875,1.095565795898438,-0.02313232421875
40959,-0.049285888671875,1.113601684570312,-0.0386505126953125
40960,-0.0334930419921875,1.104095458984375,-0.0460968017578125
40961,-0.0395050048828125,1.07373046875,-0.0475311279296875
40962,-0.073883056640625,1.029464721679688,-0.0416107177734375
40963,-0.117889404296875,0.9943084716796876,-0.029449462890625
40964,-0.1511688232421875,0.9762420654296876,-0.0099639892578125
40965,-0.1811981201171875,0.9638824462890624,0.014068603515625
40966,-0.2024078369140625,0.9685821533203124,0.039276123046875
40967,-0.2146148681640625,0.9925994873046876,0.05511474609375
40968,-0.2147064208984375,1.0262451171875,0.0692291259765625
40969,-0.207275390625,1.053268432617188,0.0813751220703125
40970,-0.2017669677734375,1.057586669921875,0.0781402587890625
40971,-0.190093994140625,1.042678833007812,0.06243896484375
40972,-0.17578125,1.012969970703125,0.0368804931640625
40973,-0.166748046875,0.9790191650390624,0.019989013671875
40974,-0.163116455078125,0.953521728515625,0.006011962890625
40975,-0.1591796875,0.9385528564453124,-0.00054931640625
40976,-0.1526031494140625,0.9385528564453124,0.0044403076171875
40977,-0.146087646484375,0.948394775390625,0.0270233154296875
40978,-0.1388702392578125,0.965362548828125,0.05389404296875
40979,-0.130126953125,0.9850006103515624,0.0743560791015625
40980,-0.117828369140625,0.9991912841796876,0.0887451171875
40981,-0.10247802734375,1.010452270507812,0.0940704345703125
40982,-0.08935546875,1.015640258789062,0.089874267578125
40983,-0.0778045654296875,1.0142822265625,0.0759735107421875
40984,-0.0639495849609375,1.0076904296875,0.064453125
40985,-0.054046630859375,1.001007080078125,0.0590972900390625
40986,-0.0476531982421875,1.001205444335938,0.0631561279296875
40987,-0.048126220703125,1.0084228515625,0.072845458984375
40988,-0.05548095703125,1.017181396484375,0.0826568603515625
40989,-0.065277099609375,1.023712158203125,0.0938568115234375
40990,-0.0760650634765625,1.025909423828125,0.10284423828125
40991,-0.085540771484375,1.021530151367188,0.10455322265625
40992,-0.0900726318359375,1.008255004882812,0.0884246826171875
40993,-0.085479736328125,0.9902801513671876,0.0658721923828125
40994,-0.075103759765625,0.9766387939453124,0.04217529296875
40995,-0.0688629150390625,0.9712066650390624,0.0236968994140625
40996,-0.0659637451171875,0.977142333984375,0.0097808837890625
40997,-0.065765380859375,0.984649658203125,0.0048675537109375
40998,-0.066650390625,0.9859619140625,0.007904052734375
40999,-0.0662384033203125,0.980010986328125,0.0191497802734375
41000,-0.0662689208984375,0.9729461669921876,0.033233642578125
41001,-0.06329345703125,0.9717559814453124,0.048065185546875
41002,-0.049591064453125,0.97698974609375,0.05615234375
41003,-0.028900146484375,0.9842987060546876,0.05865478515625
41004,-0.006072998046875,0.9839019775390624,0.0594482421875
41005,0.0175933837890625,0.9842071533203124,0.060943603515625
41006,0.037628173828125,0.987640380859375,0.0619354248046875
41007,0.05218505859375,0.9961090087890624,0.062042236328125
41008,0.0608062744140625,1.00762939453125,0.058013916015625
41009,0.0654449462890625,1.017593383789062,0.0537872314453125
41010,0.0671234130859375,1.021514892578125,0.0494384765625
41011,0.0648040771484375,1.019058227539062,0.0493927001953125
41012,0.0605010986328125,1.012603759765625,0.053863525390625
41013,0.052978515625,1.007736206054688,0.0596771240234375
41014,0.0451202392578125,1.000228881835938,0.0596923828125
41015,0.0418243408203125,0.9900360107421876,0.05633544921875
41016,0.0429229736328125,0.979248046875,0.0533447265625
41017,0.0461578369140625,0.9710235595703124,0.0499725341796875
41018,0.050262451171875,0.9712371826171876,0.047454833984375
41019,0.0530242919921875,0.97918701171875,0.0476226806640625
41020,0.0547637939453125,0.993896484375,0.04754638671875
41021,0.0548248291015625,1.004302978515625,0.0386810302734375
41022,0.056732177734375,1.003936767578125,0.0292510986328125
41023,0.06182861328125,0.9971466064453124,0.0247802734375
41024,0.0638275146484375,0.992523193359375,0.025848388671875
41025,0.061187744140625,0.993316650390625,0.0290374755859375
41026,0.0550079345703125,0.9937896728515624,0.03192138671875
41027,0.048858642578125,0.996246337890625,0.035125732421875
41028,0.0430755615234375,0.99603271484375,0.0352783203125
41029,0.0407257080078125,0.995147705078125,0.037322998046875
41030,0.0426788330078125,0.9952392578125,0.0362701416015625
41031,0.0438079833984375,0.995391845703125,0.037841796875
41032,0.042449951171875,0.99481201171875,0.0426177978515625
41033,0.038970947265625,0.9935150146484376,0.0435333251953125
41034,0.0335693359375,0.99005126953125,0.043701171875
41035,0.0260772705078125,0.9859619140625,0.0426177978515625
41036,0.0142974853515625,0.985565185546875,0.0459747314453125
41037,0.0026397705078125,0.9882965087890624,0.0457000732421875
41038,-0.0095977783203125,0.9832000732421876,0.040435791015625
41039,-0.0170135498046875,0.97894287109375,0.0331878662109375
41040,-0.0163421630859375,0.9783782958984376,0.0246734619140625
41041,-0.0111541748046875,0.9782867431640624,0.0204620361328125
41042,-0.0043792724609375,0.98126220703125,0.0228271484375
41043,0.0037994384765625,0.98590087890625,0.0293426513671875
41044,0.011138916015625,0.9954833984375,0.033447265625
41045,0.008636474609375,0.993865966796875,0.031829833984375
41046,-0.0955810546875,0.981475830078125,0.022491455078125
41047,-0.5084991455078125,1.02410888671875,0.042022705078125
41048,-0.4052734375,1.23736572265625,0.1045989990234375
41049,0.0882568359375,1.053619384765625,0.27197265625
41050,0.356536865234375,0.786224365234375,0.353607177734375
41051,0.182342529296875,0.847015380859375,-0.03399658203125
41052,0.0865020751953125,0.9257049560546876,-0.501068115234375
41053,0.1822357177734375,1.002960205078125,-0.414215087890625
41054,0.109130859375,0.9904937744140624,0.0137786865234375
41055,0.0066986083984375,0.9716033935546876,0.361663818359375
41056,-0.0889892578125,1.043655395507812,0.4774017333984375
41057,-0.1295318603515625,1.026412963867188,0.281829833984375
41058,-0.084320068359375,0.949615478515625,0.053253173828125
41059,-0.0256195068359375,0.921356201171875,-0.0995330810546875
41060,0.0115966796875,0.94940185546875,-0.125579833984375
41061,-0.0161895751953125,0.9980926513671876,-0.042724609375
41062,-0.061798095703125,1.029190063476562,0.05755615234375
41063,-0.08660888671875,1.049774169921875,0.0770263671875
41064,-0.0712738037109375,1.048202514648438,0.018585205078125
41065,-0.0126800537109375,0.9965667724609376,-0.049713134765625
41066,0.061920166015625,0.923309326171875,-0.0786285400390625
41067,0.1176910400390625,0.8763885498046875,-0.0505218505859375
41068,0.143585205078125,0.87750244140625,-0.0058135986328125
41069,0.1411590576171875,0.921356201171875,0.01641845703125
41070,0.126434326171875,0.9743804931640624,0.0120849609375
41071,0.1269683837890625,1.006103515625,0.0092010498046875
41072,0.1280059814453125,1.015228271484375,0.024505615234375
41073,0.1238250732421875,1.010711669921875,0.0563201904296875
41074,0.1131744384765625,1.001068115234375,0.094573974609375
41075,0.09906005859375,1.003036499023438,0.1108551025390625
41076,0.070281982421875,1.017654418945312,0.094818115234375
41077,0.0386962890625,1.0330810546875,0.0679931640625
41078,0.01837158203125,1.038787841796875,0.042938232421875
41079,-0.001983642578125,1.026229858398438,0.031402587890625
41080,-0.02197265625,1.0078125,0.0448150634765625
41081,-0.03594970703125,0.9924163818359376,0.0755767822265625
41082,-0.061553955078125,0.9887237548828124,0.0933380126953125
41083,-0.086395263671875,0.9925689697265624,0.0933074951171875
41084,-0.1045074462890625,0.9999237060546876,0.08013916015625
41085,-0.1199951171875,0.9992218017578124,0.05450439453125
41086,-0.125946044921875,1.000823974609375,0.0177001953125
41087,-0.1224517822265625,0.998687744140625,-0.021514892578125
41088,-0.105682373046875,0.98907470703125,-0.0603485107421875
41089,-0.076019287109375,0.9744415283203124,-0.09564208984375
41090,-0.0375518798828125,0.9608001708984376,-0.1233367919921875
41091,0.0075225830078125,0.955535888671875,-0.1426239013671875
41092,0.0434112548828125,0.969085693359375,-0.151641845703125
41093,0.06182861328125,1.0096435546875,-0.1578521728515625
41094,0.0634918212890625,1.058197021484375,-0.16015625
41095,0.0442352294921875,1.089431762695312,-0.162353515625
41096,0.017608642578125,1.081527709960938,-0.1626434326171875
41097,-0.017120361328125,1.043869018554688,-0.165679931640625
41098,-0.05511474609375,0.9902191162109376,-0.167633056640625
41099,-0.070281982421875,0.9311370849609376,-0.1487274169921875
41100,-0.0547332763671875,0.8878173828125,-0.1166534423828125
41101,-0.0154876708984375,0.8758697509765625,-0.076934814453125
41102,0.0320892333984375,0.8919830322265625,-0.051513671875
41103,0.08154296875,0.9265594482421876,-0.04022216796875
41104,0.11578369140625,0.962646484375,-0.0298004150390625
41105,0.1303558349609375,0.9880828857421876,-0.0142059326171875
41106,0.116851806640625,0.99371337890625,-0.0163116455078125
41107,0.091796875,0.9896087646484376,-0.0570068359375
41108,0.082733154296875,0.9899139404296876,-0.0976715087890625
41109,0.087158203125,0.99945068359375,-0.1408843994140625
41110,0.0885772705078125,1.015487670898438,-0.1750946044921875
41111,0.094970703125,1.023330688476562,-0.21966552734375
41112,0.1119842529296875,1.0198974609375,-0.223358154296875
41113,0.142059326171875,1.01580810546875,-0.21240234375
41114,0.171905517578125,1.0115966796875,-0.1999969482421875
41115,0.1941375732421875,1.02239990234375,-0.1741943359375
41116,0.2001953125,1.015045166015625,-0.1634674072265625
41117,0.19537353515625,1.001312255859375,-0.1740264892578125
41118,0.195220947265625,1.002792358398438,-0.167266845703125
41119,0.1865081787109375,1.009796142578125,-0.166229248046875
41120,0.1660308837890625,1.004653930664062,-0.1944580078125
41121,0.151580810546875,0.9893035888671876,-0.21514892578125
41122,0.1450653076171875,0.978790283203125,-0.2365570068359375
41123,0.1389617919921875,0.9904022216796876,-0.2516021728515625
41124,0.140411376953125,0.9800567626953124,-0.2574310302734375
41125,0.15093994140625,0.9776611328125,-0.2615509033203125
41126,0.1555633544921875,0.974700927734375,-0.25701904296875
41127,0.15283203125,0.9707489013671876,-0.265594482421875
41128,0.1536407470703125,0.97515869140625,-0.253692626953125
41129,0.1483306884765625,0.9729766845703124,-0.24359130859375
41130,0.1407318115234375,0.98291015625,-0.25030517578125
41131,0.1353759765625,0.9910125732421876,-0.2357635498046875
41132,0.1268768310546875,0.9819793701171876,-0.23486328125
41133,0.126434326171875,0.97528076171875,-0.2252655029296875
41134,0.1259765625,0.97906494140625,-0.210479736328125
41135,0.1171875,0.9659576416015624,-0.20947265625
41136,0.1156463623046875,0.9470367431640624,-0.209197998046875
41137,0.1159210205078125,0.9465179443359376,-0.2005767822265625
41138,0.1121978759765625,0.9750823974609376,-0.2030029296875
41139,0.1054840087890625,0.995513916015625,-0.20977783203125
41140,0.09869384765625,0.994903564453125,-0.219329833984375
41141,0.095001220703125,0.987640380859375,-0.2206878662109375
41142,0.0839996337890625,0.991973876953125,-0.2216796875
41143,0.0719451904296875,0.9988555908203124,-0.2227783203125
41144,0.063629150390625,1.000534057617188,-0.22552490234375
41145,0.052520751953125,0.994232177734375,-0.227813720703125
41146,0.044952392578125,0.9757843017578124,-0.2343902587890625
41147,0.044525146484375,0.963104248046875,-0.2469024658203125
41148,0.0427093505859375,0.959991455078125,-0.2550811767578125
41149,0.035369873046875,0.961517333984375,-0.2619171142578125
41150,0.0239410400390625,0.9676666259765624,-0.260467529296875
41151,0.009033203125,0.987213134765625,-0.255035400390625
41152,-0.0061798095703125,1.009384155273438,-0.250579833984375
41153,-0.0146484375,1.017486572265625,-0.2505035400390625
41154,-0.02178955078125,1.01031494140625,-0.2541351318359375
41155,-0.030426025390625,0.99835205078125,-0.2579193115234375
41156,-0.0416412353515625,0.9943389892578124,-0.263092041015625
41157,-0.0487213134765625,0.9917755126953124,-0.2672271728515625
41158,-0.0516357421875,0.990631103515625,-0.2624053955078125
41159,-0.0572509765625,0.9942779541015624,-0.2529449462890625
41160,-0.064788818359375,0.999053955078125,-0.245758056640625
41161,-0.0634918212890625,1.007049560546875,-0.23028564453125
41162,-0.0492095947265625,1.011642456054688,-0.2200469970703125
41163,-0.02557373046875,1.006698608398438,-0.2080078125
41164,-0.0035400390625,0.9971923828125,-0.1900634765625
41165,-3.0517578125e-05,0.9901580810546876,-0.1791534423828125
41166,-0.010955810546875,0.9873046875,-0.18206787109375
41167,-0.0317840576171875,0.9885406494140624,-0.1845855712890625
41168,-0.061492919921875,0.9967193603515624,-0.1772613525390625
41169,-0.0933380126953125,1.012161254882812,-0.17181396484375
41170,-0.1111297607421875,1.035003662109375,-0.1717987060546875
41171,-0.1042327880859375,1.034896850585938,-0.1639556884765625
41172,-0.094329833984375,1.01458740234375,-0.16107177734375
41173,-0.1041107177734375,0.988189697265625,-0.16009521484375
41174,-0.12860107421875,0.971832275390625,-0.1529998779296875
41175,-0.148193359375,0.976470947265625,-0.1543731689453125
41176,-0.1556854248046875,0.9828338623046876,-0.186431884765625
41177,-0.1603546142578125,0.9945220947265624,-0.204315185546875
41178,-0.161285400390625,1.002426147460938,-0.2163543701171875
41179,-0.156494140625,0.99755859375,-0.2203826904296875
41180,-0.1399078369140625,0.985443115234375,-0.2223663330078125
41181,-0.1119384765625,0.969146728515625,-0.226806640625
41182,-0.0820465087890625,0.9518280029296876,-0.2141571044921875
41183,-0.0577850341796875,0.94329833984375,-0.1953582763671875
41184,-0.03765869140625,0.9435272216796876,-0.177276611328125
41185,-0.00836181640625,0.9615020751953124,-0.160491943359375
41186,0.0113677978515625,0.9844207763671876,-0.1459808349609375
41187,0.020263671875,1.001617431640625,-0.1225738525390625
41188,0.038330078125,1.007492065429688,-0.08734130859375
41189,0.0543670654296875,0.9945068359375,-0.0762481689453125
41190,0.062652587890625,0.9695281982421876,-0.06976318359375
41191,0.0772552490234375,0.9529266357421876,-0.05517578125
41192,0.095611572265625,0.9565277099609376,-0.03741455078125
41193,0.1156463623046875,0.97161865234375,-0.0330352783203125
41194,0.1205291748046875,0.97540283203125,-0.0319061279296875
41195,0.1189422607421875,0.964813232421875,-0.036285400390625
41196,0.1209716796875,0.943328857421875,-0.064788818359375
41197,0.1268310546875,0.9185333251953124,-0.09893798828125
41198,0.1270599365234375,0.89410400390625,-0.1222381591796875
41199,0.106048583984375,0.8817291259765625,-0.127197265625
41200,0.0759124755859375,0.8956298828125,-0.117218017578125
41201,0.0470428466796875,0.93023681640625,-0.1045379638671875
41202,0.0215911865234375,0.9700164794921876,-0.09844970703125
41203,0.00775146484375,1.006210327148438,-0.0995941162109375
41204,0.0080413818359375,1.034011840820312,-0.098236083984375
41205,0.021697998046875,1.043075561523438,-0.0902862548828125
41206,0.049896240234375,1.03472900390625,-0.081512451171875
41207,0.078399658203125,1.018936157226562,-0.070343017578125
41208,0.095550537109375,1.001708984375,-0.058441162109375
41209,0.0965576171875,0.9865264892578124,-0.05035400390625
41210,0.089996337890625,0.9761810302734376,-0.042999267578125
41211,0.0814971923828125,0.9682464599609376,-0.037933349609375
41212,0.0731353759765625,0.97039794921875,-0.034271240234375
41213,0.063690185546875,0.9774627685546876,-0.0323333740234375
41214,0.05426025390625,0.982269287109375,-0.032012939453125
41215,0.0438690185546875,0.988250732421875,-0.027099609375
41216,0.0327301025390625,0.9899444580078124,-0.0184173583984375
41217,0.0217132568359375,0.99029541015625,-0.0175018310546875
41218,0.010223388671875,0.9897308349609376,-0.022857666015625
41219,0.00506591796875,0.992706298828125,-0.0280609130859375
41220,0.0034332275390625,0.999114990234375,-0.02935791015625
41221,0.0065460205078125,1.006759643554688,-0.030609130859375
41222,0.0098419189453125,1.01055908203125,-0.027740478515625
41223,0.0117340087890625,1.01239013671875,-0.017059326171875
41224,0.0096435546875,1.014007568359375,-0.0052947998046875
41225,0.00537109375,1.015274047851562,0.0030670166015625
41226,-0.0007781982421875,1.012588500976562,0.011138916015625
41227,-0.0076751708984375,1.007904052734375,0.0172882080078125
41228,-0.0091552734375,1.005661010742188,0.019927978515625
41229,-0.011199951171875,1.004302978515625,0.0179443359375
41230,-0.0148162841796875,1.003570556640625,0.009429931640625
41231,-0.0161285400390625,1.001358032226562,-0.000762939453125
41232,-0.012420654296875,0.99932861328125,-0.0125732421875
41233,-0.0059814453125,0.997650146484375,-0.017608642578125
41234,0.0005035400390625,0.9979400634765624,-0.0181732177734375
41235,0.006378173828125,0.999481201171875,-0.01373291015625
41236,0.0076904296875,1.000259399414062,-0.010345458984375
41237,0.01068115234375,0.9993133544921876,-0.0120697021484375
41238,0.0120086669921875,0.996734619140625,-0.01513671875
41239,0.011993408203125,0.9911346435546876,-0.0171966552734375
41240,0.011077880859375,0.990875244140625,-0.0207672119140625
41241,0.009124755859375,0.992919921875,-0.0271759033203125
41242,0.01239013671875,0.9949188232421876,-0.0332183837890625
41243,0.016082763671875,0.9941558837890624,-0.0402069091796875
41244,0.0179595947265625,0.9874114990234376,-0.0424652099609375
41245,0.0196380615234375,0.9823150634765624,-0.0425262451171875
41246,0.022491455078125,0.9813995361328124,-0.041168212890625
41247,0.0282440185546875,0.9849700927734376,-0.036102294921875
41248,0.0393524169921875,0.9897308349609376,-0.0301971435546875
41249,0.0559234619140625,0.9931640625,-0.023895263671875
41250,0.0742034912109375,0.99310302734375,-0.0202484130859375
41251,0.0902862548828125,0.9879608154296876,-0.016815185546875
41252,0.1038055419921875,0.98297119140625,-0.0104522705078125
41253,0.1124420166015625,0.983978271484375,-0.0037841796875
41254,0.1137237548828125,0.987579345703125,-0.00469970703125
41255,0.111114501953125,0.9938812255859376,-0.0050048828125
41256,0.1043243408203125,1.001876831054688,-0.0088958740234375
41257,0.096710205078125,1.006439208984375,-0.016021728515625
41258,0.08782958984375,1.0091552734375,-0.0257110595703125
41259,0.08624267578125,1.008132934570312,-0.03619384765625
41260,0.0892486572265625,1.008651733398438,-0.0418243408203125
41261,0.09326171875,1.008163452148438,-0.045928955078125
41262,0.0935821533203125,1.00390625,-0.0490875244140625
41263,0.0918731689453125,0.99615478515625,-0.0467071533203125
41264,0.08685302734375,0.99163818359375,-0.0440826416015625
41265,0.082000732421875,0.9898223876953124,-0.042144775390625
41266,0.0751495361328125,0.989776611328125,-0.0351715087890625
41267,0.064910888671875,0.991058349609375,-0.0276641845703125
41268,0.0412445068359375,0.9863433837890624,-0.0227203369140625
41269,-0.123992919921875,0.937469482421875,0.0409393310546875
41270,-0.412506103515625,1.14385986328125,0.0943145751953125
41271,-0.5770721435546875,1.347640991210938,-0.0601806640625
41272,-0.251220703125,1.0118408203125,0.523651123046875
41273,0.191619873046875,0.8213958740234375,0.4615631103515625
41274,0.44158935546875,0.8690338134765625,-0.5069580078125
41275,0.385833740234375,0.80242919921875,-0.611236572265625
41276,0.3441162109375,0.751068115234375,-0.2602081298828125
41277,0.2000579833984375,1.029098510742188,-0.032470703125
41278,-0.0062408447265625,1.299774169921875,0.1793212890625
41279,-0.180633544921875,1.337860107421875,0.275726318359375
41280,-0.226531982421875,1.143081665039062,0.2061920166015625
41281,-0.08575439453125,0.951568603515625,0.0221099853515625
41282,0.08367919921875,0.8545989990234375,-0.1092529296875
41283,0.1695404052734375,0.8410491943359375,-0.16943359375
41284,0.2064208984375,0.866546630859375,-0.154571533203125
41285,0.1984100341796875,0.9015960693359376,-0.138458251953125
41286,0.17816162109375,0.9315032958984376,-0.1258697509765625
41287,0.143463134765625,0.9923095703125,-0.1107025146484375
41288,0.11688232421875,1.058319091796875,-0.090667724609375
41289,0.1016387939453125,1.0919189453125,-0.05291748046875
41290,0.100982666015625,1.109848022460938,-0.0117034912109375
41291,0.112060546875,1.101837158203125,0.0093231201171875
41292,0.1136474609375,1.058486938476562,0.0024871826171875
41293,0.1085357666015625,0.9971160888671876,-0.014251708984375
41294,0.1031341552734375,0.938751220703125,-0.036376953125
41295,0.090545654296875,0.9171295166015624,-0.0710906982421875
41296,0.065582275390625,0.933837890625,-0.1089630126953125
41297,0.030517578125,0.96099853515625,-0.1405792236328125
41298,-0.01629638671875,0.982940673828125,-0.15252685546875
41299,-0.0596160888671875,0.98516845703125,-0.1458587646484375
41300,-0.10382080078125,0.959381103515625,-0.12274169921875
41301,-0.1584014892578125,0.9066925048828124,-0.09259033203125
41302,-0.2244110107421875,0.845550537109375,-0.0602874755859375
41303,-0.280181884765625,0.8016357421875,-0.0348968505859375
41304,-0.3132476806640625,0.798187255859375,-0.03216552734375
41305,-0.3294525146484375,0.837432861328125,-0.0583038330078125
41306,-0.332183837890625,0.9184722900390624,-0.093353271484375
41307,-0.3367462158203125,1.020004272460938,-0.12799072265625
41308,-0.3540191650390625,1.112228393554688,-0.15667724609375
41309,-0.3747406005859375,1.168365478515625,-0.153411865234375
41310,-0.394317626953125,1.171066284179688,-0.115203857421875
41311,-0.4065399169921875,1.124038696289062,-0.0646820068359375
41312,-0.389129638671875,1.044418334960938,-0.0341644287109375
41313,-0.3454132080078125,0.970458984375,-0.0284881591796875
41314,-0.293548583984375,0.928558349609375,-0.037109375
41315,-0.23492431640625,0.9200286865234376,-0.0579681396484375
41316,-0.1759033203125,0.9379119873046876,-0.070068359375
41317,-0.12176513671875,0.9673004150390624,-0.0738067626953125
41318,-0.0914306640625,0.9937896728515624,-0.0714569091796875
41319,-0.0871734619140625,1.01544189453125,-0.0565185546875
41320,-0.0951385498046875,1.03228759765625,-0.036651611328125
41321,-0.1086578369140625,1.045013427734375,-0.027252197265625
41322,-0.1182708740234375,1.05224609375,-0.0294342041015625
41323,-0.124542236328125,1.048660278320312,-0.0432891845703125
41324,-0.124755859375,1.030975341796875,-0.0625152587890625
41325,-0.1168212890625,1.003570556640625,-0.0811004638671875
41326,-0.10308837890625,0.979766845703125,-0.093017578125
41327,-0.089385986328125,0.9633636474609376,-0.1017303466796875
41328,-0.079925537109375,0.955780029296875,-0.102508544921875
41329,-0.0781402587890625,0.955322265625,-0.1001129150390625
41330,-0.076385498046875,0.9565582275390624,-0.0957794189453125
41331,-0.0713653564453125,0.960235595703125,-0.0911102294921875
41332,-0.064727783203125,0.9686279296875,-0.0825347900390625
41333,-0.054595947265625,0.983245849609375,-0.071990966796875
41334,-0.0406036376953125,1.000442504882812,-0.0579681396484375
41335,-0.0269775390625,1.012039184570312,-0.04656982421875
41336,-0.011383056640625,1.013656616210938,-0.0407867431640625
41337,0.0044097900390625,1.011199951171875,-0.0350494384765625
41338,0.019134521484375,1.011611938476562,-0.0313568115234375
41339,0.028350830078125,1.012359619140625,-0.0260162353515625
41340,0.0329437255859375,1.012130737304688,-0.02581787109375
41341,0.032562255859375,1.001785278320312,-0.02880859375
41342,0.0319366455078125,0.985992431640625,-0.0311126708984375
41343,0.0320281982421875,0.968994140625,-0.0276947021484375
41344,0.027130126953125,0.945404052734375,-0.0242156982421875
41345,0.0138397216796875,0.9275665283203124,-0.0184173583984375
41346,0.002838134765625,0.9228363037109376,-0.0074310302734375
41347,-0.0149993896484375,0.9239959716796876,0.008758544921875
41348,-0.0276031494140625,0.9322967529296876,0.0229644775390625
41349,-0.0193328857421875,0.9531097412109376,0.03656005859375
41350,0.0455322265625,0.98773193359375,0.068817138671875
41351,0.083282470703125,1.020416259765625,0.076385498046875
41352,0.09326171875,1.011566162109375,0.0483245849609375
41353,0.110076904296875,1.017669677734375,0.0484466552734375
41354,0.1458587646484375,1.027114868164062,0.07354736328125
41355,0.1407012939453125,1.025543212890625,0.082763671875
41356,0.0984344482421875,1.032577514648438,0.0891876220703125
41357,0.0762481689453125,1.028488159179688,0.09906005859375
41358,0.062896728515625,1.014617919921875,0.0987091064453125
41359,0.0569305419921875,1.002426147460938,0.0747222900390625
41360,0.05810546875,1.004592895507812,0.0457000732421875
41361,0.053924560546875,1.010848999023438,0.028472900390625
41362,0.0514068603515625,1.006195068359375,0.0140533447265625
41363,0.0501556396484375,0.99322509765625,0.00152587890625
41364,0.048309326171875,0.979095458984375,-0.005035400390625
41365,0.043212890625,0.964569091796875,-0.002410888671875
41366,0.0355224609375,0.9494476318359376,0.014556884765625
41367,0.026275634765625,0.937255859375,0.0366363525390625
41368,0.018951416015625,0.932098388671875,0.0511627197265625
41369,0.0180816650390625,0.93951416015625,0.0504608154296875
41370,0.0194091796875,0.95281982421875,0.0394744873046875
41371,0.0215911865234375,0.973236083984375,0.0316009521484375
41372,0.0248870849609375,0.993408203125,0.0236358642578125
41373,0.0341339111328125,1.003890991210938,0.023895263671875
41374,0.0484771728515625,1.014572143554688,0.0308685302734375
41375,0.066070556640625,1.022064208984375,0.0367279052734375
41376,0.088623046875,1.030670166015625,0.0416412353515625
41377,0.1128997802734375,1.044143676757812,0.0390777587890625
41378,0.13861083984375,1.052215576171875,0.0358734130859375
41379,0.164093017578125,1.050765991210938,0.0367279052734375
41380,0.18988037109375,1.0361328125,0.037353515625
41381,0.213134765625,1.007797241210938,0.0404510498046875
41382,0.2322845458984375,0.9795684814453124,0.0340576171875
41383,0.2451629638671875,0.9633636474609376,0.0224456787109375
41384,0.25048828125,0.9611663818359376,0.0087738037109375
41385,0.2547607421875,0.9686126708984376,-0.0036773681640625
41386,0.2594146728515625,0.9882659912109376,-0.0149078369140625
41387,0.262969970703125,1.013031005859375,-0.0202484130859375
41388,0.2628173828125,1.046463012695312,-0.0167999267578125
41389,0.256072998046875,1.078933715820312,-0.0068817138671875
41390,0.2423553466796875,1.097137451171875,0.008544921875
41391,0.229888916015625,1.087417602539062,0.0247802734375
41392,0.2213592529296875,1.0550537109375,0.0351715087890625
41393,0.2168731689453125,1.020614624023438,0.037628173828125
41394,0.216400146484375,0.98974609375,0.031646728515625
41395,0.222900390625,0.966949462890625,0.0205841064453125
41396,0.2257843017578125,0.9564361572265624,0.0023345947265625
41397,0.2222900390625,0.9556427001953124,-0.0121612548828125
41398,0.219818115234375,0.955352783203125,-0.0229339599609375
41399,0.22003173828125,0.951934814453125,-0.0284423828125
41400,0.2259521484375,0.94244384765625,-0.0319366455078125
41401,0.2362823486328125,0.92352294921875,-0.0495147705078125
41402,0.24884033203125,0.9107513427734376,-0.073516845703125
41403,0.2607269287109375,0.9288787841796876,-0.1068878173828125
41404,0.260101318359375,0.971893310546875,-0.1253204345703125
41405,0.286895751953125,0.9843597412109376,-0.121551513671875
41406,0.339141845703125,0.9484100341796876,-0.09417724609375
41407,0.360931396484375,0.9275360107421876,-0.06494140625
41408,0.34490966796875,0.9613037109375,-0.008941650390625
41409,0.2926177978515625,1.038101196289062,0.02734375
41410,0.2269439697265625,1.115386962890625,0.0370941162109375
41411,0.1934814453125,1.154159545898438,0.073944091796875
41412,0.1945037841796875,1.174148559570312,0.1042938232421875
41413,0.1847991943359375,1.17877197265625,0.1032562255859375
41414,0.1533203125,1.140182495117188,0.087432861328125
41415,0.1183319091796875,1.064804077148438,0.062103271484375
41416,0.095855712890625,0.9777069091796876,0.0322113037109375
41417,0.0905609130859375,0.8949737548828125,-0.00372314453125
41418,0.09710693359375,0.8430633544921875,-0.032989501953125
41419,0.098876953125,0.8321990966796875,-0.03118896484375
41420,0.0874481201171875,0.855438232421875,-0.0122833251953125
41421,0.0777587890625,0.89556884765625,0.0038299560546875
41422,0.0704345703125,0.940093994140625,0.009307861328125
41423,0.0553741455078125,0.9625244140625,0.0209503173828125
41424,0.0306396484375,0.96881103515625,0.045196533203125
41425,0.004150390625,0.963226318359375,0.0641021728515625
41426,-0.0087432861328125,0.96075439453125,0.074066162109375
41427,-0.0129547119140625,0.9666748046875,0.0493927001953125
41428,-0.005950927734375,0.9693450927734376,0.0142974853515625
41429,0.0095367431640625,0.9796600341796876,-0.016265869140625
41430,0.0219268798828125,1.005157470703125,-0.038299560546875
41431,0.008087158203125,1.035720825195312,-0.0402374267578125
41432,-0.0120391845703125,1.047317504882812,-0.0196380615234375
41433,-0.0223846435546875,1.039321899414062,-0.0106201171875
41434,-0.0323333740234375,1.01800537109375,-0.0169677734375
41435,-0.0343780517578125,0.992645263671875,-0.046295166015625
41436,-0.0300750732421875,0.9687347412109376,-0.059722900390625
41437,-0.028289794921875,0.9501800537109376,-0.04937744140625
41438,-0.0213623046875,0.9417877197265624,-0.0271759033203125
41439,-0.0146331787109375,0.9496002197265624,-0.0216522216796875
41440,-0.01556396484375,0.962646484375,-0.0260009765625
41441,-0.013214111328125,0.9745330810546876,-0.0250091552734375
41442,-0.00531005859375,0.978851318359375,-0.0142974853515625
41443,0.0073089599609375,0.9780731201171876,-0.011627197265625
41444,0.0242156982421875,0.9920196533203124,-0.0227203369140625
41445,0.028594970703125,1.02203369140625,-0.0402069091796875
41446,0.0203094482421875,1.058914184570312,-0.0615997314453125
41447,0.0113677978515625,1.08514404296875,-0.0926666259765625
41448,0.0017852783203125,1.099533081054688,-0.1198577880859375
41449,-0.00921630859375,1.087570190429688,-0.1415557861328125
41450,-0.022369384765625,1.055694580078125,-0.1489105224609375
41451,-0.0295257568359375,1.014801025390625,-0.1444854736328125
41452,-0.027923583984375,0.979888916015625,-0.13690185546875
41453,-0.0188446044921875,0.963226318359375,-0.1386260986328125
41454,-0.0012054443359375,0.9622650146484376,-0.1380615234375
41455,0.019500732421875,0.9700469970703124,-0.12713623046875
41456,0.0346221923828125,0.979949951171875,-0.106842041015625
41457,0.041534423828125,0.985382080078125,-0.080657958984375
41458,0.0459747314453125,0.992401123046875,-0.0553131103515625
41459,0.0498046875,0.9990386962890624,-0.0341339111328125
41460,0.052642822265625,1.00030517578125,-0.0193328857421875
41461,0.0590972900390625,0.9935455322265624,-0.0135955810546875
41462,0.0695343017578125,0.9887847900390624,-0.0038299560546875
41463,0.0792388916015625,0.98095703125,0.00482177734375
41464,0.082611083984375,0.9785919189453124,0.0012054443359375
41465,0.0864105224609375,0.98394775390625,0.00103759765625
41466,0.0869598388671875,0.989410400390625,-0.0003662109375
41467,0.079742431640625,0.99615478515625,-0.003662109375
41468,0.0728302001953125,1.0050048828125,-0.0076446533203125
41469,0.068572998046875,1.008834838867188,-0.0149993896484375
41470,0.0654296875,1.009811401367188,-0.0233917236328125
41471,0.0628814697265625,1.0081787109375,-0.0332489013671875
41472,0.066986083984375,1.010284423828125,-0.0355987548828125
41473,0.0708770751953125,1.0123291015625,-0.034637451171875
41474,0.07684326171875,1.012435913085938,-0.0362396240234375
41475,0.08343505859375,1.010726928710938,-0.0387725830078125
41476,0.08203125,1.0076904296875,-0.0386810302734375
41477,0.076324462890625,1.002593994140625,-0.036865234375
41478,0.06573486328125,1.002197265625,-0.0427398681640625
41479,0.0540008544921875,1.000228881835938,-0.0531463623046875
41480,0.044891357421875,0.9947967529296876,-0.06658935546875
41481,0.0435943603515625,0.990325927734375,-0.079254150390625
41482,0.042999267578125,0.9868927001953124,-0.0875701904296875
41483,0.0441131591796875,0.9804229736328124,-0.090606689453125
41484,0.0474700927734375,0.975494384765625,-0.087432861328125
41485,0.05487060546875,0.981689453125,-0.078643798828125
41486,0.0595855712890625,0.9989166259765624,-0.0732269287109375
41487,0.0595855712890625,1.017974853515625,-0.0622711181640625
41488,0.05718994140625,1.033004760742188,-0.04412841796875
41489,0.0492401123046875,1.040130615234375,-0.032867431640625
41490,0.0426788330078125,1.036895751953125,-0.0326080322265625
41491,0.0415802001953125,1.024261474609375,-0.0395660400390625
41492,0.04339599609375,1.002304077148438,-0.0482330322265625
41493,0.0485076904296875,0.9805755615234376,-0.051788330078125
41494,0.05218505859375,0.9644927978515624,-0.0545196533203125
41495,0.056121826171875,0.953521728515625,-0.0636749267578125
41496,0.0636138916015625,0.954986572265625,-0.0738983154296875
41497,0.0670166015625,0.9613494873046876,-0.077728271484375
41498,0.0691375732421875,0.98028564453125,-0.0788116455078125
41499,0.0718231201171875,0.9925689697265624,-0.07525634765625
41500,0.0713653564453125,1.001510620117188,-0.067535400390625
41501,0.0655059814453125,1.009445190429688,-0.06060791015625
41502,0.0634307861328125,1.011810302734375,-0.0556640625
41503,0.0624237060546875,1.010818481445312,-0.054107666015625
41504,0.0670013427734375,1.009185791015625,-0.05584716796875
41505,0.0776519775390625,1.001602172851562,-0.0592193603515625
41506,0.0917205810546875,0.9868927001953124,-0.0590362548828125
41507,0.1042938232421875,0.9722137451171876,-0.0528411865234375
41508,0.110198974609375,0.956695556640625,-0.0435028076171875
41509,0.1070404052734375,0.9495086669921876,-0.0286865234375
41510,0.0968780517578125,0.95306396484375,-0.016510009765625
41511,0.080841064453125,0.957427978515625,-0.00927734375
41512,0.064178466796875,0.97216796875,-0.00262451171875
41513,0.045257568359375,0.983428955078125,-0.003692626953125
41514,0.029510498046875,0.9916229248046876,-0.015167236328125
41515,0.020599365234375,0.975830078125,-0.034820556640625
41516,0.0179443359375,0.963104248046875,-0.059234619140625
41517,0.0192108154296875,0.9551544189453124,-0.0799560546875
41518,0.0184326171875,0.9522247314453124,-0.0888671875
41519,0.015594482421875,0.9627685546875,-0.0923004150390625
41520,0.0151214599609375,0.9733428955078124,-0.093292236328125
41521,0.0149383544921875,0.9805145263671876,-0.0902099609375
41522,0.0168914794921875,0.9829254150390624,-0.08770751953125
41523,0.0251922607421875,0.9909515380859376,-0.082489013671875
41524,0.03277587890625,0.9983673095703124,-0.078765869140625
41525,0.0398406982421875,0.9953460693359376,-0.07147216796875
41526,0.050872802734375,0.988494873046875,-0.0621490478515625
41527,0.0674285888671875,0.975860595703125,-0.050537109375
41528,0.0805816650390625,0.9669952392578124,-0.0426025390625
41529,0.08941650390625,0.9637908935546876,-0.0408935546875
41530,0.0928802490234375,0.965789794921875,-0.0362396240234375
41531,0.0900115966796875,0.9703826904296876,-0.03271484375
41532,0.0776824951171875,0.977325439453125,-0.0264434814453125
41533,0.05792236328125,0.9837646484375,-0.02069091796875
41534,0.0394744873046875,0.9870452880859376,-0.01837158203125
41535,0.0250244140625,0.9905853271484376,-0.010162353515625
41536,0.0112457275390625,0.998565673828125,-0.004302978515625
41537,0.005523681640625,1.013458251953125,0.0022430419921875
41538,0.0045318603515625,1.032440185546875,0.0047607421875
41539,0.011566162109375,1.052658081054688,0.00555419921875
41540,0.0251922607421875,1.069015502929688,0.00445556640625
41541,0.042022705078125,1.084426879882812,0.0029449462890625
41542,0.061981201171875,1.092666625976562,0.00390625
41543,0.082061767578125,1.093215942382812,0.007598876953125
41544,0.1029052734375,1.08251953125,0.0108184814453125
41545,0.121734619140625,1.06475830078125,0.0179901123046875
41546,0.1396636962890625,1.043212890625,0.0345916748046875
41547,0.1561737060546875,1.020736694335938,0.0471038818359375
41548,0.1689605712890625,1.001800537109375,0.0702667236328125
41549,0.180511474609375,1.000381469726562,0.1059417724609375
41550,0.18817138671875,1.005584716796875,0.1435546875
41551,0.1970672607421875,1.000259399414062,0.16595458984375
41552,0.1989593505859375,0.991943359375,0.1809844970703125
41553,0.205963134765625,0.979644775390625,0.1769561767578125
41554,0.2159576416015625,0.9918212890625,0.1674346923828125
41555,0.2258148193359375,1.041397094726562,0.1630401611328125
41556,0.2307891845703125,1.12652587890625,0.1459503173828125
41557,0.23748779296875,1.210220336914062,0.1244659423828125
41558,0.2508392333984375,1.23223876953125,0.089691162109375
41559,0.273284912109375,1.189056396484375,0.0501556396484375
41560,0.298736572265625,1.109451293945312,0.0218658447265625
41561,0.319854736328125,1.02471923828125,-0.00067138671875
41562,0.329803466796875,0.9536590576171876,-0.0238800048828125
41563,0.319366455078125,0.9126129150390624,-0.0559539794921875
41564,0.2904052734375,0.924774169921875,-0.100006103515625
41565,0.2489166259765625,0.973358154296875,-0.1217193603515625
41566,0.2118988037109375,1.005767822265625,-0.1279296875
41567,0.1795501708984375,1.001754760742188,-0.1312255859375
41568,0.161712646484375,0.975372314453125,-0.143707275390625
41569,0.1651763916015625,0.9402313232421876,-0.154449462890625
41570,0.1792755126953125,0.9067230224609376,-0.1548614501953125
41571,0.194488525390625,0.8891448974609375,-0.1550140380859375
41572,0.2099609375,0.905303955078125,-0.1540985107421875
41573,0.2195892333984375,0.946563720703125,-0.1521148681640625
41574,0.2210693359375,0.9855804443359376,-0.1546630859375
41575,0.22198486328125,1.004013061523438,-0.1576690673828125
41576,0.22314453125,0.9965057373046876,-0.153717041015625
41577,0.22515869140625,0.97735595703125,-0.1485443115234375
41578,0.2220001220703125,0.9538116455078124,-0.1495361328125
41579,0.2167205810546875,0.928680419921875,-0.1644439697265625
41580,0.2129364013671875,0.9072113037109376,-0.1880340576171875
41581,0.21697998046875,0.8911590576171875,-0.2193145751953125
41582,0.22979736328125,0.880218505859375,-0.2481842041015625
41583,0.246551513671875,0.8760528564453125,-0.2707366943359375
41584,0.2642822265625,0.8770751953125,-0.2837066650390625
41585,0.2801971435546875,0.8805389404296875,-0.2831573486328125
41586,0.2933807373046875,0.882110595703125,-0.2755126953125
41587,0.305206298828125,0.8836212158203125,-0.2654266357421875
41588,0.3117828369140625,0.8776092529296875,-0.2499237060546875
41589,0.314483642578125,0.86358642578125,-0.237274169921875
41590,0.3111572265625,0.843902587890625,-0.24432373046875
41591,0.302459716796875,0.82373046875,-0.2607574462890625
41592,0.279937744140625,0.8040771484375,-0.2818756103515625
41593,0.253204345703125,0.7862091064453125,-0.300933837890625
41594,0.2304840087890625,0.774932861328125,-0.3248748779296875
41595,0.2098236083984375,0.7755584716796875,-0.3671417236328125
41596,0.203033447265625,0.79913330078125,-0.408538818359375
41597,0.217926025390625,0.835205078125,-0.4243011474609375
41598,0.2554931640625,0.8791656494140625,-0.3679656982421875
41599,0.28814697265625,0.9348602294921876,-0.253753662109375
41600,0.3107147216796875,0.9908294677734376,-0.12506103515625
41601,0.329742431640625,1.0992431640625,0.021087646484375
41602,0.3160400390625,1.321426391601562,0.1555938720703125
41603,0.209564208984375,1.588592529296875,0.207855224609375
41604,0.0178070068359375,1.719512939453125,0.16973876953125
41605,-0.1747589111328125,1.546798706054688,0.0875701904296875
41606,-0.2402801513671875,1.134735107421875,0.034271240234375
41607,-0.1597900390625,0.8243560791015625,-0.0040130615234375
41608,-0.0716400146484375,0.71728515625,-0.0355987548828125
41609,-0.0146026611328125,0.7326507568359375,-0.0125885009765625
41610,0.0263671875,0.8117828369140625,0.05096435546875
41611,0.0429534912109375,0.9172821044921876,0.11395263671875
41612,0.0300750732421875,0.993072509765625,0.128387451171875
41613,-0.0073699951171875,1.007553100585938,0.0956878662109375
41614,-0.054840087890625,0.9649200439453124,0.0381011962890625
41615,-0.1086578369140625,0.9242095947265624,-0.039703369140625
41616,-0.156890869140625,0.9534912109375,-0.101165771484375
41617,-0.1792755126953125,1.040618896484375,-0.1249237060546875
41618,-0.2035369873046875,1.127212524414062,-0.092254638671875
41619,-0.213348388671875,1.160659790039062,-0.058746337890625
41620,-0.174407958984375,1.151016235351562,-0.030303955078125
41621,-0.1117706298828125,1.09857177734375,-0.0329742431640625
41622,-0.0498504638671875,1.01544189453125,-0.0728302001953125
41623,0.0057830810546875,0.9241485595703124,-0.1079559326171875
41624,0.041656494140625,0.875335693359375,-0.152557373046875
41625,0.0418243408203125,0.886383056640625,-0.1952056884765625
41626,0.0044403076171875,0.9467620849609376,-0.2059783935546875
41627,-0.051971435546875,1.01348876953125,-0.1587066650390625
41628,-0.08807373046875,1.070022583007812,-0.0770263671875
41629,-0.0934295654296875,1.122421264648438,-0.0058441162109375
41630,-0.083099365234375,1.159042358398438,0.03460693359375
41631,-0.059722900390625,1.172393798828125,0.0428466796875
41632,-0.02532958984375,1.154891967773438,0.03851318359375
41633,0.0233001708984375,1.118515014648438,0.0275115966796875
41634,0.063720703125,1.079696655273438,0.016845703125
41635,0.07818603515625,1.0382080078125,0.0168914794921875
41636,0.0716705322265625,0.998748779296875,0.0130157470703125
41637,0.0518798828125,0.96405029296875,-0.0004425048828125
41638,0.032379150390625,0.9442596435546876,-0.0255126953125
41639,0.0185089111328125,0.9437103271484376,-0.0563812255859375
41640,0.0121612548828125,0.9573516845703124,-0.086761474609375
41641,0.0124053955078125,0.96734619140625,-0.10821533203125
41642,0.020294189453125,0.9780120849609376,-0.1214141845703125
41643,0.031097412109375,0.9831695556640624,-0.1213531494140625
41644,0.0518951416015625,0.9793548583984376,-0.11480712890625
41645,0.08087158203125,0.9773406982421876,-0.097564697265625
41646,0.1140899658203125,0.9731903076171876,-0.082855224609375
41647,0.1431884765625,0.9732513427734376,-0.075775146484375
41648,0.1652679443359375,0.9704132080078124,-0.07470703125
41649,0.1756744384765625,0.952972412109375,-0.07598876953125
41650,0.1684722900390625,0.9372100830078124,-0.074920654296875
41651,0.1492767333984375,0.9234771728515624,-0.07330322265625
41652,0.125213623046875,0.9151458740234376,-0.0724029541015625
41653,0.0951385498046875,0.910614013671875,-0.0811004638671875
41654,0.062042236328125,0.9105682373046876,-0.0990142822265625
41655,0.023895263671875,0.9066619873046876,-0.1355438232421875
41656,-0.013519287109375,0.8981781005859375,-0.1732635498046875
41657,-0.0353851318359375,0.885589599609375,-0.199981689453125
41658,-0.0294952392578125,0.88397216796875,-0.2161102294921875
41659,-0.0114593505859375,0.894866943359375,-0.2225494384765625
41660,0.0116119384765625,0.92840576171875,-0.2014617919921875
41661,0.0560455322265625,0.9783782958984376,-0.1505279541015625
41662,0.10028076171875,1.035888671875,-0.0686798095703125
41663,0.154937744140625,1.064620971679688,0.045013427734375
41664,0.1906890869140625,1.048538208007812,0.14056396484375
41665,0.19219970703125,1.022903442382812,0.1778106689453125
41666,0.16192626953125,1.011627197265625,0.185882568359375
41667,0.1038055419921875,1.008743286132812,0.1871795654296875
41668,0.0470428466796875,1.007522583007812,0.15887451171875
41669,0.0078125,1.007675170898438,0.110198974609375
41670,-0.006134033203125,1.024551391601562,0.0646820068359375
41671,0.00994873046875,1.077972412109375,0.0452117919921875
41672,0.0455322265625,1.1650390625,0.0409393310546875
41673,0.086334228515625,1.24432373046875,0.03759765625
41674,0.103179931640625,1.2735595703125,0.037353515625
41675,0.0929107666015625,1.257095336914062,0.0697784423828125
41676,0.0650787353515625,1.207305908203125,0.13323974609375
41677,0.023834228515625,1.146530151367188,0.2139434814453125
41678,-0.018798828125,1.079391479492188,0.2829742431640625
41679,-0.042327880859375,1.022994995117188,0.3217010498046875
41680,-0.0379180908203125,0.9954986572265624,0.331268310546875
41681,-0.01129150390625,0.9822998046875,0.3110809326171875
41682,0.0231475830078125,0.98193359375,0.2608184814453125
41683,0.0783538818359375,0.98223876953125,0.1864013671875
41684,0.1365509033203125,0.9915924072265624,0.11724853515625
41685,0.1934967041015625,1.018020629882812,0.05975341796875
41686,0.25885009765625,1.039794921875,0.0240020751953125
41687,0.3420867919921875,1.029556274414062,0.01220703125
41688,0.4224853515625,0.9741668701171876,0.014434814453125
41689,0.4761810302734375,0.8928680419921875,-0.0026092529296875
41690,0.468017578125,0.9094085693359376,-0.005767822265625
41691,0.4210662841796875,0.975189208984375,0.0019073486328125
41692,0.377410888671875,0.977386474609375,-0.015655517578125
41693,0.344512939453125,0.9441070556640624,-0.022216796875
41694,0.317718505859375,0.93145751953125,-0.02398681640625
41695,0.28662109375,0.9490203857421876,-0.026641845703125
41696,0.25396728515625,0.974853515625,-0.0316619873046875
41697,0.219757080078125,0.9892578125,-0.04150390625
41698,0.189605712890625,0.9814605712890624,-0.053863525390625
41699,0.1669464111328125,0.9567108154296876,-0.065338134765625
41700,0.15289306640625,0.927215576171875,-0.07879638671875
41701,0.145904541015625,0.9040985107421876,-0.0881195068359375
41702,0.140380859375,0.89276123046875,-0.0914154052734375
41703,0.1454925537109375,0.8927001953125,-0.09228515625
41704,0.1564178466796875,0.904632568359375,-0.090667724609375
41705,0.1666412353515625,0.9221038818359376,-0.0859832763671875
41706,0.1739959716796875,0.933502197265625,-0.0811614990234375
41707,0.1797332763671875,0.9400177001953124,-0.07330322265625
41708,0.1882171630859375,0.94439697265625,-0.0606842041015625
41709,0.20068359375,0.951141357421875,-0.0518951416015625
41710,0.210418701171875,0.952484130859375,-0.0474853515625
41711,0.21484375,0.9479827880859376,-0.05108642578125
41712,0.218017578125,0.928741455078125,-0.0576934814453125
41713,0.2192230224609375,0.9020233154296876,-0.0680084228515625
41714,0.21221923828125,0.874603271484375,-0.0831146240234375
41715,0.2011871337890625,0.8502655029296875,-0.074615478515625
41716,0.19207763671875,0.828857421875,-0.077850341796875
41717,0.164398193359375,0.826080322265625,-0.1192626953125
41718,0.137908935546875,0.8483428955078125,-0.1529388427734375
41719,0.1208953857421875,0.87432861328125,-0.1614227294921875
41720,0.103424072265625,0.896270751953125,-0.1855010986328125
41721,0.095367431640625,0.9109649658203124,-0.2308807373046875
41722,0.114990234375,0.9268341064453124,-0.263916015625
41723,0.1627655029296875,0.9727325439453124,-0.2624969482421875
41724,0.2184295654296875,1.069931030273438,-0.2165374755859375
41725,0.26788330078125,1.187179565429688,-0.14447021484375
41726,0.301055908203125,1.273529052734375,-0.06085205078125
41727,0.30352783203125,1.2994384765625,0.030364990234375
41728,0.26556396484375,1.250640869140625,0.1412200927734375
41729,0.1871185302734375,1.112289428710938,0.25469970703125
41730,0.1029815673828125,0.928375244140625,0.3299713134765625
41731,0.0434417724609375,0.7937774658203125,0.3538665771484375
41732,0.0150299072265625,0.7601318359375,0.320892333984375
41733,0.019622802734375,0.80853271484375,0.2302093505859375
41734,0.0300140380859375,0.884857177734375,0.1120758056640625
41735,0.0521697998046875,0.9713134765625,-0.0038604736328125
41736,0.0636138916015625,1.06182861328125,-0.10137939453125
41737,0.048431396484375,1.118728637695312,-0.1706390380859375
41738,0.0196990966796875,1.1046142578125,-0.18585205078125
41739,-0.0022735595703125,1.020538330078125,-0.159149169921875
41740,0.008026123046875,0.9288482666015624,-0.132659912109375
41741,0.026336669921875,0.89715576171875,-0.1178131103515625
41742,0.0362548828125,0.931671142578125,-0.1144561767578125
41743,0.0456695556640625,0.9982757568359376,-0.101806640625
41744,0.0545806884765625,1.065505981445312,-0.0659942626953125
41745,0.055145263671875,1.115249633789062,-0.0196990966796875
41746,0.047821044921875,1.13665771484375,0.0164794921875
41747,0.0284423828125,1.124984741210938,0.02215576171875
41748,0.0162506103515625,1.089126586914062,-0.0042572021484375
41749,0.010589599609375,1.052444458007812,-0.0675048828125
41750,0.0175323486328125,1.020706176757812,-0.132080078125
41751,0.03192138671875,1.004684448242188,-0.171783447265625
41752,0.0460968017578125,0.9986572265625,-0.17767333984375
41753,0.049957275390625,1.003097534179688,-0.1533966064453125
41754,0.047332763671875,1.01177978515625,-0.115753173828125
41755,0.043243408203125,1.022140502929688,-0.0792999267578125
41756,0.0393829345703125,1.024948120117188,-0.0487213134765625
41757,0.039703369140625,1.024429321289062,-0.0271453857421875
41758,0.0473785400390625,1.023971557617188,-0.014678955078125
41759,0.0590667724609375,1.02032470703125,-0.0097808837890625
41760,0.0741424560546875,1.016326904296875,-0.0117034912109375
41761,0.090179443359375,1.010040283203125,-0.0195159912109375
41762,0.1028594970703125,1.001419067382812,-0.0242156982421875
41763,0.1171417236328125,0.9905853271484376,-0.022369384765625
41764,0.122802734375,0.9823150634765624,-0.018829345703125
41765,0.1229705810546875,0.976959228515625,-0.015045166015625
41766,0.11712646484375,0.979827880859375,-0.0165863037109375
41767,0.11126708984375,0.9800872802734376,-0.0234527587890625
41768,0.1058197021484375,0.9857635498046876,-0.0323028564453125
41769,0.0978546142578125,0.9917449951171876,-0.042572021484375
41770,0.08636474609375,0.99560546875,-0.047821044921875
41771,0.0735626220703125,1.001296997070312,-0.0547637939453125
41772,0.060272216796875,1.001968383789062,-0.0643768310546875
41773,0.0536346435546875,0.997528076171875,-0.076507568359375
41774,0.053924560546875,0.9889678955078124,-0.087310791015625
41775,0.0555267333984375,0.9793548583984376,-0.0975799560546875
41776,0.060516357421875,0.9756622314453124,-0.098907470703125
41777,0.06256103515625,0.9804534912109376,-0.09417724609375
41778,0.0620574951171875,0.9901885986328124,-0.083221435546875
41779,0.06365966796875,0.9994964599609376,-0.0754241943359375
41780,0.0726776123046875,1.004440307617188,-0.0684051513671875
41781,0.0901947021484375,1.004409790039062,-0.054290771484375
41782,0.10968017578125,1.003097534179688,-0.040313720703125
41783,0.1270599365234375,1.002655029296875,-0.028900146484375
41784,0.1353302001953125,1.004592895507812,-0.018310546875
41785,0.1329193115234375,1.00616455078125,-0.005706787109375
41786,0.1222076416015625,1.007476806640625,0.000732421875
41787,0.107208251953125,1.00213623046875,-0.005706787109375
41788,0.09356689453125,0.9950103759765624,-0.0146331787109375
41789,0.086700439453125,0.9879608154296876,-0.027587890625
41790,0.0864105224609375,0.983612060546875,-0.0361328125
41791,0.0949554443359375,0.982086181640625,-0.0374298095703125
41792,0.11114501953125,0.9793853759765624,-0.03240966796875
41793,0.129180908203125,0.981475830078125,-0.02252197265625
41794,0.143890380859375,0.9866485595703124,-0.013031005859375
41795,0.1553802490234375,0.999114990234375,-0.0013885498046875
41796,0.15618896484375,1.0125732421875,0.0145263671875
41797,0.1445159912109375,1.027252197265625,0.0294647216796875
41798,0.1300811767578125,1.041610717773438,0.036163330078125
41799,0.1124114990234375,1.040267944335938,0.0288238525390625
41800,0.0958251953125,1.016983032226562,0.0104217529296875
41801,0.0828094482421875,0.9835205078125,-0.0095977783203125
41802,0.074462890625,0.95404052734375,-0.026947021484375
41803,0.0661468505859375,0.9382781982421876,-0.0384063720703125
41804,0.056732177734375,0.9335784912109376,-0.043487548828125
41805,0.044097900390625,0.9393463134765624,-0.0434722900390625
41806,0.0301666259765625,0.9510650634765624,-0.04083251953125
41807,0.01446533203125,0.96844482421875,-0.033447265625
41808,0.0059814453125,0.9867706298828124,-0.026641845703125
41809,0.008758544921875,0.99774169921875,-0.0184478759765625
41810,0.0216217041015625,1.002090454101562,-0.0076141357421875
41811,0.0403900146484375,1.00152587890625,0.00640869140625
41812,0.0625,1.001022338867188,0.0186614990234375
41813,0.0847625732421875,0.9971923828125,0.02099609375
41814,0.1102294921875,0.994720458984375,0.0173797607421875
41815,0.13531494140625,0.99761962890625,0.010894775390625
41816,0.1543121337890625,0.9972076416015624,0.0065155029296875
41817,0.1609954833984375,0.9941864013671876,0.005157470703125
41818,0.157867431640625,0.9890594482421876,0.0079803466796875
41819,0.1473541259765625,0.9835968017578124,0.0144195556640625
41820,0.12847900390625,0.981719970703125,0.015106201171875
41821,0.112518310546875,0.980377197265625,0.013885498046875
41822,0.09881591796875,0.9832000732421876,0.0132293701171875
41823,0.0869598388671875,0.9888916015625,0.0131683349609375
41824,0.083251953125,0.9945220947265624,0.013092041015625
41825,0.0825653076171875,0.9964447021484376,0.0151519775390625
41826,0.0867462158203125,0.9920501708984376,0.01776123046875
41827,0.0927734375,0.9842681884765624,0.0177154541015625
41828,0.10015869140625,0.9767913818359376,0.0141754150390625
41829,0.1070404052734375,0.9715728759765624,0.0101776123046875
41830,0.1106719970703125,0.970794677734375,0.008148193359375
41831,0.1077728271484375,0.9763641357421876,0.0083160400390625
41832,0.0990753173828125,0.986083984375,0.0088653564453125
41833,0.0870513916015625,1.000503540039062,0.0091400146484375
41834,0.0738677978515625,1.017440795898438,0.006103515625
41835,0.0653533935546875,1.029983520507812,4.57763671875e-05
41836,0.0571746826171875,1.03839111328125,-0.0106658935546875
41837,0.0536651611328125,1.041793823242188,-0.0209197998046875
41838,0.052154541015625,1.036163330078125,-0.0300750732421875
41839,0.055450439453125,1.02178955078125,-0.0371551513671875
41840,0.0614776611328125,1.012130737304688,-0.043060302734375
41841,0.067047119140625,1.002349853515625,-0.047210693359375
41842,0.0732421875,0.9865570068359376,-0.0482025146484375
41843,0.0776519775390625,0.9718170166015624,-0.0477447509765625
41844,0.0794677734375,0.961822509765625,-0.0455780029296875
41845,0.0790557861328125,0.9606781005859376,-0.0432586669921875
41846,0.077239990234375,0.9644012451171876,-0.043243408203125
41847,0.074005126953125,0.97393798828125,-0.04254150390625
41848,0.07183837890625,0.9856414794921876,-0.0396270751953125
41849,0.0695037841796875,1.001495361328125,-0.034942626953125
41850,0.06988525390625,1.019744873046875,-0.03094482421875
41851,0.0706634521484375,1.030242919921875,-0.0274505615234375
41852,0.0751190185546875,1.031036376953125,-0.0243377685546875
41853,0.082366943359375,1.029067993164062,-0.025390625
41854,0.0903778076171875,1.020492553710938,-0.026580810546875
41855,0.0975189208984375,1.005874633789062,-0.028594970703125
41856,0.1057586669921875,0.9968414306640624,-0.02801513671875
41857,0.1094207763671875,0.993621826171875,-0.0292205810546875
41858,0.10675048828125,0.9893798828125,-0.0298309326171875
41859,0.10546875,0.989166259765625,-0.0319366455078125
41860,0.100341796875,0.9898223876953124,-0.035308837890625
41861,0.0926361083984375,0.9874725341796876,-0.0366363525390625
41862,0.08502197265625,0.9834442138671876,-0.04132080078125
41863,0.0773468017578125,0.97900390625,-0.044586181640625
41864,0.069549560546875,0.9790802001953124,-0.047576904296875
41865,0.0604705810546875,0.9847564697265624,-0.0471954345703125
41866,0.051849365234375,0.994476318359375,-0.0484161376953125
41867,0.0432281494140625,1.005599975585938,-0.0479278564453125
41868,0.03448486328125,1.017349243164062,-0.0482177734375
41869,0.029937744140625,1.023178100585938,-0.0464019775390625
41870,0.0268707275390625,1.022232055664062,-0.0432281494140625
41871,0.0272369384765625,1.018310546875,-0.043701171875
41872,0.032440185546875,1.0048828125,-0.0474395751953125
41873,0.0392608642578125,0.987213134765625,-0.052642822265625
41874,0.05120849609375,0.9679107666015624,-0.059814453125
41875,0.061431884765625,0.9561309814453124,-0.06561279296875
41876,0.0716400146484375,0.9530029296875,-0.0699615478515625
41877,0.079345703125,0.9587249755859376,-0.0707550048828125
41878,0.0801544189453125,0.970977783203125,-0.0682830810546875
41879,0.0766448974609375,0.980682373046875,-0.06524658203125
41880,0.0702056884765625,0.9881439208984376,-0.0611724853515625
41881,0.0655364990234375,0.9899749755859376,-0.05718994140625
41882,0.060821533203125,0.9873046875,-0.0543670654296875
41883,0.0568389892578125,0.981658935546875,-0.0517730712890625
41884,0.0539398193359375,0.9799346923828124,-0.04644775390625
41885,0.04681396484375,0.979827880859375,-0.0392303466796875
41886,0.04071044921875,0.9839019775390624,-0.03460693359375
41887,0.0360260009765625,0.9871673583984376,-0.0322418212890625
41888,0.03173828125,0.994903564453125,-0.0307769775390625
41889,0.02960205078125,1.000686645507812,-0.03173828125
41890,0.032073974609375,1.00311279296875,-0.0323028564453125
41891,0.0380096435546875,0.9998016357421876,-0.0327606201171875
41892,0.0440673828125,0.995697021484375,-0.03106689453125
41893,0.049468994140625,0.991973876953125,-0.0260162353515625
41894,0.053436279296875,0.9915924072265624,-0.0220947265625
41895,0.0562286376953125,0.9924774169921876,-0.0203094482421875
41896,0.05950927734375,0.9940948486328124,-0.0188446044921875
41897,0.06109619140625,0.9953460693359376,-0.0194091796875
41898,0.0628509521484375,0.994598388671875,-0.020355224609375
41899,0.063568115234375,0.9947662353515624,-0.0205230712890625
41900,0.06072998046875,0.99517822265625,-0.0190582275390625
41901,0.0565032958984375,0.9947662353515624,-0.017425537109375
41902,0.0542144775390625,0.9925384521484376,-0.018798828125
41903,0.0499420166015625,0.9895782470703124,-0.02044677734375
41904,0.0431671142578125,0.991119384765625,-0.0228118896484375
41905,0.03521728515625,0.9942626953125,-0.0294952392578125
41906,0.0260009765625,0.997955322265625,-0.0368194580078125
41907,0.0143585205078125,1.0,-0.04290771484375
41908,0.001434326171875,1.0020751953125,-0.0481719970703125
41909,-0.0101776123046875,1.004486083984375,-0.0531005859375
41910,-0.0206756591796875,1.007980346679688,-0.0563812255859375
41911,-0.0278167724609375,1.010589599609375,-0.0583953857421875
41912,-0.0305938720703125,1.009994506835938,-0.0612640380859375
41913,-0.02880859375,1.005889892578125,-0.06158447265625
41914,-0.0229339599609375,0.9983062744140624,-0.0600433349609375
41915,-0.0134735107421875,0.987518310546875,-0.05731201171875
41916,-0.003204345703125,0.9799652099609376,-0.0535125732421875
41917,0.0051727294921875,0.9756317138671876,-0.051910400390625
41918,0.009033203125,0.975677490234375,-0.05206298828125
41919,0.0118560791015625,0.978302001953125,-0.0536651611328125
41920,0.0148773193359375,0.984771728515625,-0.0540924072265625
41921,0.0153961181640625,0.9936065673828124,-0.0531463623046875
41922,0.0163421630859375,1.000595092773438,-0.052398681640625
41923,0.0143890380859375,1.004135131835938,-0.0527496337890625
41924,0.011688232421875,1.000839233398438,-0.0513916015625
41925,0.008575439453125,0.9954986572265624,-0.049774169921875
41926,0.0066680908203125,0.9888153076171876,-0.0494537353515625
41927,0.00439453125,0.9830322265625,-0.0480194091796875
41928,0.0009307861328125,0.9808502197265624,-0.05218505859375
41929,-0.000946044921875,0.979736328125,-0.05615234375
41930,-0.0010528564453125,0.981964111328125,-0.05657958984375
41931,0.0012359619140625,0.9855194091796876,-0.058929443359375
41932,0.0047149658203125,0.985198974609375,-0.0596771240234375
41933,0.007354736328125,0.98760986328125,-0.0608978271484375
41934,0.006011962890625,0.9898529052734376,-0.060516357421875
41935,0.0017242431640625,0.9930572509765624,-0.0591278076171875
41936,-0.0050811767578125,0.9959869384765624,-0.0604095458984375
41937,-0.01318359375,0.9972686767578124,-0.06097412109375
41938,-0.02154541015625,0.9968414306640624,-0.06085205078125
41939,-0.0275726318359375,0.9953460693359376,-0.0600738525390625
41940,-0.03173828125,0.9936981201171876,-0.059173583984375
41941,-0.0330352783203125,0.9930877685546876,-0.0604400634765625
41942,-0.0304412841796875,0.9940338134765624,-0.0647125244140625
41943,-0.02606201171875,0.9947967529296876,-0.071533203125
41944,-0.0200347900390625,0.994384765625,-0.077606201171875
41945,-0.01092529296875,0.9938812255859376,-0.08331298828125
41946,-0.001495361328125,0.9906158447265624,-0.0819549560546875
41947,0.007110595703125,0.9883880615234376,-0.0741119384765625
41948,0.01507568359375,0.9831695556640624,-0.062957763671875
41949,0.0191192626953125,0.975830078125,-0.0517730712890625
41950,0.020477294921875,0.9701080322265624,-0.0460968017578125
41951,0.014434814453125,0.96905517578125,-0.048675537109375
41952,0.0052337646484375,0.966552734375,-0.0581207275390625
41953,0.0019683837890625,0.9636993408203124,-0.069488525390625
41954,0.0067138671875,0.960418701171875,-0.079345703125
41955,0.020416259765625,0.9595184326171876,-0.0843658447265625
41956,0.0382537841796875,0.9616851806640624,-0.08856201171875
41957,0.05810546875,0.9690704345703124,-0.087554931640625
41958,0.0807952880859375,0.9807281494140624,-0.08001708984375
41959,0.1028289794921875,0.995697021484375,-0.06640625
41960,0.11822509765625,1.009231567382812,-0.053863525390625
41961,0.123199462890625,1.018386840820312,-0.0436859130859375
41962,0.1199951171875,1.02313232421875,-0.0362701416015625
41963,0.115966796875,1.019439697265625,-0.0390777587890625
41964,0.113250732421875,1.009109497070312,-0.0491180419921875
41965,0.108673095703125,0.997344970703125,-0.05902099609375
41966,0.100067138671875,0.9910430908203124,-0.0675506591796875
41967,0.090057373046875,0.9935455322265624,-0.074310302734375
41968,0.0775146484375,0.9945831298828124,-0.076171875
41969,0.060943603515625,0.9849853515625,-0.0803375244140625
41970,0.048309326171875,0.9710693359375,-0.08160400390625
41971,0.043701171875,0.9586334228515624,-0.076690673828125
41972,0.045867919921875,0.9565582275390624,-0.07379150390625
