time_idx,accelerometerAccelerationX(G),accelerometerAccelerationY(G),accelerometerAccelerationZ(G)
80000,-0.3872528076171875,-0.803924560546875,0.361663818359375
80001,-0.3317718505859375,-0.6932373046875,0.418548583984375
80002,-0.25115966796875,-0.6139984130859375,0.491668701171875
80003,-0.16375732421875,-0.5569610595703125,0.561126708984375
80004,-0.0779876708984375,-0.5074920654296875,0.6164093017578125
80005,0.0252227783203125,-0.4740753173828125,0.6630096435546875
80006,0.13641357421875,-0.4386138916015625,0.72674560546875
80007,0.232391357421875,-0.40966796875,0.8035430908203125
80008,0.31585693359375,-0.4042816162109375,0.8844451904296875
80009,0.3735198974609375,-0.3843841552734375,0.986175537109375
80010,0.43145751953125,-0.30072021484375,1.09320068359375
80011,0.49072265625,-0.237335205078125,1.1787109375
80012,0.5436553955078125,-0.1808319091796875,1.274398803710938
80013,0.592315673828125,-0.0832366943359375,1.347366333007812
80014,0.6416015625,0.00604248046875,1.391372680664062
80015,0.7324066162109375,0.0531463623046875,1.359725952148438
80016,0.8194427490234375,0.0540924072265625,1.245193481445312
80017,0.8630523681640625,0.0512237548828125,1.065170288085938
80018,0.8875274658203125,0.0628662109375,0.871795654296875
80019,0.944915771484375,0.099334716796875,0.754669189453125
80020,0.9843597412109376,0.1703643798828125,0.7351531982421875
80021,0.984619140625,0.215728759765625,0.7493743896484375
80022,0.964202880859375,0.2187957763671875,0.773651123046875
80023,0.9177703857421876,0.219970703125,0.8330230712890625
80024,0.8485870361328125,0.247467041015625,0.910186767578125
80025,0.77862548828125,0.281646728515625,0.9745330810546876
80026,0.726776123046875,0.2537689208984375,1.014663696289062
80027,0.67431640625,0.1745758056640625,1.062789916992188
80028,0.6133880615234375,0.058258056640625,1.126510620117188
80029,0.535491943359375,-0.08404541015625,1.160629272460938
80030,0.441650390625,-0.2154541015625,1.137405395507812
80031,0.3592987060546875,-0.3320465087890625,1.073867797851562
80032,0.280609130859375,-0.4291229248046875,1.018997192382812
80033,0.2086639404296875,-0.491943359375,1.0025634765625
80034,0.1678314208984375,-0.5388336181640625,0.98065185546875
80035,0.14569091796875,-0.5654296875,0.9373779296875
80036,0.1302032470703125,-0.56884765625,0.8773193359375
80037,0.1106719970703125,-0.5714111328125,0.8247833251953125
80038,0.0936431884765625,-0.591156005859375,0.8028717041015625
80039,0.080718994140625,-0.615753173828125,0.79449462890625
80040,0.081512451171875,-0.63970947265625,0.783843994140625
80041,0.1089019775390625,-0.6454010009765625,0.762451171875
80042,0.15289306640625,-0.643096923828125,0.74005126953125
80043,0.1958465576171875,-0.631103515625,0.7210235595703125
80044,0.227813720703125,-0.6221771240234375,0.691650390625
80045,0.248138427734375,-0.6259613037109375,0.64910888671875
80046,0.262237548828125,-0.6354217529296875,0.6290435791015625
80047,0.252532958984375,-0.65728759765625,0.6256866455078125
80048,0.2003631591796875,-0.7089080810546875,0.64892578125
80049,0.1268157958984375,-0.8218231201171875,0.6936492919921875
80050,-0.002044677734375,-0.95672607421875,0.721435546875
80051,-0.19189453125,-1.0596923828125,0.7417144775390625
80052,-0.4173583984375,-1.122039794921875,0.742767333984375
80053,-0.639678955078125,-1.135238647460938,0.747528076171875
80054,-0.8109588623046875,-1.11688232421875,0.733856201171875
80055,-0.856353759765625,-1.048004150390625,0.6907958984375
80056,-0.748687744140625,-0.945556640625,0.5952911376953125
80057,-0.5459747314453125,-0.89862060546875,0.4686126708984375
80058,-0.4053955078125,-0.85186767578125,0.3604278564453125
80059,-0.3486175537109375,-0.7996826171875,0.3112030029296875
80060,-0.310089111328125,-0.771759033203125,0.32135009765625
80061,-0.2746124267578125,-0.7590179443359375,0.354644775390625
80062,-0.246734619140625,-0.73736572265625,0.40985107421875
80063,-0.228973388671875,-0.6995391845703125,0.48809814453125
80064,-0.196258544921875,-0.6442108154296875,0.59246826171875
80065,-0.166748046875,-0.585723876953125,0.6888427734375
80066,-0.135833740234375,-0.552734375,0.7831268310546875
80067,-0.0897064208984375,-0.53314208984375,0.897552490234375
80068,-0.032470703125,-0.5118408203125,1.000076293945312
80069,0.1008148193359375,-0.53948974609375,1.088821411132812
80070,0.225860595703125,-0.499603271484375,1.143890380859375
80071,0.298248291015625,-0.4203033447265625,1.151885986328125
80072,0.379547119140625,-0.375,1.140609741210938
80073,0.45733642578125,-0.336273193359375,1.122314453125
80074,0.500885009765625,-0.2544097900390625,1.1094970703125
80075,0.50872802734375,-0.153167724609375,1.100677490234375
80076,0.5421142578125,-0.0918121337890625,1.0919189453125
80077,0.6434173583984375,-0.0506591796875,1.08270263671875
80078,0.722412109375,0.00982666015625,1.0426025390625
80079,0.790679931640625,0.03790283203125,1.00946044921875
80080,0.85015869140625,0.0329437255859375,0.9698638916015624
80081,0.9083099365234376,0.0403594970703125,0.9647064208984376
80082,0.9935455322265624,0.04217529296875,0.9900360107421876
80083,1.080108642578125,0.02020263671875,1.013107299804688
80084,1.156967163085938,-0.032318115234375,1.039535522460938
80085,1.199813842773438,-0.086151123046875,1.062164306640625
80086,1.185882568359375,-0.1214447021484375,1.058090209960938
80087,1.125732421875,-0.142822265625,1.014434814453125
80088,1.04998779296875,-0.17181396484375,0.956817626953125
80089,0.9830780029296876,-0.221954345703125,0.9013671875
80090,0.9161224365234376,-0.2659912109375,0.8631439208984375
80091,0.8478851318359375,-0.2836456298828125,0.8465423583984375
80092,0.779815673828125,-0.2899017333984375,0.8341827392578125
80093,0.7353363037109375,-0.2995758056640625,0.84063720703125
80094,0.71099853515625,-0.3115692138671875,0.864898681640625
80095,0.677215576171875,-0.32867431640625,0.875274658203125
80096,0.62774658203125,-0.3385467529296875,0.878662109375
80097,0.5792999267578125,-0.3450775146484375,0.883209228515625
80098,0.5185699462890625,-0.3421630859375,0.8950653076171875
80099,0.448455810546875,-0.3463134765625,0.912353515625
80100,0.3599700927734375,-0.369720458984375,0.926422119140625
80101,0.2530670166015625,-0.41168212890625,0.93115234375
80102,0.130126953125,-0.4513092041015625,0.9215545654296876
80103,-0.00897216796875,-0.48626708984375,0.896484375
80104,-0.1631622314453125,-0.50531005859375,0.85162353515625
80105,-0.314117431640625,-0.506622314453125,0.791473388671875
80106,-0.4345855712890625,-0.500823974609375,0.7125701904296875
80107,-0.4736175537109375,-0.5301513671875,0.6302032470703125
80108,-0.4500579833984375,-0.59234619140625,0.5133056640625
80109,-0.359588623046875,-0.7095947265625,0.403564453125
80110,-0.287078857421875,-0.8735198974609375,0.3005828857421875
80111,-0.251983642578125,-1.05804443359375,0.283111572265625
80112,-0.2596435546875,-1.233261108398438,0.350799560546875
80113,-0.2954559326171875,-1.327972412109375,0.474365234375
80114,-0.327880859375,-1.341949462890625,0.594696044921875
80115,-0.374176025390625,-1.363800048828125,0.656890869140625
80116,-0.4401397705078125,-1.408966064453125,0.6871185302734375
80117,-0.5039215087890625,-1.445037841796875,0.688568115234375
80118,-0.5310211181640625,-1.437652587890625,0.66241455078125
80119,-0.50390625,-1.325820922851562,0.63482666015625
80120,-0.464691162109375,-1.094375610351562,0.605560302734375
80121,-0.4492340087890625,-0.8848419189453125,0.53997802734375
80122,-0.4242095947265625,-0.783843994140625,0.47747802734375
80123,-0.3765106201171875,-0.7311553955078125,0.451263427734375
80124,-0.3267364501953125,-0.6836700439453125,0.4585418701171875
80125,-0.264862060546875,-0.6213226318359375,0.4832763671875
80126,-0.1730194091796875,-0.5682220458984375,0.510467529296875
80127,-0.069000244140625,-0.5233306884765625,0.5494232177734375
80128,0.0333251953125,-0.4730072021484375,0.616943359375
80129,0.16448974609375,-0.3631744384765625,0.7052764892578125
80130,0.25372314453125,-0.306060791015625,0.8377838134765625
80131,0.342254638671875,-0.2957763671875,0.9912109375
80132,0.4145965576171875,-0.265228271484375,1.133926391601562
80133,0.4650115966796875,-0.2215576171875,1.235000610351562
80134,0.493682861328125,-0.1707611083984375,1.31158447265625
80135,0.5468292236328125,-0.119964599609375,1.356842041015625
80136,0.666168212890625,-0.070465087890625,1.3302001953125
80137,0.7591552734375,-0.0176544189453125,1.23175048828125
80138,0.804656982421875,0.029083251953125,1.082290649414062
80139,0.8409576416015625,0.0576171875,0.950469970703125
80140,0.8563995361328125,0.103546142578125,0.8478240966796875
80141,0.8429412841796875,0.175201416015625,0.7866363525390625
80142,0.8230133056640625,0.233642578125,0.787811279296875
80143,0.804656982421875,0.2288970947265625,0.784027099609375
80144,0.7985992431640625,0.1843719482421875,0.75006103515625
80145,0.8010406494140625,0.176055908203125,0.73077392578125
80146,0.797271728515625,0.200225830078125,0.7512969970703125
80147,0.772125244140625,0.2127532958984375,0.8181915283203125
80148,0.711578369140625,0.2069549560546875,0.9128875732421876
80149,0.6352386474609375,0.19879150390625,1.002410888671875
80150,0.5739288330078125,0.1700897216796875,1.0758056640625
80151,0.5151519775390625,0.1245574951171875,1.13330078125
80152,0.4455718994140625,0.0370025634765625,1.183181762695312
80153,0.3761444091796875,-0.091705322265625,1.2166748046875
80154,0.2872161865234375,-0.21441650390625,1.245285034179688
80155,0.1635284423828125,-0.3250579833984375,1.258056640625
80156,0.0475921630859375,-0.4469146728515625,1.252593994140625
80157,-0.0734100341796875,-0.55181884765625,1.210525512695312
80158,-0.1705322265625,-0.664276123046875,1.139266967773438
80159,-0.239349365234375,-0.7732696533203125,1.006454467773438
80160,-0.2880706787109375,-0.8425140380859375,0.838653564453125
80161,-0.304107666015625,-0.86981201171875,0.6884613037109375
80162,-0.2904205322265625,-0.8661041259765625,0.57568359375
80163,-0.25946044921875,-0.846649169921875,0.5004730224609375
80164,-0.2173919677734375,-0.8076934814453125,0.4447021484375
80165,-0.1357879638671875,-0.7631988525390625,0.41046142578125
80166,-0.040618896484375,-0.7140960693359375,0.395965576171875
80167,0.0372467041015625,-0.6615447998046875,0.415283203125
80168,0.1366119384765625,-0.6226043701171875,0.49322509765625
80169,0.2400970458984375,-0.6137542724609375,0.5930328369140625
80170,0.3096923828125,-0.6519775390625,0.68609619140625
80171,0.330108642578125,-0.713409423828125,0.7757568359375
80172,0.3062591552734375,-0.7671966552734375,0.863677978515625
80173,0.2459716796875,-0.817474365234375,0.961212158203125
80174,0.1321563720703125,-0.84710693359375,1.03338623046875
80175,0.000946044921875,-0.8661346435546875,1.043167114257812
80176,-0.130889892578125,-0.93115234375,1.011077880859375
80177,-0.28314208984375,-0.982025146484375,0.96478271484375
80178,-0.4293670654296875,-0.9746246337890624,0.9226837158203124
80179,-0.49517822265625,-0.906005859375,0.871429443359375
80180,-0.445159912109375,-0.8603973388671875,0.7531280517578125
80181,-0.3275299072265625,-0.8338623046875,0.547821044921875
80182,-0.25872802734375,-0.792572021484375,0.34661865234375
80183,-0.23187255859375,-0.7339019775390625,0.2363128662109375
80184,-0.2194061279296875,-0.69891357421875,0.2133331298828125
80185,-0.222900390625,-0.6968994140625,0.2556915283203125
80186,-0.24468994140625,-0.6802520751953125,0.33258056640625
80187,-0.2553253173828125,-0.64422607421875,0.424774169921875
80188,-0.237152099609375,-0.6052703857421875,0.5343475341796875
80189,-0.19708251953125,-0.563812255859375,0.654510498046875
80190,-0.1475067138671875,-0.5490264892578125,0.7746124267578125
80191,-0.084136962890625,-0.5654754638671875,0.8788604736328125
80192,0.0437164306640625,-0.5804595947265625,1.006561279296875
80193,0.198272705078125,-0.5287322998046875,1.118667602539062
80194,0.3188629150390625,-0.471954345703125,1.18560791015625
80195,0.422760009765625,-0.450775146484375,1.198043823242188
80196,0.505523681640625,-0.40423583984375,1.188262939453125
80197,0.556884765625,-0.3179168701171875,1.171905517578125
80198,0.58660888671875,-0.219757080078125,1.147415161132812
80199,0.6093597412109375,-0.143310546875,1.114181518554688
80200,0.640960693359375,-0.0834197998046875,1.082199096679688
80201,0.658843994140625,-0.032257080078125,1.022598266601562
80202,0.70526123046875,-0.0235137939453125,0.962799072265625
80203,0.772857666015625,-0.0157012939453125,0.9425506591796876
80204,0.83721923828125,0.0124969482421875,0.9440155029296876
80205,0.904541015625,0.0177001953125,0.9379119873046876
80206,0.968475341796875,0.01434326171875,0.92327880859375
80207,1.015289306640625,0.0081329345703125,0.915283203125
80208,1.034011840820312,-0.0267486572265625,0.877838134765625
80209,1.036285400390625,-0.0725860595703125,0.8449859619140625
80210,1.025497436523438,-0.1128692626953125,0.8274993896484375
80211,1.007400512695312,-0.1525421142578125,0.8253936767578125
80212,0.9858856201171876,-0.19403076171875,0.84423828125
80213,0.9539031982421876,-0.256378173828125,0.88372802734375
80214,0.9104461669921876,-0.31903076171875,0.93768310546875
80215,0.843536376953125,-0.369873046875,0.972686767578125
80216,0.778961181640625,-0.4109344482421875,1.00225830078125
80217,0.7375946044921875,-0.442291259765625,1.02923583984375
80218,0.7024993896484375,-0.4510040283203125,1.04278564453125
80219,0.6456451416015625,-0.4547576904296875,1.030715942382812
80220,0.5807952880859375,-0.4524078369140625,1.02618408203125
80221,0.498199462890625,-0.4422454833984375,1.017837524414062
80222,0.391082763671875,-0.45361328125,0.9980316162109376
80223,0.271728515625,-0.497650146484375,0.969970703125
80224,0.144256591796875,-0.5506744384765625,0.9358367919921876
80225,-0.000274658203125,-0.5844573974609375,0.9041595458984376
80226,-0.153045654296875,-0.5943603515625,0.883544921875
80227,-0.3026123046875,-0.6034698486328125,0.857330322265625
80228,-0.4231109619140625,-0.6071319580078125,0.8250579833984375
80229,-0.495635986328125,-0.5820159912109375,0.733917236328125
80230,-0.511077880859375,-0.5592193603515625,0.6042327880859375
80231,-0.4965667724609375,-0.57940673828125,0.46728515625
80232,-0.4692535400390625,-0.641387939453125,0.35369873046875
80233,-0.4351959228515625,-0.697723388671875,0.2690277099609375
80234,-0.344635009765625,-0.7330780029296875,0.2343597412109375
80235,-0.20147705078125,-0.7377471923828125,0.2940521240234375
80236,-0.13092041015625,-0.735107421875,0.430694580078125
80237,-0.145050048828125,-0.795013427734375,0.5595245361328125
80238,-0.1493377685546875,-0.8759307861328125,0.6746063232421875
80239,-0.175140380859375,-0.9881134033203124,0.7422637939453125
80240,-0.22625732421875,-1.11859130859375,0.7704010009765625
80241,-0.285308837890625,-1.231094360351562,0.7746734619140625
80242,-0.32965087890625,-1.274246215820312,0.747039794921875
80243,-0.3727874755859375,-1.244598388671875,0.6789703369140625
80244,-0.4179840087890625,-1.12701416015625,0.5971832275390625
80245,-0.439849853515625,-0.9461669921875,0.5295562744140625
80246,-0.4499053955078125,-0.8079376220703125,0.479522705078125
80247,-0.4678955078125,-0.7419281005859375,0.4583587646484375
80248,-0.480560302734375,-0.7238311767578125,0.4641876220703125
80249,-0.4534759521484375,-0.729827880859375,0.4915924072265625
80250,-0.3940887451171875,-0.7290496826171875,0.521881103515625
80251,-0.305908203125,-0.72833251953125,0.5636749267578125
80252,-0.19683837890625,-0.685699462890625,0.6183929443359375
80253,-0.038482666015625,-0.635009765625,0.670654296875
80254,0.124114990234375,-0.491455078125,0.727386474609375
80255,0.2274017333984375,-0.3915557861328125,0.8170928955078125
80256,0.3107452392578125,-0.290130615234375,0.946044921875
80257,0.3803558349609375,-0.165618896484375,1.114715576171875
80258,0.4787445068359375,-0.058563232421875,1.318145751953125
80259,0.6239013671875,0.0446929931640625,1.534683227539062
80260,0.773040771484375,0.096649169921875,1.616317749023438
80261,0.9256439208984376,0.0802764892578125,1.490066528320312
80262,1.08355712890625,0.0440673828125,1.309036254882812
80263,1.149566650390625,0.0742645263671875,1.190139770507812
80264,1.139175415039062,0.11383056640625,1.076004028320312
80265,1.07855224609375,0.1198883056640625,0.9527435302734376
80266,1.007476806640625,0.1372528076171875,0.903778076171875
80267,0.9675140380859376,0.1588592529296875,0.8495635986328125
80268,0.9531707763671876,0.186553955078125,0.76751708984375
80269,0.9150390625,0.21478271484375,0.724639892578125
80270,0.8330078125,0.22833251953125,0.7193756103515625
80271,0.726531982421875,0.244140625,0.7389678955078125
80272,0.6194305419921875,0.2558135986328125,0.7864837646484375
80273,0.5276031494140625,0.257080078125,0.860595703125
80274,0.4669189453125,0.2231597900390625,0.95538330078125
80275,0.3964996337890625,0.139801025390625,1.025421142578125
80276,0.3102569580078125,-0.0047607421875,1.0594482421875
80277,0.22589111328125,-0.1963043212890625,1.07781982421875
80278,0.13824462890625,-0.4019622802734375,1.094451904296875
80279,0.052398681640625,-0.5637664794921875,1.12664794921875
80280,-0.021728515625,-0.6431884765625,1.145156860351562
80281,-0.0693511962890625,-0.6642608642578125,1.119796752929688
80282,-0.08056640625,-0.68316650390625,1.036270141601562
80283,-0.071380615234375,-0.7011566162109375,0.914154052734375
80284,-0.072265625,-0.7010040283203125,0.7989501953125
80285,-0.0746002197265625,-0.6912384033203125,0.6928558349609375
80286,-0.050994873046875,-0.679779052734375,0.6050567626953125
80287,-0.00537109375,-0.67578125,0.5538787841796875
80288,0.041259765625,-0.672027587890625,0.5419158935546875
80289,0.09552001953125,-0.66339111328125,0.5685882568359375
80290,0.124114990234375,-0.63751220703125,0.60400390625
80291,0.1255645751953125,-0.6043853759765625,0.6302642822265625
80292,0.136474609375,-0.593658447265625,0.6722259521484375
80293,0.136749267578125,-0.610107421875,0.7275848388671875
80294,0.0821533203125,-0.667694091796875,0.7853240966796875
80295,-0.0334625244140625,-0.7567901611328125,0.818878173828125
80296,-0.198516845703125,-0.8362274169921875,0.8300018310546875
80297,-0.38629150390625,-0.885040283203125,0.8124542236328125
80298,-0.5670928955078125,-0.913116455078125,0.7660980224609375
80299,-0.7092132568359375,-1.006576538085938,0.690948486328125
80300,-0.7448272705078125,-1.037185668945312,0.64630126953125
80301,-0.7055816650390625,-1.027740478515625,0.5855865478515625
80302,-0.589599609375,-1.013427734375,0.4904937744140625
80303,-0.46368408203125,-0.99737548828125,0.3813323974609375
80304,-0.37835693359375,-0.9862060546875,0.288482666015625
80305,-0.320709228515625,-0.9539031982421876,0.2524871826171875
80306,-0.26165771484375,-0.8983306884765625,0.284637451171875
80307,-0.214202880859375,-0.8313140869140625,0.3489227294921875
80308,-0.1901397705078125,-0.769683837890625,0.4111785888671875
80309,-0.1695098876953125,-0.7270355224609375,0.4963226318359375
80310,-0.131103515625,-0.6976776123046875,0.618255615234375
80311,-0.06494140625,-0.66595458984375,0.7809600830078125
80312,0.0099334716796875,-0.6188201904296875,0.9678802490234376
80313,0.08367919921875,-0.6058349609375,1.123779296875
80314,0.2319183349609375,-0.6064910888671875,1.232421875
80315,0.325286865234375,-0.5452423095703125,1.265304565429688
80316,0.3908538818359375,-0.5020751953125,1.25457763671875
80317,0.47613525390625,-0.460052490234375,1.199478149414062
80318,0.5565643310546875,-0.391082763671875,1.123870849609375
80319,0.5979461669921875,-0.2961273193359375,1.080276489257812
80320,0.5938568115234375,-0.205078125,1.056045532226562
80321,0.596038818359375,-0.1397705078125,1.021102905273438
80322,0.617523193359375,-0.0968475341796875,0.9762420654296876
80323,0.6454925537109375,-0.0576171875,0.9393768310546876
80324,0.706634521484375,-0.027923583984375,0.9427337646484376
80325,0.8011322021484375,-0.0090789794921875,0.94970703125
80326,0.873382568359375,0.0250244140625,0.9322967529296876
80327,0.928741455078125,0.0401153564453125,0.907073974609375
80328,0.9810333251953124,0.043670654296875,0.9061431884765624
80329,1.015106201171875,0.0581207275390625,0.928955078125
80330,1.037185668945312,0.05126953125,0.9354095458984376
80331,1.050643920898438,0.020172119140625,0.921661376953125
80332,1.052276611328125,-0.024017333984375,0.8931732177734375
80333,1.039718627929688,-0.0731048583984375,0.8509674072265625
80334,1.016983032226562,-0.1192474365234375,0.7961883544921875
80335,0.977874755859375,-0.170745849609375,0.7430419921875
80336,0.9208831787109376,-0.2262115478515625,0.710968017578125
80337,0.860626220703125,-0.2950897216796875,0.7129058837890625
80338,0.79315185546875,-0.3667449951171875,0.74688720703125
80339,0.731719970703125,-0.4417877197265625,0.8126068115234375
80340,0.679412841796875,-0.5045318603515625,0.8869781494140625
80341,0.6207427978515625,-0.533599853515625,0.946044921875
80342,0.563873291015625,-0.53131103515625,0.9770660400390624
80343,0.50323486328125,-0.5160064697265625,0.9967041015625
80344,0.4412841796875,-0.5010986328125,1.011566162109375
80345,0.3706207275390625,-0.4710845947265625,1.01336669921875
80346,0.2841339111328125,-0.44354248046875,1.003814697265625
80347,0.202880859375,-0.44134521484375,0.98260498046875
80348,0.1357574462890625,-0.461334228515625,0.932769775390625
80349,0.073333740234375,-0.4954071044921875,0.873077392578125
80350,-0.0016326904296875,-0.5485076904296875,0.797760009765625
80351,-0.078765869140625,-0.6111297607421875,0.7113494873046875
80352,-0.1333160400390625,-0.674591064453125,0.613433837890625
80353,-0.18463134765625,-0.6950225830078125,0.544830322265625
80354,-0.2428436279296875,-0.69122314453125,0.49615478515625
80355,-0.28863525390625,-0.707305908203125,0.4361114501953125
80356,-0.3346710205078125,-0.7424774169921875,0.3700714111328125
80357,-0.375732421875,-0.8011322021484375,0.3351287841796875
80358,-0.40252685546875,-0.889434814453125,0.35626220703125
80359,-0.39361572265625,-0.9759674072265624,0.443603515625
80360,-0.3560791015625,-1.031997680664062,0.530059814453125
80361,-0.344207763671875,-1.106277465820312,0.57080078125
80362,-0.346649169921875,-1.214187622070312,0.598541259765625
80363,-0.3577423095703125,-1.304153442382812,0.624481201171875
80364,-0.364044189453125,-1.326095581054688,0.660919189453125
80365,-0.3525238037109375,-1.278167724609375,0.6900482177734375
80366,-0.3269500732421875,-1.1834716796875,0.675872802734375
80367,-0.3108062744140625,-1.075637817382812,0.61907958984375
80368,-0.31402587890625,-0.880767822265625,0.5534210205078125
80369,-0.341888427734375,-0.7599334716796875,0.49139404296875
80370,-0.380859375,-0.6876983642578125,0.45050048828125
80371,-0.3619537353515625,-0.6853790283203125,0.4572296142578125
80372,-0.2938079833984375,-0.65875244140625,0.481414794921875
80373,-0.2144012451171875,-0.6431884765625,0.5178070068359375
80374,-0.1187591552734375,-0.631561279296875,0.558624267578125
80375,-0.0408935546875,-0.59979248046875,0.570953369140625
80376,0.0186767578125,-0.55694580078125,0.58905029296875
80377,0.0714874267578125,-0.517333984375,0.657562255859375
80378,0.13092041015625,-0.45635986328125,0.77459716796875
80379,0.2102508544921875,-0.364898681640625,0.9256134033203124
80380,0.30584716796875,-0.2599029541015625,1.128555297851562
80381,0.4045562744140625,-0.192169189453125,1.336151123046875
80382,0.5044097900390625,-0.1605224609375,1.469131469726562
80383,0.6331787109375,-0.130645751953125,1.503890991210938
80384,0.778717041015625,-0.0728759765625,1.449081420898438
80385,0.923431396484375,-0.007476806640625,1.335922241210938
80386,1.012313842773438,0.0335693359375,1.195632934570312
80387,0.9880828857421876,0.093841552734375,1.056121826171875
80388,0.934478759765625,0.1270294189453125,0.945068359375
80389,0.8817138671875,0.1089324951171875,0.8710784912109375
80390,0.839111328125,0.0900115966796875,0.8493499755859375
80391,0.8304595947265625,0.0770416259765625,0.840240478515625
80392,0.8218841552734375,0.07415771484375,0.837310791015625
80393,0.7996673583984375,0.08233642578125,0.8620147705078125
80394,0.7647705078125,0.0890045166015625,0.8841552734375
80395,0.7363128662109375,0.07867431640625,0.88177490234375
80396,0.687347412109375,0.082794189453125,0.88775634765625
80397,0.6260986328125,0.0760650634765625,0.904388427734375
80398,0.557525634765625,0.04248046875,0.939910888671875
80399,0.4783782958984375,-0.0174102783203125,0.9816741943359376
80400,0.395111083984375,-0.1042633056640625,1.021469116210938
80401,0.3070831298828125,-0.201568603515625,1.04547119140625
80402,0.209197998046875,-0.284088134765625,1.071548461914062
80403,0.1108551025390625,-0.3927154541015625,1.087173461914062
80404,-0.0033721923828125,-0.4946441650390625,1.091049194335938
80405,-0.0941314697265625,-0.5842742919921875,1.051254272460938
80406,-0.124359130859375,-0.6495513916015625,0.9524993896484376
80407,-0.1266021728515625,-0.6570892333984375,0.8054962158203125
80408,-0.1239013671875,-0.59771728515625,0.638092041015625
80409,-0.0904388427734375,-0.529296875,0.495513916015625
80410,-0.02801513671875,-0.5015411376953125,0.4166412353515625
80411,0.045074462890625,-0.5465850830078125,0.4084930419921875
80412,0.0974578857421875,-0.626861572265625,0.4495391845703125
80413,0.144989013671875,-0.7102203369140625,0.5529327392578125
80414,0.1712646484375,-0.76519775390625,0.66082763671875
80415,0.1985626220703125,-0.7915802001953125,0.735504150390625
80416,0.2540435791015625,-0.8166351318359375,0.7796783447265625
80417,0.2921905517578125,-0.799652099609375,0.8047943115234375
80418,0.309173583984375,-0.7328948974609375,0.8052215576171875
80419,0.307373046875,-0.6382293701171875,0.749359130859375
80420,0.2695770263671875,-0.55902099609375,0.706024169921875
80421,0.196685791015625,-0.541351318359375,0.733734130859375
80422,0.0716705322265625,-0.5646820068359375,0.803314208984375
80423,-0.0869293212890625,-0.6262664794921875,0.8747711181640625
80424,-0.243865966796875,-0.7816162109375,0.9390411376953124
80425,-0.4200286865234375,-1.037063598632812,1.015380859375
80426,-0.5934600830078125,-1.253326416015625,1.0955810546875
80427,-0.6883544921875,-1.2952880859375,1.122879028320312
80428,-0.6552581787109375,-1.118072509765625,1.044815063476562
80429,-0.54644775390625,-0.9269561767578124,0.787811279296875
80430,-0.464385986328125,-0.84136962890625,0.448028564453125
80431,-0.3751678466796875,-0.7797393798828125,0.1428680419921875
80432,-0.2701873779296875,-0.7244110107421875,-0.016632080078125
80433,-0.19891357421875,-0.68603515625,-0.0177459716796875
80434,-0.1731719970703125,-0.6678924560546875,0.1092529296875
80435,-0.1702880859375,-0.6568756103515625,0.3086700439453125
80436,-0.155242919921875,-0.6357269287109375,0.5128631591796875
80437,-0.11358642578125,-0.5820770263671875,0.7177734375
80438,-0.0700836181640625,-0.56109619140625,0.9062042236328124
80439,-0.027008056640625,-0.5625457763671875,1.049072265625
80440,0.0877685546875,-0.612640380859375,1.166915893554688
80441,0.251068115234375,-0.6241912841796875,1.248764038085938
80442,0.391998291015625,-0.5850982666015625,1.278472900390625
80443,0.5503692626953125,-0.5279083251953125,1.278594970703125
80444,0.6899871826171875,-0.4075164794921875,1.270538330078125
80445,0.7899322509765625,-0.251007080078125,1.251052856445312
80446,0.8427886962890625,-0.1298675537109375,1.206985473632812
80447,0.864044189453125,-0.0567169189453125,1.160614013671875
80448,0.8963775634765625,-0.027496337890625,1.11444091796875
80449,0.9701690673828124,-0.039215087890625,1.062408447265625
80450,1.025299072265625,-0.0590057373046875,0.9879302978515624
80451,1.056671142578125,-0.06390380859375,0.9090728759765624
80452,1.07373046875,-0.064178466796875,0.8645172119140625
80453,1.076522827148438,-0.066192626953125,0.8662567138671875
80454,1.063095092773438,-0.074310302734375,0.8487091064453125
80455,1.03863525390625,-0.095794677734375,0.7984161376953125
80456,1.0130615234375,-0.1080474853515625,0.755096435546875
80457,0.9975128173828124,-0.0949859619140625,0.739471435546875
80458,0.9804534912109376,-0.077178955078125,0.7429656982421875
80459,0.9510345458984376,-0.0875244140625,0.7637939453125
80460,0.9185791015625,-0.123565673828125,0.800048828125
80461,0.8752593994140625,-0.156829833984375,0.8424224853515625
80462,0.838409423828125,-0.2004241943359375,0.8914947509765625
80463,0.8134613037109375,-0.2449188232421875,0.944976806640625
80464,0.7736053466796875,-0.270111083984375,0.979644775390625
80465,0.72113037109375,-0.2830963134765625,0.9887542724609376
80466,0.668243408203125,-0.28863525390625,0.97784423828125
80467,0.60980224609375,-0.2959442138671875,0.9442291259765624
80468,0.5427093505859375,-0.2968292236328125,0.9181976318359376
80469,0.4566192626953125,-0.299530029296875,0.899566650390625
80470,0.346038818359375,-0.30560302734375,0.8779144287109375
80471,0.2182464599609375,-0.33673095703125,0.848388671875
80472,0.086212158203125,-0.38641357421875,0.83001708984375
80473,-0.0553131103515625,-0.426666259765625,0.824432373046875
80474,-0.1993560791015625,-0.4493255615234375,0.80975341796875
80475,-0.320831298828125,-0.474639892578125,0.7538604736328125
80476,-0.3966522216796875,-0.5179595947265625,0.6721954345703125
80477,-0.4597320556640625,-0.5417633056640625,0.5657958984375
80478,-0.4860992431640625,-0.5809326171875,0.46343994140625
80479,-0.4489288330078125,-0.637603759765625,0.38018798828125
80480,-0.38763427734375,-0.698822021484375,0.311248779296875
80481,-0.329345703125,-0.774322509765625,0.2924041748046875
80482,-0.2910614013671875,-0.8714141845703125,0.3134613037109375
80483,-0.275482177734375,-0.9643707275390624,0.3755035400390625
80484,-0.2835235595703125,-1.022415161132812,0.49462890625
80485,-0.32476806640625,-1.084732055664062,0.6262664794921875
80486,-0.389678955078125,-1.179351806640625,0.7082366943359375
80487,-0.4769744873046875,-1.282073974609375,0.697479248046875
80488,-0.530792236328125,-1.354873657226562,0.619720458984375
80489,-0.5562591552734375,-1.388717651367188,0.5518951416015625
80490,-0.55426025390625,-1.364486694335938,0.5297393798828125
80491,-0.5288238525390625,-1.254745483398438,0.52880859375
80492,-0.468017578125,-1.059738159179688,0.5295562744140625
80493,-0.4102630615234375,-0.8376312255859375,0.5165252685546875
80494,-0.37054443359375,-0.679931640625,0.503021240234375
80495,-0.317169189453125,-0.602020263671875,0.509185791015625
80496,-0.2334136962890625,-0.5842437744140625,0.5387115478515625
80497,-0.133758544921875,-0.5834503173828125,0.57391357421875
80498,0.0107879638671875,-0.54461669921875,0.62322998046875
80499,0.13275146484375,-0.4996490478515625,0.6693267822265625
80500,0.2039031982421875,-0.482391357421875,0.72418212890625
80501,0.2593231201171875,-0.484649658203125,0.7975311279296875
80502,0.3280792236328125,-0.471832275390625,0.920623779296875
80503,0.39959716796875,-0.421234130859375,1.058258056640625
80504,0.457611083984375,-0.3346710205078125,1.186996459960938
80505,0.528289794921875,-0.2382354736328125,1.30145263671875
80506,0.618560791015625,-0.1335601806640625,1.406936645507812
80507,0.7308349609375,-0.0438995361328125,1.473846435546875
80508,0.8493804931640625,0.03253173828125,1.451309204101562
80509,0.9659576416015624,0.0662384033203125,1.340713500976562
80510,1.027999877929688,0.0410614013671875,1.169525146484375
80511,1.047119140625,0.015380859375,0.988494873046875
80512,1.075607299804688,0.0054931640625,0.869903564453125
80513,1.10186767578125,0.0196533203125,0.860626220703125
80514,1.093048095703125,0.06634521484375,0.8966064453125
80515,1.04864501953125,0.10235595703125,0.93011474609375
80516,0.97882080078125,0.105438232421875,0.947723388671875
80517,0.9078826904296876,0.093017578125,0.9488525390625
80518,0.84295654296875,0.09814453125,0.928924560546875
80519,0.7772979736328125,0.129669189453125,0.906951904296875
80520,0.70751953125,0.1602020263671875,0.902618408203125
80521,0.6439666748046875,0.1682891845703125,0.91845703125
80522,0.569580078125,0.140838623046875,0.9477081298828124
80523,0.484527587890625,0.061553955078125,0.96142578125
80524,0.3900604248046875,-0.0435638427734375,0.9687652587890624
80525,0.2996063232421875,-0.150787353515625,0.9883880615234376
80526,0.2193450927734375,-0.2618865966796875,1.003204345703125
80527,0.1212005615234375,-0.347198486328125,0.999237060546875
80528,0.0559234619140625,-0.4501190185546875,0.958465576171875
80529,0.0278472900390625,-0.5570831298828125,0.8881378173828125
80530,0.015289306640625,-0.6433868408203125,0.803985595703125
80531,0.021942138671875,-0.7054595947265625,0.715179443359375
80532,0.03082275390625,-0.739959716796875,0.6324920654296875
80533,0.0379486083984375,-0.7476654052734375,0.572235107421875
80534,0.0633087158203125,-0.74359130859375,0.5449371337890625
80535,0.0857086181640625,-0.7393951416015625,0.5398406982421875
80536,0.1074676513671875,-0.7343597412109375,0.5468902587890625
80537,0.1269683837890625,-0.727386474609375,0.557830810546875
80538,0.147003173828125,-0.71435546875,0.58245849609375
80539,0.163482666015625,-0.70245361328125,0.6112823486328125
80540,0.1629638671875,-0.693389892578125,0.641754150390625
80541,0.16510009765625,-0.7278900146484375,0.6851959228515625
80542,0.130096435546875,-0.793701171875,0.7208251953125
80543,0.01312255859375,-0.8964080810546875,0.741943359375
80544,-0.17840576171875,-1.002838134765625,0.7717132568359375
80545,-0.423828125,-1.076141357421875,0.8101348876953125
80546,-0.631988525390625,-1.101287841796875,0.842681884765625
80547,-0.7561798095703125,-1.0943603515625,0.86029052734375
80548,-0.796661376953125,-1.02593994140625,0.845458984375
80549,-0.7501373291015625,-0.904632568359375,0.7698822021484375
80550,-0.639801025390625,-0.8382568359375,0.6277008056640625
80551,-0.5229339599609375,-0.8187713623046875,0.4753875732421875
80552,-0.403045654296875,-0.790863037109375,0.380218505859375
80553,-0.271697998046875,-0.7516937255859375,0.348968505859375
80554,-0.1599273681640625,-0.700103759765625,0.3934173583984375
80555,-0.08636474609375,-0.631439208984375,0.4901123046875
80556,-0.06292724609375,-0.558074951171875,0.5901641845703125
80557,-0.08734130859375,-0.5137939453125,0.6704254150390625
80558,-0.120208740234375,-0.50823974609375,0.7493438720703125
80559,-0.13262939453125,-0.513824462890625,0.8289337158203125
80560,-0.098236083984375,-0.5240325927734375,0.909332275390625
80561,-0.055755615234375,-0.508087158203125,0.9766387939453124
80562,0.041259765625,-0.5300750732421875,1.055038452148438
80563,0.1424407958984375,-0.502593994140625,1.098358154296875
80564,0.2400665283203125,-0.48443603515625,1.122024536132812
80565,0.3603973388671875,-0.4539794921875,1.150894165039062
80566,0.4626312255859375,-0.379180908203125,1.137344360351562
80567,0.5629425048828125,-0.3142852783203125,1.110488891601562
80568,0.6434173583984375,-0.2378997802734375,1.10546875
80569,0.6811370849609375,-0.1454315185546875,1.106948852539062
80570,0.725494384765625,-0.0690460205078125,1.117721557617188
80571,0.8170318603515625,-0.016632080078125,1.133514404296875
80572,0.930450439453125,0.0178375244140625,1.127609252929688
80573,1.0223388671875,0.04302978515625,1.092498779296875
80574,1.076736450195312,0.07586669921875,1.038406372070312
80575,1.128036499023438,0.10589599609375,1.02386474609375
80576,1.169708251953125,0.1097259521484375,1.027114868164062
80577,1.191436767578125,0.07000732421875,1.00286865234375
80578,1.166946411132812,0.012451171875,0.9509735107421876
80579,1.12158203125,-0.031036376953125,0.8751678466796875
80580,1.081985473632812,-0.0545806884765625,0.795074462890625
80581,1.0517578125,-0.0877532958984375,0.7306060791015625
80582,1.01422119140625,-0.135498046875,0.69598388671875
80583,0.9704742431640624,-0.192718505859375,0.6888275146484375
80584,0.9091796875,-0.253021240234375,0.714080810546875
80585,0.833038330078125,-0.30108642578125,0.7782440185546875
80586,0.7683563232421875,-0.3369140625,0.86468505859375
80587,0.7076873779296875,-0.345184326171875,0.9504241943359376
80588,0.65899658203125,-0.344268798828125,1.013916015625
80589,0.6268157958984375,-0.346710205078125,1.046707153320312
80590,0.57208251953125,-0.32781982421875,1.078323364257812
80591,0.4964752197265625,-0.3390045166015625,1.08856201171875
80592,0.4203033447265625,-0.370849609375,1.075820922851562
80593,0.3204498291015625,-0.400604248046875,1.039199829101562
80594,0.181884765625,-0.420135498046875,0.9885711669921876
80595,0.025238037109375,-0.434844970703125,0.9429779052734376
80596,-0.135009765625,-0.4321441650390625,0.90802001953125
80597,-0.3104705810546875,-0.4290771484375,0.8512420654296875
80598,-0.482208251953125,-0.42816162109375,0.73565673828125
80599,-0.6533660888671875,-0.39874267578125,0.5634307861328125
80600,-0.7559661865234375,-0.3964385986328125,0.3988189697265625
80601,-0.781280517578125,-0.4086151123046875,0.2888031005859375
80602,-0.7507781982421875,-0.466949462890625,0.2295684814453125
80603,-0.664520263671875,-0.55596923828125,0.2101287841796875
80604,-0.6039276123046875,-0.6763458251953125,0.1938629150390625
80605,-0.549163818359375,-0.8004302978515625,0.2683258056640625
80606,-0.5170745849609375,-0.924560546875,0.446685791015625
80607,-0.53875732421875,-1.061553955078125,0.6434173583984375
80608,-0.589996337890625,-1.221298217773438,0.741455078125
80609,-0.5923309326171875,-1.355377197265625,0.705902099609375
80610,-0.550048828125,-1.464309692382812,0.6005706787109375
80611,-0.475921630859375,-1.547592163085938,0.5422515869140625
80612,-0.3901519775390625,-1.556732177734375,0.5501251220703125
80613,-0.3165435791015625,-1.456268310546875,0.5908050537109375
80614,-0.261993408203125,-1.229583740234375,0.598724365234375
80615,-0.2374114990234375,-0.9357757568359376,0.563751220703125
80616,-0.2268829345703125,-0.7175140380859375,0.5352630615234375
80617,-0.2131805419921875,-0.5875701904296875,0.5413970947265625
80618,-0.181671142578125,-0.52239990234375,0.5867156982421875
80619,-0.1342620849609375,-0.496490478515625,0.6417388916015625
80620,-0.09521484375,-0.4792633056640625,0.6782989501953125
80621,-0.0291748046875,-0.4957275390625,0.7128753662109375
80622,0.0269775390625,-0.5186920166015625,0.72369384765625
80623,0.07781982421875,-0.5287628173828125,0.7668914794921875
80624,0.1372833251953125,-0.4987640380859375,0.8280181884765625
80625,0.1855010986328125,-0.4263458251953125,0.9232330322265624
80626,0.2291259765625,-0.34674072265625,1.043350219726562
80627,0.2825469970703125,-0.2815093994140625,1.181854248046875
80628,0.365997314453125,-0.1895294189453125,1.310379028320312
80629,0.4841766357421875,-0.055023193359375,1.419036865234375
80630,0.650787353515625,0.048858642578125,1.429550170898438
80631,0.81884765625,0.10125732421875,1.315643310546875
80632,0.9467926025390624,0.1486663818359375,1.1492919921875
80633,1.005569458007812,0.21197509765625,0.998504638671875
80634,1.012451171875,0.27032470703125,0.89288330078125
80635,1.00775146484375,0.292694091796875,0.839447021484375
80636,0.9961700439453124,0.295928955078125,0.81427001953125
80637,0.99298095703125,0.27191162109375,0.8265380859375
80638,0.9658203125,0.2470550537109375,0.857391357421875
80639,0.91546630859375,0.2387847900390625,0.8948822021484375
80640,0.8485260009765625,0.247161865234375,0.9501190185546876
80641,0.776123046875,0.253936767578125,0.9988555908203124
80642,0.6886749267578125,0.2481842041015625,1.028976440429688
80643,0.5908203125,0.2064208984375,1.046844482421875
80644,0.496856689453125,0.09466552734375,1.071990966796875
80645,0.405609130859375,-0.074371337890625,1.076766967773438
80646,0.318359375,-0.2303619384765625,1.063262939453125
80647,0.2565765380859375,-0.3732147216796875,1.019821166992188
80648,0.208831787109375,-0.5093231201171875,0.993011474609375
80649,0.1844329833984375,-0.60845947265625,0.9837646484375
80650,0.162811279296875,-0.6524810791015625,0.974700927734375
80651,0.1435089111328125,-0.686431884765625,0.9340667724609376
80652,0.13677978515625,-0.721954345703125,0.8539581298828125
80653,0.1399383544921875,-0.7391815185546875,0.78387451171875
80654,0.1494903564453125,-0.7509918212890625,0.740875244140625
80655,0.1584930419921875,-0.746185302734375,0.7120361328125
80656,0.1673736572265625,-0.7285919189453125,0.704376220703125
80657,0.1810760498046875,-0.7091827392578125,0.713592529296875
80658,0.1992034912109375,-0.7045745849609375,0.718414306640625
80659,0.2100982666015625,-0.6983642578125,0.7200469970703125
80660,0.212615966796875,-0.6857147216796875,0.7061767578125
80661,0.222412109375,-0.6725311279296875,0.6998291015625
80662,0.1969757080078125,-0.6427764892578125,0.6905975341796875
80663,0.146759033203125,-0.67010498046875,0.68524169921875
80664,0.0926513671875,-0.7431182861328125,0.697113037109375
80665,-0.00677490234375,-0.843902587890625,0.7168426513671875
80666,-0.1596221923828125,-0.952056884765625,0.74224853515625
80667,-0.3475189208984375,-1.037811279296875,0.766448974609375
80668,-0.52044677734375,-1.083465576171875,0.78436279296875
80669,-0.627655029296875,-1.085037231445312,0.7757720947265625
80670,-0.6827545166015625,-1.036026000976562,0.7296142578125
80671,-0.6757659912109375,-0.947967529296875,0.6649322509765625
80672,-0.5985565185546875,-0.86590576171875,0.5732574462890625
80673,-0.50726318359375,-0.8129119873046875,0.4782867431640625
80674,-0.428619384765625,-0.7644500732421875,0.4070587158203125
80675,-0.3585357666015625,-0.7362060546875,0.3736724853515625
80676,-0.3108367919921875,-0.7337493896484375,0.383880615234375
80677,-0.2734527587890625,-0.7250213623046875,0.4475860595703125
80678,-0.2380523681640625,-0.68572998046875,0.538970947265625
80679,-0.1993865966796875,-0.6364593505859375,0.6309356689453125
80680,-0.1553497314453125,-0.5824432373046875,0.711273193359375
80681,-0.1080474853515625,-0.531280517578125,0.8013153076171875
80682,-0.050872802734375,-0.496429443359375,0.889678955078125
80683,0.02618408203125,-0.4763946533203125,0.9552154541015624
80684,0.1462249755859375,-0.4595794677734375,1.026901245117188
80685,0.2576751708984375,-0.416259765625,1.100021362304688
80686,0.3606414794921875,-0.3943023681640625,1.151931762695312
80687,0.4702301025390625,-0.31793212890625,1.183624267578125
80688,0.5218505859375,-0.22161865234375,1.205215454101562
80689,0.5626983642578125,-0.1541595458984375,1.1982421875
80690,0.5882110595703125,-0.0690765380859375,1.175460815429688
80691,0.606842041015625,0.0052642822265625,1.136886596679688
80692,0.666412353515625,0.056396484375,1.091659545898438
80693,0.7805023193359375,0.0751495361328125,1.038482666015625
80694,0.8994598388671875,0.083160400390625,0.9930572509765624
80695,0.9575347900390624,0.09222412109375,0.96173095703125
80696,0.99322509765625,0.0922088623046875,0.9332733154296876
80697,1.048614501953125,0.0897216796875,0.919921875
80698,1.107666015625,0.0767364501953125,0.91827392578125
80699,1.144287109375,0.0509796142578125,0.90594482421875
80700,1.146957397460938,0.0181732177734375,0.8753662109375
80701,1.121307373046875,-0.01708984375,0.81884765625
80702,1.075469970703125,-0.04681396484375,0.749481201171875
80703,1.02618408203125,-0.074859619140625,0.6935577392578125
80704,0.9953155517578124,-0.1180877685546875,0.6715850830078125
80705,0.966644287109375,-0.172515869140625,0.6849822998046875
80706,0.9281463623046876,-0.240081787109375,0.7322540283203125
80707,0.884521484375,-0.302154541015625,0.7960052490234375
80708,0.837493896484375,-0.34222412109375,0.8631591796875
80709,0.804962158203125,-0.36492919921875,0.9249267578125
80710,0.7901153564453125,-0.3720550537109375,0.967315673828125
80711,0.768798828125,-0.36810302734375,0.98699951171875
80712,0.736907958984375,-0.35455322265625,1.006256103515625
80713,0.6778717041015625,-0.32586669921875,1.0299072265625
80714,0.5838470458984375,-0.31207275390625,1.054351806640625
80715,0.4754638671875,-0.3154754638671875,1.081832885742188
80716,0.3409423828125,-0.3444061279296875,1.079147338867188
80717,0.1969757080078125,-0.39984130859375,1.056289672851562
80718,0.04388427734375,-0.4607391357421875,1.018707275390625
80719,-0.121185302734375,-0.5178680419921875,0.9649810791015624
80720,-0.322418212890625,-0.55126953125,0.882171630859375
80721,-0.50408935546875,-0.561279296875,0.7718048095703125
80722,-0.6114654541015625,-0.544830322265625,0.60693359375
80723,-0.607818603515625,-0.5530853271484375,0.3976593017578125
80724,-0.5260467529296875,-0.6130523681640625,0.1943359375
80725,-0.4420928955078125,-0.7066802978515625,0.0451812744140625
80726,-0.3792724609375,-0.8850860595703125,-0.0450439453125
80727,-0.3467559814453125,-1.124374389648438,-0.0254364013671875
80728,-0.3447418212890625,-1.292648315429688,0.143829345703125
80729,-0.387054443359375,-1.32061767578125,0.3907470703125
80730,-0.451446533203125,-1.352249145507812,0.590484619140625
80731,-0.504180908203125,-1.441421508789062,0.6619110107421875
80732,-0.5071258544921875,-1.535797119140625,0.653472900390625
80733,-0.4750823974609375,-1.606094360351562,0.653900146484375
80734,-0.445068359375,-1.606246948242188,0.68365478515625
80735,-0.4296417236328125,-1.514633178710938,0.6709442138671875
80736,-0.426422119140625,-1.299407958984375,0.6107025146484375
80737,-0.409088134765625,-1.024566650390625,0.5372467041015625
80738,-0.3853912353515625,-0.8021392822265625,0.493865966796875
80739,-0.339263916015625,-0.692230224609375,0.4900970458984375
80740,-0.260772705078125,-0.6365509033203125,0.5008392333984375
80741,-0.1691741943359375,-0.6026153564453125,0.519195556640625
80742,-0.09783935546875,-0.567474365234375,0.55682373046875
80743,-0.0386505126953125,-0.51947021484375,0.61505126953125
80744,0.0435638427734375,-0.46026611328125,0.697540283203125
80745,0.112030029296875,-0.390411376953125,0.8207855224609375
80746,0.1809844970703125,-0.3615264892578125,0.9583740234375
80747,0.2409515380859375,-0.343353271484375,1.066558837890625
80748,0.3105010986328125,-0.3244476318359375,1.163772583007812
80749,0.3541259765625,-0.247039794921875,1.243988037109375
80750,0.433929443359375,-0.1529693603515625,1.3304443359375
80751,0.59130859375,-0.0282745361328125,1.437713623046875
80752,0.764556884765625,0.0888671875,1.487625122070312
80753,0.9476470947265624,0.149444580078125,1.45904541015625
80754,1.078262329101562,0.17376708984375,1.349319458007812
80755,1.08831787109375,0.1851959228515625,1.178375244140625
80756,1.0543212890625,0.1830902099609375,1.022171020507812
80757,1.008819580078125,0.1946563720703125,0.9159088134765624
80758,0.98516845703125,0.1923675537109375,0.8436737060546875
80759,0.9744110107421876,0.198455810546875,0.7772064208984375
80760,0.9561004638671876,0.2144012451171875,0.7411041259765625
80761,0.8958740234375,0.2448883056640625,0.7606658935546875
80762,0.7913055419921875,0.2943572998046875,0.8168792724609375
80763,0.6857147216796875,0.3223419189453125,0.852081298828125
80764,0.6035308837890625,0.3144073486328125,0.8624114990234375
80765,0.529754638671875,0.276153564453125,0.9019317626953124
80766,0.463623046875,0.1953125,0.957061767578125
80767,0.393707275390625,0.0659637451171875,0.9809722900390624
80768,0.3307342529296875,-0.0940399169921875,0.9739227294921876
80769,0.27056884765625,-0.246978759765625,0.9724578857421876
80770,0.2043304443359375,-0.390106201171875,0.97991943359375
80771,0.1435699462890625,-0.4951019287109375,0.9876556396484376
80772,0.08929443359375,-0.55078125,0.98394775390625
80773,0.0477294921875,-0.5691070556640625,0.970184326171875
80774,0.02490234375,-0.563232421875,0.8985137939453125
80775,0.0109405517578125,-0.5519561767578125,0.8081817626953125
80776,-0.0068817138671875,-0.5531768798828125,0.7230682373046875
80777,-0.0220947265625,-0.5602569580078125,0.676605224609375
80778,-0.02056884765625,-0.5546722412109375,0.6566925048828125
80779,0.012664794921875,-0.5427398681640625,0.631744384765625
80780,0.093780517578125,-0.5516357421875,0.6096038818359375
80781,0.197174072265625,-0.57537841796875,0.5959320068359375
80782,0.3030242919921875,-0.5999298095703125,0.601318359375
80783,0.4007110595703125,-0.6190185546875,0.64862060546875
80784,0.4655914306640625,-0.6541900634765625,0.721710205078125
80785,0.478485107421875,-0.7564849853515625,0.83453369140625
80786,0.3720550537109375,-0.910675048828125,0.9579010009765624
80787,0.0695343017578125,-1.080841064453125,1.025634765625
80788,-0.35015869140625,-1.215255737304688,1.040359497070312
80789,-0.7242279052734375,-1.2576904296875,1.005966186523438
80790,-0.96917724609375,-1.276657104492188,0.9225006103515624
80791,-1.111648559570312,-1.303695678710938,0.750335693359375
80792,-1.148712158203125,-1.213180541992188,0.4887237548828125
80793,-0.976806640625,-1.11480712890625,0.198394775390625
80794,-0.6716156005859375,-1.04766845703125,-0.00115966796875
80795,-0.546051025390625,-0.888946533203125,-0.0399017333984375
80796,-0.5100555419921875,-0.814422607421875,0.0599517822265625
80797,-0.4310455322265625,-0.78997802734375,0.206787109375
80798,-0.352325439453125,-0.7548675537109375,0.3179779052734375
80799,-0.3013763427734375,-0.71282958984375,0.4204254150390625
80800,-0.2597503662109375,-0.645050048828125,0.5466766357421875
80801,-0.22308349609375,-0.5779876708984375,0.6793365478515625
80802,-0.176116943359375,-0.53472900390625,0.8167724609375
80803,-0.0602569580078125,-0.5177764892578125,0.9598236083984376
80804,0.08441162109375,-0.488800048828125,1.074920654296875
80805,0.1728973388671875,-0.45489501953125,1.148849487304688
80806,0.2583160400390625,-0.418548583984375,1.17840576171875
80807,0.3238067626953125,-0.3532562255859375,1.191482543945312
80808,0.39703369140625,-0.304443359375,1.181488037109375
80809,0.472686767578125,-0.268585205078125,1.145156860351562
80810,0.5245208740234375,-0.234039306640625,1.089080810546875
80811,0.55902099609375,-0.1949005126953125,1.020660400390625
80812,0.5795135498046875,-0.151123046875,0.9539642333984376
80813,0.617767333984375,-0.1070098876953125,0.8850860595703125
80814,0.662628173828125,-0.0700836181640625,0.8286285400390625
80815,0.713958740234375,-0.052520751953125,0.7998046875
80816,0.7717742919921875,-0.041656494140625,0.780364990234375
80817,0.83953857421875,-0.0242156982421875,0.7846527099609375
80818,0.9243927001953124,-0.0167236328125,0.8297576904296875
80819,1.007278442382812,-0.0220184326171875,0.9263763427734376
80820,1.092025756835938,-0.0436859130859375,1.06439208984375
80821,1.154006958007812,-0.06341552734375,1.179168701171875
80822,1.189682006835938,-0.0892181396484375,1.2271728515625
80823,1.214706420898438,-0.124755859375,1.205947875976562
80824,1.236083984375,-0.17559814453125,1.15765380859375
80825,1.220932006835938,-0.2292938232421875,1.092330932617188
80826,1.1500244140625,-0.2671051025390625,1.029266357421875
80827,1.023086547851562,-0.2705535888671875,0.9570770263671876
80828,0.888092041015625,-0.2544708251953125,0.887786865234375
80829,0.8175048828125,-0.2658538818359375,0.8647613525390625
80830,0.7596435546875,-0.28472900390625,0.874053955078125
80831,0.6951141357421875,-0.3004913330078125,0.88232421875
80832,0.6181182861328125,-0.3101959228515625,0.8891143798828125
80833,0.53759765625,-0.309814453125,0.9184417724609376
80834,0.472900390625,-0.321441650390625,0.9557647705078124
80835,0.397247314453125,-0.3373260498046875,0.9910125732421876
80836,0.300201416015625,-0.35791015625,1.019607543945312
80837,0.2086334228515625,-0.392486572265625,1.028289794921875
80838,0.11737060546875,-0.414459228515625,1.0101318359375
80839,0.0144500732421875,-0.4078521728515625,0.9596710205078124
80840,-0.0887603759765625,-0.3766326904296875,0.8894195556640625
80841,-0.1996917724609375,-0.3499603271484375,0.7979583740234375
80842,-0.3091278076171875,-0.359954833984375,0.6829833984375
80843,-0.401275634765625,-0.3932647705078125,0.5545196533203125
80844,-0.466094970703125,-0.4334869384765625,0.4475250244140625
80845,-0.4817657470703125,-0.48675537109375,0.387664794921875
80846,-0.5022735595703125,-0.533843994140625,0.36236572265625
80847,-0.47503662109375,-0.63067626953125,0.37835693359375
80848,-0.426666259765625,-0.7338409423828125,0.3965911865234375
80849,-0.35711669921875,-0.818878173828125,0.45599365234375
80850,-0.28057861328125,-0.8639068603515625,0.54473876953125
80851,-0.2155914306640625,-0.9009552001953124,0.6282806396484375
80852,-0.1653594970703125,-0.9686126708984376,0.699127197265625
80853,-0.1278839111328125,-1.058990478515625,0.7478179931640625
80854,-0.123199462890625,-1.16326904296875,0.7767181396484375
80855,-0.1513671875,-1.265182495117188,0.8072509765625
80856,-0.21881103515625,-1.315597534179688,0.8514862060546875
80857,-0.333465576171875,-1.291717529296875,0.865997314453125
80858,-0.4323883056640625,-1.202896118164062,0.843780517578125
80859,-0.4767303466796875,-1.043258666992188,0.76263427734375
80860,-0.4985809326171875,-0.859893798828125,0.6318817138671875
80861,-0.500885009765625,-0.7417449951171875,0.4917755126953125
80862,-0.4937896728515625,-0.69989013671875,0.374420166015625
80863,-0.4699859619140625,-0.69256591796875,0.2943572998046875
80864,-0.4349365234375,-0.6695404052734375,0.2509002685546875
80865,-0.3672027587890625,-0.6399688720703125,0.229583740234375
80866,-0.23895263671875,-0.62213134765625,0.21990966796875
80867,-0.139739990234375,-0.582611083984375,0.2305450439453125
80868,-0.0497894287109375,-0.5603179931640625,0.31671142578125
80869,0.0477447509765625,-0.5176544189453125,0.4695281982421875
80870,0.138336181640625,-0.4454498291015625,0.6748809814453125
80871,0.2521514892578125,-0.370880126953125,0.9003753662109375
80872,0.3710174560546875,-0.284698486328125,1.114120483398438
80873,0.4868316650390625,-0.18939208984375,1.290328979492188
80874,0.5965728759765625,-0.135528564453125,1.425155639648438
80875,0.72760009765625,-0.0832672119140625,1.489349365234375
80876,0.8904266357421875,-0.0042266845703125,1.459457397460938
80877,1.027359008789062,0.0184783935546875,1.36798095703125
80878,1.081024169921875,0.0247650146484375,1.203216552734375
80879,1.052825927734375,0.044464111328125,1.02557373046875
80880,1.020889282226562,0.0423126220703125,0.8795013427734375
80881,1.01947021484375,0.0316925048828125,0.8349151611328125
80882,1.033599853515625,0.03900146484375,0.8842315673828125
80883,1.01837158203125,0.056549072265625,0.9567413330078124
80884,0.957366943359375,0.062957763671875,1.021072387695312
80885,0.8729705810546875,0.08709716796875,1.05316162109375
80886,0.7845001220703125,0.128448486328125,1.052978515625
80887,0.713226318359375,0.1688995361328125,1.05230712890625
80888,0.65032958984375,0.175750732421875,1.05438232421875
80889,0.5828857421875,0.131805419921875,1.039306640625
80890,0.5115509033203125,0.048492431640625,0.999755859375
80891,0.43280029296875,-0.0507354736328125,0.9561614990234376
80892,0.376220703125,-0.172119140625,0.9254302978515624
80893,0.340087890625,-0.299591064453125,0.9007720947265624
80894,0.325897216796875,-0.428863525390625,0.8853302001953125
80895,0.338043212890625,-0.5582122802734375,0.88751220703125
80896,0.351470947265625,-0.6664886474609375,0.905853271484375
80897,0.3519744873046875,-0.7521209716796875,0.90374755859375
80898,0.3414764404296875,-0.801483154296875,0.874755859375
80899,0.340606689453125,-0.8022003173828125,0.8468780517578125
80900,0.3416595458984375,-0.7513275146484375,0.8160400390625
80901,0.3350982666015625,-0.6680908203125,0.8022003173828125
80902,0.307098388671875,-0.5686798095703125,0.7856903076171875
80903,0.2605133056640625,-0.468719482421875,0.7635498046875
80904,0.20648193359375,-0.3970184326171875,0.712799072265625
80905,0.1554412841796875,-0.3762969970703125,0.640716552734375
80906,0.1147918701171875,-0.40008544921875,0.566192626953125
80907,0.1113739013671875,-0.4571075439453125,0.508392333984375
80908,0.0868377685546875,-0.498504638671875,0.4657440185546875
80909,0.0905303955078125,-0.5951385498046875,0.4671783447265625
80910,0.1080474853515625,-0.6993408203125,0.4975433349609375
80911,0.1006927490234375,-0.7857666015625,0.5633392333984375
80912,0.029510498046875,-0.8495635986328125,0.626251220703125
80913,-0.10589599609375,-0.9151611328125,0.6762542724609375
80914,-0.2824859619140625,-0.971435546875,0.73541259765625
80915,-0.4667510986328125,-1.027725219726562,0.8076934814453125
80916,-0.623748779296875,-1.094146728515625,0.870147705078125
80917,-0.737945556640625,-1.150466918945312,0.9295806884765624
80918,-0.763946533203125,-1.115234375,0.9574127197265624
80919,-0.66729736328125,-0.9938201904296876,0.87225341796875
80920,-0.5268707275390625,-0.9378662109375,0.6615142822265625
80921,-0.3834991455078125,-0.8995361328125,0.4405975341796875
80922,-0.276763916015625,-0.84197998046875,0.2964324951171875
80923,-0.2093048095703125,-0.7994232177734375,0.2669219970703125
80924,-0.1674957275390625,-0.7641143798828125,0.3199310302734375
80925,-0.14471435546875,-0.7164459228515625,0.4008636474609375
80926,-0.129180908203125,-0.6592254638671875,0.486572265625
80927,-0.1084136962890625,-0.6060943603515625,0.573760986328125
80928,-0.0659942626953125,-0.5574798583984375,0.6866607666015625
80929,-0.0135040283203125,-0.5072784423828125,0.8490753173828125
80930,0.05145263671875,-0.482269287109375,0.9990081787109376
80931,0.169189453125,-0.4655303955078125,1.115570068359375
80932,0.2712860107421875,-0.4437408447265625,1.188018798828125
80933,0.390655517578125,-0.460418701171875,1.249710083007812
80934,0.5330963134765625,-0.468902587890625,1.271392822265625
80935,0.6604156494140625,-0.4105072021484375,1.259552001953125
80936,0.7602386474609375,-0.3199462890625,1.253250122070312
80937,0.8284454345703125,-0.210540771484375,1.261489868164062
80938,0.8727264404296875,-0.1062164306640625,1.239837646484375
80939,0.9759063720703124,-0.06048583984375,1.186355590820312
80940,1.100372314453125,-0.0333404541015625,1.111099243164062
80941,1.176849365234375,-0.0252227783203125,1.033432006835938
80942,1.210220336914062,-0.044342041015625,0.97137451171875
80943,1.207366943359375,-0.05926513671875,0.9191741943359376
80944,1.162002563476562,-0.0851898193359375,0.8727874755859375
80945,1.120498657226562,-0.138763427734375,0.8069610595703125
80946,1.091949462890625,-0.17767333984375,0.735137939453125
80947,1.04443359375,-0.1727294921875,0.6917724609375
80948,0.9709625244140624,-0.14447021484375,0.68414306640625
80949,0.8984527587890625,-0.146759033203125,0.7054901123046875
80950,0.841796875,-0.1782379150390625,0.7505035400390625
80951,0.765045166015625,-0.20587158203125,0.82061767578125
80952,0.7012786865234375,-0.228363037109375,0.9195098876953124
80953,0.6784210205078125,-0.2437591552734375,1.005508422851562
80954,0.653350830078125,-0.232757568359375,1.0462646484375
80955,0.6376800537109375,-0.2240142822265625,1.057815551757812
80956,0.6167449951171875,-0.2112884521484375,1.055572509765625
80957,0.575775146484375,-0.2069091796875,1.045364379882812
80958,0.5140380859375,-0.2261505126953125,1.020782470703125
80959,0.404815673828125,-0.2715301513671875,0.9914093017578124
80960,0.2743072509765625,-0.347076416015625,0.9427490234375
80961,0.143829345703125,-0.4355010986328125,0.87030029296875
80962,0.017303466796875,-0.4730377197265625,0.8243560791015625
80963,-0.1268310546875,-0.44921875,0.8046417236328125
80964,-0.25360107421875,-0.4055938720703125,0.7753753662109375
80965,-0.3757781982421875,-0.362335205078125,0.6837310791015625
80966,-0.442779541015625,-0.355621337890625,0.5632781982421875
80967,-0.427093505859375,-0.380584716796875,0.45513916015625
80968,-0.39520263671875,-0.419708251953125,0.387420654296875
80969,-0.337432861328125,-0.4919891357421875,0.3743896484375
80970,-0.2801971435546875,-0.5612640380859375,0.387298583984375
80971,-0.2497711181640625,-0.66473388671875,0.4232635498046875
80972,-0.2340545654296875,-0.79010009765625,0.50750732421875
80973,-0.2480010986328125,-0.92926025390625,0.628692626953125
80974,-0.293487548828125,-1.044967651367188,0.7624053955078125
80975,-0.35040283203125,-1.133270263671875,0.8737945556640625
80976,-0.4312744140625,-1.231048583984375,0.9160919189453124
80977,-0.519744873046875,-1.323257446289062,0.863555908203125
80978,-0.55999755859375,-1.403900146484375,0.7357330322265625
80979,-0.5272979736328125,-1.430511474609375,0.603973388671875
80980,-0.4558258056640625,-1.375686645507812,0.49456787109375
80981,-0.3859405517578125,-1.230880737304688,0.41680908203125
80982,-0.366455078125,-1.04583740234375,0.370147705078125
80983,-0.3957977294921875,-0.858856201171875,0.362457275390625
80984,-0.40350341796875,-0.70233154296875,0.37255859375
80985,-0.3706207275390625,-0.6044769287109375,0.41094970703125
80986,-0.30670166015625,-0.5748443603515625,0.4700164794921875
80987,-0.249237060546875,-0.544464111328125,0.5376739501953125
80988,-0.1970977783203125,-0.5220794677734375,0.5645599365234375
80989,-0.1228485107421875,-0.51153564453125,0.61029052734375
80990,-0.015045166015625,-0.4773712158203125,0.7347259521484375
80991,0.1186981201171875,-0.4086761474609375,0.90667724609375
80992,0.244293212890625,-0.320037841796875,1.078445434570312
80993,0.348388671875,-0.286102294921875,1.202957153320312
80994,0.4552001953125,-0.2545013427734375,1.299179077148438
80995,0.5311737060546875,-0.1770477294921875,1.374618530273438
80996,0.6764678955078125,-0.1201171875,1.463272094726562
80997,0.86749267578125,-0.0276336669921875,1.492828369140625
80998,1.029083251953125,0.0264129638671875,1.407089233398438
80999,1.127395629882812,0.0391845703125,1.267044067382812
81000,1.110488891601562,0.05596923828125,1.0738525390625
81001,1.0657958984375,0.0808563232421875,0.9104461669921876
81002,1.030288696289062,0.10894775390625,0.814544677734375
81003,0.990234375,0.1335906982421875,0.794525146484375
81004,0.9280242919921876,0.163604736328125,0.8088226318359375
81005,0.8681793212890625,0.1844329833984375,0.8236541748046875
81006,0.8125,0.2129364013671875,0.848876953125
81007,0.7467193603515625,0.2521209716796875,0.8958892822265625
81008,0.6806793212890625,0.265106201171875,0.9411468505859376
81009,0.6124420166015625,0.2320709228515625,0.972198486328125
81010,0.5532379150390625,0.15118408203125,0.993804931640625
81011,0.501220703125,0.039398193359375,1.01275634765625
81012,0.4334869384765625,-0.076568603515625,1.0369873046875
81013,0.3584442138671875,-0.2004547119140625,1.053680419921875
81014,0.2856903076171875,-0.345550537109375,1.053176879882812
81015,0.20269775390625,-0.491241455078125,1.045547485351562
81016,0.1003875732421875,-0.610015869140625,1.055862426757812
81017,0.02301025390625,-0.6919097900390625,1.058792114257812
81018,-0.02197265625,-0.7079925537109375,1.038330078125
81019,-0.053009033203125,-0.68475341796875,0.95648193359375
81020,-0.084259033203125,-0.656707763671875,0.827972412109375
81021,-0.104278564453125,-0.6400909423828125,0.6905517578125
81022,-0.0845794677734375,-0.6290283203125,0.5664215087890625
81023,-0.0334014892578125,-0.6392669677734375,0.47357177734375
81024,0.0362548828125,-0.6763153076171875,0.4238739013671875
81025,0.1067657470703125,-0.7114715576171875,0.422515869140625
81026,0.175628662109375,-0.717742919921875,0.4526824951171875
81027,0.2238311767578125,-0.68023681640625,0.4918670654296875
81028,0.24993896484375,-0.64361572265625,0.5324249267578125
81029,0.2637176513671875,-0.6336822509765625,0.5714111328125
81030,0.238494873046875,-0.6487579345703125,0.609893798828125
81031,0.17816162109375,-0.675140380859375,0.6745147705078125
81032,0.085662841796875,-0.7198333740234375,0.7622833251953125
81033,-0.04779052734375,-0.7855987548828125,0.8498382568359375
81034,-0.1977081298828125,-0.871246337890625,0.9220123291015624
81035,-0.3443756103515625,-0.963958740234375,0.9591522216796876
81036,-0.4766693115234375,-1.03448486328125,0.960479736328125
81037,-0.5612335205078125,-1.010345458984375,0.9412384033203124
81038,-0.539581298828125,-0.88433837890625,0.8934173583984375
81039,-0.43572998046875,-0.822296142578125,0.761932373046875
81040,-0.3237152099609375,-0.82025146484375,0.569305419921875
81041,-0.2463226318359375,-0.80792236328125,0.3838653564453125
81042,-0.18389892578125,-0.7649078369140625,0.2885284423828125
81043,-0.131195068359375,-0.7389068603515625,0.279327392578125
81044,-0.104583740234375,-0.737091064453125,0.333160400390625
81045,-0.1172027587890625,-0.728057861328125,0.4279022216796875
81046,-0.1671905517578125,-0.69793701171875,0.52911376953125
81047,-0.2123260498046875,-0.6649627685546875,0.6142120361328125
81048,-0.2135009765625,-0.6250152587890625,0.6979827880859375
81049,-0.16375732421875,-0.5655364990234375,0.8087310791015625
81050,-0.074249267578125,-0.4980316162109375,0.955047607421875
81051,0.0651092529296875,-0.446502685546875,1.105712890625
81052,0.1964111328125,-0.3746490478515625,1.213943481445312
81053,0.310455322265625,-0.3520965576171875,1.27685546875
81054,0.4451751708984375,-0.3693695068359375,1.289535522460938
81055,0.6053009033203125,-0.35565185546875,1.288330078125
81056,0.7415771484375,-0.2671356201171875,1.27947998046875
81057,0.8266754150390625,-0.1410369873046875,1.255615234375
81058,0.886993408203125,-0.04443359375,1.232650756835938
81059,0.9618377685546876,-0.015960693359375,1.2098388671875
81060,1.0687255859375,-0.0128631591796875,1.183258056640625
81061,1.1287841796875,-0.0045318603515625,1.134292602539062
81062,1.153762817382812,-0.0235443115234375,1.093826293945312
81063,1.152420043945312,-0.0414276123046875,1.079681396484375
81064,1.12359619140625,-0.0812835693359375,1.07293701171875
81065,1.0677490234375,-0.125518798828125,1.024017333984375
81066,1.021148681640625,-0.166046142578125,0.9313507080078124
81067,0.9918060302734376,-0.1649017333984375,0.8613433837890625
81068,0.95361328125,-0.15289306640625,0.818084716796875
81069,0.9117431640625,-0.17938232421875,0.788726806640625
81070,0.86175537109375,-0.22430419921875,0.774169921875
81071,0.7970123291015625,-0.269561767578125,0.7810516357421875
81072,0.714599609375,-0.2815399169921875,0.8065948486328125
81073,0.65826416015625,-0.2764434814453125,0.8487548828125
81074,0.632659912109375,-0.2714996337890625,0.902557373046875
81075,0.604949951171875,-0.26007080078125,0.943450927734375
81076,0.5635833740234375,-0.247802734375,0.9609832763671876
81077,0.4952545166015625,-0.2425537109375,0.9605255126953124
81078,0.4190216064453125,-0.258087158203125,0.970977783203125
81079,0.3345794677734375,-0.2986907958984375,0.9805908203125
81080,0.201080322265625,-0.335205078125,0.9763641357421876
81081,0.047210693359375,-0.3604583740234375,0.96063232421875
81082,-0.1201934814453125,-0.3427734375,0.9351348876953124
81083,-0.2400360107421875,-0.3181610107421875,0.89642333984375
81084,-0.3441314697265625,-0.2835693359375,0.775115966796875
81085,-0.4228668212890625,-0.2710113525390625,0.6258087158203125
81086,-0.4466705322265625,-0.2779388427734375,0.490020751953125
81087,-0.41571044921875,-0.3451690673828125,0.4085693359375
81088,-0.336334228515625,-0.4626617431640625,0.3514862060546875
81089,-0.2472381591796875,-0.5739288330078125,0.3293304443359375
81090,-0.1650543212890625,-0.6761474609375,0.33343505859375
81091,-0.099090576171875,-0.774749755859375,0.377532958984375
81092,-0.070159912109375,-0.8895721435546875,0.4758148193359375
81093,-0.0645599365234375,-0.9914398193359376,0.62042236328125
81094,-0.0901947021484375,-1.067230224609375,0.7814483642578125
81095,-0.166473388671875,-1.167510986328125,0.907684326171875
81096,-0.2787017822265625,-1.272354125976562,0.9637908935546876
81097,-0.3882293701171875,-1.3616943359375,0.9432525634765624
81098,-0.4449462890625,-1.388824462890625,0.875213623046875
81099,-0.426239013671875,-1.30810546875,0.7720947265625
81100,-0.375274658203125,-1.124893188476562,0.6587982177734375
81101,-0.3288116455078125,-0.9256744384765624,0.5233154296875
81102,-0.2958831787109375,-0.7582855224609375,0.4108123779296875
81103,-0.2928009033203125,-0.634185791015625,0.3321075439453125
81104,-0.2766876220703125,-0.5662689208984375,0.303955078125
81105,-0.247161865234375,-0.5353546142578125,0.322540283203125
81106,-0.2264251708984375,-0.5257720947265625,0.3714141845703125
81107,-0.2162322998046875,-0.5240478515625,0.445281982421875
81108,-0.1830291748046875,-0.526153564453125,0.5067901611328125
81109,-0.1174468994140625,-0.51568603515625,0.572509765625
81110,-0.01666259765625,-0.4826812744140625,0.6814727783203125
81111,0.0800323486328125,-0.4472198486328125,0.8310394287109375
81112,0.1802520751953125,-0.423492431640625,1.009536743164062
81113,0.2777557373046875,-0.373504638671875,1.172042846679688
81114,0.3453826904296875,-0.2993011474609375,1.29229736328125
81115,0.48150634765625,-0.2140655517578125,1.41876220703125
81116,0.6706695556640625,-0.0741119384765625,1.539535522460938
81117,0.878173828125,0.0129547119140625,1.547348022460938
81118,1.01458740234375,0.0412139892578125,1.39276123046875
81119,1.05126953125,0.080535888671875,1.192398071289062
81120,1.025436401367188,0.1444854736328125,1.020217895507812
81121,0.979949951171875,0.1816558837890625,0.870086669921875
81122,0.9615020751953124,0.1806640625,0.7802734375
81123,0.95880126953125,0.17706298828125,0.764007568359375
81124,0.9327392578125,0.1828460693359375,0.7737274169921875
81125,0.8754425048828125,0.188385009765625,0.8150787353515625
81126,0.8008270263671875,0.2051239013671875,0.8813018798828125
81127,0.729095458984375,0.19232177734375,0.9582672119140624
81128,0.6590576171875,0.1386871337890625,1.019317626953125
81129,0.5847625732421875,0.0655059814453125,1.089828491210938
81130,0.5210418701171875,-0.0436553955078125,1.155654907226562
81131,0.4555206298828125,-0.166229248046875,1.172805786132812
81132,0.3902587890625,-0.28326416015625,1.1378173828125
81133,0.34442138671875,-0.3782501220703125,1.079208374023438
81134,0.324188232421875,-0.453216552734375,1.024917602539062
81135,0.3050079345703125,-0.5002899169921875,0.98150634765625
81136,0.2734832763671875,-0.5188446044921875,0.943359375
81137,0.2510833740234375,-0.5316619873046875,0.90997314453125
81138,0.2505950927734375,-0.5439910888671875,0.864593505859375
81139,0.2456512451171875,-0.5539398193359375,0.805511474609375
81140,0.233001708984375,-0.5727386474609375,0.75946044921875
81141,0.21746826171875,-0.5772552490234375,0.7342681884765625
81142,0.2041473388671875,-0.56866455078125,0.7111358642578125
81143,0.2049102783203125,-0.5592193603515625,0.6748199462890625
81144,0.21881103515625,-0.556243896484375,0.6308746337890625
81145,0.229400634765625,-0.57354736328125,0.5933685302734375
81146,0.238983154296875,-0.6133880615234375,0.5717620849609375
81147,0.261260986328125,-0.66326904296875,0.5791473388671875
81148,0.2715606689453125,-0.7005157470703125,0.6069488525390625
81149,0.2429656982421875,-0.7333221435546875,0.6410064697265625
81150,0.2139739990234375,-0.7693939208984375,0.69451904296875
81151,0.1466217041015625,-0.7957916259765625,0.7582244873046875
81152,0.01177978515625,-0.8355865478515625,0.8175048828125
81153,-0.165863037109375,-0.9094696044921876,0.8860015869140625
81154,-0.3533935546875,-1.01068115234375,0.9362030029296876
81155,-0.51593017578125,-1.116897583007812,0.952178955078125
81156,-0.6432342529296875,-1.163742065429688,0.9711151123046876
81157,-0.6925048828125,-1.092193603515625,0.9570159912109376
81158,-0.66650390625,-0.9496307373046876,0.8309326171875
81159,-0.61474609375,-0.8697662353515625,0.5743865966796875
81160,-0.5507659912109375,-0.8422698974609375,0.30340576171875
81161,-0.4836273193359375,-0.799774169921875,0.142669677734375
81162,-0.447174072265625,-0.7638702392578125,0.1236724853515625
81163,-0.451202392578125,-0.75897216796875,0.172943115234375
81164,-0.4537200927734375,-0.7521820068359375,0.2385101318359375
81165,-0.419830322265625,-0.7180328369140625,0.3173065185546875
81166,-0.35528564453125,-0.6628265380859375,0.4201507568359375
81167,-0.2752227783203125,-0.61737060546875,0.542633056640625
81168,-0.190338134765625,-0.6082305908203125,0.67498779296875
81169,-0.095062255859375,-0.602508544921875,0.8121337890625
81170,0.037139892578125,-0.6042938232421875,0.95721435546875
81171,0.183746337890625,-0.5821685791015625,1.066848754882812
81172,0.27764892578125,-0.5039520263671875,1.166366577148438
81173,0.4094085693359375,-0.4304962158203125,1.294509887695312
81174,0.5547027587890625,-0.32928466796875,1.393203735351562
81175,0.699493408203125,-0.2486724853515625,1.423110961914062
81176,0.83154296875,-0.1976470947265625,1.354721069335938
81177,0.924407958984375,-0.14599609375,1.2601318359375
81178,0.9845733642578124,-0.0778350830078125,1.198867797851562
81179,1.032119750976562,0.008819580078125,1.1407470703125
81180,1.10052490234375,0.0571746826171875,1.079727172851562
81181,1.156951904296875,0.1006927490234375,1.019927978515625
81182,1.189590454101562,0.144744873046875,0.9583282470703124
81183,1.222137451171875,0.1486053466796875,0.8989105224609375
81184,1.217864990234375,0.1475372314453125,0.8477020263671875
81185,1.172607421875,0.11785888671875,0.7831268310546875
81186,1.11273193359375,0.061309814453125,0.7129364013671875
81187,1.055831909179688,0.0262908935546875,0.6627960205078125
81188,1.007598876953125,7.62939453125e-05,0.649444580078125
81189,0.95965576171875,-0.039520263671875,0.6678619384765625
81190,0.8956756591796875,-0.0786895751953125,0.7155914306640625
81191,0.837493896484375,-0.11480712890625,0.7987823486328125
81192,0.811676025390625,-0.15411376953125,0.91229248046875
81193,0.787933349609375,-0.18115234375,1.0157470703125
81194,0.76507568359375,-0.1951904296875,1.100540161132812
81195,0.7410736083984375,-0.198486328125,1.158432006835938
81196,0.6993560791015625,-0.1993865966796875,1.177505493164062
81197,0.6227264404296875,-0.218231201171875,1.169082641601562
81198,0.526641845703125,-0.2728118896484375,1.153076171875
81199,0.4140472412109375,-0.350921630859375,1.090667724609375
81200,0.2757110595703125,-0.4473876953125,0.9557647705078124
81201,0.13568115234375,-0.52838134765625,0.8431243896484375
81202,-0.0235443115234375,-0.5548095703125,0.7995758056640625
81203,-0.199066162109375,-0.54266357421875,0.774505615234375
81204,-0.3735198974609375,-0.524993896484375,0.73040771484375
81205,-0.4881591796875,-0.52056884765625,0.62750244140625
81206,-0.52996826171875,-0.5196990966796875,0.4992828369140625
81207,-0.52166748046875,-0.547515869140625,0.3875579833984375
81208,-0.4740447998046875,-0.6254119873046875,0.304840087890625
81209,-0.408416748046875,-0.720062255859375,0.2712860107421875
81210,-0.3641204833984375,-0.8487548828125,0.293975830078125
81211,-0.3450164794921875,-1.006149291992188,0.40142822265625
81212,-0.3564453125,-1.138748168945312,0.5779876708984375
81213,-0.4081573486328125,-1.252578735351562,0.7598876953125
81214,-0.494171142578125,-1.371200561523438,0.8782501220703125
81215,-0.5806732177734375,-1.481964111328125,0.90692138671875
81216,-0.6235504150390625,-1.554672241210938,0.8436737060546875
81217,-0.6010894775390625,-1.574722290039062,0.729400634765625
81218,-0.5290985107421875,-1.4815673828125,0.6452178955078125
81219,-0.4608917236328125,-1.273056030273438,0.59130859375
81220,-0.4135284423828125,-1.034866333007812,0.49713134765625
81221,-0.3930511474609375,-0.861785888671875,0.38787841796875
81222,-0.38128662109375,-0.74066162109375,0.3263092041015625
81223,-0.36676025390625,-0.653594970703125,0.3278350830078125
81224,-0.334747314453125,-0.600677490234375,0.3634033203125
81225,-0.285736083984375,-0.556884765625,0.4116668701171875
81226,-0.242523193359375,-0.513214111328125,0.466522216796875
81227,-0.188568115234375,-0.488525390625,0.4965667724609375
81228,-0.0935516357421875,-0.4947662353515625,0.5397796630859375
81229,0.0167236328125,-0.4890899658203125,0.6322479248046875
81230,0.1146087646484375,-0.4462890625,0.7720184326171875
81231,0.211395263671875,-0.40289306640625,0.919952392578125
81232,0.285186767578125,-0.35833740234375,1.040313720703125
81233,0.342315673828125,-0.3056793212890625,1.168594360351562
81234,0.41595458984375,-0.232421875,1.288970947265625
81235,0.5423583984375,-0.1362457275390625,1.381790161132812
81236,0.6961517333984375,-0.028106689453125,1.43743896484375
81237,0.857177734375,0.039520263671875,1.408889770507812
81238,0.9953460693359376,0.088714599609375,1.305816650390625
81239,1.032211303710938,0.13714599609375,1.145980834960938
81240,1.021194458007812,0.15972900390625,0.972625732421875
81241,1.020095825195312,0.1739044189453125,0.8251495361328125
81242,1.032470703125,0.1794891357421875,0.72552490234375
81243,1.052490234375,0.1863861083984375,0.688507080078125
81244,1.043380737304688,0.2067413330078125,0.69390869140625
81245,0.99603271484375,0.2512054443359375,0.734405517578125
81246,0.9172210693359376,0.300018310546875,0.7952880859375
81247,0.8394927978515625,0.324981689453125,0.852813720703125
81248,0.7702484130859375,0.3087921142578125,0.9162445068359376
81249,0.696685791015625,0.2341766357421875,0.989410400390625
81250,0.6188201904296875,0.1002349853515625,1.04949951171875
81251,0.54925537109375,-0.0419464111328125,1.093231201171875
81252,0.4976806640625,-0.1758880615234375,1.11053466796875
81253,0.455535888671875,-0.326171875,1.090530395507812
81254,0.4232940673828125,-0.476226806640625,1.04437255859375
81255,0.4058837890625,-0.6067352294921875,0.9813995361328124
81256,0.392578125,-0.690032958984375,0.9134674072265624
81257,0.3944549560546875,-0.7135467529296875,0.829742431640625
81258,0.407073974609375,-0.70611572265625,0.744903564453125
81259,0.408203125,-0.6953125,0.6971893310546875
81260,0.40057373046875,-0.68585205078125,0.681732177734375
81261,0.376373291015625,-0.672698974609375,0.6966094970703125
81262,0.339599609375,-0.65728759765625,0.720672607421875
81263,0.3041229248046875,-0.644927978515625,0.731231689453125
81264,0.271270751953125,-0.6467437744140625,0.72412109375
81265,0.2362213134765625,-0.66015625,0.7035675048828125
81266,0.194000244140625,-0.6805419921875,0.68292236328125
81267,0.12841796875,-0.6941375732421875,0.6632080078125
81268,0.0842742919921875,-0.7389984130859375,0.663970947265625
81269,0.0589141845703125,-0.808197021484375,0.6614990234375
81270,0.025909423828125,-0.9012908935546876,0.6646575927734375
81271,-0.045013427734375,-0.998748779296875,0.69097900390625
81272,-0.185760498046875,-1.0804443359375,0.738677978515625
81273,-0.38055419921875,-1.144317626953125,0.798095703125
81274,-0.5748138427734375,-1.190261840820312,0.8613128662109375
81275,-0.7233734130859375,-1.174545288085938,0.8710479736328125
81276,-0.7630767822265625,-1.079940795898438,0.81549072265625
81277,-0.66693115234375,-0.9649505615234376,0.7140045166015625
81278,-0.5352630615234375,-0.927276611328125,0.592132568359375
81279,-0.4372406005859375,-0.898345947265625,0.4880828857421875
81280,-0.37005615234375,-0.8524322509765625,0.3954010009765625
81281,-0.3252716064453125,-0.804534912109375,0.3221282958984375
81282,-0.29180908203125,-0.75262451171875,0.29449462890625
81283,-0.2605133056640625,-0.69744873046875,0.317718505859375
81284,-0.2296295166015625,-0.6442718505859375,0.385833740234375
81285,-0.192901611328125,-0.5913848876953125,0.478912353515625
81286,-0.150115966796875,-0.5490264892578125,0.5743255615234375
81287,-0.0924530029296875,-0.5142974853515625,0.700103759765625
81288,-0.0206451416015625,-0.475494384765625,0.8298187255859375
81289,0.102020263671875,-0.4859161376953125,0.950958251953125
81290,0.1887359619140625,-0.4635772705078125,0.9961395263671876
81291,0.282196044921875,-0.4520263671875,1.0343017578125
81292,0.424285888671875,-0.4482269287109375,1.073654174804688
81293,0.5625152587890625,-0.4183502197265625,1.095855712890625
81294,0.6746826171875,-0.3600311279296875,1.105987548828125
81295,0.763671875,-0.2801361083984375,1.124908447265625
81296,0.817108154296875,-0.18115234375,1.15557861328125
81297,0.8484039306640625,-0.0710296630859375,1.164703369140625
81298,0.8833160400390625,0.0356292724609375,1.126754760742188
81299,0.942779541015625,0.0980987548828125,1.055023193359375
81300,0.9957122802734376,0.137939453125,0.9998931884765624
81301,1.03900146484375,0.18670654296875,0.9692840576171876
81302,1.068344116210938,0.2346954345703125,0.9678192138671876
81303,1.082748413085938,0.2373809814453125,0.9845123291015624
81304,1.0633544921875,0.181854248046875,0.980499267578125
81305,1.03094482421875,0.0979766845703125,0.9604034423828124
81306,0.99639892578125,0.0358123779296875,0.9275054931640624
81307,0.942474365234375,-0.017669677734375,0.893280029296875
81308,0.8798828125,-0.071075439453125,0.879669189453125
81309,0.820281982421875,-0.1357574462890625,0.89532470703125
81310,0.7619781494140625,-0.2137298583984375,0.9315643310546876
81311,0.7093505859375,-0.29351806640625,0.973846435546875
81312,0.6668548583984375,-0.3466949462890625,1.008819580078125
81313,0.618804931640625,-0.3575439453125,1.039443969726562
81314,0.5812530517578125,-0.3657989501953125,1.06170654296875
81315,0.54742431640625,-0.36566162109375,1.060455322265625
81316,0.509979248046875,-0.369842529296875,1.046615600585938
81317,0.455322265625,-0.383697509765625,1.011932373046875
81318,0.3862152099609375,-0.40533447265625,0.966949462890625
81319,0.31317138671875,-0.41729736328125,0.9242401123046876
81320,0.23992919921875,-0.41326904296875,0.883148193359375
81321,0.172821044921875,-0.412445068359375,0.8541107177734375
81322,0.1022186279296875,-0.4158477783203125,0.8185272216796875
81323,0.0174560546875,-0.4297027587890625,0.753997802734375
81324,-0.0795745849609375,-0.461334228515625,0.650604248046875
81325,-0.158905029296875,-0.5132598876953125,0.5301971435546875
81326,-0.22271728515625,-0.55859375,0.45220947265625
81327,-0.2755889892578125,-0.58612060546875,0.44403076171875
81328,-0.3065185546875,-0.5888214111328125,0.4515838623046875
81329,-0.3166046142578125,-0.590606689453125,0.472930908203125
81330,-0.3095550537109375,-0.63421630859375,0.51776123046875
81331,-0.290435791015625,-0.7223052978515625,0.581878662109375
81332,-0.25750732421875,-0.82562255859375,0.6650238037109375
81333,-0.23388671875,-0.913421630859375,0.774261474609375
81334,-0.2649688720703125,-1.000961303710938,0.871826171875
81335,-0.3254547119140625,-1.12347412109375,0.930419921875
81336,-0.367767333984375,-1.23028564453125,0.916046142578125
81337,-0.3780364990234375,-1.2843017578125,0.82818603515625
81338,-0.3485870361328125,-1.274627685546875,0.751617431640625
81339,-0.3101806640625,-1.216476440429688,0.683197021484375
81340,-0.286590576171875,-1.104354858398438,0.595123291015625
81341,-0.2964935302734375,-0.9810638427734376,0.4853363037109375
81342,-0.3434906005859375,-0.876068115234375,0.3851318359375
81343,-0.372100830078125,-0.7686004638671875,0.3439178466796875
81344,-0.3520965576171875,-0.6710968017578125,0.370758056640625
81345,-0.328948974609375,-0.626556396484375,0.45599365234375
81346,-0.3047027587890625,-0.594757080078125,0.564361572265625
81347,-0.2635955810546875,-0.56500244140625,0.65008544921875
81348,-0.19464111328125,-0.540679931640625,0.6992645263671875
81349,-0.087188720703125,-0.49652099609375,0.725738525390625
81350,0.0281829833984375,-0.45367431640625,0.7694854736328125
81351,0.13812255859375,-0.45037841796875,0.8345184326171875
81352,0.2187957763671875,-0.428863525390625,0.9049224853515624
81353,0.2839813232421875,-0.387969970703125,1.020706176757812
81354,0.4040069580078125,-0.3519134521484375,1.15216064453125
81355,0.562408447265625,-0.26953125,1.248733520507812
81356,0.7150726318359375,-0.1838531494140625,1.284210205078125
81357,0.919525146484375,-0.1495208740234375,1.294387817382812
81358,1.074478149414062,-0.105621337890625,1.255477905273438
81359,1.098770141601562,-0.054046630859375,1.1629638671875
81360,1.026031494140625,-0.0108489990234375,1.049057006835938
81361,0.933929443359375,0.0291900634765625,0.9486236572265624
81362,0.8901519775390625,0.04718017578125,0.8723297119140625
81363,0.9020233154296876,0.07342529296875,0.768341064453125
81364,0.92828369140625,0.1217041015625,0.688140869140625
81365,0.9198760986328124,0.1785430908203125,0.6641998291015625
81366,0.870574951171875,0.231414794921875,0.6996917724609375
81367,0.797882080078125,0.2774200439453125,0.76953125
81368,0.7557525634765625,0.28472900390625,0.8363800048828125
81369,0.7292938232421875,0.2728729248046875,0.8932952880859375
81370,0.7026214599609375,0.229461669921875,0.9520111083984376
81371,0.6675262451171875,0.1413116455078125,1.001846313476562
81372,0.627471923828125,0.0083160400390625,1.030044555664062
81373,0.582611083984375,-0.124542236328125,1.039688110351562
81374,0.5373382568359375,-0.2467803955078125,1.040863037109375
81375,0.4860687255859375,-0.36553955078125,1.042434692382812
81376,0.4210968017578125,-0.4904632568359375,1.03961181640625
81377,0.3389129638671875,-0.601470947265625,1.031646728515625
81378,0.248382568359375,-0.6878662109375,0.98406982421875
81379,0.1814117431640625,-0.7530059814453125,0.9211883544921876
81380,0.1299591064453125,-0.7898406982421875,0.86920166015625
81381,0.0823516845703125,-0.790130615234375,0.828277587890625
81382,0.052642822265625,-0.7607269287109375,0.785919189453125
81383,0.040985107421875,-0.7093048095703125,0.745697021484375
81384,0.041748046875,-0.6449127197265625,0.7097625732421875
81385,0.054229736328125,-0.58587646484375,0.67431640625
81386,0.073272705078125,-0.5465087890625,0.642059326171875
81387,0.1075286865234375,-0.5338287353515625,0.62860107421875
81388,0.13385009765625,-0.516021728515625,0.6300201416015625
81389,0.14202880859375,-0.5265655517578125,0.636962890625
81390,0.1416473388671875,-0.5753021240234375,0.6470794677734375
81391,0.13348388671875,-0.6573638916015625,0.684661865234375
81392,0.0865325927734375,-0.7575836181640625,0.7549591064453125
81393,-0.0503997802734375,-0.8491668701171875,0.8394012451171875
81394,-0.242034912109375,-0.921661376953125,0.9226226806640624
81395,-0.421142578125,-0.9660797119140624,0.9835357666015624
81396,-0.554931640625,-0.977783203125,0.9906005859375
81397,-0.6122894287109375,-0.9297027587890624,0.9505462646484376
81398,-0.5811920166015625,-0.822357177734375,0.8394927978515625
81399,-0.5061492919921875,-0.756317138671875,0.667938232421875
81400,-0.42242431640625,-0.7928924560546875,0.526702880859375
81401,-0.3479156494140625,-0.82635498046875,0.4492340087890625
81402,-0.308441162109375,-0.8243560791015625,0.4152679443359375
81403,-0.30181884765625,-0.8077545166015625,0.401947021484375
81404,-0.306610107421875,-0.80340576171875,0.4004669189453125
81405,-0.288665771484375,-0.7960662841796875,0.422027587890625
81406,-0.2576751708984375,-0.77337646484375,0.463226318359375
81407,-0.220947265625,-0.739990234375,0.5385589599609375
81408,-0.1629486083984375,-0.694610595703125,0.65447998046875
81409,-0.0849456787109375,-0.6446533203125,0.803314208984375
81410,0.0016632080078125,-0.59405517578125,0.957183837890625
81411,0.1541900634765625,-0.573638916015625,1.098861694335938
81412,0.277862548828125,-0.5142364501953125,1.167739868164062
81413,0.411529541015625,-0.459808349609375,1.210052490234375
81414,0.5638427734375,-0.388031005859375,1.246490478515625
81415,0.6810150146484375,-0.2927703857421875,1.259490966796875
81416,0.762969970703125,-0.2104949951171875,1.244216918945312
81417,0.8125152587890625,-0.133544921875,1.19873046875
81418,0.845062255859375,-0.0640411376953125,1.127227783203125
81419,0.8793487548828125,-0.0022735595703125,1.040390014648438
81420,0.9081573486328124,0.045013427734375,0.9566802978515624
81421,0.9273681640625,0.0743560791015625,0.8856353759765625
81422,0.93133544921875,0.120635986328125,0.82537841796875
81423,0.9430694580078124,0.1744384765625,0.774993896484375
81424,0.96514892578125,0.20941162109375,0.736114501953125
81425,0.9767608642578124,0.2211456298828125,0.7176666259765625
81426,0.99090576171875,0.180938720703125,0.7210235595703125
81427,1.006622314453125,0.1090545654296875,0.747589111328125
81428,1.002655029296875,0.0367584228515625,0.7571258544921875
81429,0.9894256591796876,-0.0338592529296875,0.741943359375
81430,0.96588134765625,-0.0999298095703125,0.7332611083984375
81431,0.9373931884765624,-0.16302490234375,0.7586669921875
81432,0.9169464111328124,-0.212310791015625,0.8306732177734375
81433,0.885009765625,-0.25653076171875,0.91534423828125
81434,0.832916259765625,-0.2985076904296875,0.987091064453125
81435,0.7785186767578125,-0.3206024169921875,1.044448852539062
81436,0.720672607421875,-0.3173065185546875,1.086624145507812
81437,0.6548919677734375,-0.29833984375,1.107833862304688
81438,0.587371826171875,-0.281585693359375,1.119979858398438
81439,0.5111541748046875,-0.27972412109375,1.115829467773438
81440,0.420501708984375,-0.29644775390625,1.104095458984375
81441,0.3143463134765625,-0.322998046875,1.078170776367188
81442,0.2120513916015625,-0.333648681640625,1.036056518554688
81443,0.1126251220703125,-0.3506317138671875,0.9762420654296876
81444,0.0193939208984375,-0.394195556640625,0.903167724609375
81445,-0.081878662109375,-0.452850341796875,0.815582275390625
81446,-0.2109832763671875,-0.5096588134765625,0.7014007568359375
81447,-0.32537841796875,-0.5689697265625,0.6137847900390625
81448,-0.39739990234375,-0.6030426025390625,0.5675048828125
81449,-0.4487457275390625,-0.6078033447265625,0.51995849609375
81450,-0.47637939453125,-0.616943359375,0.468109130859375
81451,-0.488555908203125,-0.655029296875,0.423126220703125
81452,-0.46539306640625,-0.7429351806640625,0.4138336181640625
81453,-0.433349609375,-0.87945556640625,0.4482574462890625
81454,-0.4392547607421875,-1.021224975585938,0.5101470947265625
81455,-0.4343414306640625,-1.080825805664062,0.6016845703125
81456,-0.4064178466796875,-1.089431762695312,0.672119140625
81457,-0.38397216796875,-1.124542236328125,0.6827392578125
81458,-0.3550262451171875,-1.173736572265625,0.635040283203125
81459,-0.2979583740234375,-1.203079223632812,0.56134033203125
81460,-0.2208099365234375,-1.207611083984375,0.532806396484375
81461,-0.16998291015625,-1.181533813476562,0.5426025390625
81462,-0.144195556640625,-1.126190185546875,0.55078125
81463,-0.12701416015625,-1.01629638671875,0.5553436279296875
81464,-0.1381378173828125,-0.874237060546875,0.5578155517578125
81465,-0.152191162109375,-0.762298583984375,0.57958984375
81466,-0.148345947265625,-0.692596435546875,0.6345062255859375
81467,-0.131622314453125,-0.675201416015625,0.6915435791015625
81468,-0.1002349853515625,-0.672027587890625,0.7442474365234375
81469,-0.047821044921875,-0.6688232421875,0.77703857421875
81470,0.0076751708984375,-0.641082763671875,0.7944488525390625
81471,0.07269287109375,-0.5769500732421875,0.8195648193359375
81472,0.12420654296875,-0.52447509765625,0.823089599609375
81473,0.19073486328125,-0.4742889404296875,0.8410186767578125
81474,0.2745513916015625,-0.3976898193359375,0.90948486328125
81475,0.3581695556640625,-0.301177978515625,1.015045166015625
81476,0.430267333984375,-0.222930908203125,1.106414794921875
81477,0.52044677734375,-0.1906890869140625,1.165756225585938
81478,0.614166259765625,-0.1568145751953125,1.18463134765625
81479,0.7249603271484375,-0.1252288818359375,1.17108154296875
81480,0.832489013671875,-0.0907135009765625,1.116973876953125
81481,0.9030303955078124,-0.03912353515625,1.05029296875
81482,0.9495086669921876,0.0111846923828125,1.009368896484375
81483,0.97064208984375,0.0461273193359375,0.9691162109375
81484,0.98394775390625,0.06005859375,0.9248046875
81485,1.0020751953125,0.076690673828125,0.8902435302734375
81486,1.019134521484375,0.1134185791015625,0.8663482666015625
81487,1.015792846679688,0.1532135009765625,0.864501953125
81488,0.9873809814453124,0.1840972900390625,0.8856048583984375
81489,0.9363555908203124,0.2058258056640625,0.9353179931640624
81490,0.8710784912109375,0.2038421630859375,0.98681640625
81491,0.784393310546875,0.182769775390625,1.027191162109375
81492,0.6851043701171875,0.1404876708984375,1.05999755859375
81493,0.5932769775390625,0.058013916015625,1.072952270507812
81494,0.4939117431640625,-0.0546722412109375,1.059478759765625
81495,0.3818359375,-0.1729583740234375,1.04742431640625
81496,0.2703704833984375,-0.2987060546875,1.029815673828125
81497,0.1822662353515625,-0.4307403564453125,1.00848388671875
81498,0.1186370849609375,-0.52569580078125,1.001861572265625
81499,0.0680694580078125,-0.5746917724609375,0.97772216796875
81500,0.047119140625,-0.6103668212890625,0.920196533203125
81501,0.051025390625,-0.6427001953125,0.8383331298828125
81502,0.057403564453125,-0.66497802734375,0.7474822998046875
81503,0.052947998046875,-0.678314208984375,0.670501708984375
81504,0.0550079345703125,-0.668975830078125,0.6158599853515625
81505,0.070068359375,-0.6493072509765625,0.589080810546875
81506,0.0884857177734375,-0.624755859375,0.578765869140625
81507,0.095367431640625,-0.60662841796875,0.583984375
81508,0.0956573486328125,-0.5916290283203125,0.61181640625
81509,0.09417724609375,-0.57891845703125,0.6535186767578125
81510,0.104461669921875,-0.57574462890625,0.6968536376953125
81511,0.120361328125,-0.5825042724609375,0.731536865234375
81512,0.1281585693359375,-0.614959716796875,0.760711669921875
81513,0.0965576171875,-0.6557769775390625,0.792724609375
81514,0.040863037109375,-0.722015380859375,0.8453216552734375
81515,-0.0653228759765625,-0.789947509765625,0.904144287109375
81516,-0.220306396484375,-0.8553314208984375,0.9686126708984376
81517,-0.4031982421875,-0.90863037109375,1.027420043945312
81518,-0.5721588134765625,-0.9300689697265624,1.058364868164062
81519,-0.698944091796875,-0.9099578857421876,1.02288818359375
81520,-0.7543487548828125,-0.837310791015625,0.8972625732421875
81521,-0.7113189697265625,-0.76544189453125,0.7101287841796875
81522,-0.602874755859375,-0.753021240234375,0.50689697265625
81523,-0.48638916015625,-0.759674072265625,0.3572845458984375
81524,-0.3881988525390625,-0.7285003662109375,0.28179931640625
81525,-0.329498291015625,-0.6743316650390625,0.2765655517578125
81526,-0.296905517578125,-0.6283416748046875,0.330078125
81527,-0.2694091796875,-0.594268798828125,0.408599853515625
81528,-0.257476806640625,-0.5579376220703125,0.490814208984375
81529,-0.2479095458984375,-0.5156707763671875,0.5803070068359375
81530,-0.2181243896484375,-0.4679718017578125,0.6739959716796875
81531,-0.16461181640625,-0.42718505859375,0.7569427490234375
81532,-0.112548828125,-0.4021759033203125,0.839813232421875
81533,0.0199432373046875,-0.4377288818359375,0.95050048828125
81534,0.1386260986328125,-0.4448394775390625,1.046218872070312
81535,0.2103729248046875,-0.4499664306640625,1.152206420898438
81536,0.31878662109375,-0.4549102783203125,1.23968505859375
81537,0.4621429443359375,-0.4198150634765625,1.289962768554688
81538,0.640960693359375,-0.3684234619140625,1.327667236328125
81539,0.7781829833984375,-0.285736083984375,1.312820434570312
81540,0.8451080322265625,-0.1884918212890625,1.2552490234375
81541,0.875640869140625,-0.0921173095703125,1.17083740234375
81542,0.8888397216796875,0.0011138916015625,1.0765380859375
81543,0.9089508056640624,0.066070556640625,0.99530029296875
81544,0.940582275390625,0.086639404296875,0.9344329833984376
81545,0.9713592529296876,0.08526611328125,0.909027099609375
81546,0.997406005859375,0.0639801025390625,0.921844482421875
81547,1.017608642578125,0.043914794921875,0.963897705078125
81548,1.053070068359375,0.0016632080078125,0.9958343505859376
81549,1.0914306640625,-0.0529632568359375,0.99676513671875
81550,1.104690551757812,-0.108673095703125,0.960296630859375
81551,1.072738647460938,-0.14801025390625,0.9082489013671876
81552,1.034210205078125,-0.1776885986328125,0.8642578125
81553,1.001235961914062,-0.2213134765625,0.8165283203125
81554,0.952484130859375,-0.2674102783203125,0.7867279052734375
81555,0.878326416015625,-0.29705810546875,0.785919189453125
81556,0.7999114990234375,-0.3220977783203125,0.819061279296875
81557,0.7482757568359375,-0.3419189453125,0.8861236572265625
81558,0.69964599609375,-0.3623046875,0.956878662109375
81559,0.642974853515625,-0.397979736328125,1.018966674804688
81560,0.568511962890625,-0.425201416015625,1.0606689453125
81561,0.484283447265625,-0.42974853515625,1.0855712890625
81562,0.399169921875,-0.422119140625,1.090118408203125
81563,0.30303955078125,-0.3991546630859375,1.051925659179688
81564,0.2195281982421875,-0.379974365234375,0.9592437744140624
81565,0.160400390625,-0.3491668701171875,0.8668670654296875
81566,0.0962677001953125,-0.3019866943359375,0.81085205078125
81567,0.02447509765625,-0.252166748046875,0.7743682861328125
81568,-0.0689697265625,-0.254547119140625,0.7278900146484375
81569,-0.1603546142578125,-0.340301513671875,0.6775054931640625
81570,-0.236724853515625,-0.4551544189453125,0.6597900390625
81571,-0.3267822265625,-0.5179290771484375,0.6681060791015625
81572,-0.4248504638671875,-0.541778564453125,0.6793975830078125
81573,-0.501922607421875,-0.56805419921875,0.66204833984375
81574,-0.5477752685546875,-0.6186676025390625,0.610687255859375
81575,-0.5664215087890625,-0.70831298828125,0.53985595703125
81576,-0.5925445556640625,-0.8252105712890625,0.4908905029296875
81577,-0.647369384765625,-0.949737548828125,0.493865966796875
81578,-0.69586181640625,-1.044052124023438,0.5078887939453125
81579,-0.6917266845703125,-1.102157592773438,0.487396240234375
81580,-0.6137237548828125,-1.147018432617188,0.442596435546875
81581,-0.52252197265625,-1.180023193359375,0.4297637939453125
81582,-0.4604339599609375,-1.205825805664062,0.4539337158203125
81583,-0.43072509765625,-1.2196044921875,0.5036468505859375
81584,-0.4039764404296875,-1.175750732421875,0.552459716796875
81585,-0.3755645751953125,-1.072998046875,0.5914764404296875
81586,-0.3620758056640625,-0.91461181640625,0.6311492919921875
81587,-0.3380279541015625,-0.7406463623046875,0.662200927734375
81588,-0.3160552978515625,-0.6312103271484375,0.65216064453125
81589,-0.2801361083984375,-0.5807952880859375,0.6355133056640625
81590,-0.2203369140625,-0.5506439208984375,0.641998291015625
81591,-0.1516571044921875,-0.53143310546875,0.6526031494140625
81592,-0.0844879150390625,-0.496368408203125,0.665374755859375
81593,-0.0069122314453125,-0.459869384765625,0.66522216796875
81594,0.0827789306640625,-0.4435272216796875,0.6757049560546875
81595,0.1687469482421875,-0.40863037109375,0.71539306640625
81596,0.2675933837890625,-0.3882293701171875,0.79827880859375
81597,0.34515380859375,-0.3370513916015625,0.8925628662109375
81598,0.3858642578125,-0.277008056640625,0.9919281005859376
81599,0.4196319580078125,-0.2384185791015625,1.085769653320312
81600,0.4681854248046875,-0.18389892578125,1.177490234375
81601,0.53326416015625,-0.11663818359375,1.258941650390625
81602,0.6468658447265625,-0.068939208984375,1.32147216796875
81603,0.7612457275390625,-0.0439300537109375,1.334564208984375
81604,0.835052490234375,-0.0391082763671875,1.279037475585938
81605,0.900665283203125,-0.0351715087890625,1.17236328125
81606,0.953948974609375,-0.0005340576171875,1.067245483398438
81607,0.9878997802734376,0.0384979248046875,0.9676361083984376
81608,1.008468627929688,0.07366943359375,0.889404296875
81609,0.990631103515625,0.124725341796875,0.8616180419921875
81610,0.95501708984375,0.1687469482421875,0.8734283447265625
81611,0.8734893798828125,0.233551025390625,0.894927978515625
81612,0.7904205322265625,0.2806396484375,0.938323974609375
81613,0.7342376708984375,0.29632568359375,0.9998321533203124
81614,0.6888275146484375,0.29241943359375,1.063461303710938
81615,0.6157989501953125,0.2671966552734375,1.117141723632812
81616,0.5348968505859375,0.1905975341796875,1.146682739257812
81617,0.459747314453125,0.073211669921875,1.139434814453125
81618,0.38201904296875,-0.05377197265625,1.10723876953125
81619,0.3011627197265625,-0.1956634521484375,1.060836791992188
81620,0.21759033203125,-0.322723388671875,1.022857666015625
81621,0.15948486328125,-0.42742919921875,1.00152587890625
81622,0.11700439453125,-0.480377197265625,0.9826812744140624
81623,0.0858001708984375,-0.50164794921875,0.9326171875
81624,0.0853729248046875,-0.5242767333984375,0.853515625
81625,0.100250244140625,-0.542388916015625,0.7927093505859375
81626,0.1013946533203125,-0.5647125244140625,0.741455078125
81627,0.105438232421875,-0.59466552734375,0.7022247314453125
81628,0.1196746826171875,-0.616943359375,0.6845703125
81629,0.1310272216796875,-0.6237640380859375,0.69403076171875
81630,0.130767822265625,-0.6331329345703125,0.7158966064453125
81631,0.1290130615234375,-0.6468353271484375,0.7310791015625
81632,0.1103363037109375,-0.651123046875,0.729217529296875
81633,0.05438232421875,-0.636962890625,0.6957550048828125
81634,0.0302581787109375,-0.64141845703125,0.662261962890625
81635,0.016204833984375,-0.662109375,0.6229705810546875
81636,-0.04254150390625,-0.72613525390625,0.5723876953125
81637,-0.140350341796875,-0.8493194580078125,0.534576416015625
81638,-0.264068603515625,-0.9864501953125,0.5354156494140625
81639,-0.4290924072265625,-1.109619140625,0.55889892578125
81640,-0.6027374267578125,-1.179824829101562,0.585052490234375
81641,-0.7214813232421875,-1.199188232421875,0.60528564453125
81642,-0.75408935546875,-1.184127807617188,0.6237640380859375
81643,-0.7042083740234375,-1.06378173828125,0.6295166015625
81644,-0.6059722900390625,-0.9102020263671876,0.59503173828125
81645,-0.4923248291015625,-0.8566741943359375,0.5345458984375
81646,-0.3722381591796875,-0.8258819580078125,0.47998046875
81647,-0.243743896484375,-0.806488037109375,0.4458465576171875
81648,-0.1454620361328125,-0.789306640625,0.4557647705078125
81649,-0.1057281494140625,-0.7631683349609375,0.4969635009765625
81650,-0.086700439453125,-0.7012939453125,0.5759124755859375
81651,-0.088531494140625,-0.615966796875,0.65875244140625
81652,-0.0950469970703125,-0.55908203125,0.7178497314453125
81653,-0.0629425048828125,-0.524444580078125,0.7957916259765625
81654,-0.02288818359375,-0.4705963134765625,0.92388916015625
81655,0.0168914794921875,-0.43218994140625,1.054763793945312
81656,0.110260009765625,-0.4034576416015625,1.137969970703125
81657,0.1920928955078125,-0.3722991943359375,1.148269653320312
81658,0.302398681640625,-0.3711090087890625,1.143508911132812
81659,0.43878173828125,-0.355865478515625,1.150466918945312
81660,0.568145751953125,-0.320587158203125,1.156936645507812
81661,0.6775360107421875,-0.281494140625,1.155914306640625
81662,0.7601165771484375,-0.2451171875,1.14044189453125
81663,0.87493896484375,-0.19500732421875,1.152435302734375
81664,0.9582672119140624,-0.1205291748046875,1.137405395507812
81665,1.039688110351562,-0.0875396728515625,1.114120483398438
81666,1.107620239257812,-0.065460205078125,1.082977294921875
81667,1.13409423828125,-0.0482635498046875,1.065277099609375
81668,1.139511108398438,-0.0296630859375,1.04290771484375
81669,1.13812255859375,-0.02386474609375,1.017166137695312
81670,1.116531372070312,-0.0434112548828125,0.97076416015625
81671,1.07489013671875,-0.0817718505859375,0.90887451171875
81672,1.032577514648438,-0.11383056640625,0.851654052734375
81673,0.9962158203125,-0.13336181640625,0.7910919189453125
81674,0.9615325927734376,-0.14752197265625,0.7404632568359375
81675,0.9264678955078124,-0.1591033935546875,0.7202301025390625
81676,0.8972320556640625,-0.1949615478515625,0.7352142333984375
81677,0.8523101806640625,-0.2386016845703125,0.7800140380859375
81678,0.787933349609375,-0.28070068359375,0.8507537841796875
81679,0.7489471435546875,-0.3179473876953125,0.9427947998046876
81680,0.7130889892578125,-0.320526123046875,1.029251098632812
81681,0.67498779296875,-0.3104248046875,1.077499389648438
81682,0.639923095703125,-0.2967529296875,1.097183227539062
81683,0.5966033935546875,-0.295623779296875,1.111572265625
81684,0.5346221923828125,-0.29742431640625,1.132156372070312
81685,0.449981689453125,-0.3143768310546875,1.15057373046875
81686,0.352325439453125,-0.3505401611328125,1.157882690429688
81687,0.216552734375,-0.391082763671875,1.117477416992188
81688,0.067230224609375,-0.4376068115234375,1.014205932617188
81689,-0.0757293701171875,-0.4666595458984375,0.908447265625
81690,-0.2403411865234375,-0.466766357421875,0.828369140625
81691,-0.4141998291015625,-0.472747802734375,0.7620697021484375
81692,-0.5752105712890625,-0.4659576416015625,0.683837890625
81693,-0.665008544921875,-0.4561767578125,0.545074462890625
81694,-0.661407470703125,-0.4642486572265625,0.3536224365234375
81695,-0.5893096923828125,-0.5326995849609375,0.1646575927734375
81696,-0.4762115478515625,-0.6409454345703125,0.07293701171875
81697,-0.4077606201171875,-0.785797119140625,0.0723724365234375
81698,-0.3727569580078125,-0.923370361328125,0.196533203125
81699,-0.37249755859375,-1.0528564453125,0.3936309814453125
81700,-0.4187469482421875,-1.166976928710938,0.6012115478515625
81701,-0.47760009765625,-1.251129150390625,0.7458648681640625
81702,-0.511932373046875,-1.304641723632812,0.80914306640625
81703,-0.4993896484375,-1.37298583984375,0.757171630859375
81704,-0.4353790283203125,-1.437820434570312,0.6487274169921875
81705,-0.365692138671875,-1.417266845703125,0.5875244140625
81706,-0.31353759765625,-1.288238525390625,0.5646209716796875
81707,-0.298492431640625,-1.057601928710938,0.531982421875
81708,-0.307708740234375,-0.8251953125,0.483154296875
81709,-0.2985382080078125,-0.6679534912109375,0.4630279541015625
81710,-0.2762908935546875,-0.58392333984375,0.4536590576171875
81711,-0.24212646484375,-0.550018310546875,0.4690399169921875
81712,-0.20770263671875,-0.5293426513671875,0.50390625
81713,-0.1800537109375,-0.5064239501953125,0.5628662109375
81714,-0.13067626953125,-0.501922607421875,0.646728515625
81715,-0.053192138671875,-0.495147705078125,0.72607421875
81716,0.024322509765625,-0.434722900390625,0.81182861328125
81717,0.132110595703125,-0.378570556640625,0.93316650390625
81718,0.2496337890625,-0.2825469970703125,1.032196044921875
81719,0.2945098876953125,-0.201751708984375,1.118667602539062
81720,0.35491943359375,-0.181976318359375,1.210830688476562
81721,0.40679931640625,-0.14337158203125,1.2799072265625
81722,0.498504638671875,-0.0989990234375,1.334915161132812
81723,0.596038818359375,-0.0209503173828125,1.378799438476562
81724,0.7277984619140625,0.0054779052734375,1.34088134765625
81725,0.878509521484375,0.0248870849609375,1.301681518554688
81726,0.9586334228515624,0.052581787109375,1.209152221679688
81727,0.9662933349609376,0.079193115234375,1.087814331054688
81728,0.9506988525390624,0.12640380859375,0.9969940185546876
81729,0.9351348876953124,0.1944732666015625,0.9344329833984376
81730,0.9448699951171876,0.2309112548828125,0.8684844970703125
81731,0.93939208984375,0.2378997802734375,0.806793212890625
81732,0.9221649169921876,0.2331390380859375,0.785430908203125
81733,0.8643798828125,0.2595367431640625,0.789276123046875
81734,0.7983551025390625,0.2777862548828125,0.810638427734375
81735,0.7325897216796875,0.278472900390625,0.8450164794921875
81736,0.6633758544921875,0.249542236328125,0.892730712890625
81737,0.592132568359375,0.1801605224609375,0.9597625732421876
81738,0.49749755859375,0.084747314453125,1.030441284179688
81739,0.3908843994140625,-0.040191650390625,1.076461791992188
81740,0.2916717529296875,-0.1890106201171875,1.110336303710938
81741,0.1902313232421875,-0.3565673828125,1.136322021484375
81742,0.081573486328125,-0.5274658203125,1.163650512695312
81743,-0.0191192626953125,-0.6524200439453125,1.195449829101562
81744,-0.0984649658203125,-0.684539794921875,1.211288452148438
81745,-0.12860107421875,-0.63739013671875,1.172637939453125
81746,-0.1196746826171875,-0.5624847412109375,1.072296142578125
81747,-0.087890625,-0.4995269775390625,0.9368743896484376
81748,-0.0429229736328125,-0.480865478515625,0.77630615234375
81749,0.015045166015625,-0.5115203857421875,0.628326416015625
81750,0.08551025390625,-0.593994140625,0.5462646484375
81751,0.1514129638671875,-0.680816650390625,0.5604705810546875
81752,0.2032928466796875,-0.722686767578125,0.6191558837890625
81753,0.2467041015625,-0.712921142578125,0.6871185302734375
81754,0.271331787109375,-0.677642822265625,0.7533111572265625
81755,0.2587890625,-0.6572723388671875,0.7991180419921875
81756,0.2021484375,-0.6853790283203125,0.8260955810546875
81757,0.1063079833984375,-0.7586822509765625,0.834381103515625
81758,-0.105712890625,-0.8423309326171875,0.8239593505859375
81759,-0.3373565673828125,-0.9593353271484376,0.810943603515625
81760,-0.5667266845703125,-1.016281127929688,0.753570556640625
81761,-0.76727294921875,-1.060043334960938,0.6791534423828125
81762,-0.90191650390625,-1.0888671875,0.6086883544921875
81763,-0.95745849609375,-1.049789428710938,0.5321044921875
81764,-0.89312744140625,-0.956817626953125,0.4345245361328125
81765,-0.7265472412109375,-0.9121856689453124,0.314605712890625
81766,-0.607330322265625,-0.8788909912109375,0.2155303955078125
81767,-0.5615081787109375,-0.8329010009765625,0.18658447265625
81768,-0.510345458984375,-0.805938720703125,0.21905517578125
81769,-0.446868896484375,-0.801666259765625,0.28564453125
81770,-0.404693603515625,-0.8107757568359375,0.3637542724609375
81771,-0.394744873046875,-0.8015594482421875,0.4380340576171875
81772,-0.39501953125,-0.7604827880859375,0.508331298828125
81773,-0.3737945556640625,-0.704254150390625,0.5908355712890625
81774,-0.3380279541015625,-0.649017333984375,0.6904296875
81775,-0.2884674072265625,-0.6148681640625,0.81268310546875
81776,-0.2031402587890625,-0.5746917724609375,0.936614990234375
81777,-0.1156768798828125,-0.538055419921875,1.04364013671875
81778,0.0590667724609375,-0.544281005859375,1.131668090820312
81779,0.2697296142578125,-0.497894287109375,1.187973022460938
81780,0.39996337890625,-0.43035888671875,1.174530029296875
81781,0.5046539306640625,-0.3826751708984375,1.149612426757812
81782,0.6021728515625,-0.321624755859375,1.113174438476562
81783,0.66278076171875,-0.248077392578125,1.06341552734375
81784,0.6789703369140625,-0.1559906005859375,1.04669189453125
81785,0.6553192138671875,-0.0594329833984375,1.0577392578125
81786,0.6589813232421875,0.00079345703125,1.032608032226562
81787,0.7210693359375,0.0253448486328125,0.9661712646484376
81788,0.7885589599609375,0.0469512939453125,0.9120941162109376
81789,0.8458099365234375,0.0698699951171875,0.8875579833984375
81790,0.9131317138671876,0.08514404296875,0.87542724609375
81791,0.9973297119140624,0.0823974609375,0.8745574951171875
81792,1.092056274414062,0.0519561767578125,0.87249755859375
81793,1.148574829101562,0.01885986328125,0.8551025390625
81794,1.16766357421875,-0.01300048828125,0.839324951171875
81795,1.153717041015625,-0.0241851806640625,0.83990478515625
81796,1.113357543945312,-0.0068817138671875,0.878692626953125
81797,1.081817626953125,-0.0005950927734375,0.9311370849609376
81798,1.064453125,-0.03741455078125,0.9748382568359376
81799,1.049636840820312,-0.1315460205078125,1.00714111328125
81800,1.01983642578125,-0.2290191650390625,1.034866333007812
81801,0.973297119140625,-0.2927398681640625,1.079193115234375
81802,0.9311676025390624,-0.3242340087890625,1.135589599609375
81803,0.89263916015625,-0.332305908203125,1.180587768554688
81804,0.840576171875,-0.3415679931640625,1.208831787109375
81805,0.7595977783203125,-0.360443115234375,1.203109741210938
81806,0.653533935546875,-0.372406005859375,1.17626953125
81807,0.52734375,-0.3565826416015625,1.133148193359375
81808,0.4061431884765625,-0.353515625,1.04351806640625
81809,0.289306640625,-0.323883056640625,0.936248779296875
81810,0.1499176025390625,-0.2887115478515625,0.8533172607421875
81811,0.0189208984375,-0.261505126953125,0.7774200439453125
81812,-0.1402435302734375,-0.2441558837890625,0.7088623046875
81813,-0.2990875244140625,-0.256591796875,0.6195068359375
81814,-0.396148681640625,-0.3047027587890625,0.53466796875
81815,-0.470489501953125,-0.3673095703125,0.462799072265625
81816,-0.525787353515625,-0.4913330078125,0.4080963134765625
81817,-0.5442352294921875,-0.612762451171875,0.3391265869140625
81818,-0.5403900146484375,-0.7262115478515625,0.278106689453125
81819,-0.533050537109375,-0.82415771484375,0.265625
81820,-0.51275634765625,-0.9324188232421876,0.297393798828125
81821,-0.5076141357421875,-1.0394287109375,0.367279052734375
81822,-0.4941253662109375,-1.130233764648438,0.46234130859375
81823,-0.4492645263671875,-1.201278686523438,0.553466796875
81824,-0.43255615234375,-1.307220458984375,0.5977935791015625
81825,-0.456878662109375,-1.457794189453125,0.5877532958984375
81826,-0.4701995849609375,-1.581375122070312,0.5618133544921875
81827,-0.43438720703125,-1.614395141601562,0.5865020751953125
81828,-0.352752685546875,-1.5638427734375,0.6488800048828125
81829,-0.2906036376953125,-1.435882568359375,0.6618194580078125
81830,-0.2959136962890625,-1.231353759765625,0.59637451171875
81831,-0.3419952392578125,-1.001358032226562,0.509429931640625
81832,-0.37811279296875,-0.8036346435546875,0.46484375
81833,-0.3681793212890625,-0.6867218017578125,0.4736480712890625
81834,-0.3182525634765625,-0.6417694091796875,0.504241943359375
81835,-0.27716064453125,-0.604888916015625,0.5376739501953125
81836,-0.238739013671875,-0.563079833984375,0.5765380859375
81837,-0.1758270263671875,-0.5146942138671875,0.6186676025390625
81838,-0.0703887939453125,-0.4884185791015625,0.6426849365234375
81839,0.0592498779296875,-0.4677581787109375,0.69317626953125
81840,0.2421417236328125,-0.4299774169921875,0.8125457763671875
81841,0.355010986328125,-0.346954345703125,0.949859619140625
81842,0.432586669921875,-0.25274658203125,1.095565795898438
81843,0.4829864501953125,-0.1661834716796875,1.245819091796875
81844,0.5572509765625,-0.0861968994140625,1.419815063476562
81845,0.6746063232421875,0.0229339599609375,1.566574096679688
81846,0.828399658203125,0.1236572265625,1.552597045898438
81847,0.982330322265625,0.1492919921875,1.411041259765625
81848,1.016510009765625,0.1818084716796875,1.19439697265625
81849,0.9444427490234376,0.228546142578125,0.9815826416015624
81850,0.8988189697265625,0.2491302490234375,0.8131256103515625
81851,0.89776611328125,0.235076904296875,0.716217041015625
81852,0.9151611328125,0.22039794921875,0.6762237548828125
81853,0.9243316650390624,0.216094970703125,0.648681640625
81854,0.90557861328125,0.233062744140625,0.659454345703125
81855,0.86199951171875,0.2628021240234375,0.7193450927734375
81856,0.7997894287109375,0.2796630859375,0.7978515625
81857,0.73419189453125,0.268890380859375,0.8549041748046875
81858,0.6806793212890625,0.2118377685546875,0.889739990234375
81859,0.6229705810546875,0.1278533935546875,0.927398681640625
81860,0.5695953369140625,0.0250091552734375,0.97296142578125
81861,0.5551910400390625,-0.09014892578125,1.007339477539062
81862,0.535614013671875,-0.1892242431640625,1.034912109375
81863,0.48480224609375,-0.300933837890625,1.0482177734375
81864,0.43927001953125,-0.4271087646484375,1.037918090820312
81865,0.400421142578125,-0.521575927734375,1.024749755859375
81866,0.37115478515625,-0.559661865234375,1.01068115234375
81867,0.3595428466796875,-0.569671630859375,0.975341796875
81868,0.348968505859375,-0.5923004150390625,0.9175262451171876
81869,0.3338165283203125,-0.6330108642578125,0.84478759765625
81870,0.323822021484375,-0.6865692138671875,0.7707061767578125
81871,0.3516998291015625,-0.7468109130859375,0.680755615234375
81872,0.383209228515625,-0.798095703125,0.5857086181640625
81873,0.3913726806640625,-0.8450469970703125,0.506988525390625
81874,0.3764801025390625,-0.8717803955078125,0.4766387939453125
81875,0.3326416015625,-0.869354248046875,0.487091064453125
81876,0.2743988037109375,-0.8509063720703125,0.4974365234375
81877,0.225616455078125,-0.821441650390625,0.5133056640625
81878,0.166656494140625,-0.77093505859375,0.531402587890625
81879,0.118682861328125,-0.7711639404296875,0.5526123046875
81880,0.047119140625,-0.8397064208984375,0.58270263671875
81881,-0.1039276123046875,-0.951507568359375,0.6117706298828125
81882,-0.33294677734375,-1.079513549804688,0.66668701171875
81883,-0.5926513671875,-1.188201904296875,0.771759033203125
81884,-0.8168182373046875,-1.25689697265625,0.894683837890625
81885,-0.9765777587890624,-1.26275634765625,0.947906494140625
81886,-1.003631591796875,-1.163375854492188,0.8876953125
81887,-0.8489532470703125,-1.042022705078125,0.7138519287109375
81888,-0.617034912109375,-1.00189208984375,0.4576416015625
81889,-0.464874267578125,-0.9584808349609376,0.256072998046875
81890,-0.374267578125,-0.88653564453125,0.191925048828125
81891,-0.2911834716796875,-0.839447021484375,0.213470458984375
81892,-0.2070159912109375,-0.825714111328125,0.2945098876953125
81893,-0.1444244384765625,-0.8112945556640625,0.401397705078125
81894,-0.134674072265625,-0.776641845703125,0.5091552734375
81895,-0.142913818359375,-0.720428466796875,0.6116790771484375
81896,-0.1447601318359375,-0.63873291015625,0.7006072998046875
81897,-0.0919342041015625,-0.5727386474609375,0.8171234130859375
81898,-0.006439208984375,-0.5381317138671875,0.9381561279296876
81899,0.034210205078125,-0.512054443359375,1.042129516601562
81900,0.0821075439453125,-0.5025177001953125,1.128692626953125
81901,0.1450042724609375,-0.4798431396484375,1.163726806640625
81902,0.2343902587890625,-0.424468994140625,1.161483764648438
81903,0.3256683349609375,-0.3577880859375,1.122909545898438
81904,0.404815673828125,-0.29193115234375,1.069564819335938
81905,0.4501495361328125,-0.2196502685546875,1.012298583984375
81906,0.4775543212890625,-0.1320343017578125,0.999237060546875
81907,0.521759033203125,-0.058624267578125,1.038787841796875
81908,0.586822509765625,0.0086212158203125,1.060348510742188
81909,0.717132568359375,0.0364532470703125,1.060272216796875
81910,0.877685546875,0.0365447998046875,1.0323486328125
81911,0.9913330078125,0.0417938232421875,0.9937744140625
81912,1.078048706054688,0.042724609375,0.96710205078125
81913,1.155914306640625,0.054534912109375,0.96356201171875
81914,1.20294189453125,0.0675048828125,0.9840240478515624
81915,1.197189331054688,0.042510986328125,0.982818603515625
81916,1.143020629882812,-0.0265655517578125,0.952667236328125
81917,1.088729858398438,-0.08880615234375,0.9262847900390624
81918,1.054946899414062,-0.1161346435546875,0.9041290283203124
81919,1.033340454101562,-0.1599884033203125,0.878448486328125
81920,1.009201049804688,-0.2396392822265625,0.8602142333984375
81921,0.968353271484375,-0.320587158203125,0.856719970703125
81922,0.927978515625,-0.3924713134765625,0.8646697998046875
81923,0.89093017578125,-0.4416656494140625,0.876220703125
81924,0.8571319580078125,-0.4759674072265625,0.891510009765625
81925,0.8272705078125,-0.50152587890625,0.908599853515625
81926,0.7960052490234375,-0.5195159912109375,0.9126739501953124
81927,0.7648773193359375,-0.5462646484375,0.9040374755859376
81928,0.708251953125,-0.5551300048828125,0.9108734130859376
81929,0.6179351806640625,-0.55224609375,0.9300537109375
81930,0.514923095703125,-0.555023193359375,0.9386138916015624
81931,0.39947509765625,-0.5534210205078125,0.92877197265625
81932,0.2643890380859375,-0.5427703857421875,0.899200439453125
81933,0.1100921630859375,-0.542083740234375,0.837249755859375
81934,-0.0513458251953125,-0.5550384521484375,0.7539825439453125
81935,-0.204315185546875,-0.589569091796875,0.6515045166015625
81936,-0.3553466796875,-0.6599884033203125,0.5642242431640625
81937,-0.48779296875,-0.771270751953125,0.5262451171875
81938,-0.604705810546875,-0.8667755126953125,0.4666290283203125
81939,-0.704010009765625,-0.9493408203125,0.3472137451171875
81940,-0.77227783203125,-1.039566040039062,0.170745849609375
81941,-0.8248748779296875,-1.136825561523438,0.0452880859375
81942,-0.8248748779296875,-1.204483032226562,0.04315185546875
81943,-0.7761077880859375,-1.221267700195312,0.12255859375
81944,-0.6701507568359375,-1.153427124023438,0.2046966552734375
81945,-0.591888427734375,-1.092391967773438,0.2701873779296875
81946,-0.46807861328125,-1.084304809570312,0.3819580078125
81947,-0.3445892333984375,-1.1048583984375,0.49462890625
81948,-0.2650299072265625,-1.116943359375,0.60626220703125
81949,-0.1828155517578125,-1.096649169921875,0.7349700927734375
81950,-0.1143951416015625,-1.0115966796875,0.831512451171875
81951,-0.0885467529296875,-0.88275146484375,0.8911590576171875
81952,-0.0688018798828125,-0.7272186279296875,0.8902740478515625
81953,-0.0344085693359375,-0.5633087158203125,0.853546142578125
81954,0.000335693359375,-0.440277099609375,0.8079071044921875
81955,0.04437255859375,-0.390655517578125,0.7794952392578125
81956,0.08184814453125,-0.3977203369140625,0.7506561279296875
81957,0.1205596923828125,-0.4505462646484375,0.735382080078125
81958,0.149627685546875,-0.4722747802734375,0.742095947265625
81959,0.17108154296875,-0.4810791015625,0.76593017578125
81960,0.178741455078125,-0.4905853271484375,0.7834625244140625
81961,0.1905517578125,-0.4894561767578125,0.8160400390625
81962,0.214813232421875,-0.4609832763671875,0.8960113525390625
81963,0.2330169677734375,-0.405181884765625,0.9695892333984376
81964,0.2119293212890625,-0.310302734375,1.075302124023438
81965,0.2260284423828125,-0.2240447998046875,1.202911376953125
81966,0.28302001953125,-0.1375579833984375,1.303924560546875
