time_idx,accelerometerAccelerationX(G),accelerometerAccelerationY(G),accelerometerAccelerationZ(G)
220000,-0.721160888671875,-0.8656158447265625,-0.62445068359375
220001,-0.739471435546875,-0.9420318603515624,-0.62457275390625
220002,-0.7302398681640625,-0.994781494140625,-0.626617431640625
220003,-0.6954803466796875,-1.010406494140625,-0.6298980712890625
220004,-0.63287353515625,-0.99310302734375,-0.6375274658203125
220005,-0.562652587890625,-0.9580535888671876,-0.6468353271484375
220006,-0.491119384765625,-0.9138031005859376,-0.6652984619140625
220007,-0.4368133544921875,-0.8709259033203125,-0.673095703125
220008,-0.3822174072265625,-0.8177947998046875,-0.724456787109375
220009,-0.3089447021484375,-0.74957275390625,-0.7320098876953125
220010,-0.228912353515625,-0.6949310302734375,-0.6890716552734375
220011,-0.160064697265625,-0.6659393310546875,-0.62493896484375
220012,-0.102020263671875,-0.6316680908203125,-0.5714569091796875
220013,-0.0600128173828125,-0.590972900390625,-0.540496826171875
220014,-0.0361175537109375,-0.5735931396484375,-0.531890869140625
220015,-0.016754150390625,-0.5724334716796875,-0.54241943359375
220016,-0.000701904296875,-0.589141845703125,-0.5582427978515625
220017,-0.00250244140625,-0.602020263671875,-0.57916259765625
220018,-0.0073699951171875,-0.6130828857421875,-0.5792083740234375
220019,-0.0175933837890625,-0.608673095703125,-0.5540771484375
220020,-0.034423828125,-0.582855224609375,-0.5083160400390625
220021,-0.0526275634765625,-0.558380126953125,-0.483978271484375
220022,-0.0896453857421875,-0.52874755859375,-0.452972412109375
220023,-0.1273956298828125,-0.4933624267578125,-0.43609619140625
220024,-0.174102783203125,-0.4678497314453125,-0.4403228759765625
220025,-0.219879150390625,-0.450225830078125,-0.4537811279296875
220026,-0.30914306640625,-0.4695281982421875,-0.497344970703125
220027,-0.30914306640625,-0.4695281982421875,-0.497344970703125
220028,-0.348236083984375,-0.4891357421875,-0.533172607421875
220029,-0.3737640380859375,-0.5179595947265625,-0.567291259765625
220030,-0.3677825927734375,-0.5657501220703125,-0.6080322265625
220031,-0.338653564453125,-0.64080810546875,-0.645599365234375
220032,-0.3121795654296875,-0.7315673828125,-0.6676177978515625
220033,-0.286407470703125,-0.8239898681640625,-0.674102783203125
220034,-0.2565765380859375,-0.908660888671875,-0.67645263671875
220035,-0.2565765380859375,-0.908660888671875,-0.67645263671875
220036,-0.2203369140625,-1.017196655273438,-0.70849609375
220037,-0.2208251953125,-1.040496826171875,-0.736328125
220038,-0.2364501953125,-1.049819946289062,-0.7627716064453125
220039,-0.2491302490234375,-1.050765991210938,-0.7669525146484375
220040,-0.246307373046875,-1.041259765625,-0.7278289794921875
220041,-0.227020263671875,-1.024810791015625,-0.6538848876953125
220042,-0.1983642578125,-0.9969940185546876,-0.57830810546875
220043,-0.1607666015625,-0.9516143798828124,-0.5107421875
220044,-0.11871337890625,-0.897186279296875,-0.449310302734375
220045,-0.0836029052734375,-0.8510284423828125,-0.4131011962890625
220046,-0.0587921142578125,-0.82952880859375,-0.4267730712890625
220047,-0.0381927490234375,-0.8344268798828125,-0.4698028564453125
220048,-0.00604248046875,-0.848724365234375,-0.5112457275390625
220049,0.03509521484375,-0.855743408203125,-0.5435333251953125
220050,0.064300537109375,-0.8529510498046875,-0.5603485107421875
220051,0.063751220703125,-0.8470001220703125,-0.580474853515625
220052,0.0289459228515625,-0.8444671630859375,-0.6184539794921875
220053,-0.023895263671875,-0.8452606201171875,-0.666351318359375
220054,-0.0751800537109375,-0.8502349853515625,-0.7104644775390625
220055,-0.0751800537109375,-0.8502349853515625,-0.7104644775390625
220056,-0.16839599609375,-0.8528289794921875,-0.764190673828125
220057,-0.21807861328125,-0.8395843505859375,-0.755096435546875
220058,-0.2674102783203125,-0.8088836669921875,-0.716552734375
220059,-0.3090972900390625,-0.75665283203125,-0.6566619873046875
220060,-0.342559814453125,-0.689178466796875,-0.60443115234375
220061,-0.3733062744140625,-0.614715576171875,-0.5768890380859375
220062,-0.4087066650390625,-0.56451416015625,-0.565185546875
220063,-0.4411163330078125,-0.5334930419921875,-0.56787109375
220064,-0.48260498046875,-0.5285186767578125,-0.590972900390625
220065,-0.541534423828125,-0.5400848388671875,-0.6271514892578125
220066,-0.622894287109375,-0.573150634765625,-0.6647796630859375
220067,-0.622894287109375,-0.573150634765625,-0.6647796630859375
220068,-0.7667999267578125,-0.6656494140625,-0.7083282470703125
220069,-0.7863311767578125,-0.703643798828125,-0.6912841796875
220070,-0.775390625,-0.6940765380859375,-0.638519287109375
220071,-0.727874755859375,-0.64019775390625,-0.584136962890625
220072,-0.6546173095703125,-0.5738983154296875,-0.532012939453125
220073,-0.564910888671875,-0.52105712890625,-0.4582977294921875
220074,-0.3782196044921875,-0.5402679443359375,-0.317718505859375
220075,-0.3782196044921875,-0.5402679443359375,-0.317718505859375
220076,-0.311614990234375,-0.596588134765625,-0.3104705810546875
220077,-0.281341552734375,-0.6632537841796875,-0.34478759765625
220078,-0.2706146240234375,-0.73101806640625,-0.372406005859375
220079,-0.2706146240234375,-0.73101806640625,-0.372406005859375
220080,-0.2709197998046875,-0.830718994140625,-0.4220123291015625
220081,-0.2747802734375,-0.8404388427734375,-0.4359893798828125
220082,-0.2816925048828125,-0.8347320556640625,-0.4451751708984375
220083,-0.290313720703125,-0.8295440673828125,-0.4401397705078125
220084,-0.30816650390625,-0.835540771484375,-0.4324493408203125
220085,-0.3376617431640625,-0.8537139892578125,-0.44500732421875
220086,-0.3687591552734375,-0.8732452392578125,-0.471923828125
220087,-0.3916473388671875,-0.8871002197265625,-0.4934539794921875
220088,-0.4024505615234375,-0.88525390625,-0.514556884765625
220089,-0.392608642578125,-0.8592987060546875,-0.5258941650390625
220090,-0.365264892578125,-0.804718017578125,-0.51971435546875
220091,-0.3385162353515625,-0.739715576171875,-0.5065460205078125
220092,-0.3375244140625,-0.6886749267578125,-0.50762939453125
220093,-0.3565673828125,-0.6785125732421875,-0.54541015625
220094,-0.37359619140625,-0.7125091552734375,-0.6250152587890625
220095,-0.37359619140625,-0.7125091552734375,-0.6250152587890625
220096,-0.37945556640625,-0.809783935546875,-0.855712890625
220097,-0.351287841796875,-0.809326171875,-0.9136199951171876
220098,-0.292999267578125,-0.768829345703125,-0.8882598876953125
220099,-0.2102508544921875,-0.7069091796875,-0.7965545654296875
220100,-0.1095428466796875,-0.6341094970703125,-0.70745849609375
220101,-0.0066375732421875,-0.569091796875,-0.64398193359375
220102,0.1776275634765625,-0.5632476806640625,-0.6187744140625
220103,0.1776275634765625,-0.5632476806640625,-0.6187744140625
220104,0.2161865234375,-0.65350341796875,-0.6385955810546875
220105,0.2232666015625,-0.790771484375,-0.6804656982421875
220106,0.2462158203125,-0.9207000732421876,-0.7497711181640625
220107,0.2784881591796875,-1.018600463867188,-0.8002777099609375
220108,0.286529541015625,-1.067733764648438,-0.8047637939453125
220109,0.2518310546875,-1.076156616210938,-0.8057861328125
220110,0.1741485595703125,-1.0667724609375,-0.8197174072265625
220111,0.0712127685546875,-1.057037353515625,-0.8035888671875
220112,-0.03106689453125,-1.062347412109375,-0.7622833251953125
220113,-0.1118927001953125,-1.0738525390625,-0.7238006591796875
220114,-0.1807403564453125,-1.068252563476562,-0.685699462890625
220115,-0.2502288818359375,-1.036407470703125,-0.6567535400390625
220116,-0.319000244140625,-0.985809326171875,-0.6501922607421875
220117,-0.3843841552734375,-0.9325714111328124,-0.6709442138671875
220118,-0.4435272216796875,-0.8797760009765625,-0.7099456787109375
220119,-0.48406982421875,-0.8306121826171875,-0.742767333984375
220120,-0.501251220703125,-0.787628173828125,-0.74505615234375
220121,-0.492950439453125,-0.7448883056640625,-0.7232666015625
220122,-0.4664459228515625,-0.692352294921875,-0.6895599365234375
220123,-0.4664459228515625,-0.692352294921875,-0.6895599365234375
220124,-0.4083251953125,-0.572845458984375,-0.6012725830078125
220125,-0.40277099609375,-0.5214691162109375,-0.57421875
220126,-0.4101409912109375,-0.488067626953125,-0.574737548828125
220127,-0.422332763671875,-0.4737548828125,-0.5869293212890625
220128,-0.4422149658203125,-0.4912109375,-0.60498046875
220129,-0.4681396484375,-0.5312957763671875,-0.6263427734375
220130,-0.495697021484375,-0.58056640625,-0.6409454345703125
220131,-0.52294921875,-0.6291656494140625,-0.645477294921875
220132,-0.543731689453125,-0.66705322265625,-0.6401824951171875
220133,-0.558074951171875,-0.6858978271484375,-0.62261962890625
220134,-0.5427093505859375,-0.663726806640625,-0.5419769287109375
220135,-0.5427093505859375,-0.663726806640625,-0.5419769287109375
220136,-0.511932373046875,-0.659027099609375,-0.50018310546875
220137,-0.46954345703125,-0.66326904296875,-0.4686279296875
220138,-0.4220733642578125,-0.65850830078125,-0.457305908203125
220139,-0.372467041015625,-0.635284423828125,-0.4629364013671875
220140,-0.326080322265625,-0.6068878173828125,-0.4769287109375
220141,-0.2884368896484375,-0.576904296875,-0.49969482421875
220142,-0.2642822265625,-0.5390472412109375,-0.5243682861328125
220143,-0.2501983642578125,-0.503509521484375,-0.53753662109375
220144,-0.23895263671875,-0.4754791259765625,-0.5546722412109375
220145,-0.22467041015625,-0.4564971923828125,-0.574981689453125
220146,-0.20440673828125,-0.4557342529296875,-0.588714599609375
220147,-0.1878814697265625,-0.4852447509765625,-0.601165771484375
220148,-0.169342041015625,-0.538543701171875,-0.6313018798828125
220149,-0.1359710693359375,-0.60089111328125,-0.65704345703125
220150,-0.0839385986328125,-0.661895751953125,-0.6528472900390625
220151,-0.022308349609375,-0.71685791015625,-0.62432861328125
220152,0.03302001953125,-0.7635345458984375,-0.6110992431640625
220153,0.074066162109375,-0.810150146484375,-0.6249237060546875
220154,0.1053924560546875,-0.9430084228515624,-0.6870269775390625
220155,0.1053924560546875,-0.9430084228515624,-0.6870269775390625
220156,0.1241302490234375,-1.021957397460938,-0.6879730224609375
220157,0.15460205078125,-1.089141845703125,-0.670623779296875
220158,0.1838226318359375,-1.123443603515625,-0.6287994384765625
220159,0.1725616455078125,-1.114013671875,-0.597076416015625
220160,0.1103057861328125,-1.089370727539062,-0.6378173828125
220161,0.0296630859375,-1.080520629882812,-0.7227020263671875
220162,-0.0393524169921875,-1.087844848632812,-0.793670654296875
220163,-0.110748291015625,-1.080368041992188,-0.8076019287109375
220164,-0.20709228515625,-1.032852172851562,-0.7447967529296875
220165,-0.302490234375,-0.9410400390625,-0.64617919921875
220166,-0.3621978759765625,-0.841644287109375,-0.564483642578125
220167,-0.357879638671875,-0.7624359130859375,-0.5288238525390625
220168,-0.294647216796875,-0.713531494140625,-0.5409698486328125
220169,-0.210845947265625,-0.697540283203125,-0.5727386474609375
220170,-0.141326904296875,-0.711334228515625,-0.6050262451171875
220171,-0.101806640625,-0.733856201171875,-0.62969970703125
220172,-0.0937042236328125,-0.7441253662109375,-0.65850830078125
220173,-0.101654052734375,-0.7396392822265625,-0.7000732421875
220174,-0.1056976318359375,-0.7266845703125,-0.7511138916015625
220175,-0.1056976318359375,-0.7266845703125,-0.7511138916015625
220176,-0.051239013671875,-0.7036285400390625,-0.833831787109375
220177,-0.019561767578125,-0.6916961669921875,-0.818328857421875
220178,-0.01214599609375,-0.643035888671875,-0.662811279296875
220179,-0.01214599609375,-0.643035888671875,-0.662811279296875
220180,-0.0443267822265625,-0.6010284423828125,-0.5807037353515625
220181,-0.088409423828125,-0.562744140625,-0.53076171875
220182,-0.114654541015625,-0.5513458251953125,-0.5278472900390625
220183,-0.1446685791015625,-0.547607421875,-0.54248046875
220184,-0.1873931884765625,-0.5331878662109375,-0.56207275390625
220185,-0.2337188720703125,-0.5274200439453125,-0.5924835205078125
220186,-0.2818450927734375,-0.5462799072265625,-0.650115966796875
220187,-0.35455322265625,-0.5859832763671875,-0.6986846923828125
220188,-0.44110107421875,-0.635833740234375,-0.7129669189453125
220189,-0.545013427734375,-0.6844024658203125,-0.67999267578125
220190,-0.683990478515625,-0.6978759765625,-0.59649658203125
220191,-0.7761077880859375,-0.63909912109375,-0.520721435546875
220192,-0.802520751953125,-0.57867431640625,-0.4557647705078125
220193,-0.7851715087890625,-0.5303192138671875,-0.4012603759765625
220194,-0.6831817626953125,-0.4586181640625,-0.4268951416015625
220195,-0.6831817626953125,-0.4586181640625,-0.4268951416015625
220196,-0.6306610107421875,-0.4497528076171875,-0.4216461181640625
220197,-0.5976715087890625,-0.4783477783203125,-0.4312286376953125
220198,-0.5708465576171875,-0.55462646484375,-0.457000732421875
220199,-0.5442962646484375,-0.6729888916015625,-0.479156494140625
220200,-0.5107269287109375,-0.79119873046875,-0.489105224609375
220201,-0.47113037109375,-0.882720947265625,-0.49627685546875
220202,-0.42913818359375,-0.940216064453125,-0.502197265625
220203,-0.393768310546875,-0.960968017578125,-0.50091552734375
220204,-0.379058837890625,-0.962615966796875,-0.499969482421875
220205,-0.3882904052734375,-0.952056884765625,-0.512420654296875
220206,-0.41961669921875,-0.9423980712890624,-0.537445068359375
220207,-0.465423583984375,-0.9393157958984376,-0.5587158203125
220208,-0.52142333984375,-0.92974853515625,-0.57501220703125
220209,-0.5517730712890625,-0.8961639404296875,-0.5908966064453125
220210,-0.547576904296875,-0.843841552734375,-0.5989837646484375
220211,-0.5157012939453125,-0.7776641845703125,-0.5971832275390625
220212,-0.473602294921875,-0.714263916015625,-0.5975189208984375
220213,-0.473602294921875,-0.714263916015625,-0.5975189208984375
220214,-0.32464599609375,-0.6394195556640625,-0.6264190673828125
220215,-0.249847412109375,-0.6613922119140625,-0.6560211181640625
220216,-0.1826171875,-0.7030792236328125,-0.7212371826171875
220217,-0.11517333984375,-0.7430572509765625,-0.795928955078125
220218,-0.043243408203125,-0.769012451171875,-0.8291473388671875
220219,0.0316314697265625,-0.7868194580078125,-0.8135223388671875
220220,0.0980987548828125,-0.7904510498046875,-0.7873687744140625
220221,0.1493682861328125,-0.76416015625,-0.738067626953125
220222,0.16162109375,-0.6889190673828125,-0.6759185791015625
220223,0.16162109375,-0.6889190673828125,-0.6759185791015625
220224,0.15545654296875,-0.6553955078125,-0.7032012939453125
220225,0.16619873046875,-0.65667724609375,-0.6881866455078125
220226,0.181610107421875,-0.666839599609375,-0.556854248046875
220227,0.1937103271484375,-0.72491455078125,-0.5149688720703125
220228,0.150787353515625,-0.8502349853515625,-0.6261138916015625
220229,0.0457916259765625,-0.9600830078125,-0.705780029296875
220230,-0.04364013671875,-0.9864959716796876,-0.785125732421875
220231,-0.0690155029296875,-0.986297607421875,-0.852935791015625
220232,-0.0652618408203125,-1.04754638671875,-0.889892578125
220233,-0.130950927734375,-1.097702026367188,-0.904388427734375
220234,-0.28106689453125,-1.068283081054688,-0.8932647705078125
220235,-0.44244384765625,-1.012649536132812,-0.8590850830078125
220236,-0.5431976318359375,-0.9705352783203124,-0.8327178955078125
220237,-0.5948333740234375,-0.933807373046875,-0.8177947998046875
220238,-0.6293792724609375,-0.888214111328125,-0.7820281982421875
220239,-0.64251708984375,-0.84820556640625,-0.74237060546875
220240,-0.6415863037109375,-0.8185577392578125,-0.6900634765625
220241,-0.6266021728515625,-0.7840423583984375,-0.6451568603515625
220242,-0.55108642578125,-0.7142333984375,-0.656280517578125
220243,-0.4477691650390625,-0.6477508544921875,-0.66162109375
220244,-0.368988037109375,-0.6067352294921875,-0.6589202880859375
220245,-0.3297119140625,-0.573577880859375,-0.632293701171875
220246,-0.309051513671875,-0.5220947265625,-0.56927490234375
220247,-0.2816619873046875,-0.450103759765625,-0.5365447998046875
220248,-0.2647705078125,-0.3653564453125,-0.5343780517578125
220249,-0.281707763671875,-0.2875213623046875,-0.5506744384765625
220250,-0.348052978515625,-0.2479400634765625,-0.5690765380859375
220251,-0.4462738037109375,-0.2515106201171875,-0.53387451171875
220252,-0.5414581298828125,-0.2883148193359375,-0.46484375
220253,-0.616607666015625,-0.3483123779296875,-0.4150390625
220254,-0.649261474609375,-0.418212890625,-0.4202880859375
220255,-0.6250762939453125,-0.4944000244140625,-0.4594879150390625
220256,-0.56781005859375,-0.579376220703125,-0.5033111572265625
220257,-0.504302978515625,-0.673553466796875,-0.529327392578125
220258,-0.44873046875,-0.7624053955078125,-0.5448150634765625
220259,-0.385772705078125,-0.8252410888671875,-0.57098388671875
220260,-0.3370513916015625,-0.8609771728515625,-0.605010986328125
220261,-0.29400634765625,-0.8535614013671875,-0.638885498046875
220262,-0.2243804931640625,-0.7889862060546875,-0.7061920166015625
220263,-0.12677001953125,-0.697052001953125,-0.7860870361328125
220264,-0.058563232421875,-0.6166534423828125,-0.8509521484375
220265,-0.001708984375,-0.565673828125,-1.0687255859375
220266,0.0922393798828125,-0.4866790771484375,-1.1348876953125
220267,0.1839141845703125,-0.45068359375,-0.8358306884765625
220268,0.212158203125,-0.4824981689453125,-0.6488037109375
220269,0.2305755615234375,-0.5024566650390625,-0.5735321044921875
220270,0.2767791748046875,-0.5200958251953125,-0.480316162109375
220271,0.3113250732421875,-0.582916259765625,-0.4435577392578125
220272,0.295623779296875,-0.6568450927734375,-0.481781005859375
220273,0.2353973388671875,-0.7362213134765625,-0.57708740234375
220274,0.1562042236328125,-0.7991790771484375,-0.6659698486328125
220275,0.0740814208984375,-0.8460845947265625,-0.69158935546875
220276,-0.029052734375,-0.8971099853515625,-0.6366729736328125
220277,-0.1283111572265625,-0.940155029296875,-0.56561279296875
220278,-0.2113494873046875,-0.9911651611328124,-0.5205535888671875
220279,-0.2868499755859375,-1.02935791015625,-0.5124664306640625
220280,-0.3602447509765625,-1.050827026367188,-0.5320892333984375
220281,-0.4284820556640625,-1.07122802734375,-0.572235107421875
220282,-0.45098876953125,-1.100936889648438,-0.6224212646484375
220283,-0.408935546875,-1.114639282226562,-0.6638946533203125
220284,-0.3315277099609375,-1.09222412109375,-0.6436920166015625
220285,-0.25396728515625,-1.047882080078125,-0.5750274658203125
220286,-0.18585205078125,-1.003555297851562,-0.526458740234375
220287,-0.1362457275390625,-0.981170654296875,-0.534210205078125
220288,-0.103118896484375,-0.9826202392578124,-0.572662353515625
220289,-0.103118896484375,-0.9826202392578124,-0.572662353515625
220290,-0.030120849609375,-0.9778289794921876,-0.6118927001953125
220291,-0.0019073486328125,-0.9610748291015624,-0.6049957275390625
220292,0.0130462646484375,-0.93780517578125,-0.6093597412109375
220293,0.017974853515625,-0.908416748046875,-0.6413421630859375
220294,0.0260467529296875,-0.8751983642578125,-0.6850738525390625
220295,0.0461578369140625,-0.84771728515625,-0.7215728759765625
220296,0.075653076171875,-0.8295745849609375,-0.7405548095703125
220297,0.10211181640625,-0.8178863525390625,-0.7376556396484375
220298,0.101043701171875,-0.7974395751953125,-0.716217041015625
220299,0.063079833984375,-0.7710113525390625,-0.681854248046875
220300,-0.0025482177734375,-0.741485595703125,-0.643951416015625
220301,-0.07818603515625,-0.703582763671875,-0.62103271484375
220302,-0.1591644287109375,-0.6561431884765625,-0.6011962890625
220303,-0.2454681396484375,-0.6035003662109375,-0.58660888671875
220304,-0.324554443359375,-0.543548583984375,-0.5790557861328125
220305,-0.4093017578125,-0.48712158203125,-0.57415771484375
220306,-0.5027923583984375,-0.4418487548828125,-0.57806396484375
220307,-0.5976715087890625,-0.4380645751953125,-0.59326171875
220308,-0.6992340087890625,-0.466400146484375,-0.6061553955078125
220309,-0.8083343505859375,-0.47088623046875,-0.602203369140625
220310,-0.8906707763671875,-0.4984588623046875,-0.5951385498046875
220311,-0.9459686279296876,-0.5088653564453125,-0.5584564208984375
220312,-0.968048095703125,-0.47698974609375,-0.4664764404296875
220313,-0.9718475341796876,-0.42767333984375,-0.400909423828125
220314,-0.96173095703125,-0.3873443603515625,-0.3759918212890625
220315,-0.922149658203125,-0.377197265625,-0.359283447265625
220316,-0.85528564453125,-0.4136505126953125,-0.3459930419921875
220317,-0.775909423828125,-0.497161865234375,-0.3260345458984375
220318,-0.6940765380859375,-0.600830078125,-0.3245086669921875
220319,-0.6190185546875,-0.688140869140625,-0.3479461669921875
220320,-0.552215576171875,-0.7442169189453125,-0.400177001953125
220321,-0.488616943359375,-0.77532958984375,-0.4636688232421875
220322,-0.4217376708984375,-0.7943878173828125,-0.510894775390625
220323,-0.354339599609375,-0.8052215576171875,-0.5355377197265625
220324,-0.281341552734375,-0.81756591796875,-0.573333740234375
220325,-0.2191162109375,-0.8578643798828125,-0.627838134765625
220326,-0.217620849609375,-0.905487060546875,-0.677337646484375
220327,-0.2288970947265625,-0.9517364501953124,-0.8373870849609375
220328,-0.2017364501953125,-0.953033447265625,-0.8166656494140625
220329,-0.1490020751953125,-0.943267822265625,-0.6190032958984375
220330,-0.113372802734375,-0.9298553466796876,-0.4936065673828125
220331,-0.0888824462890625,-0.8841094970703125,-0.4101409912109375
220332,-0.0620880126953125,-0.8564300537109375,-0.4075469970703125
220333,-0.050262451171875,-0.8775482177734375,-0.5184783935546875
220334,-0.0661163330078125,-0.90155029296875,-0.6625213623046875
220335,-0.1025848388671875,-0.903594970703125,-0.7609100341796875
220336,-0.13775634765625,-0.8924713134765625,-0.7999267578125
220337,-0.147491455078125,-0.8666839599609375,-0.795562744140625
220338,-0.139373779296875,-0.8329620361328125,-0.7607879638671875
220339,-0.1295318603515625,-0.8052520751953125,-0.7096710205078125
220340,-0.122955322265625,-0.791046142578125,-0.6564483642578125
220341,-0.1106414794921875,-0.7801971435546875,-0.61322021484375
220342,-0.1030426025390625,-0.7631072998046875,-0.58306884765625
220343,-0.1083984375,-0.7271881103515625,-0.5669708251953125
220344,-0.1151123046875,-0.678131103515625,-0.56658935546875
220345,-0.1033782958984375,-0.627166748046875,-0.5811004638671875
220346,-0.0690155029296875,-0.5907440185546875,-0.59088134765625
220347,-0.016571044921875,-0.610809326171875,-0.5955047607421875
220348,0.05548095703125,-0.6842803955078125,-0.628753662109375
220349,0.1374969482421875,-0.7877655029296875,-0.6953887939453125
220350,0.1966094970703125,-0.88433837890625,-0.7642669677734375
220351,0.20330810546875,-0.930419921875,-0.8210296630859375
220352,0.1639404296875,-0.9466400146484376,-0.8606109619140625
220353,0.1050872802734375,-0.9524688720703124,-0.87646484375
220354,0.030303955078125,-0.94976806640625,-0.8680572509765625
220355,-0.0605010986328125,-0.9397430419921876,-0.8380584716796875
220356,-0.1463470458984375,-0.9243621826171876,-0.7949676513671875
220357,-0.219818115234375,-0.9010162353515624,-0.7532196044921875
220358,-0.27728271484375,-0.8651580810546875,-0.7158203125
220359,-0.3108367919921875,-0.823486328125,-0.683837890625
220360,-0.31146240234375,-0.7875213623046875,-0.6639862060546875
220361,-0.2842559814453125,-0.7583770751953125,-0.6550445556640625
220362,-0.2539215087890625,-0.7277069091796875,-0.65692138671875
220363,-0.2421875,-0.6988525390625,-0.6658935546875
220364,-0.240264892578125,-0.66815185546875,-0.6704254150390625
220365,-0.232330322265625,-0.6332550048828125,-0.66845703125
220366,-0.22540283203125,-0.589874267578125,-0.659881591796875
220367,-0.22149658203125,-0.534271240234375,-0.6552734375
220368,-0.22686767578125,-0.4779205322265625,-0.6595001220703125
220369,-0.22686767578125,-0.4779205322265625,-0.6595001220703125
220370,-0.3423614501953125,-0.395843505859375,-0.717926025390625
220371,-0.429412841796875,-0.395751953125,-0.7652740478515625
220372,-0.530548095703125,-0.431640625,-0.7948150634765625
220373,-0.6263275146484375,-0.492462158203125,-0.8152313232421875
220374,-0.702423095703125,-0.542510986328125,-0.7989349365234375
220375,-0.7636871337890625,-0.546966552734375,-0.724365234375
220376,-0.7854461669921875,-0.5313720703125,-0.6460723876953125
220377,-0.7776031494140625,-0.542633056640625,-0.5659332275390625
220378,-0.7559967041015625,-0.5771331787109375,-0.485626220703125
220379,-0.7189788818359375,-0.629425048828125,-0.4235687255859375
220380,-0.6522674560546875,-0.6763916015625,-0.4163970947265625
220381,-0.56463623046875,-0.6988677978515625,-0.4665374755859375
220382,-0.4758758544921875,-0.69024658203125,-0.56488037109375
220383,-0.3850250244140625,-0.656707763671875,-0.6719512939453125
220384,-0.2984619140625,-0.598724365234375,-0.736175537109375
220385,-0.2984619140625,-0.598724365234375,-0.736175537109375
220386,-0.2326507568359375,-0.50689697265625,-0.7698516845703125
220387,-0.1374359130859375,-0.326629638671875,-0.8058929443359375
220388,-0.0749664306640625,-0.3018951416015625,-0.8117828369140625
220389,0.1346435546875,-0.4130859375,-0.7123260498046875
220390,0.1346435546875,-0.4130859375,-0.7123260498046875
220391,0.235870361328125,-0.52447509765625,-0.62689208984375
220392,0.295135498046875,-0.61309814453125,-0.5877227783203125
220393,0.3180694580078125,-0.6820526123046875,-0.59332275390625
220394,0.3209075927734375,-0.76190185546875,-0.6183624267578125
220395,0.289794921875,-0.8565826416015625,-0.66064453125
220396,0.2267608642578125,-0.9410552978515624,-0.734130859375
220397,0.2267608642578125,-0.9410552978515624,-0.734130859375
220398,0.058685302734375,-1.042922973632812,-0.803253173828125
220399,-0.0447235107421875,-1.053573608398438,-0.7787322998046875
220400,-0.1519012451171875,-1.0406494140625,-0.7368316650390625
220401,-0.244140625,-1.028427124023438,-0.7020111083984375
220402,-0.317535400390625,-1.037017822265625,-0.697845458984375
220403,-0.376800537109375,-1.07073974609375,-0.714263916015625
220404,-0.4031829833984375,-1.108657836914062,-0.7078704833984375
220405,-0.3760833740234375,-1.128631591796875,-0.6492919921875
220406,-0.2991943359375,-1.10699462890625,-0.5729522705078125
220407,-0.205047607421875,-1.044570922851562,-0.51971435546875
220408,-0.12725830078125,-0.9511260986328124,-0.5170745849609375
220409,-0.0713958740234375,-0.867919921875,-0.548858642578125
220410,-0.0221405029296875,-0.8197021484375,-0.58673095703125
220411,0.026153564453125,-0.792266845703125,-0.613555908203125
220412,0.0781097412109375,-0.77227783203125,-0.6178131103515625
220413,0.1461639404296875,-0.7363739013671875,-0.614166259765625
220414,0.1461639404296875,-0.7363739013671875,-0.614166259765625
220415,0.162689208984375,-0.7185211181640625,-0.655670166015625
220416,0.1799774169921875,-0.7034759521484375,-0.707794189453125
220417,0.206573486328125,-0.6885833740234375,-0.742584228515625
220418,0.239227294921875,-0.6793060302734375,-0.752716064453125
220419,0.25457763671875,-0.6800689697265625,-0.7374420166015625
220420,0.231201171875,-0.683563232421875,-0.708984375
220421,0.172576904296875,-0.683013916015625,-0.6828155517578125
220422,0.0948944091796875,-0.6787872314453125,-0.6618194580078125
220423,0.0071258544921875,-0.6713104248046875,-0.6349334716796875
220424,-0.08734130859375,-0.65509033203125,-0.600921630859375
220425,-0.188018798828125,-0.6334075927734375,-0.5636138916015625
220426,-0.288970947265625,-0.59893798828125,-0.5310821533203125
220427,-0.3800506591796875,-0.5683441162109375,-0.5083770751953125
220428,-0.4575653076171875,-0.5270233154296875,-0.4945526123046875
220429,-0.5223541259765625,-0.49334716796875,-0.489044189453125
220430,-0.5792236328125,-0.472747802734375,-0.495819091796875
220431,-0.62701416015625,-0.467498779296875,-0.505096435546875
220432,-0.67877197265625,-0.471893310546875,-0.5283660888671875
220433,-0.7342071533203125,-0.504974365234375,-0.5646514892578125
220434,-0.778228759765625,-0.57135009765625,-0.6033172607421875
220435,-0.8024749755859375,-0.635589599609375,-0.6272125244140625
220436,-0.8145751953125,-0.6541595458984375,-0.621246337890625
220437,-0.8145751953125,-0.6541595458984375,-0.621246337890625
220438,-0.7458343505859375,-0.6011199951171875,-0.575469970703125
220439,-0.67242431640625,-0.5838623046875,-0.5321044921875
220440,-0.5917816162109375,-0.572845458984375,-0.5190887451171875
220441,-0.4954071044921875,-0.5761260986328125,-0.54547119140625
220442,-0.4238128662109375,-0.620025634765625,-0.571014404296875
220443,-0.368804931640625,-0.6803436279296875,-0.6331787109375
220444,-0.3069915771484375,-0.733734130859375,-0.696685791015625
220445,-0.2266845703125,-0.7631683349609375,-0.7310028076171875
220446,-0.145538330078125,-0.7701416015625,-0.7094268798828125
220447,-0.0810699462890625,-0.7653961181640625,-0.6409454345703125
220448,-0.0479583740234375,-0.772369384765625,-0.591705322265625
220449,-0.043304443359375,-0.795684814453125,-0.5715484619140625
220450,-0.0606231689453125,-0.8404541015625,-0.5583953857421875
220451,-0.0919952392578125,-0.8878936767578125,-0.571197509765625
220452,-0.1280364990234375,-0.917877197265625,-0.596405029296875
220453,-0.16839599609375,-0.9212188720703124,-0.607269287109375
220454,-0.21185302734375,-0.9042205810546876,-0.6049346923828125
220455,-0.2569427490234375,-0.878326416015625,-0.6090087890625
220456,-0.3065338134765625,-0.8555145263671875,-0.6361236572265625
220457,-0.3065338134765625,-0.8555145263671875,-0.6361236572265625
220458,-0.3958282470703125,-0.849456787109375,-0.7301177978515625
220459,-0.4155426025390625,-0.8646697998046875,-0.765594482421875
220460,-0.4178924560546875,-0.8914947509765625,-0.7877349853515625
220461,-0.39837646484375,-0.91790771484375,-0.7922210693359375
220462,-0.3618011474609375,-0.93035888671875,-0.784088134765625
220463,-0.3180084228515625,-0.9239044189453124,-0.781036376953125
220464,-0.2659759521484375,-0.905029296875,-0.7800140380859375
220465,-0.2659759521484375,-0.905029296875,-0.7800140380859375
220466,-0.109222412109375,-0.8612823486328125,-0.739532470703125
220467,-0.017364501953125,-0.838714599609375,-0.677825927734375
220468,0.0699920654296875,-0.8125152587890625,-0.6074981689453125
220469,0.1805419921875,-0.7303314208984375,-0.5233612060546875
220470,0.1805419921875,-0.7303314208984375,-0.5233612060546875
220471,0.223541259765625,-0.6787872314453125,-0.52117919921875
220472,0.2583465576171875,-0.6548004150390625,-0.54376220703125
220473,0.274017333984375,-0.6673736572265625,-0.5827178955078125
220474,0.2583465576171875,-0.7036285400390625,-0.627685546875
220475,0.233123779296875,-0.7499542236328125,-0.6696319580078125
220476,0.2191009521484375,-0.785064697265625,-0.702301025390625
220477,0.212371826171875,-0.8062896728515625,-0.7257232666015625
220478,0.186492919921875,-0.823944091796875,-0.7403564453125
220479,0.1311492919921875,-0.8448333740234375,-0.7514190673828125
220480,0.0492706298828125,-0.868927001953125,-0.7544097900390625
220481,-0.0454864501953125,-0.8868255615234375,-0.750457763671875
220482,-0.1398773193359375,-0.8806610107421875,-0.738006591796875
220483,-0.2299652099609375,-0.8579254150390625,-0.721099853515625
220484,-0.308074951171875,-0.8247528076171875,-0.7067718505859375
220485,-0.374298095703125,-0.7294921875,-0.6845703125
220486,-0.374298095703125,-0.7294921875,-0.6845703125
220487,-0.3556365966796875,-0.683197021484375,-0.6900177001953125
220488,-0.3193817138671875,-0.6412353515625,-0.703399658203125
220489,-0.2852020263671875,-0.6051483154296875,-0.717010498046875
220490,-0.2671966552734375,-0.5658721923828125,-0.7161102294921875
220491,-0.26995849609375,-0.516998291015625,-0.7122039794921875
220492,-0.282745361328125,-0.45916748046875,-0.709686279296875
220493,-0.3042449951171875,-0.3988189697265625,-0.7052154541015625
220494,-0.3394927978515625,-0.348663330078125,-0.6989898681640625
220495,-0.38330078125,-0.318572998046875,-0.704620361328125
220496,-0.4456939697265625,-0.3199462890625,-0.71826171875
220497,-0.52325439453125,-0.353851318359375,-0.736419677734375
220498,-0.595733642578125,-0.4226837158203125,-0.748321533203125
220499,-0.64654541015625,-0.50738525390625,-0.7425079345703125
220500,-0.6856231689453125,-0.56817626953125,-0.7118072509765625
220501,-0.7152099609375,-0.609649658203125,-0.669647216796875
220502,-0.712188720703125,-0.651824951171875,-0.6404266357421875
220503,-0.6636962890625,-0.7156524658203125,-0.63348388671875
220504,-0.5879669189453125,-0.7862701416015625,-0.66156005859375
220505,-0.5879669189453125,-0.7862701416015625,-0.66156005859375
220506,-0.4463348388671875,-0.8243408203125,-0.7605743408203125
220507,-0.386322021484375,-0.8085174560546875,-0.8005523681640625
220508,-0.3138427734375,-0.7737274169921875,-0.8462371826171875
220509,-0.235565185546875,-0.712249755859375,-0.8705902099609375
220510,-0.166595458984375,-0.6308135986328125,-0.8461456298828125
220511,-0.1087646484375,-0.548919677734375,-0.771087646484375
220512,-0.060302734375,-0.48577880859375,-0.682891845703125
220513,-0.0252532958984375,-0.450408935546875,-0.60565185546875
220514,0.005126953125,-0.443817138671875,-0.553924560546875
220515,0.0462799072265625,-0.467071533203125,-0.5399017333984375
220516,0.09075927734375,-0.5153045654296875,-0.555450439453125
220517,0.1348724365234375,-0.560333251953125,-0.5723724365234375
220518,0.16961669921875,-0.598724365234375,-0.59814453125
220519,0.1858062744140625,-0.645721435546875,-0.6295623779296875
220520,0.1740875244140625,-0.7133941650390625,-0.647857666015625
220521,0.1312255859375,-0.785247802734375,-0.6522064208984375
220522,0.0751190185546875,-0.855072021484375,-0.6596527099609375
220523,0.0086517333984375,-0.927337646484375,-0.67340087890625
220524,-0.0677642822265625,-0.9975433349609376,-0.6865997314453125
220525,-0.1507110595703125,-1.055908203125,-0.6884307861328125
220526,-0.2455291748046875,-1.080734252929688,-0.6690673828125
220527,-0.3416900634765625,-1.07177734375,-0.65264892578125
220528,-0.4079742431640625,-1.063339233398438,-0.64996337890625
220529,-0.4079742431640625,-1.063339233398438,-0.64996337890625
220530,-0.4251708984375,-1.05389404296875,-0.7071990966796875
220531,-0.347076416015625,-1.03778076171875,-0.71466064453125
220532,-0.195526123046875,-1.00537109375,-0.659881591796875
220533,-0.0053863525390625,-0.9462738037109376,-0.5644073486328125
220534,0.1454010009765625,-0.87060546875,-0.4871368408203125
220535,0.2110595703125,-0.7989654541015625,-0.4648895263671875
220536,0.215362548828125,-0.755340576171875,-0.500213623046875
220537,0.1959228515625,-0.7451019287109375,-0.609710693359375
220538,0.1959228515625,-0.7451019287109375,-0.609710693359375
220539,0.2053070068359375,-0.749847412109375,-0.6230010986328125
220540,0.2091827392578125,-0.749542236328125,-0.6161041259765625
220541,0.200286865234375,-0.7393341064453125,-0.6242828369140625
220542,0.1961212158203125,-0.71685791015625,-0.6526641845703125
220543,0.2080841064453125,-0.6862335205078125,-0.6818084716796875
220544,0.223785400390625,-0.6563720703125,-0.7045440673828125
220545,0.223785400390625,-0.6563720703125,-0.7045440673828125
220546,0.224700927734375,-0.646514892578125,-0.7183685302734375
220547,0.1995086669921875,-0.6722412109375,-0.7174835205078125
220548,0.1569061279296875,-0.6967315673828125,-0.7193603515625
220549,0.0918121337890625,-0.7038116455078125,-0.7098388671875
220550,0.0047454833984375,-0.687408447265625,-0.6852569580078125
220551,-0.090850830078125,-0.65692138671875,-0.661651611328125
220552,-0.1829833984375,-0.6171417236328125,-0.6451263427734375
220553,-0.26617431640625,-0.564910888671875,-0.646087646484375
220554,-0.3475341796875,-0.5172882080078125,-0.6571044921875
220555,-0.399139404296875,-0.4487762451171875,-0.681793212890625
220556,-0.4341583251953125,-0.3857421875,-0.7430419921875
220557,-0.655242919921875,-0.41943359375,-0.749908447265625
220558,-0.655242919921875,-0.41943359375,-0.749908447265625
220559,-0.8184967041015625,-0.4527740478515625,-0.69891357421875
220560,-0.9602508544921876,-0.4603118896484375,-0.56011962890625
220561,-1.068313598632812,-0.4443817138671875,-0.38232421875
220562,-1.176193237304688,-0.42425537109375,-0.2906341552734375
220563,-1.218734741210938,-0.3966827392578125,-0.3023834228515625
220564,-1.194961547851562,-0.38848876953125,-0.31463623046875
220565,-0.9921417236328124,-0.48004150390625,-0.2574462890625
220566,-0.9921417236328124,-0.48004150390625,-0.2574462890625
220567,-0.8719024658203125,-0.575958251953125,-0.2432403564453125
220568,-0.77685546875,-0.669952392578125,-0.243865966796875
220569,-0.6939697265625,-0.74566650390625,-0.3161468505859375
220570,-0.6177825927734375,-0.8090362548828125,-0.4541168212890625
220571,-0.549224853515625,-0.852386474609375,-0.5963897705078125
220572,-0.4774169921875,-0.880096435546875,-0.6842498779296875
220573,-0.4067535400390625,-0.9043121337890624,-0.6836700439453125
220574,-0.379425048828125,-0.917510986328125,-0.625213623046875
220575,-0.3981781005859375,-0.907257080078125,-0.568695068359375
220576,-0.4418487548828125,-0.8806304931640625,-0.54010009765625
220577,-0.4418487548828125,-0.8806304931640625,-0.54010009765625
220578,-0.5658721923828125,-0.8404541015625,-0.58538818359375
220579,-0.55731201171875,-0.84228515625,-0.6391448974609375
220580,-0.5174560546875,-0.8524627685546875,-0.6687164306640625
220581,-0.5174560546875,-0.8524627685546875,-0.6687164306640625
220582,-0.272979736328125,-0.902984619140625,-0.715667724609375
220583,-0.1762237548828125,-0.9393463134765624,-0.780731201171875
220584,-0.1091156005859375,-0.949066162109375,-0.7906341552734375
220585,-0.1091156005859375,-0.949066162109375,-0.7906341552734375
220586,-0.0789794921875,-0.960662841796875,-0.7639617919921875
220587,-0.035797119140625,-0.966400146484375,-0.7764129638671875
220588,-0.0167388916015625,-0.964996337890625,-0.707916259765625
220589,-0.010406494140625,-0.9589691162109376,-0.674652099609375
220590,0.0032501220703125,-0.9293670654296876,-0.639617919921875
220591,0.033935546875,-0.885284423828125,-0.5816802978515625
220592,0.0684051513671875,-0.8375091552734375,-0.5027618408203125
220593,0.0684051513671875,-0.8375091552734375,-0.5027618408203125
220594,0.1468505859375,-0.731903076171875,-0.432891845703125
220595,0.2105255126953125,-0.6844482421875,-0.460357666015625
220596,0.3164825439453125,-0.6536865234375,-0.493804931640625
220597,0.5242462158203125,-0.7233428955078125,-0.570526123046875
220598,0.5242462158203125,-0.7233428955078125,-0.570526123046875
220599,0.565887451171875,-0.803924560546875,-0.6185150146484375
220600,0.584686279296875,-0.8877410888671875,-0.682647705078125
220601,0.5605926513671875,-0.9526214599609376,-0.7378082275390625
220602,0.475372314453125,-0.9963836669921876,-0.7649688720703125
220603,0.3311920166015625,-1.0185546875,-0.785369873046875
220604,0.149444580078125,-1.019622802734375,-0.8082122802734375
220605,-0.033172607421875,-1.001220703125,-0.822174072265625
220606,-0.189666748046875,-0.9718780517578124,-0.822601318359375
220607,-0.3148040771484375,-0.9369964599609376,-0.8060760498046875
220608,-0.415679931640625,-0.8943023681640625,-0.7633514404296875
220609,-0.415679931640625,-0.8943023681640625,-0.7633514404296875
220610,-0.4823455810546875,-0.8398284912109375,-0.711639404296875
220611,-0.5328826904296875,-0.76641845703125,-0.642333984375
220612,-0.55413818359375,-0.75592041015625,-0.6308746337890625
220613,-0.5539093017578125,-0.73382568359375,-0.64306640625
220614,-0.5218353271484375,-0.6951446533203125,-0.664947509765625
220615,-0.534423828125,-0.6566009521484375,-0.6499481201171875
220616,-0.556549072265625,-0.5966033935546875,-0.6500396728515625
220617,-0.557891845703125,-0.5282745361328125,-0.645721435546875
220618,-0.558197021484375,-0.4532470703125,-0.6685638427734375
220619,-0.5774078369140625,-0.3781280517578125,-0.6956634521484375
220620,-0.6264495849609375,-0.323486328125,-0.7173004150390625
220621,-0.6966552734375,-0.2919769287109375,-0.734832763671875
220622,-0.7724151611328125,-0.29339599609375,-0.729248046875
220623,-0.8482666015625,-0.328643798828125,-0.6876068115234375
220624,-0.893951416015625,-0.4060821533203125,-0.6282806396484375
220625,-0.893951416015625,-0.4060821533203125,-0.6282806396484375
220626,-0.776397705078125,-0.6082916259765625,-0.5207977294921875
220627,-0.6584014892578125,-0.6915740966796875,-0.4827728271484375
220628,-0.551055908203125,-0.764068603515625,-0.523895263671875
220629,-0.431365966796875,-0.84326171875,-0.550018310546875
220630,-0.431365966796875,-0.84326171875,-0.550018310546875
220631,-0.2158203125,-1.004013061523438,-0.690673828125
220632,-0.0971221923828125,-1.014968872070312,-0.7571563720703125
220633,0.035552978515625,-0.9554901123046876,-0.7972869873046875
220634,0.198944091796875,-0.7557373046875,-0.803375244140625
220635,0.198944091796875,-0.7557373046875,-0.803375244140625
220636,0.2058258056640625,-0.6688385009765625,-0.8309783935546875
220637,0.2058258056640625,-0.6688385009765625,-0.8309783935546875
220638,0.207427978515625,-0.6150665283203125,-0.7517242431640625
220639,0.1404571533203125,-0.573028564453125,-0.677490234375
220640,0.09039306640625,-0.5614013671875,-0.62738037109375
220641,0.09039306640625,-0.5614013671875,-0.62738037109375
220642,0.0545806884765625,-0.5720977783203125,-0.5460205078125
220643,0.02789306640625,-0.6074066162109375,-0.5010833740234375
220644,0.0345001220703125,-0.620330810546875,-0.5024566650390625
220645,0.0441741943359375,-0.6411590576171875,-0.5150604248046875
220646,0.0441741943359375,-0.6411590576171875,-0.5150604248046875
220647,0.0213775634765625,-0.646270751953125,-0.6373138427734375
220648,0.0005645751953125,-0.671600341796875,-0.6693115234375
220649,-0.0401611328125,-0.730377197265625,-0.7027435302734375
220650,-0.0948944091796875,-0.8007049560546875,-0.7459716796875
220651,-0.1505126953125,-0.861053466796875,-0.74505615234375
220652,-0.2179412841796875,-0.903350830078125,-0.7187957763671875
220653,-0.2179412841796875,-0.903350830078125,-0.7187957763671875
220654,-0.2942352294921875,-0.9187469482421876,-0.670013427734375
220655,-0.261199951171875,-0.91558837890625,-0.655670166015625
220656,-0.2112579345703125,-0.9207611083984376,-0.6566925048828125
220657,-0.1558990478515625,-0.9396514892578124,-0.6804351806640625
220658,-0.079559326171875,-0.957305908203125,-0.7005615234375
220659,0.0238800048828125,-0.9572601318359376,-0.6750030517578125
220660,0.126800537109375,-0.9297637939453124,-0.58001708984375
220661,0.126800537109375,-0.9297637939453124,-0.58001708984375
220662,0.2314910888671875,-0.8118743896484375,-0.405517578125
220663,0.2269744873046875,-0.7689056396484375,-0.4110260009765625
220664,0.199310302734375,-0.7548828125,-0.4621124267578125
220665,0.199310302734375,-0.7548828125,-0.4621124267578125
220666,0.154022216796875,-0.7918548583984375,-0.5786285400390625
220667,0.1303863525390625,-0.778594970703125,-0.6377410888671875
220668,0.1118927001953125,-0.7433319091796875,-0.6393585205078125
220669,0.1118927001953125,-0.7433319091796875,-0.6393585205078125
220670,0.1172637939453125,-0.6815185546875,-0.691558837890625
220671,0.1665802001953125,-0.6849517822265625,-0.70928955078125
220672,0.2216339111328125,-0.68963623046875,-0.6942596435546875
220673,0.2423553466796875,-0.698089599609375,-0.6666717529296875
220674,0.224395751953125,-0.7152099609375,-0.636627197265625
220675,0.180267333984375,-0.7340087890625,-0.6237640380859375
220676,0.1126708984375,-0.747772216796875,-0.62152099609375
220677,0.0260772705078125,-0.7493743896484375,-0.6248779296875
220678,0.0260772705078125,-0.7493743896484375,-0.6248779296875
220679,-0.1555328369140625,-0.7405242919921875,-0.6257781982421875
220680,-0.2498626708984375,-0.706512451171875,-0.6054229736328125
220681,-0.333099365234375,-0.6555023193359375,-0.5679473876953125
220682,-0.333099365234375,-0.6555023193359375,-0.5679473876953125
220683,-0.4584197998046875,-0.528656005859375,-0.480621337890625
220684,-0.4834442138671875,-0.485321044921875,-0.463623046875
220685,-0.5074615478515625,-0.4892120361328125,-0.470184326171875
220686,-0.5074615478515625,-0.4892120361328125,-0.470184326171875
220687,-0.5600433349609375,-0.5618743896484375,-0.48614501953125
220688,-0.573760986328125,-0.60821533203125,-0.487762451171875
220689,-0.573760986328125,-0.60821533203125,-0.487762451171875
220690,-0.5491485595703125,-0.7233428955078125,-0.5249786376953125
220691,-0.509735107421875,-0.75311279296875,-0.5755767822265625
220692,-0.4583892822265625,-0.7759552001953125,-0.617279052734375
220693,-0.3899078369140625,-0.7985992431640625,-0.642669677734375
220694,-0.3087615966796875,-0.817474365234375,-0.6445465087890625
220695,-0.23516845703125,-0.8342132568359375,-0.636474609375
220696,-0.18475341796875,-0.847747802734375,-0.6235809326171875
220697,-0.18475341796875,-0.847747802734375,-0.6235809326171875
220698,-0.15771484375,-0.859283447265625,-0.5984649658203125
220699,-0.1579437255859375,-0.8456878662109375,-0.54327392578125
220700,-0.18707275390625,-0.821197509765625,-0.531707763671875
220701,-0.18707275390625,-0.821197509765625,-0.531707763671875
220702,-0.255279541015625,-0.7869110107421875,-0.5865325927734375
220703,-0.2858428955078125,-0.7987213134765625,-0.637725830078125
220704,-0.294647216796875,-0.819580078125,-0.6809234619140625
220705,-0.26861572265625,-0.8454742431640625,-0.6971893310546875
220706,-0.26861572265625,-0.8454742431640625,-0.6971893310546875
220707,-0.1790771484375,-0.8821868896484375,-0.6844329833984375
220708,-0.1467437744140625,-0.890960693359375,-0.664306640625
220709,-0.144256591796875,-0.92095947265625,-0.7302398681640625
220710,-0.144256591796875,-0.92095947265625,-0.7302398681640625
220711,-0.1531524658203125,-0.926513671875,-0.7856292724609375
220712,-0.1595306396484375,-0.92242431640625,-0.820465087890625
220713,-0.1595306396484375,-0.92242431640625,-0.820465087890625
220714,-0.1581573486328125,-0.9170989990234376,-0.832855224609375
220715,-0.1433258056640625,-0.9117431640625,-0.8072662353515625
220716,-0.1197052001953125,-0.9146881103515624,-0.7713470458984375
220717,-0.1197052001953125,-0.9146881103515624,-0.7713470458984375
220718,-0.0618133544921875,-0.92388916015625,-0.64239501953125
220719,-0.060150146484375,-0.914154052734375,-0.561614990234375
220720,-0.074798583984375,-0.8790283203125,-0.50848388671875
220721,-0.074798583984375,-0.8790283203125,-0.50848388671875
220722,-0.088623046875,-0.8230133056640625,-0.487823486328125
220723,-0.0658721923828125,-0.6950531005859375,-0.51239013671875
220724,-0.0281829833984375,-0.6518096923828125,-0.532135009765625
220725,0.0169677734375,-0.638671875,-0.5566253662109375
220726,0.0169677734375,-0.638671875,-0.5566253662109375
220727,0.1135101318359375,-0.69488525390625,-0.5877532958984375
220728,0.13470458984375,-0.751922607421875,-0.6119384765625
220729,0.1334228515625,-0.8671417236328125,-0.6939697265625
220730,0.1334228515625,-0.8671417236328125,-0.6939697265625
220731,0.1243743896484375,-0.931396484375,-0.7327880859375
220732,0.1197662353515625,-0.982574462890625,-0.7541656494140625
220733,0.1260833740234375,-1.013916015625,-0.751800537109375
220734,0.1260833740234375,-1.013916015625,-0.751800537109375
220735,0.102935791015625,-0.980621337890625,-0.70928955078125
220736,0.06036376953125,-0.932098388671875,-0.6903839111328125
220737,-0.012176513671875,-0.891510009765625,-0.6827239990234375
220738,-0.106170654296875,-0.8470458984375,-0.6787261962890625
220739,-0.20220947265625,-0.79144287109375,-0.6667633056640625
220740,-0.2785491943359375,-0.7371673583984375,-0.6533966064453125
220741,-0.3350067138671875,-0.6851348876953125,-0.6421966552734375
220742,-0.368011474609375,-0.6313018798828125,-0.6297760009765625
220743,-0.3674163818359375,-0.576019287109375,-0.615020751953125
220744,-0.3290863037109375,-0.5225067138671875,-0.6012725830078125
220745,-0.27630615234375,-0.479217529296875,-0.59088134765625
220746,-0.2481842041015625,-0.4353179931640625,-0.578521728515625
220747,-0.2513580322265625,-0.3834228515625,-0.5687255859375
220748,-0.2474365234375,-0.3755340576171875,-0.5872039794921875
220749,-0.2787933349609375,-0.4208221435546875,-0.6093292236328125
220750,-0.2787933349609375,-0.4208221435546875,-0.6093292236328125
220751,-0.421295166015625,-0.5682373046875,-0.7276153564453125
220752,-0.49688720703125,-0.649871826171875,-0.789764404296875
220753,-0.564727783203125,-0.745880126953125,-0.8128509521484375
220754,-0.564727783203125,-0.745880126953125,-0.8128509521484375
220755,-0.6407318115234375,-0.9381866455078124,-0.7110137939453125
220756,-0.6317291259765625,-0.9826202392578124,-0.636199951171875
220757,-0.5880279541015625,-0.993408203125,-0.568359375
220758,-0.5265960693359375,-0.986419677734375,-0.5231781005859375
220759,-0.457061767578125,-0.9540863037109376,-0.510711669921875
220760,-0.3852386474609375,-0.8907623291015625,-0.5187835693359375
220761,-0.32232666015625,-0.8192596435546875,-0.5455322265625
220762,-0.32232666015625,-0.8192596435546875,-0.5455322265625
220763,-0.2452392578125,-0.686767578125,-0.6088104248046875
220764,-0.2325897216796875,-0.6417388916015625,-0.6268310546875
220765,-0.206787109375,-0.6042022705078125,-0.6612091064453125
220766,-0.206787109375,-0.6042022705078125,-0.6612091064453125
220767,-0.1736907958984375,-0.5906219482421875,-0.653411865234375
220768,-0.12841796875,-0.5759124755859375,-0.6266632080078125
220769,-0.0897674560546875,-0.556304931640625,-0.577880859375
220770,-0.0680084228515625,-0.53765869140625,-0.5174713134765625
220771,-0.0649261474609375,-0.525238037109375,-0.4842529296875
220772,-0.0713043212890625,-0.5274658203125,-0.50048828125
220773,-0.07080078125,-0.5475616455078125,-0.539276123046875
220774,-0.07080078125,-0.5475616455078125,-0.539276123046875
220775,-0.037841796875,-0.720977783203125,-0.6201324462890625
220776,-0.030364990234375,-0.862335205078125,-0.6177520751953125
220777,-0.022918701171875,-1.0689697265625,-0.559600830078125
220778,-0.022918701171875,-1.0689697265625,-0.559600830078125
220779,-0.0164642333984375,-1.131103515625,-0.55206298828125
220780,-0.0408172607421875,-1.162704467773438,-0.5556640625
220781,-0.153106689453125,-1.180465698242188,-0.595550537109375
220782,-0.153106689453125,-1.180465698242188,-0.595550537109375
220783,-0.18634033203125,-1.186294555664062,-0.6122283935546875
220784,-0.18927001953125,-1.176666259765625,-0.6222991943359375
220785,-0.08111572265625,-1.081558227539062,-0.5506439208984375
220786,-0.08111572265625,-1.081558227539062,-0.5506439208984375
220787,0.025909423828125,-1.013839721679688,-0.4746551513671875
220788,0.135101318359375,-0.9398193359375,-0.40594482421875
220789,0.2575836181640625,-0.8128814697265625,-0.39080810546875
220790,0.2575836181640625,-0.8128814697265625,-0.39080810546875
220791,0.2785186767578125,-0.7778778076171875,-0.451690673828125
220792,0.299224853515625,-0.7649383544921875,-0.5037994384765625
220793,0.3158416748046875,-0.766693115234375,-0.5360107421875
220794,0.310211181640625,-0.7757415771484375,-0.5755157470703125
220795,0.2700653076171875,-0.79168701171875,-0.6402740478515625
220796,0.2037200927734375,-0.8179473876953125,-0.7170257568359375
220797,0.05224609375,-0.8732757568359375,-0.8270111083984375
220798,0.05224609375,-0.8732757568359375,-0.8270111083984375
220799,-0.01080322265625,-0.8800506591796875,-0.83465576171875
220800,-0.067901611328125,-0.858123779296875,-0.8050537109375
220801,-0.1208648681640625,-0.8074951171875,-0.7493133544921875
220802,-0.1208648681640625,-0.8074951171875,-0.7493133544921875
220803,-0.166229248046875,-0.6878509521484375,-0.648895263671875
220804,-0.1819915771484375,-0.663818359375,-0.6159515380859375
220805,-0.166290283203125,-0.6234283447265625,-0.615631103515625
220806,-0.1392669677734375,-0.6134796142578125,-0.6229095458984375
220807,-0.1420135498046875,-0.6128387451171875,-0.618560791015625
220808,-0.1888580322265625,-0.613525390625,-0.5928955078125
220809,-0.2751922607421875,-0.5878143310546875,-0.5776519775390625
220810,-0.2751922607421875,-0.5878143310546875,-0.5776519775390625
220811,-0.490234375,-0.5115203857421875,-0.5481109619140625
220812,-0.637969970703125,-0.48577880859375,-0.4842681884765625
220813,-0.7902679443359375,-0.48394775390625,-0.4859771728515625
220814,-0.7902679443359375,-0.48394775390625,-0.4859771728515625
220815,-1.009323120117188,-0.503265380859375,-0.5587921142578125
220816,-1.017135620117188,-0.513580322265625,-0.550506591796875
220817,-0.9546356201171876,-0.526763916015625,-0.5207366943359375
220818,-0.853179931640625,-0.54345703125,-0.4957733154296875
220819,-0.730682373046875,-0.568084716796875,-0.4906463623046875
220820,-0.6129913330078125,-0.6071014404296875,-0.4864654541015625
220821,-0.5171661376953125,-0.658935546875,-0.4866180419921875
220822,-0.43621826171875,-0.719146728515625,-0.495513916015625
220823,-0.3695831298828125,-0.7765045166015625,-0.5098114013671875
220824,-0.324005126953125,-0.821624755859375,-0.526763916015625
220825,-0.298828125,-0.8443450927734375,-0.5490570068359375
220826,-0.289886474609375,-0.8487091064453125,-0.565185546875
220827,-0.29168701171875,-0.85064697265625,-0.5660400390625
220828,-0.2959747314453125,-0.859222412109375,-0.565704345703125
220829,-0.306243896484375,-0.8740234375,-0.570281982421875
220830,-0.3079376220703125,-0.8818206787109375,-0.5956573486328125
220831,-0.27740478515625,-0.8806610107421875,-0.6269073486328125
220832,-0.2369384765625,-0.8727569580078125,-0.653411865234375
220833,-0.1898040771484375,-0.8524932861328125,-0.6700897216796875
220834,-0.135986328125,-0.822967529296875,-0.6714019775390625
220835,-0.0885467529296875,-0.7904052734375,-0.6761016845703125
220836,-0.0534820556640625,-0.7658233642578125,-0.6913299560546875
220837,-0.0314483642578125,-0.75872802734375,-0.67303466796875
220838,-0.039215087890625,-0.7704925537109375,-0.655609130859375
220839,-0.063446044921875,-0.7993927001953125,-0.673858642578125
220840,-0.0908203125,-0.8329315185546875,-0.71148681640625
220841,-0.11181640625,-0.855804443359375,-0.7447509765625
220842,-0.123504638671875,-0.866455078125,-0.7522430419921875
220843,-0.1274261474609375,-0.864013671875,-0.742340087890625
220844,-0.113433837890625,-0.851531982421875,-0.7164306640625
220845,-0.0805206298828125,-0.8321990966796875,-0.678070068359375
220846,-0.0805206298828125,-0.8321990966796875,-0.678070068359375
220847,0.00537109375,-0.7719268798828125,-0.5854339599609375
220848,0.0353546142578125,-0.7340850830078125,-0.5522003173828125
220849,0.056549072265625,-0.6905975341796875,-0.5269775390625
220850,0.079376220703125,-0.6505889892578125,-0.5202178955078125
220851,0.102874755859375,-0.6344757080078125,-0.54541015625
220852,0.1260528564453125,-0.6437225341796875,-0.59368896484375
220853,0.153228759765625,-0.67889404296875,-0.6434326171875
220854,0.1827239990234375,-0.7265167236328125,-0.686126708984375
220855,0.1995391845703125,-0.7761383056640625,-0.70849609375
220856,0.190521240234375,-0.830474853515625,-0.7088470458984375
220857,0.1512603759765625,-0.888092041015625,-0.708892822265625
220858,0.1512603759765625,-0.888092041015625,-0.708892822265625
220859,0.063873291015625,-0.974395751953125,-0.741363525390625
220860,0.035980224609375,-0.973846435546875,-0.731781005859375
220861,-0.00115966796875,-0.9421539306640624,-0.7096099853515625
220862,-0.052001953125,-0.897857666015625,-0.6934356689453125
220863,-0.104339599609375,-0.858428955078125,-0.6935272216796875
220864,-0.1563873291015625,-0.8302764892578125,-0.7080535888671875
220865,-0.2152862548828125,-0.8075714111328125,-0.740081787109375
220866,-0.2846832275390625,-0.7832183837890625,-0.776214599609375
220867,-0.3465118408203125,-0.7547454833984375,-0.81243896484375
220868,-0.4123077392578125,-0.7301483154296875,-0.823211669921875
220869,-0.449676513671875,-0.682952880859375,-0.837005615234375
220870,-0.449676513671875,-0.682952880859375,-0.837005615234375
220871,-0.4795379638671875,-0.5535736083984375,-0.8111572265625
220872,-0.5034332275390625,-0.4783172607421875,-0.783355712890625
220873,-0.608917236328125,-0.431915283203125,-0.719696044921875
220874,-0.608917236328125,-0.431915283203125,-0.719696044921875
220875,-0.6586761474609375,-0.463104248046875,-0.6877899169921875
220876,-0.68267822265625,-0.5033721923828125,-0.6422119140625
220877,-0.686309814453125,-0.5586090087890625,-0.5941009521484375
220878,-0.681610107421875,-0.6268768310546875,-0.5556488037109375
220879,-0.6613616943359375,-0.7045440673828125,-0.5357208251953125
220880,-0.6162567138671875,-0.7865447998046875,-0.5445404052734375
220881,-0.5598602294921875,-0.8524017333984375,-0.579620361328125
220882,-0.50970458984375,-0.86962890625,-0.627044677734375
220883,-0.4642333984375,-0.8586883544921875,-0.66192626953125
220884,-0.407318115234375,-0.8349609375,-0.666656494140625
220885,-0.340789794921875,-0.7838287353515625,-0.656951904296875
220886,-0.2744293212890625,-0.7071533203125,-0.6417388916015625
220887,-0.22265625,-0.6309356689453125,-0.616302490234375
220888,-0.17999267578125,-0.5774688720703125,-0.5904693603515625
220889,-0.1413726806640625,-0.5508575439453125,-0.5848388671875
220890,-0.1413726806640625,-0.5508575439453125,-0.5848388671875
220891,-0.0760955810546875,-0.5233154296875,-0.519622802734375
220892,-0.0567169189453125,-0.5083465576171875,-0.5322418212890625
220893,-0.03314208984375,-0.502685546875,-0.557342529296875
220894,-0.03314208984375,-0.502685546875,-0.557342529296875
220895,0.036651611328125,-0.5186614990234375,-0.5587310791015625
220896,0.0643157958984375,-0.553924560546875,-0.547210693359375
220897,0.0891265869140625,-0.6226043701171875,-0.5309906005859375
220898,0.1063232421875,-0.7110595703125,-0.5074920654296875
220899,0.1113739013671875,-0.787353515625,-0.5021209716796875
220900,0.1131591796875,-0.85699462890625,-0.531890869140625
220901,0.1065673828125,-0.917327880859375,-0.5812530517578125
220902,0.0736846923828125,-0.96685791015625,-0.6399078369140625
220903,0.009613037109375,-1.001022338867188,-0.6958465576171875
220904,-0.077606201171875,-1.01116943359375,-0.726959228515625
220905,-0.1549835205078125,-0.9948272705078124,-0.72882080078125
220906,-0.1549835205078125,-0.9948272705078124,-0.72882080078125
220907,-0.1859588623046875,-0.95501708984375,-0.7009735107421875
220908,-0.1646728515625,-0.9387359619140624,-0.6632843017578125
220909,-0.1294708251953125,-0.91815185546875,-0.6089630126953125
220910,-0.1294708251953125,-0.91815185546875,-0.6089630126953125
220911,0.014312744140625,-0.8541412353515625,-0.4932708740234375
220912,0.0814971923828125,-0.809112548828125,-0.447418212890625
220913,0.10284423828125,-0.7537841796875,-0.4883575439453125
220914,0.10284423828125,-0.7537841796875,-0.4883575439453125
220915,0.07794189453125,-0.75384521484375,-0.55023193359375
220916,0.05780029296875,-0.763763427734375,-0.6020050048828125
220917,0.052398681640625,-0.780364990234375,-0.6337432861328125
220918,0.052398681640625,-0.780364990234375,-0.6337432861328125
220919,0.058685302734375,-0.814056396484375,-0.6739349365234375
220920,0.05462646484375,-0.8215484619140625,-0.7069091796875
220921,0.0482330322265625,-0.8141937255859375,-0.7617034912109375
220922,0.0482330322265625,-0.8141937255859375,-0.7617034912109375
220923,0.0440673828125,-0.7873992919921875,-0.8359222412109375
220924,0.0249176025390625,-0.774017333984375,-0.8255157470703125
220925,-0.0198974609375,-0.7605438232421875,-0.775390625
220926,-0.072998046875,-0.7409820556640625,-0.7085418701171875
220927,-0.1177520751953125,-0.7117462158203125,-0.6443023681640625
220928,-0.156463623046875,-0.684112548828125,-0.59454345703125
220929,-0.1749267578125,-0.64971923828125,-0.575347900390625
220930,-0.1795806884765625,-0.6007843017578125,-0.5758056640625
220931,-0.19903564453125,-0.5760345458984375,-0.591796875
220932,-0.22564697265625,-0.578887939453125,-0.62762451171875
220933,-0.34521484375,-0.6246337890625,-0.712615966796875
220934,-0.34521484375,-0.6246337890625,-0.712615966796875
220935,-0.4912872314453125,-0.6661529541015625,-0.71826171875
220936,-0.6161651611328125,-0.6656951904296875,-0.726226806640625
220937,-0.731231689453125,-0.663299560546875,-0.6945343017578125
220938,-0.731231689453125,-0.663299560546875,-0.6945343017578125
220939,-0.8377227783203125,-0.602996826171875,-0.528167724609375
220940,-0.85089111328125,-0.57769775390625,-0.4984893798828125
220941,-0.853363037109375,-0.5628509521484375,-0.516754150390625
220942,-0.853363037109375,-0.5628509521484375,-0.516754150390625
220943,-0.757843017578125,-0.5810394287109375,-0.5481414794921875
220944,-0.6854705810546875,-0.65142822265625,-0.5290069580078125
220945,-0.6317596435546875,-0.7261810302734375,-0.512115478515625
220946,-0.6317596435546875,-0.7261810302734375,-0.512115478515625
220947,-0.518402099609375,-0.8065338134765625,-0.535858154296875
220948,-0.4649200439453125,-0.802947998046875,-0.5232696533203125
220949,-0.42333984375,-0.77239990234375,-0.5008087158203125
220950,-0.395233154296875,-0.732940673828125,-0.4705963134765625
220951,-0.37896728515625,-0.7135467529296875,-0.4469451904296875
220952,-0.373687744140625,-0.7304229736328125,-0.4455108642578125
220953,-0.3736419677734375,-0.7772216796875,-0.476287841796875
220954,-0.3736419677734375,-0.7772216796875,-0.476287841796875
220955,-0.3834686279296875,-0.889251708984375,-0.6148529052734375
220956,-0.385406494140625,-0.9095458984375,-0.6593780517578125
220957,-0.335205078125,-0.8655242919921875,-0.6877899169921875
220958,-0.335205078125,-0.8655242919921875,-0.6877899169921875
220959,-0.2740631103515625,-0.8472442626953125,-0.70233154296875
220960,-0.2327117919921875,-0.8522796630859375,-0.723846435546875
220961,-0.105224609375,-0.8442840576171875,-0.767120361328125
220962,-0.105224609375,-0.8442840576171875,-0.767120361328125
220963,-0.00689697265625,-0.830230712890625,-0.729278564453125
220964,0.070404052734375,-0.824432373046875,-0.6571044921875
220965,0.098602294921875,-0.8137359619140625,-0.652008056640625
220966,0.098602294921875,-0.8137359619140625,-0.652008056640625
220967,0.0572967529296875,-0.8085784912109375,-0.7093353271484375
220968,0.0321502685546875,-0.8440399169921875,-0.7184295654296875
220969,-0.018890380859375,-0.9021759033203124,-0.6803131103515625
220970,-0.018890380859375,-0.9021759033203124,-0.6803131103515625
220971,-0.0515594482421875,-0.892303466796875,-0.6426239013671875
220972,-0.0908355712890625,-0.8595123291015625,-0.6179351806640625
220973,-0.106842041015625,-0.817138671875,-0.6053466796875
220974,-0.106842041015625,-0.817138671875,-0.6053466796875
220975,-0.0941925048828125,-0.7388153076171875,-0.5548248291015625
220976,-0.0904388427734375,-0.6854095458984375,-0.5374908447265625
220977,-0.082916259765625,-0.62677001953125,-0.525115966796875
220978,-0.07196044921875,-0.5841217041015625,-0.5298919677734375
220979,-0.0559234619140625,-0.5719146728515625,-0.5544891357421875
220980,-0.03289794921875,-0.5890960693359375,-0.5793304443359375
220981,-0.01324462890625,-0.624664306640625,-0.6011199951171875
220982,0.001068115234375,-0.662811279296875,-0.6309356689453125
220983,0.0278167724609375,-0.7080841064453125,-0.661163330078125
220984,0.0498199462890625,-0.763397216796875,-0.6813507080078125
220985,0.045684814453125,-0.8135986328125,-0.7079620361328125
220986,0.01837158203125,-0.8498077392578125,-0.7543792724609375
220987,-0.01629638671875,-0.8773651123046875,-0.7955322265625
220988,-0.048431396484375,-0.8910980224609375,-0.8052978515625
220989,-0.1444854736328125,-0.81304931640625,-0.758758544921875
220990,-0.1444854736328125,-0.81304931640625,-0.758758544921875
220991,-0.2130279541015625,-0.74786376953125,-0.7470703125
220992,-0.270782470703125,-0.687164306640625,-0.7494354248046875
220993,-0.3775482177734375,-0.6223907470703125,-0.78558349609375
220994,-0.3775482177734375,-0.6223907470703125,-0.78558349609375
220995,-0.4474639892578125,-0.60198974609375,-0.8060150146484375
220996,-0.5228118896484375,-0.5915679931640625,-0.8326568603515625
220997,-0.5986480712890625,-0.5799407958984375,-0.84246826171875
220998,-0.6566009521484375,-0.560943603515625,-0.85223388671875
220999,-0.6860809326171875,-0.5332794189453125,-0.8499298095703125
221000,-0.6754913330078125,-0.504486083984375,-0.81427001953125
221001,-0.6395721435546875,-0.49761962890625,-0.77154541015625
221002,-0.6395721435546875,-0.49761962890625,-0.77154541015625
221003,-0.5388946533203125,-0.59967041015625,-0.7225494384765625
221004,-0.471343994140625,-0.672210693359375,-0.71234130859375
221005,-0.4119415283203125,-0.7346954345703125,-0.7062835693359375
221006,-0.36041259765625,-0.7864837646484375,-0.716796875
221007,-0.3059539794921875,-0.8173065185546875,-0.7527923583984375
221008,-0.2484588623046875,-0.8184051513671875,-0.809600830078125
221009,-0.20068359375,-0.79962158203125,-0.8566436767578125
221010,-0.20068359375,-0.79962158203125,-0.8566436767578125
221011,-0.118743896484375,-0.7094268798828125,-0.791168212890625
221012,-0.0574188232421875,-0.6050262451171875,-0.71832275390625
221013,0.0121002197265625,-0.4813385009765625,-0.6444091796875
221014,0.081390380859375,-0.3778076171875,-0.58636474609375
221015,0.1534881591796875,-0.3340911865234375,-0.5655670166015625
221016,0.220367431640625,-0.341156005859375,-0.5633544921875
221017,0.245758056640625,-0.3972930908203125,-0.5902252197265625
221018,0.2049560546875,-0.4642791748046875,-0.6301116943359375
221019,0.1234893798828125,-0.5049896240234375,-0.6563873291015625
221020,0.05450439453125,-0.510894775390625,-0.6655120849609375
221021,-0.006866455078125,-0.5070037841796875,-0.677642822265625
221022,-0.0913238525390625,-0.4962615966796875,-0.7053375244140625
221023,-0.1792755126953125,-0.46728515625,-0.7099151611328125
221024,-0.2375030517578125,-0.4430084228515625,-0.67681884765625
221025,-0.251068115234375,-0.4517822265625,-0.640289306640625
221026,-0.2150421142578125,-0.5065765380859375,-0.6220855712890625
221027,-0.15313720703125,-0.600311279296875,-0.62603759765625
221028,-0.109771728515625,-0.723236083984375,-0.635040283203125
221029,-0.0921478271484375,-0.8467559814453125,-0.6578369140625
221030,-0.0977630615234375,-0.9567108154296876,-0.7097320556640625
221031,-0.126861572265625,-1.048019409179688,-0.77435302734375
221032,-0.172760009765625,-1.108734130859375,-0.8265380859375
221033,-0.2233123779296875,-1.129562377929688,-0.8272857666015625
221034,-0.2619476318359375,-1.100936889648438,-0.7676544189453125
221035,-0.28515625,-1.043807983398438,-0.70098876953125
221036,-0.3002777099609375,-0.9744415283203124,-0.6479034423828125
221037,-0.2851104736328125,-0.88482666015625,-0.5960693359375
221038,-0.2851104736328125,-0.88482666015625,-0.5960693359375
221039,-0.2488861083984375,-0.8733062744140625,-0.5915985107421875
221040,-0.2219085693359375,-0.8727264404296875,-0.5870513916015625
221041,-0.2102508544921875,-0.85919189453125,-0.5705108642578125
221042,-0.2102508544921875,-0.85919189453125,-0.5705108642578125
221043,-0.1771240234375,-0.78973388671875,-0.5465545654296875
221044,-0.1489105224609375,-0.7496795654296875,-0.5535888671875
221045,-0.0469207763671875,-0.6819610595703125,-0.5655975341796875
221046,-0.0469207763671875,-0.6819610595703125,-0.5655975341796875
221047,-0.000518798828125,-0.64019775390625,-0.589599609375
221048,0.0195770263671875,-0.603546142578125,-0.654998779296875
221049,0.0375518798828125,-0.5857696533203125,-0.768646240234375
221050,0.0375518798828125,-0.5857696533203125,-0.768646240234375
221051,0.158905029296875,-0.671356201171875,-0.9734649658203124
221052,0.170501708984375,-0.7277069091796875,-0.9545135498046876
221053,0.1076812744140625,-0.71533203125,-0.842376708984375
221054,0.0308685302734375,-0.6591949462890625,-0.726348876953125
221055,-0.03350830078125,-0.60968017578125,-0.6683197021484375
221056,-0.09783935546875,-0.5684661865234375,-0.646942138671875
221057,-0.188323974609375,-0.531829833984375,-0.6479034423828125
221058,-0.309112548828125,-0.483245849609375,-0.6687469482421875
221059,-0.435150146484375,-0.43206787109375,-0.6963653564453125
221060,-0.4915313720703125,-0.37359619140625,-0.76849365234375
221061,-0.561920166015625,-0.3815460205078125,-0.818328857421875
221062,-0.561920166015625,-0.3815460205078125,-0.818328857421875
221063,-0.97222900390625,-0.401123046875,-0.74713134765625
221064,-1.174758911132812,-0.410308837890625,-0.6717529296875
221065,-1.26055908203125,-0.4338531494140625,-0.560211181640625
221066,-1.26055908203125,-0.4338531494140625,-0.560211181640625
221067,-1.1590576171875,-0.4225311279296875,-0.4797210693359375
221068,-0.97882080078125,-0.4163970947265625,-0.46868896484375
221069,-0.76116943359375,-0.42254638671875,-0.4766693115234375
221070,-0.76116943359375,-0.42254638671875,-0.4766693115234375
221071,-0.392242431640625,-0.52081298828125,-0.4577178955078125
221072,-0.245208740234375,-0.5739593505859375,-0.466644287109375
221073,-0.0843658447265625,-0.611083984375,-0.480133056640625
221074,0.0713348388671875,-0.637054443359375,-0.4916839599609375
221075,0.1758880615234375,-0.6750640869140625,-0.5418701171875
221076,0.19610595703125,-0.773681640625,-0.638519287109375
221077,0.1661224365234375,-0.866943359375,-0.718353271484375
221078,0.1840972900390625,-0.9380340576171876,-0.91064453125
221079,0.24102783203125,-0.97979736328125,-0.94354248046875
221080,0.2322540283203125,-0.9947357177734376,-0.8028411865234375
221081,0.0946502685546875,-0.9520416259765624,-0.7022552490234375
221082,-0.09619140625,-0.862091064453125,-0.5934600830078125
221083,-0.2381591796875,-0.7965545654296875,-0.557525634765625
221084,-0.2918548583984375,-0.7606201171875,-0.6011810302734375
221085,-0.3085174560546875,-0.7298736572265625,-0.60638427734375
221086,-0.3286895751953125,-0.710052490234375,-0.642608642578125
221087,-0.364501953125,-0.706939697265625,-0.7451629638671875
221088,-0.3859710693359375,-0.691680908203125,-0.76153564453125
221089,-0.3802337646484375,-0.6862335205078125,-0.7247161865234375
221090,-0.350433349609375,-0.7044677734375,-0.702728271484375
221091,-0.2907257080078125,-0.7485198974609375,-0.6856231689453125
221092,-0.2284393310546875,-0.8050689697265625,-0.668853759765625
221093,-0.2075347900390625,-0.85894775390625,-0.6619720458984375
221094,-0.2075347900390625,-0.85894775390625,-0.6619720458984375
221095,-0.259429931640625,-0.914764404296875,-0.663360595703125
221096,-0.2786712646484375,-0.8947906494140625,-0.628631591796875
221097,-0.2759246826171875,-0.846405029296875,-0.5853271484375
221098,-0.2652130126953125,-0.777374267578125,-0.5548553466796875
221099,-0.2376861572265625,-0.6953277587890625,-0.52935791015625
221100,-0.1845855712890625,-0.6186676025390625,-0.5063934326171875
221101,-0.0463714599609375,-0.5726470947265625,-0.499114990234375
221102,-0.0463714599609375,-0.5726470947265625,-0.499114990234375
221103,0.0106048583984375,-0.6274261474609375,-0.5404510498046875
221104,0.0408172607421875,-0.723907470703125,-0.6174163818359375
221105,0.05059814453125,-0.82861328125,-0.71051025390625
221106,0.04425048828125,-0.9154510498046876,-0.7684783935546875
221107,0.009613037109375,-0.9878387451171876,-0.7906036376953125
221108,-0.0558624267578125,-1.034942626953125,-0.809051513671875
221109,-0.1342620849609375,-1.038482666015625,-0.831390380859375
221110,-0.2022247314453125,-1.005172729492188,-0.82720947265625
221111,-0.2498779296875,-0.954315185546875,-0.80181884765625
221112,-0.286773681640625,-0.898956298828125,-0.7615966796875
221113,-0.316497802734375,-0.8460845947265625,-0.70770263671875
221114,-0.3430023193359375,-0.7974700927734375,-0.65814208984375
221115,-0.372344970703125,-0.7541351318359375,-0.6412200927734375
221116,-0.3904571533203125,-0.70391845703125,-0.6631622314453125
221117,-0.3904876708984375,-0.6445465087890625,-0.699981689453125
221118,-0.3893890380859375,-0.5860137939453125,-0.7229156494140625
221119,-0.3941802978515625,-0.529541015625,-0.7263336181640625
221120,-0.4033050537109375,-0.475433349609375,-0.7168731689453125
221121,-0.4245147705078125,-0.4266357421875,-0.7022247314453125
221122,-0.4793701171875,-0.3902435302734375,-0.6893463134765625
221123,-0.5534210205078125,-0.3580474853515625,-0.6833038330078125
221124,-0.607330322265625,-0.3567352294921875,-0.68511962890625
221125,-0.6624603271484375,-0.4021759033203125,-0.67010498046875
221126,-0.712005615234375,-0.4713287353515625,-0.65625
221127,-0.7313232421875,-0.5455322265625,-0.652069091796875
221128,-0.7242889404296875,-0.612579345703125,-0.6453857421875
221129,-0.6923370361328125,-0.6793060302734375,-0.624755859375
221130,-0.635345458984375,-0.754425048828125,-0.598114013671875
221131,-0.57415771484375,-0.819366455078125,-0.5966949462890625
221132,-0.5205535888671875,-0.856842041015625,-0.6348876953125
221133,-0.465850830078125,-0.8660430908203125,-0.6808319091796875
221134,-0.465850830078125,-0.8660430908203125,-0.6808319091796875
221135,-0.3343048095703125,-0.8131103515625,-0.7199859619140625
221136,-0.2835235595703125,-0.7577667236328125,-0.7085418701171875
221137,-0.259765625,-0.682830810546875,-0.6720733642578125
221138,-0.259765625,-0.682830810546875,-0.6720733642578125
221139,-0.2483062744140625,-0.5604400634765625,-0.56207275390625
221140,-0.2353515625,-0.512115478515625,-0.523681640625
221141,-0.21923828125,-0.4762115478515625,-0.5108184814453125
221142,-0.199920654296875,-0.45721435546875,-0.521881103515625
221143,-0.1768035888671875,-0.4510498046875,-0.5458221435546875
221144,-0.1435546875,-0.4600677490234375,-0.5883026123046875
221145,-0.0824737548828125,-0.49005126953125,-0.629150390625
221146,-0.010345458984375,-0.5567779541015625,-0.6277618408203125
221147,0.0283203125,-0.642974853515625,-0.5789337158203125
221148,0.034698486328125,-0.7476806640625,-0.5407867431640625
221149,0.0938720703125,-1.007644653320312,-0.6038818359375
221150,0.0938720703125,-1.007644653320312,-0.6038818359375
221151,0.1199798583984375,-1.094146728515625,-0.65289306640625
221152,0.1180419921875,-1.117279052734375,-0.6756744384765625
221153,0.0794219970703125,-1.102401733398438,-0.6848907470703125
221154,0.0283660888671875,-1.086013793945312,-0.6896514892578125
221155,0.0021209716796875,-1.091598510742188,-0.671142578125
221156,0.00927734375,-1.10986328125,-0.6343536376953125
221157,0.0287322998046875,-1.113861083984375,-0.5835418701171875
221158,0.036865234375,-1.078964233398438,-0.5025177001953125
221159,0.02471923828125,-0.9977874755859376,-0.401763916015625
221160,-0.0030364990234375,-0.9104156494140624,-0.3454742431640625
221161,-0.025726318359375,-0.8492279052734375,-0.3679656982421875
221162,-0.0222625732421875,-0.8219451904296875,-0.4430084228515625
221163,0.01739501953125,-0.827667236328125,-0.539276123046875
221164,0.0719146728515625,-0.8461151123046875,-0.6072235107421875
221165,0.0922698974609375,-0.8591461181640625,-0.6520843505859375
221166,0.06982421875,-0.8621368408203125,-0.7039642333984375
221167,0.0310821533203125,-0.8600616455078125,-0.7657470703125
221168,-0.0030059814453125,-0.8449554443359375,-0.82080078125
221169,-0.0259246826171875,-0.809173583984375,-0.866668701171875
221170,-0.0500030517578125,-0.7635650634765625,-0.900726318359375
221171,-0.0848541259765625,-0.71368408203125,-0.9146575927734376
221172,-0.1313629150390625,-0.656524658203125,-0.8897705078125
221173,-0.1970672607421875,-0.591400146484375,-0.834503173828125
221174,-0.27764892578125,-0.519195556640625,-0.7720947265625
221175,-0.3426361083984375,-0.46856689453125,-0.716064453125
221176,-0.3938751220703125,-0.4430084228515625,-0.6639862060546875
221177,-0.443878173828125,-0.4219207763671875,-0.6158599853515625
221178,-0.48486328125,-0.397064208984375,-0.58819580078125
221179,-0.514892578125,-0.375213623046875,-0.5857696533203125
221180,-0.5290374755859375,-0.3606414794921875,-0.6206207275390625
221181,-0.57073974609375,-0.381378173828125,-0.675567626953125
221182,-0.689453125,-0.459259033203125,-0.72393798828125
221183,-0.8341827392578125,-0.509796142578125,-0.739044189453125
221184,-0.9674072265625,-0.513519287109375,-0.7050018310546875
221185,-1.047576904296875,-0.4968719482421875,-0.61590576171875
221186,-1.072784423828125,-0.4741668701171875,-0.4900054931640625
221187,-1.0291748046875,-0.4485626220703125,-0.4386138916015625
221188,-0.9039764404296876,-0.4146881103515625,-0.44866943359375
221189,-0.748626708984375,-0.3758544921875,-0.415069580078125
221190,-0.5816497802734375,-0.348876953125,-0.3202667236328125
221191,-0.4294281005859375,-0.3660736083984375,-0.26531982421875
221192,-0.34735107421875,-0.4351959228515625,-0.25958251953125
221193,-0.3145294189453125,-0.56683349609375,-0.2928009033203125
221194,-0.251068115234375,-0.7463531494140625,-0.4149932861328125
221195,-0.1047821044921875,-0.93792724609375,-0.68359375
221196,-0.01348876953125,-1.155654907226562,-0.891632080078125
221197,-0.0114898681640625,-1.217376708984375,-1.00189208984375
221198,-0.022552490234375,-1.138992309570312,-1.06463623046875
221199,-0.034759521484375,-0.98187255859375,-0.8578033447265625
221200,-0.0407562255859375,-0.8537750244140625,-0.7398681640625
221201,-0.007049560546875,-0.786712646484375,-0.72900390625
221202,0.0385894775390625,-0.76348876953125,-0.6236572265625
221203,0.0394134521484375,-0.7709197998046875,-0.5184326171875
221204,0.005889892578125,-0.769439697265625,-0.4695281982421875
221205,-0.0394744873046875,-0.76708984375,-0.524383544921875
221206,-0.1184844970703125,-0.7781829833984375,-0.632537841796875
221207,-0.2239532470703125,-0.787078857421875,-0.6686248779296875
221208,-0.325286865234375,-0.779144287109375,-0.6526947021484375
221209,-0.4019927978515625,-0.7650909423828125,-0.6621856689453125
221210,-0.43658447265625,-0.7570648193359375,-0.7145538330078125
221211,-0.436004638671875,-0.7645721435546875,-0.761322021484375
221212,-0.42327880859375,-0.767242431640625,-0.7627105712890625
221213,-0.3885498046875,-0.759063720703125,-0.72216796875
221214,-0.3885498046875,-0.759063720703125,-0.72216796875
221215,-0.3014373779296875,-0.7723388671875,-0.6226959228515625
221216,-0.269561767578125,-0.79693603515625,-0.6004638671875
221217,-0.258087158203125,-0.8171539306640625,-0.587554931640625
221218,-0.2608489990234375,-0.8255157470703125,-0.5761260986328125
221219,-0.2590789794921875,-0.8122406005859375,-0.5653839111328125
221220,-0.24359130859375,-0.7761077880859375,-0.5534820556640625
221221,-0.20977783203125,-0.7273406982421875,-0.548248291015625
221222,-0.1595306396484375,-0.67156982421875,-0.56005859375
221223,-0.09765625,-0.617340087890625,-0.5828094482421875
221224,-0.0269622802734375,-0.6006317138671875,-0.6022796630859375
221225,0.04302978515625,-0.635589599609375,-0.6259307861328125
221226,0.04302978515625,-0.635589599609375,-0.6259307861328125
221227,0.132659912109375,-0.7940673828125,-0.6900177001953125
221228,0.132659912109375,-0.7940673828125,-0.6900177001953125
221229,0.0720367431640625,-0.9255828857421876,-0.6954193115234375
221230,0.0030364990234375,-0.973480224609375,-0.7175140380859375
221231,-0.0715484619140625,-0.9934844970703124,-0.748199462890625
221232,-0.1476593017578125,-0.989898681640625,-0.7686309814453125
221233,-0.291229248046875,-0.9259490966796876,-0.736083984375
221234,-0.291229248046875,-0.9259490966796876,-0.736083984375
221235,-0.348480224609375,-0.878875732421875,-0.68731689453125
221236,-0.392486572265625,-0.826629638671875,-0.643646240234375
221237,-0.4403533935546875,-0.7194976806640625,-0.6168975830078125
221238,-0.4403533935546875,-0.7194976806640625,-0.6168975830078125
221239,-0.4406585693359375,-0.6759490966796875,-0.6297454833984375
221240,-0.4354248046875,-0.6447906494140625,-0.6488800048828125
221241,-0.4108734130859375,-0.60797119140625,-0.687652587890625
221242,-0.3897552490234375,-0.5726318359375,-0.73028564453125
221243,-0.4166259765625,-0.5386199951171875,-0.74139404296875
221244,-0.4818267822265625,-0.5046844482421875,-0.7527008056640625
221245,-0.5513763427734375,-0.4901275634765625,-0.7777252197265625
221246,-0.610992431640625,-0.5059967041015625,-0.7790069580078125
221247,-0.644378662109375,-0.539398193359375,-0.755096435546875
221248,-0.643157958984375,-0.5664520263671875,-0.7102203369140625
221249,-0.6168212890625,-0.5933990478515625,-0.6538543701171875
221250,-0.583251953125,-0.6285858154296875,-0.5980224609375
221251,-0.5486602783203125,-0.66839599609375,-0.5534515380859375
221252,-0.515472412109375,-0.7106170654296875,-0.5446319580078125
221253,-0.4788055419921875,-0.751708984375,-0.5776824951171875
221254,-0.443817138671875,-0.7946014404296875,-0.6317596435546875
221255,-0.4153289794921875,-0.8389434814453125,-0.6848907470703125
221256,-0.3952484130859375,-0.8666839599609375,-0.7205810546875
221257,-0.368408203125,-0.8356781005859375,-0.7327728271484375
221258,-0.3157806396484375,-0.7493133544921875,-0.703826904296875
221259,-0.2538604736328125,-0.6658477783203125,-0.6245269775390625
221260,-0.204376220703125,-0.60687255859375,-0.5384521484375
221261,-0.1745452880859375,-0.567474365234375,-0.485748291015625
221262,-0.15838623046875,-0.54052734375,-0.4693756103515625
221263,-0.138763427734375,-0.5290679931640625,-0.4817352294921875
221264,-0.1095428466796875,-0.531890869140625,-0.5120697021484375
221265,-0.0689239501953125,-0.5404205322265625,-0.56134033203125
221266,-0.0190887451171875,-0.5502777099609375,-0.606781005859375
221267,0.0401763916015625,-0.5323638916015625,-0.6075439453125
221268,0.08966064453125,-0.5267181396484375,-0.5674896240234375
221269,0.1140289306640625,-0.5359344482421875,-0.5204925537109375
221270,0.1180877685546875,-0.5992889404296875,-0.497100830078125
221271,0.1211090087890625,-0.7024688720703125,-0.5182952880859375
221272,0.1079254150390625,-0.807647705078125,-0.556854248046875
221273,0.0685577392578125,-0.901458740234375,-0.593994140625
221274,0.0039520263671875,-0.973968505859375,-0.6167755126953125
221275,-0.0765380859375,-1.021453857421875,-0.639007568359375
221276,-0.1568756103515625,-1.049224853515625,-0.6817626953125
221277,-0.2200164794921875,-1.051513671875,-0.73681640625
221278,-0.25042724609375,-1.02777099609375,-0.7698974609375
221279,-0.245208740234375,-0.9957733154296876,-0.736572265625
221280,-0.2144622802734375,-0.9373931884765624,-0.634185791015625
221281,-0.1707763671875,-0.8628997802734375,-0.5026702880859375
221282,-0.121124267578125,-0.7894439697265625,-0.3945159912109375
221283,-0.0768585205078125,-0.733428955078125,-0.35400390625
221284,-0.0386505126953125,-0.7081451416015625,-0.3872528076171875
221285,-0.004241943359375,-0.7139434814453125,-0.46710205078125
221286,0.0343017578125,-0.7435302734375,-0.565582275390625
221287,0.073760986328125,-0.7841949462890625,-0.656494140625
221288,0.0955352783203125,-0.8157501220703125,-0.727691650390625
221289,0.0861663818359375,-0.84271240234375,-0.79681396484375
221290,0.0861663818359375,-0.84271240234375,-0.79681396484375
221291,0.02008056640625,-0.9001312255859375,-0.9017333984375
221292,-0.0167388916015625,-0.9006195068359375,-0.906005859375
221293,-0.0544281005859375,-0.87567138671875,-0.8872833251953125
221294,-0.0823974609375,-0.8314361572265625,-0.84765625
221295,-0.1090240478515625,-0.765899658203125,-0.78173828125
221296,-0.1429443359375,-0.6877593994140625,-0.6996002197265625
221297,-0.174835205078125,-0.613800048828125,-0.616424560546875
221298,-0.206329345703125,-0.5485992431640625,-0.5603179931640625
221299,-0.251373291015625,-0.4953765869140625,-0.5361480712890625
221300,-0.3028564453125,-0.45855712890625,-0.5395050048828125
221301,-0.3509063720703125,-0.440155029296875,-0.5644073486328125
221302,-0.4032440185546875,-0.4420013427734375,-0.607757568359375
221303,-0.4710540771484375,-0.456695556640625,-0.644744873046875
221304,-0.5802001953125,-0.4701385498046875,-0.6821746826171875
221305,-0.727508544921875,-0.5039520263671875,-0.697113037109375
221306,-0.8702850341796875,-0.5507659912109375,-0.6839752197265625
221307,-0.990020751953125,-0.6073455810546875,-0.6487579345703125
221308,-1.056533813476562,-0.6282958984375,-0.5814056396484375
221309,-1.058837890625,-0.6220703125,-0.5319671630859375
221310,-0.9991607666015624,-0.5943450927734375,-0.5178985595703125
221311,-0.8961944580078125,-0.5701446533203125,-0.506500244140625
221312,-0.7785491943359375,-0.5710296630859375,-0.4860076904296875
221313,-0.5594940185546875,-0.679962158203125,-0.4403076171875
221314,-0.5594940185546875,-0.679962158203125,-0.4403076171875
221315,-0.4805755615234375,-0.7571868896484375,-0.4310760498046875
221316,-0.407135009765625,-0.8132781982421875,-0.4530487060546875
221317,-0.3321533203125,-0.854034423828125,-0.4907379150390625
221318,-0.270782470703125,-0.8838348388671875,-0.525909423828125
221319,-0.2394256591796875,-0.8877716064453125,-0.5482635498046875
221320,-0.2349853515625,-0.8687896728515625,-0.5499114990234375
221321,-0.242706298828125,-0.846710205078125,-0.551788330078125
221322,-0.2459869384765625,-0.843231201171875,-0.5621490478515625
221323,-0.26666259765625,-0.8554229736328125,-0.5771484375
221324,-0.2925262451171875,-0.866485595703125,-0.6491851806640625
221325,-0.2869873046875,-0.86260986328125,-0.6584014892578125
221326,-0.2637481689453125,-0.8592376708984375,-0.597564697265625
221327,-0.2464752197265625,-0.8433685302734375,-0.5380401611328125
221328,-0.231781005859375,-0.7979888916015625,-0.492340087890625
221329,-0.231781005859375,-0.7979888916015625,-0.492340087890625
221330,-0.2332916259765625,-0.7114410400390625,-0.5078887939453125
221331,-0.2502899169921875,-0.716583251953125,-0.559234619140625
221332,-0.2578887939453125,-0.7539215087890625,-0.6304931640625
221333,-0.2548828125,-0.8021392822265625,-0.706024169921875
221334,-0.24114990234375,-0.8452606201171875,-0.755889892578125
221335,-0.2249603271484375,-0.8656158447265625,-0.75787353515625
221336,-0.2182769775390625,-0.859649658203125,-0.707977294921875
221337,-0.2182464599609375,-0.835845947265625,-0.63531494140625
221338,-0.2244720458984375,-0.808258056640625,-0.57659912109375
221339,-0.2242889404296875,-0.785491943359375,-0.54180908203125
221340,-0.2061004638671875,-0.7615203857421875,-0.5275421142578125
221341,-0.1732025146484375,-0.72943115234375,-0.5416259765625
221342,-0.1200408935546875,-0.6915740966796875,-0.559600830078125
221343,-0.0420684814453125,-0.6420440673828125,-0.5626983642578125
221344,0.0279541015625,-0.6168365478515625,-0.5538330078125
221345,0.0835723876953125,-0.6153564453125,-0.5619354248046875
221346,0.13873291015625,-0.6584930419921875,-0.5865936279296875
221347,0.2077484130859375,-0.732940673828125,-0.6431732177734375
221348,0.2703704833984375,-0.8207244873046875,-0.705963134765625
221349,0.28729248046875,-0.882415771484375,-0.737762451171875
221350,0.233367919921875,-0.9133758544921876,-0.7537078857421875
221351,0.139801025390625,-0.9218597412109376,-0.776641845703125
221352,0.0309906005859375,-0.91217041015625,-0.7889556884765625
221353,-0.0818023681640625,-0.8996429443359375,-0.796966552734375
221354,-0.1857147216796875,-0.8955841064453125,-0.807952880859375
221355,-0.286224365234375,-0.89215087890625,-0.7935943603515625
221356,-0.39227294921875,-0.88165283203125,-0.7554168701171875
221357,-0.4879913330078125,-0.85406494140625,-0.7086181640625
221358,-0.558502197265625,-0.812225341796875,-0.6837005615234375
221359,-0.6127166748046875,-0.7681884765625,-0.6808624267578125
221360,-0.6465301513671875,-0.7161102294921875,-0.6915130615234375
221361,-0.65380859375,-0.66619873046875,-0.711883544921875
221362,-0.6374664306640625,-0.62200927734375,-0.72698974609375
221363,-0.6280059814453125,-0.5926666259765625,-0.7285003662109375
221364,-0.6370086669921875,-0.5455169677734375,-0.7153167724609375
221365,-0.667510986328125,-0.5041046142578125,-0.696441650390625
221366,-0.722991943359375,-0.47698974609375,-0.65777587890625
221367,-0.79241943359375,-0.469085693359375,-0.615570068359375
221368,-0.8498382568359375,-0.47503662109375,-0.59063720703125
221369,-0.8697357177734375,-0.4923553466796875,-0.57122802734375
221370,-0.852264404296875,-0.5302276611328125,-0.558929443359375
221371,-0.805633544921875,-0.58184814453125,-0.5457000732421875
221372,-0.7371063232421875,-0.6422119140625,-0.5394439697265625
221373,-0.65765380859375,-0.701629638671875,-0.549468994140625
221374,-0.572906494140625,-0.7498779296875,-0.55322265625
221375,-0.4745330810546875,-0.785186767578125,-0.5795440673828125
221376,-0.3788604736328125,-0.8135833740234375,-0.6123504638671875
221377,-0.30462646484375,-0.81011962890625,-0.6393280029296875
221378,-0.235198974609375,-0.7791900634765625,-0.697662353515625
221379,-0.1698760986328125,-0.726654052734375,-0.715576171875
221380,-0.1698760986328125,-0.726654052734375,-0.715576171875
221381,-0.08758544921875,-0.5969390869140625,-0.642486572265625
221382,-0.06011962890625,-0.5373382568359375,-0.5700225830078125
221383,-0.031036376953125,-0.473663330078125,-0.5162506103515625
221384,-0.0009002685546875,-0.4246063232421875,-0.47344970703125
221385,0.0337066650390625,-0.40380859375,-0.4470672607421875
221386,0.0650634765625,-0.419586181640625,-0.4489593505859375
221387,0.084136962890625,-0.4540557861328125,-0.4705657958984375
221388,0.087982177734375,-0.5004119873046875,-0.5140533447265625
221389,0.079010009765625,-0.5442962646484375,-0.579345703125
221390,0.058685302734375,-0.5868682861328125,-0.6466064453125
221391,0.0285797119140625,-0.6417388916015625,-0.687744140625
221392,0.0285797119140625,-0.6417388916015625,-0.687744140625
221393,-0.0564422607421875,-0.7855224609375,-0.676025390625
221394,-0.133514404296875,-0.861480712890625,-0.6717987060546875
221395,-0.2335662841796875,-0.9354705810546876,-0.6947479248046875
221396,-0.33587646484375,-0.998870849609375,-0.739837646484375
221397,-0.41888427734375,-1.042068481445312,-0.7738800048828125
221398,-0.45806884765625,-1.060012817382812,-0.7786407470703125
221399,-0.4494171142578125,-1.05963134765625,-0.7488861083984375
221400,-0.4028472900390625,-1.049789428710938,-0.6858673095703125
221401,-0.328765869140625,-1.027008056640625,-0.615875244140625
221402,-0.2217559814453125,-0.98541259765625,-0.5596160888671875
221403,-0.097808837890625,-0.9344024658203124,-0.5080108642578125
221404,-0.097808837890625,-0.9344024658203124,-0.5080108642578125
221405,0.0792694091796875,-0.8513946533203125,-0.4227447509765625
221406,0.101318359375,-0.84210205078125,-0.4496612548828125
221407,0.0957489013671875,-0.8511199951171875,-0.5173797607421875
221408,0.0845947265625,-0.8678131103515625,-0.6033935546875
221409,0.0778045654296875,-0.882232666015625,-0.66552734375
221410,0.0665740966796875,-0.8872528076171875,-0.692474365234375
221411,0.0442962646484375,-0.888397216796875,-0.704132080078125
221412,0.0156402587890625,-0.890289306640625,-0.72900390625
221413,-0.0035400390625,-0.8891448974609375,-0.75262451171875
221414,-0.004302978515625,-0.884735107421875,-0.7623748779296875
221415,0.0061187744140625,-0.88885498046875,-0.75396728515625
221416,0.0070953369140625,-0.8824005126953125,-0.734466552734375
221417,-0.020721435546875,-0.8583526611328125,-0.7123870849609375
221418,-0.061492919921875,-0.8236541748046875,-0.681427001953125
221419,-0.1048736572265625,-0.7816009521484375,-0.6474151611328125
221420,-0.141998291015625,-0.7371673583984375,-0.6226654052734375
221421,-0.1636505126953125,-0.6844940185546875,-0.6001739501953125
221422,-0.1716156005859375,-0.6229705810546875,-0.569610595703125
221423,-0.185028076171875,-0.555419921875,-0.53179931640625
221424,-0.2156219482421875,-0.4970855712890625,-0.5033721923828125
221425,-0.2577667236328125,-0.45025634765625,-0.50201416015625
221426,-0.3274078369140625,-0.423614501953125,-0.5261077880859375
221427,-0.442138671875,-0.422943115234375,-0.5695037841796875
221428,-0.7737884521484375,-0.405303955078125,-0.6277313232421875
221429,-0.7737884521484375,-0.405303955078125,-0.6277313232421875
221430,-0.9347686767578124,-0.3958740234375,-0.6382904052734375
221431,-1.04925537109375,-0.383026123046875,-0.6214141845703125
221432,-1.111068725585938,-0.350341796875,-0.5797119140625
221433,-1.113311767578125,-0.3116455078125,-0.5471954345703125
221434,-1.06390380859375,-0.2951202392578125,-0.5196685791015625
221435,-0.9851837158203124,-0.3137054443359375,-0.4678497314453125
221436,-0.8950347900390625,-0.36676025390625,-0.4085845947265625
221437,-0.798309326171875,-0.4578857421875,-0.350921630859375
221438,-0.70208740234375,-0.569061279296875,-0.3218536376953125
221439,-0.6057891845703125,-0.65985107421875,-0.3390960693359375
221440,-0.50274658203125,-0.707275390625,-0.3975372314453125
221441,-0.4069671630859375,-0.7341461181640625,-0.4673004150390625
221442,-0.331756591796875,-0.75750732421875,-0.525390625
221443,-0.276763916015625,-0.78448486328125,-0.566650390625
221444,-0.2367095947265625,-0.8108062744140625,-0.6067047119140625
221445,-0.17645263671875,-0.8388214111328125,-0.710205078125
221446,-0.1395111083984375,-0.9248504638671876,-0.815338134765625
221447,-0.147064208984375,-1.021286010742188,-0.9533843994140624
221448,-0.1246795654296875,-1.097015380859375,-1.190093994140625
221449,-0.015228271484375,-1.098068237304688,-0.9337158203125
221450,0.0609893798828125,-1.099014282226562,-0.632720947265625
221451,0.0534210205078125,-1.035324096679688,-0.5015106201171875
221452,0.019500732421875,-0.9182586669921876,-0.43829345703125
221453,-0.0418701171875,-0.8585052490234375,-0.521484375
221454,-0.11883544921875,-0.8578338623046875,-0.65496826171875
221455,-0.150665283203125,-0.8675384521484375,-0.7349395751953125
221456,-0.1411590576171875,-0.8667755126953125,-0.746368408203125
221457,-0.1371612548828125,-0.8463897705078125,-0.712921142578125
221458,-0.1517486572265625,-0.82080078125,-0.6791229248046875
221459,-0.18304443359375,-0.807708740234375,-0.6647491455078125
221460,-0.2203826904296875,-0.8004302978515625,-0.6628265380859375
221461,-0.249755859375,-0.790679931640625,-0.644287109375
221462,-0.2636871337890625,-0.7672576904296875,-0.5943450927734375
221463,-0.2598114013671875,-0.7203826904296875,-0.5367889404296875
221464,-0.238250732421875,-0.656402587890625,-0.493499755859375
221465,-0.2025146484375,-0.59649658203125,-0.4805450439453125
221466,-0.1489715576171875,-0.5582733154296875,-0.5099029541015625
221467,-0.075347900390625,-0.5623779296875,-0.5708160400390625
221468,0.0012664794921875,-0.6173553466796875,-0.6318206787109375
221469,0.0562591552734375,-0.714935302734375,-0.6845550537109375
221470,0.0873870849609375,-0.812957763671875,-0.7310791015625
221471,0.095123291015625,-0.8831634521484375,-0.7628021240234375
221472,0.07952880859375,-0.9243011474609376,-0.771484375
221473,0.0434417724609375,-0.929046630859375,-0.77044677734375
221474,-0.0111846923828125,-0.8968505859375,-0.7687530517578125
221475,-0.07940673828125,-0.8473968505859375,-0.7551422119140625
221476,-0.1538543701171875,-0.8019256591796875,-0.7227935791015625
221477,-0.2193603515625,-0.7792205810546875,-0.6919708251953125
221478,-0.2663421630859375,-0.760894775390625,-0.6644439697265625
221479,-0.296905517578125,-0.7186737060546875,-0.6474761962890625
221480,-0.376708984375,-0.6193695068359375,-0.640777587890625
221481,-0.376708984375,-0.6193695068359375,-0.640777587890625
221482,-0.4571990966796875,-0.595947265625,-0.6612396240234375
221483,-0.550506591796875,-0.59893798828125,-0.7230987548828125
221484,-0.610382080078125,-0.5926971435546875,-0.7939605712890625
221485,-0.622894287109375,-0.576446533203125,-0.8216094970703125
221486,-0.6260223388671875,-0.5434417724609375,-0.802490234375
221487,-0.6199188232421875,-0.48968505859375,-0.7482452392578125
221488,-0.5915985107421875,-0.4347076416015625,-0.7068023681640625
221489,-0.5540771484375,-0.3982391357421875,-0.7254486083984375
221490,-0.5389404296875,-0.376983642578125,-0.765167236328125
221491,-0.5306396484375,-0.38177490234375,-0.757049560546875
221492,-0.554931640625,-0.4563446044921875,-0.715545654296875
221493,-0.554931640625,-0.4563446044921875,-0.715545654296875
221494,-0.554351806640625,-0.520263671875,-0.68426513671875
221495,-0.55975341796875,-0.6032257080078125,-0.652191162109375
221496,-0.56134033203125,-0.6883544921875,-0.6287078857421875
221497,-0.538238525390625,-0.7563323974609375,-0.6252288818359375
221498,-0.486907958984375,-0.783538818359375,-0.6474609375
221499,-0.4125518798828125,-0.7549285888671875,-0.683074951171875
221500,-0.3423919677734375,-0.6961822509765625,-0.71661376953125
221501,-0.299591064453125,-0.6674346923828125,-0.755615234375
221502,-0.26788330078125,-0.653900146484375,-0.7863006591796875
221503,-0.22601318359375,-0.62744140625,-0.8036651611328125
221504,-0.08123779296875,-0.553985595703125,-0.7546844482421875
221505,-0.08123779296875,-0.553985595703125,-0.7546844482421875
221506,-0.0154571533203125,-0.5357513427734375,-0.6971588134765625
221507,0.0279693603515625,-0.5238037109375,-0.6515045166015625
221508,0.03851318359375,-0.508209228515625,-0.612762451171875
221509,0.0256805419921875,-0.5037841796875,-0.592926025390625
221510,-0.0028076171875,-0.51910400390625,-0.5825042724609375
221511,-0.0353851318359375,-0.565521240234375,-0.58197021484375
221512,-0.06207275390625,-0.629608154296875,-0.5769500732421875
221513,-0.0897064208984375,-0.7035369873046875,-0.5634307861328125
221514,-0.1175384521484375,-0.7793121337890625,-0.5471649169921875
221515,-0.1455841064453125,-0.84716796875,-0.5499114990234375
221516,-0.172332763671875,-0.892730712890625,-0.57037353515625
221517,-0.20574951171875,-0.9221649169921876,-0.602203369140625
221518,-0.256805419921875,-0.945556640625,-0.6323394775390625
221519,-0.313140869140625,-0.96929931640625,-0.65045166015625
221520,-0.3516082763671875,-1.002792358398438,-0.6511688232421875
221521,-0.36590576171875,-1.03778076171875,-0.6383514404296875
221522,-0.3476715087890625,-1.057510375976562,-0.6072540283203125
221523,-0.28778076171875,-1.0587158203125,-0.550689697265625
221524,-0.28778076171875,-1.0587158203125,-0.550689697265625
221525,-0.092315673828125,-1.0052490234375,-0.391265869140625
221526,-0.00848388671875,-0.9778289794921876,-0.3458251953125
221527,0.042816162109375,-0.972503662109375,-0.3669891357421875
221528,0.06903076171875,-0.983184814453125,-0.4392547607421875
221529,0.09521484375,-1.0078125,-0.5249481201171875
221530,0.1304779052734375,-1.031478881835938,-0.593353271484375
221531,0.15960693359375,-1.0335693359375,-0.63885498046875
221532,0.1732635498046875,-1.018234252929688,-0.6771240234375
221533,0.178192138671875,-0.993621826171875,-0.700408935546875
221534,0.178863525390625,-0.95928955078125,-0.7032928466796875
221535,0.1721343994140625,-0.912384033203125,-0.695037841796875
221536,0.1531219482421875,-0.8647613525390625,-0.683746337890625
221537,0.111419677734375,-0.8155364990234375,-0.6787872314453125
221538,0.04815673828125,-0.7698211669921875,-0.6759796142578125
221539,-0.02423095703125,-0.7308807373046875,-0.666046142578125
221540,-0.099273681640625,-0.7020111083984375,-0.654510498046875
221541,-0.1690521240234375,-0.67919921875,-0.6425018310546875
221542,-0.226470947265625,-0.6488800048828125,-0.6249542236328125
221543,-0.2665863037109375,-0.601837158203125,-0.599395751953125
221544,-0.3123931884765625,-0.5404052734375,-0.5716400146484375
221545,-0.373779296875,-0.4833221435546875,-0.55670166015625
221546,-0.4617919921875,-0.4246673583984375,-0.553985595703125
221547,-0.598297119140625,-0.36163330078125,-0.5688934326171875
221548,-0.730743408203125,-0.2958526611328125,-0.6254119873046875
221549,-0.8973541259765625,-0.284027099609375,-0.66217041015625
221550,-1.07293701171875,-0.2663116455078125,-0.6560211181640625
221551,-1.20196533203125,-0.255340576171875,-0.5866851806640625
221552,-1.256210327148438,-0.255584716796875,-0.4723052978515625
221553,-1.239089965820312,-0.25469970703125,-0.40264892578125
221554,-1.1627197265625,-0.2763519287109375,-0.3805084228515625
221555,-1.05157470703125,-0.3257904052734375,-0.3505706787109375
221556,-0.9231414794921876,-0.3895416259765625,-0.294036865234375
221557,-0.8013153076171875,-0.4666290283203125,-0.2494354248046875
221558,-0.711151123046875,-0.5626068115234375,-0.2611236572265625
221559,-0.6404571533203125,-0.6617279052734375,-0.2996673583984375
221560,-0.5699310302734375,-0.73974609375,-0.373077392578125
221561,-0.4882659912109375,-0.8002166748046875,-0.471466064453125
221562,-0.4071197509765625,-0.8448944091796875,-0.5712127685546875
221563,-0.3455657958984375,-0.8729248046875,-0.64398193359375
221564,-0.3126068115234375,-0.8930816650390625,-0.667327880859375
221565,-0.3148193359375,-0.9174957275390624,-0.6369476318359375
221566,-0.327880859375,-0.9402313232421876,-0.6736297607421875
221567,-0.3318634033203125,-0.986297607421875,-0.7285308837890625
221568,-0.339813232421875,-1.03472900390625,-0.793182373046875
221569,-0.2980804443359375,-1.045761108398438,-0.947998046875
221570,-0.16925048828125,-1.007461547851562,-0.7147369384765625
221571,-0.085052490234375,-0.9560699462890624,-0.47381591796875
221572,-0.085052490234375,-0.9560699462890624,-0.47381591796875
221573,-0.0271148681640625,-0.7724456787109375,-0.3159332275390625
221574,-0.0149383544921875,-0.74615478515625,-0.397491455078125
221575,-0.00726318359375,-0.787139892578125,-0.5340423583984375
221576,0.0078582763671875,-0.843292236328125,-0.669525146484375
221577,0.031982421875,-0.8862457275390625,-0.7788848876953125
221578,0.047698974609375,-0.90087890625,-0.803741455078125
221579,0.05303955078125,-0.8788299560546875,-0.748992919921875
221580,0.0608673095703125,-0.8257293701171875,-0.6577911376953125
221581,0.07489013671875,-0.765380859375,-0.5853271484375
221582,0.094329833984375,-0.7258148193359375,-0.554718017578125
221583,0.1175689697265625,-0.709228515625,-0.5441131591796875
221584,0.1175689697265625,-0.709228515625,-0.5441131591796875
221585,0.150482177734375,-0.754730224609375,-0.597320556640625
221586,0.1894989013671875,-0.822723388671875,-0.6277618408203125
221587,0.2476348876953125,-0.8988037109375,-0.64349365234375
221588,0.29931640625,-0.9615631103515624,-0.6552581787109375
221589,0.311126708984375,-1.008468627929688,-0.6625518798828125
221590,0.2723846435546875,-1.039306640625,-0.6929931640625
221591,0.1958465576171875,-1.046524047851562,-0.7244415283203125
221592,0.1058807373046875,-1.027267456054688,-0.7350616455078125
221593,0.0154266357421875,-1.000213623046875,-0.7338714599609375
221594,-0.0782928466796875,-0.978363037109375,-0.7165985107421875
221595,-0.1765594482421875,-0.9627532958984376,-0.6851959228515625
221596,-0.280975341796875,-0.9476318359375,-0.6593780517578125
221597,-0.3771820068359375,-0.9384918212890624,-0.665771484375
221598,-0.471466064453125,-0.92779541015625,-0.698516845703125
221599,-0.5574188232421875,-0.89202880859375,-0.74700927734375
221600,-0.6190032958984375,-0.8370513916015625,-0.7911224365234375
221601,-0.672943115234375,-0.766571044921875,-0.8128814697265625
221602,-0.7008819580078125,-0.6833038330078125,-0.809844970703125
221603,-0.6929779052734375,-0.5921783447265625,-0.790863037109375
221604,-0.6717681884765625,-0.5087890625,-0.7501068115234375
221605,-0.67877197265625,-0.410797119140625,-0.699554443359375
221606,-0.721588134765625,-0.3221282958984375,-0.65704345703125
221607,-0.80303955078125,-0.27215576171875,-0.5775604248046875
221608,-0.80303955078125,-0.27215576171875,-0.5775604248046875
221609,-0.9121246337890624,-0.264556884765625,-0.49005126953125
221610,-1.060409545898438,-0.314666748046875,-0.39093017578125
221611,-1.073486328125,-0.36614990234375,-0.374481201171875
221612,-1.04205322265625,-0.4441375732421875,-0.366790771484375
221613,-0.9764556884765624,-0.5367889404296875,-0.377227783203125
221614,-0.9123687744140624,-0.622772216796875,-0.4113922119140625
221615,-0.8482208251953125,-0.683837890625,-0.4601287841796875
221616,-0.7642822265625,-0.7293701171875,-0.52301025390625
221617,-0.6564178466796875,-0.760528564453125,-0.58984375
221618,-0.524169921875,-0.77325439453125,-0.65472412109375
221619,-0.3490142822265625,-0.7499237060546875,-0.7573089599609375
221620,-0.1862030029296875,-0.717987060546875,-0.8362884521484375
221621,-0.0902099609375,-0.6943206787109375,-0.8716278076171875
221622,-0.008880615234375,-0.663848876953125,-1.024658203125
221623,0.095123291015625,-0.6005096435546875,-0.874664306640625
221624,0.1992950439453125,-0.5532684326171875,-0.4832305908203125
221625,0.1992950439453125,-0.5532684326171875,-0.4832305908203125
221626,0.218963623046875,-0.508453369140625,-0.451019287109375
221627,0.242340087890625,-0.4925384521484375,-0.4840087890625
221628,0.253692626953125,-0.5401763916015625,-0.525146484375
221629,0.2695159912109375,-0.6284942626953125,-0.5209503173828125
221630,0.2934417724609375,-0.708984375,-0.50921630859375
221631,0.312896728515625,-0.7702789306640625,-0.5006866455078125
221632,0.3052520751953125,-0.82403564453125,-0.4900665283203125
221633,0.2627105712890625,-0.856689453125,-0.499267578125
221634,0.20123291015625,-0.8768768310546875,-0.54522705078125
221635,0.11590576171875,-0.9025421142578124,-0.5913543701171875
221636,0.0069580078125,-0.942962646484375,-0.6249542236328125
221637,-0.0976715087890625,-0.9883270263671876,-0.6654815673828125
221638,-0.1855316162109375,-1.030288696289062,-0.7028045654296875
221639,-0.2487945556640625,-1.064605712890625,-0.7086944580078125
221640,-0.2688446044921875,-1.083572387695312,-0.6719207763671875
221641,-0.242523193359375,-1.057510375976562,-0.6100311279296875
221642,-0.19110107421875,-0.9970245361328124,-0.52362060546875
221643,-0.14849853515625,-0.92266845703125,-0.4386138916015625
221644,-0.1250152587890625,-0.8633270263671875,-0.4295501708984375
221645,-0.1103515625,-0.8245849609375,-0.5156097412109375
221646,-0.07049560546875,-0.8072357177734375,-0.6286468505859375
221647,0.005401611328125,-0.8061676025390625,-0.7104644775390625
221648,0.0853271484375,-0.8056640625,-0.7442779541015625
221649,0.131561279296875,-0.7908172607421875,-0.763946533203125
221650,0.1439666748046875,-0.7750244140625,-0.791473388671875
221651,0.1503753662109375,-0.7799072265625,-0.8209228515625
221652,0.155029296875,-0.797088623046875,-0.837615966796875
221653,0.1489410400390625,-0.815582275390625,-0.8227691650390625
221654,0.1100006103515625,-0.8251953125,-0.7839508056640625
221655,0.028289794921875,-0.8094024658203125,-0.755645751953125
221656,-0.069915771484375,-0.786865234375,-0.735076904296875
221657,-0.159149169921875,-0.7708587646484375,-0.7036285400390625
221658,-0.2284393310546875,-0.7503204345703125,-0.6624298095703125
221659,-0.27398681640625,-0.7326202392578125,-0.6230621337890625
221660,-0.302520751953125,-0.6956634521484375,-0.58319091796875
221661,-0.31634521484375,-0.6370697021484375,-0.5542449951171875
221662,-0.3267669677734375,-0.5867462158203125,-0.5440521240234375
221663,-0.3583221435546875,-0.5474853515625,-0.56182861328125
221664,-0.3583221435546875,-0.5474853515625,-0.56182861328125
221665,-0.5242767333984375,-0.477874755859375,-0.6256256103515625
221666,-0.639892578125,-0.477081298828125,-0.6642913818359375
221667,-0.763641357421875,-0.4894561767578125,-0.6699676513671875
221668,-0.8748779296875,-0.4800567626953125,-0.66912841796875
221669,-0.9389801025390624,-0.4507293701171875,-0.64959716796875
221670,-0.9539947509765624,-0.3945159912109375,-0.60308837890625
221671,-0.9384307861328124,-0.34088134765625,-0.5564422607421875
221672,-0.8534393310546875,-0.34210205078125,-0.443145751953125
221673,-0.8534393310546875,-0.34210205078125,-0.443145751953125
221674,-0.784515380859375,-0.4262237548828125,-0.3734283447265625
221675,-0.707244873046875,-0.5469970703125,-0.3193817138671875
221676,-0.63031005859375,-0.6746673583984375,-0.3012847900390625
221677,-0.5474395751953125,-0.777679443359375,-0.321624755859375
221678,-0.4671478271484375,-0.8396453857421875,-0.36651611328125
221679,-0.4125213623046875,-0.86773681640625,-0.4246063232421875
221680,-0.3846588134765625,-0.8683929443359375,-0.4723968505859375
221681,-0.376708984375,-0.85992431640625,-0.50347900390625
221682,-0.3857269287109375,-0.8616790771484375,-0.535736083984375
221683,-0.4097747802734375,-0.8718719482421875,-0.5697174072265625
221684,-0.41290283203125,-0.8885040283203125,-0.6563262939453125
221685,-0.41290283203125,-0.8885040283203125,-0.6563262939453125
221686,-0.4026336669921875,-0.91455078125,-0.6585845947265625
221687,-0.3836669921875,-0.9247589111328124,-0.7052001953125
221688,-0.319976806640625,-0.9017791748046876,-0.6754608154296875
221689,-0.2487030029296875,-0.876861572265625,-0.5583343505859375
221690,-0.21075439453125,-0.8599700927734375,-0.5077667236328125
221691,-0.1920623779296875,-0.848846435546875,-0.544708251953125
221692,-0.1920623779296875,-0.848846435546875,-0.544708251953125
221693,-0.16876220703125,-0.8519287109375,-0.6436309814453125
221694,-0.04693603515625,-0.9163665771484376,-0.8531951904296875
221695,0.058013916015625,-0.9376068115234376,-0.8560791015625
221696,0.058013916015625,-0.9376068115234376,-0.8560791015625
221697,0.1728363037109375,-0.9202728271484376,-0.78424072265625
221698,0.3663177490234375,-0.8179931640625,-0.58282470703125
221699,0.41168212890625,-0.781982421875,-0.5029144287109375
221700,0.41168212890625,-0.781982421875,-0.5029144287109375
221701,0.4290008544921875,-0.759368896484375,-0.4640350341796875
221702,0.4052276611328125,-0.699432373046875,-0.5030670166015625
221703,0.376556396484375,-0.651763916015625,-0.531829833984375
221704,0.376556396484375,-0.651763916015625,-0.531829833984375
221705,0.3258209228515625,-0.62945556640625,-0.623291015625
221706,0.294342041015625,-0.6858673095703125,-0.6402587890625
221707,0.2730865478515625,-0.7448272705078125,-0.64654541015625
221708,0.23822021484375,-0.79962158203125,-0.649871826171875
221709,0.23822021484375,-0.79962158203125,-0.649871826171875
221710,0.062530517578125,-0.8756103515625,-0.6927032470703125
221711,-0.06884765625,-0.887939453125,-0.7268524169921875
221712,-0.06884765625,-0.887939453125,-0.7268524169921875
221713,-0.327178955078125,-0.8930816650390625,-0.76226806640625
221714,-0.42877197265625,-0.8914947509765625,-0.7808380126953125
221715,-0.5093841552734375,-0.878082275390625,-0.7882537841796875
221716,-0.5633544921875,-0.83758544921875,-0.7890625
221717,-0.5997161865234375,-0.787078857421875,-0.7830963134765625
221718,-0.6309661865234375,-0.7375335693359375,-0.7948455810546875
221719,-0.6615447998046875,-0.6775054931640625,-0.8026123046875
221720,-0.673248291015625,-0.65478515625,-0.8163299560546875
221721,-0.6800079345703125,-0.67108154296875,-0.817840576171875
221722,-0.693878173828125,-0.6590118408203125,-0.78680419921875
221723,-0.70159912109375,-0.613739013671875,-0.7541961669921875
221724,-0.70159912109375,-0.613739013671875,-0.7541961669921875
221725,-0.6879119873046875,-0.471282958984375,-0.6109771728515625
221726,-0.7038421630859375,-0.4107208251953125,-0.55548095703125
221727,-0.7360382080078125,-0.378570556640625,-0.4930877685546875
221728,-0.7360382080078125,-0.378570556640625,-0.4930877685546875
221729,-0.81640625,-0.4330291748046875,-0.4502105712890625
221730,-0.8271942138671875,-0.4951629638671875,-0.4679718017578125
221731,-0.8086395263671875,-0.572418212890625,-0.52337646484375
221732,-0.7688140869140625,-0.657135009765625,-0.5896453857421875
221733,-0.716705322265625,-0.741119384765625,-0.6380462646484375
221734,-0.654815673828125,-0.813720703125,-0.6550750732421875
221735,-0.5760040283203125,-0.853271484375,-0.6627044677734375
221736,-0.5760040283203125,-0.853271484375,-0.6627044677734375
221737,-0.3470916748046875,-0.8487701416015625,-0.703521728515625
221738,-0.2519683837890625,-0.8232574462890625,-0.7367095947265625
221739,-0.131866455078125,-0.7635040283203125,-0.780548095703125
221740,-0.0202484130859375,-0.686981201171875,-0.63922119140625
221741,0.0344390869140625,-0.6104888916015625,-0.4893646240234375
221742,0.0478057861328125,-0.5324554443359375,-0.41363525390625
221743,0.0317535400390625,-0.471527099609375,-0.4070587158203125
221744,0.0317535400390625,-0.471527099609375,-0.4070587158203125
221745,-0.021820068359375,-0.44537353515625,-0.534454345703125
221746,-0.0380706787109375,-0.4828643798828125,-0.609405517578125
221747,-0.0477752685546875,-0.5499420166015625,-0.657806396484375
221748,-0.0501861572265625,-0.62652587890625,-0.6769866943359375
221749,-0.0367584228515625,-0.7017974853515625,-0.67193603515625
221750,-0.001739501953125,-0.7806243896484375,-0.6468505859375
221751,0.0381622314453125,-0.85577392578125,-0.614837646484375
221752,0.0381622314453125,-0.85577392578125,-0.614837646484375
221753,0.0760498046875,-0.924591064453125,-0.6015472412109375
221754,0.100799560546875,-1.050216674804688,-0.625091552734375
221755,0.0594635009765625,-1.093856811523438,-0.6453857421875
221756,0.0594635009765625,-1.093856811523438,-0.6453857421875
221757,-0.0015106201171875,-1.107620239257812,-0.6639862060546875
221758,-0.1252593994140625,-1.091415405273438,-0.725738525390625
221759,-0.176788330078125,-1.090118408203125,-0.74774169921875
221760,-0.176788330078125,-1.090118408203125,-0.74774169921875
221761,-0.1923675537109375,-1.069839477539062,-0.65716552734375
221762,-0.1614227294921875,-1.016036987304688,-0.5532989501953125
221763,-0.1174468994140625,-0.9329376220703124,-0.455108642578125
221764,-0.078460693359375,-0.85040283203125,-0.41156005859375
221765,-0.078460693359375,-0.85040283203125,-0.41156005859375
221766,-0.0305328369140625,-0.780181884765625,-0.526611328125
221767,0.0050506591796875,-0.8008270263671875,-0.6055908203125
221768,0.0050506591796875,-0.8008270263671875,-0.6055908203125
221769,0.09918212890625,-0.84307861328125,-0.648468017578125
221770,0.1261138916015625,-0.830841064453125,-0.63031005859375
221771,0.135772705078125,-0.8052825927734375,-0.632080078125
221772,0.135772705078125,-0.8052825927734375,-0.632080078125
221773,0.132904052734375,-0.7900848388671875,-0.662994384765625
221774,0.1331329345703125,-0.8031768798828125,-0.7101593017578125
221775,0.1435089111328125,-0.809539794921875,-0.6993865966796875
221776,0.1435089111328125,-0.809539794921875,-0.6993865966796875
221777,0.103363037109375,-0.7952117919921875,-0.641937255859375
221778,0.0513916015625,-0.76202392578125,-0.616363525390625
221779,0.00018310546875,-0.72186279296875,-0.596343994140625
221780,0.00018310546875,-0.72186279296875,-0.596343994140625
221781,-0.1023712158203125,-0.6157073974609375,-0.569549560546875
221782,-0.1647491455078125,-0.5659942626953125,-0.554168701171875
221783,-0.2295074462890625,-0.5120391845703125,-0.52978515625
221784,-0.2295074462890625,-0.5120391845703125,-0.52978515625
221785,-0.2926483154296875,-0.475921630859375,-0.532562255859375
221786,-0.420440673828125,-0.46563720703125,-0.59783935546875
221787,-0.5281982421875,-0.463226318359375,-0.604034423828125
221788,-0.5281982421875,-0.463226318359375,-0.604034423828125
221789,-0.6519317626953125,-0.44293212890625,-0.6109619140625
221790,-0.8945770263671875,-0.452972412109375,-0.5350494384765625
221791,-0.9932861328125,-0.4627838134765625,-0.46551513671875
221792,-1.058364868164062,-0.4746246337890625,-0.43695068359375
221793,-1.066024780273438,-0.4788970947265625,-0.41436767578125
221794,-1.047897338867188,-0.504241943359375,-0.4013824462890625
221795,-0.9809112548828124,-0.549835205078125,-0.3909912109375
221796,-0.8822021484375,-0.6232147216796875,-0.348846435546875
221797,-0.784881591796875,-0.7066802978515625,-0.3153076171875
221798,-0.6868438720703125,-0.771331787109375,-0.317138671875
221799,-0.58343505859375,-0.8044586181640625,-0.3478546142578125
221800,-0.4244384765625,-0.8297119140625,-0.452972412109375
221801,-0.4244384765625,-0.8297119140625,-0.452972412109375
221802,-0.37255859375,-0.844970703125,-0.5002899169921875
221803,-0.3494415283203125,-0.8664703369140625,-0.5295562744140625
221804,-0.35162353515625,-0.8924713134765625,-0.54559326171875
221805,-0.370452880859375,-0.9205780029296876,-0.574188232421875
221806,-0.3824310302734375,-0.9497833251953124,-0.6106109619140625
221807,-0.362213134765625,-0.970550537109375,-0.6702728271484375
221808,-0.238800048828125,-0.9983673095703124,-0.8195343017578125
221809,-0.238800048828125,-0.9983673095703124,-0.8195343017578125
221810,-0.18121337890625,-0.9708404541015624,-0.9136505126953124
221811,-0.0684051513671875,-0.904052734375,-0.73065185546875
221812,0.058868408203125,-0.820953369140625,-0.4653778076171875
221813,0.058868408203125,-0.820953369140625,-0.4653778076171875
221814,0.087738037109375,-0.7867584228515625,-0.459442138671875
221815,0.0847930908203125,-0.7858734130859375,-0.5258026123046875
221816,0.0847930908203125,-0.7858734130859375,-0.5258026123046875
221817,0.033782958984375,-0.8795166015625,-0.6846160888671875
221818,0.0064544677734375,-0.920684814453125,-0.719146728515625
221819,-0.031585693359375,-0.9329833984375,-0.723602294921875
221820,-0.0766143798828125,-0.914093017578125,-0.699676513671875
221821,-0.0766143798828125,-0.914093017578125,-0.699676513671875
221822,-0.12396240234375,-0.87548828125,-0.6100311279296875
221823,-0.10791015625,-0.8733673095703125,-0.5710906982421875
221824,-0.06744384765625,-0.855621337890625,-0.5415496826171875
221825,-0.06744384765625,-0.855621337890625,-0.5415496826171875
221826,0.0306549072265625,-0.7948760986328125,-0.5235748291015625
221827,0.0876922607421875,-0.7928466796875,-0.548095703125
221828,0.14642333984375,-0.8177032470703125,-0.592498779296875
221829,0.20849609375,-0.8665771484375,-0.632965087890625
221830,0.27081298828125,-0.915802001953125,-0.6596832275390625
221831,0.3150177001953125,-0.9537811279296876,-0.6538848876953125
221832,0.3150177001953125,-0.9537811279296876,-0.6538848876953125
221833,0.25762939453125,-0.9909515380859376,-0.603179931640625
221834,0.1545257568359375,-0.9817352294921876,-0.598907470703125
221835,0.045074462890625,-0.9615631103515624,-0.6102142333984375
221836,-0.1363677978515625,-0.9466094970703124,-0.6590423583984375
221837,-0.1363677978515625,-0.9466094970703124,-0.6590423583984375
221838,-0.2220001220703125,-0.9337615966796876,-0.692657470703125
221839,-0.3045806884765625,-0.9005584716796875,-0.71270751953125
221840,-0.3045806884765625,-0.9005584716796875,-0.71270751953125
221841,-0.378326416015625,-0.8645782470703125,-0.7308502197265625
221842,-0.49267578125,-0.7874755859375,-0.7836761474609375
221843,-0.529449462890625,-0.757843017578125,-0.8137054443359375
221844,-0.554534912109375,-0.7148590087890625,-0.819183349609375
221845,-0.5498046875,-0.6603240966796875,-0.8082427978515625
221846,-0.5241851806640625,-0.6224212646484375,-0.7713165283203125
221847,-0.517913818359375,-0.547119140625,-0.7295989990234375
221848,-0.530426025390625,-0.4416351318359375,-0.6855621337890625
221849,-0.530426025390625,-0.4416351318359375,-0.6855621337890625
221850,-0.619415283203125,-0.2615203857421875,-0.577789306640625
221851,-0.7125244140625,-0.21893310546875,-0.5464324951171875
221852,-0.7985992431640625,-0.2252349853515625,-0.526397705078125
221853,-0.854888916015625,-0.2667083740234375,-0.526580810546875
221854,-0.9006500244140625,-0.3312225341796875,-0.547149658203125
221855,-0.916778564453125,-0.417694091796875,-0.5714111328125
221856,-0.8130340576171875,-0.6224365234375,-0.5469512939453125
221857,-0.8130340576171875,-0.6224365234375,-0.5469512939453125
221858,-0.736907958984375,-0.7114105224609375,-0.5299835205078125
221859,-0.6563720703125,-0.7792816162109375,-0.5337066650390625
221860,-0.560211181640625,-0.827362060546875,-0.5626983642578125
221861,-0.560211181640625,-0.827362060546875,-0.5626983642578125
221862,-0.32275390625,-0.828857421875,-0.655731201171875
221863,-0.2093658447265625,-0.78179931640625,-0.6747283935546875
221864,-0.1077728271484375,-0.7131805419921875,-0.6782379150390625
221865,-0.0699920654296875,-0.651580810546875,-0.651275634765625
221866,-0.063873291015625,-0.5992431640625,-0.665008544921875
221867,-0.0728912353515625,-0.5521087646484375,-0.6479949951171875
221868,-0.11114501953125,-0.4822540283203125,-0.6445770263671875
221869,-0.11114501953125,-0.4822540283203125,-0.6445770263671875
221870,-0.10955810546875,-0.47711181640625,-0.63665771484375
221871,-0.0992889404296875,-0.4980316162109375,-0.644439697265625
221872,-0.0675201416015625,-0.5413360595703125,-0.66107177734375
221873,-0.0675201416015625,-0.5413360595703125,-0.66107177734375
221874,0.101654052734375,-0.71234130859375,-0.5550689697265625
221875,0.169921875,-0.8309173583984375,-0.491790771484375
221876,0.2056121826171875,-0.939117431640625,-0.48431396484375
221877,0.2056121826171875,-0.939117431640625,-0.48431396484375
221878,0.2508087158203125,-1.121627807617188,-0.5776824951171875
221879,0.215087890625,-1.183639526367188,-0.6629638671875
221880,0.030731201171875,-1.191665649414062,-0.78082275390625
