time_idx,accelerometerAccelerationX(G),accelerometerAccelerationY(G),accelerometerAccelerationZ(G)
260000,-0.4171295166015625,-1.786163330078125,-1.121246337890625
260001,0.668701171875,-1.718978881835938,-1.639968872070312
260002,1.17120361328125,-2.206710815429688,-1.618682861328125
260003,0.962554931640625,-2.710220336914062,-1.395095825195312
260004,0.3846435546875,-2.767654418945312,-0.9847412109375
260005,-0.6357879638671875,-2.000534057617188,-0.518096923828125
260006,-0.6357879638671875,-2.000534057617188,-0.518096923828125
260007,-0.4905242919921875,-1.408828735351562,-0.3203582763671875
260008,-0.0305023193359375,-1.166336059570312,-0.427215576171875
260009,0.16656494140625,-1.1202392578125,-0.628662109375
260010,0.02325439453125,-1.032928466796875,-0.787261962890625
260011,-0.271331787109375,-0.8968048095703125,-0.945220947265625
260012,-0.53729248046875,-0.8264617919921875,-1.038375854492188
260013,-0.6436920166015625,-0.869171142578125,-1.004684448242188
260014,-0.5630645751953125,-1.003372192382812,-0.821502685546875
260015,-0.4116973876953125,-1.11956787109375,-0.52581787109375
260016,-0.303802490234375,-1.075042724609375,-0.2825775146484375
260017,-0.189727783203125,-0.8866424560546875,-0.1595001220703125
260018,-0.03436279296875,-0.5732421875,-0.05517578125
260019,0.0988311767578125,-0.172454833984375,0.0243988037109375
260020,0.183990478515625,0.2181854248046875,0.0827178955078125
260021,0.3121185302734375,0.519134521484375,0.13970947265625
260022,0.7218780517578125,0.584320068359375,0.053436279296875
260023,1.252853393554688,0.1789703369140625,-0.1522216796875
260024,1.58941650390625,-0.66265869140625,-0.5197601318359375
260025,1.24981689453125,-1.08233642578125,-0.6095733642578125
260026,1.24981689453125,-1.08233642578125,-0.6095733642578125
260027,1.126602172851562,-0.9966583251953124,-0.699920654296875
260028,0.8653411865234375,-0.7417755126953125,-0.5205535888671875
260029,0.5233612060546875,-0.43804931640625,-0.3707275390625
260030,0.4067535400390625,-0.3228912353515625,-0.3134613037109375
260031,0.4772186279296875,-0.4138641357421875,-0.1455535888671875
260032,0.4362945556640625,-0.5394287109375,0.0780487060546875
260033,0.2129364013671875,-0.6333160400390625,0.261444091796875
260034,-0.0343017578125,-0.5587310791015625,0.315643310546875
260035,-0.1779937744140625,-0.3227691650390625,0.226715087890625
260036,-0.2328948974609375,-0.071685791015625,0.0402069091796875
260037,-0.2488861083984375,0.118743896484375,-0.1364898681640625
260038,-0.2488861083984375,0.118743896484375,-0.1364898681640625
260039,-0.3550872802734375,0.30133056640625,-0.39447021484375
260040,-0.3719940185546875,0.3087921142578125,-0.4018402099609375
260041,-0.211669921875,0.244781494140625,-0.266845703125
260042,0.0456695556640625,-0.01171875,-0.1815643310546875
260043,0.1856689453125,-0.26202392578125,-0.1302032470703125
260044,0.178985595703125,-0.2632293701171875,-0.081817626953125
260045,-0.026092529296875,-0.1043243408203125,-0.1325531005859375
260046,-0.026092529296875,-0.1043243408203125,-0.1325531005859375
260047,-0.179046630859375,0.0375213623046875,-0.3460693359375
260048,-0.44140625,0.159149169921875,-0.5587005615234375
260049,-0.832000732421875,0.2263031005859375,-0.547027587890625
260050,-1.284896850585938,0.390625,-0.25067138671875
260051,-1.590438842773438,0.5721435546875,-0.0920562744140625
260052,-1.616043090820312,0.400909423828125,-0.533721923828125
260053,-1.54217529296875,-0.0049285888671875,-1.1756591796875
260054,-1.56109619140625,-0.6587066650390625,-1.297836303710938
260055,-1.652938842773438,-1.433135986328125,-1.070404052734375
260056,-1.512283325195312,-2.038482666015625,-1.067855834960938
260057,-1.191909790039062,-2.486648559570312,-1.146072387695312
260058,-0.9954376220703124,-2.862457275390625,-1.282272338867188
260059,-0.761322021484375,-3.026809692382812,-1.145401000976562
260060,0.0025787353515625,-2.482070922851562,-0.6978302001953125
260061,0.9364013671875,-1.95770263671875,-0.8671112060546875
260062,1.194442749023438,-2.405914306640625,-1.708831787109375
260063,0.6804656982421875,-3.017013549804688,-2.110000610351562
260064,0.010406494140625,-2.937789916992188,-1.556640625
260065,-0.4672393798828125,-2.544906616210938,-0.951385498046875
260066,-0.550994873046875,-2.083709716796875,-0.774322509765625
260067,-0.408233642578125,-1.845352172851562,-0.8250579833984375
260068,-0.4190521240234375,-1.49383544921875,-0.9443359375
260069,-0.5353851318359375,-1.16851806640625,-1.089065551757812
260070,-0.6761322021484375,-1.005859375,-1.211227416992188
260071,-0.9114837646484376,-0.8781890869140625,-1.159500122070312
260072,-1.0462646484375,-0.6114044189453125,-1.07012939453125
260073,-0.953125,-0.3838958740234375,-1.187698364257812
260074,-0.902587890625,-0.4592437744140625,-1.270675659179688
260075,-0.9557037353515624,-0.673675537109375,-1.08453369140625
260076,-0.9094696044921876,-0.7617034912109375,-0.8533935546875
260077,-0.74713134765625,-0.7384033203125,-0.6562347412109375
260078,-0.4714813232421875,-0.67523193359375,-0.3639678955078125
260079,-0.0702056884765625,-0.554901123046875,-0.1454315185546875
260080,0.42120361328125,-0.4097900390625,-0.164398193359375
260081,0.908966064453125,-0.304290771484375,-0.2171478271484375
260082,1.2587890625,-0.184295654296875,-0.18646240234375
260083,1.413925170898438,-0.11627197265625,-0.2679595947265625
260084,1.467010498046875,-0.2334136962890625,-0.3060760498046875
260085,1.455429077148438,-0.39959716796875,-0.158843994140625
260086,1.286529541015625,-0.451416015625,-0.1014404296875
260087,1.060150146484375,-0.493621826171875,-0.208953857421875
260088,0.8765869140625,-0.5869140625,-0.285186767578125
260089,0.723846435546875,-0.6272125244140625,-0.4123077392578125
260090,0.617034912109375,-0.6681365966796875,-0.5311737060546875
260091,0.492034912109375,-0.7176361083984375,-0.4945526123046875
260092,0.2811279296875,-0.70196533203125,-0.3211669921875
260093,0.0419769287109375,-0.66357421875,-0.1336212158203125
260094,-0.1403045654296875,-0.6056060791015625,-0.0359344482421875
260095,-0.2586669921875,-0.5123291015625,-0.0206146240234375
260096,-0.3591766357421875,-0.3753509521484375,-0.0259552001953125
260097,-0.4188995361328125,-0.20733642578125,-0.064178466796875
260098,-0.4728240966796875,-0.055877685546875,-0.1100616455078125
260099,-0.527099609375,0.07989501953125,-0.15838623046875
260100,-0.54962158203125,0.176849365234375,-0.1959228515625
260101,-0.588897705078125,0.2591094970703125,-0.1627349853515625
260102,-0.6206207275390625,0.3546600341796875,-0.0893402099609375
260103,-0.5934600830078125,0.407928466796875,-0.0475616455078125
260104,-0.4508209228515625,0.4123382568359375,-0.0588531494140625
260105,-0.2433624267578125,0.3803558349609375,-0.1298828125
260106,-0.023895263671875,0.3109893798828125,-0.2139434814453125
260107,0.193145751953125,0.1925201416015625,-0.263824462890625
260108,0.3816986083984375,0.0463714599609375,-0.2570037841796875
260109,0.4956817626953125,-0.1153717041015625,-0.16619873046875
260110,0.53118896484375,-0.27569580078125,-0.063507080078125
260111,0.5250701904296875,-0.405059814453125,-0.065704345703125
260112,0.4933929443359375,-0.540771484375,-0.228424072265625
260113,0.3877716064453125,-0.67303466796875,-0.49407958984375
260114,0.1748504638671875,-0.752410888671875,-0.69317626953125
260115,0.0251007080078125,-0.6990966796875,-0.684722900390625
260116,0.014984130859375,-0.4640350341796875,-0.4237518310546875
260117,-0.244873046875,-0.461822509765625,-0.11083984375
260118,-0.8568267822265625,-0.8890838623046875,-0.1444854736328125
260119,-2.079177856445312,-2.039459228515625,-0.8292694091796875
260120,-4.000961303710938,-3.996383666992188,-1.648757934570312
260121,-4.33319091796875,-4.989532470703125,-1.4136962890625
260122,-2.547775268554688,-3.724746704101562,-1.561935424804688
260123,-0.68035888671875,-2.694488525390625,-2.098098754882812
260124,0.1936187744140625,-3.058319091796875,-1.970779418945312
260125,0.51611328125,-3.606735229492188,-2.081161499023438
260126,0.51611328125,-3.606735229492188,-2.081161499023438
260127,0.194061279296875,-2.016021728515625,-2.225601196289062
260128,-0.095733642578125,-1.195205688476562,-1.935760498046875
260129,-0.2134246826171875,-1.070693969726562,-1.3621826171875
260130,-0.17437744140625,-1.4151611328125,-1.069244384765625
260131,-0.063873291015625,-1.776535034179688,-0.9668426513671876
260132,-0.0891876220703125,-1.513153076171875,-0.66717529296875
260133,-0.1822357177734375,-1.127273559570312,-0.5717620849609375
260134,-0.1822357177734375,-1.127273559570312,-0.5717620849609375
260135,0.0527191162109375,-0.825958251953125,-0.7665557861328125
260136,0.3789520263671875,-0.7179718017578125,-0.9293212890625
260137,0.7366943359375,-0.7059173583984375,-0.8944244384765625
260138,0.7366943359375,-0.7059173583984375,-0.8944244384765625
260139,0.5047607421875,-0.7680816650390625,-0.7571868896484375
260140,0.19671630859375,-0.6410369873046875,-0.5350799560546875
260141,-0.061553955078125,-0.3818206787109375,-0.1648101806640625
260142,-0.1317138671875,-0.103179931640625,0.2870330810546875
260143,-0.0137939453125,0.0278167724609375,0.6348419189453125
260144,0.15093994140625,0.1161651611328125,0.848297119140625
260145,0.4040374755859375,0.196868896484375,0.896087646484375
260146,0.4040374755859375,0.196868896484375,0.896087646484375
260147,1.069747924804688,0.0142059326171875,0.1444854736328125
260148,1.23443603515625,-0.119110107421875,-0.2466888427734375
260149,1.301437377929688,-0.3754730224609375,-0.5978240966796875
260150,1.291229248046875,-0.7008514404296875,-0.9539337158203124
260151,1.114273071289062,-0.9384765625,-1.063644409179688
260152,0.772552490234375,-1.000244140625,-0.85516357421875
260153,0.1753387451171875,-0.7421112060546875,-0.202880859375
260154,0.1753387451171875,-0.7421112060546875,-0.202880859375
260155,0.0224609375,-0.5637969970703125,0.1133575439453125
260156,-0.106964111328125,-0.3813323974609375,0.3582916259765625
260157,-0.2635498046875,-0.2294921875,0.38763427734375
260158,-0.4047698974609375,-0.1090545654296875,0.1347808837890625
260159,-0.500946044921875,-0.029022216796875,-0.1496734619140625
260160,-0.5344390869140625,0.0189971923828125,-0.2827606201171875
260161,-0.5215606689453125,0.0326995849609375,-0.2471771240234375
260162,-0.4752349853515625,0.041290283203125,-0.1682891845703125
260163,-0.415008544921875,0.0525970458984375,-0.12689208984375
260164,-0.342010498046875,0.039764404296875,-0.1048736572265625
260165,-0.262939453125,-0.0043792724609375,-0.058013916015625
260166,-0.1618804931640625,-0.0465087890625,-0.02264404296875
260167,-0.00408935546875,-0.0715179443359375,-0.0402069091796875
260168,0.160003662109375,-0.110504150390625,-0.081756591796875
260169,0.260223388671875,-0.13690185546875,-0.1464385986328125
260170,0.299591064453125,-0.108978271484375,-0.23980712890625
260171,0.3314361572265625,-0.0559234619140625,-0.392059326171875
260172,0.346649169921875,-0.0143280029296875,-0.59857177734375
260173,0.3000946044921875,0.0128173828125,-0.8463287353515625
260174,0.157989501953125,0.0837860107421875,-1.124984741210938
260175,-0.0737762451171875,0.2206878662109375,-1.368453979492188
260176,-0.3719329833984375,0.3372039794921875,-1.412094116210938
260177,-0.73370361328125,0.4823150634765625,-1.157180786132812
260178,-0.73370361328125,0.4823150634765625,-1.157180786132812
260179,-1.80096435546875,0.7612762451171875,-1.116653442382812
260180,-1.80096435546875,0.7612762451171875,-1.116653442382812
260181,-2.735275268554688,0.327484130859375,-1.869979858398438
260182,-2.77764892578125,-0.04547119140625,-2.49993896484375
260183,-2.180633544921875,-0.4819488525390625,-2.374710083007812
260184,-1.548553466796875,-0.81915283203125,-1.75732421875
260185,-1.321762084960938,-1.185791015625,-1.6240234375
260186,-1.413162231445312,-1.770706176757812,-1.755706787109375
260187,-1.621658325195312,-2.31561279296875,-1.499710083007812
260188,-1.641571044921875,-2.7490234375,-1.21868896484375
260189,-1.26019287109375,-3.02947998046875,-1.154312133789062
260190,-0.535064697265625,-2.956497192382812,-1.301620483398438
260191,-0.0947723388671875,-2.657546997070312,-1.60504150390625
260192,0.259368896484375,-2.274581909179688,-1.855804443359375
260193,0.8692626953125,-1.74273681640625,-1.26275634765625
260194,1.239761352539062,-1.33172607421875,-0.563201904296875
260195,1.349380493164062,-1.038986206054688,-0.24005126953125
260196,1.352249145507812,-0.8860321044921875,-0.49603271484375
260197,1.301055908203125,-0.9801025390625,-0.7045440673828125
260198,1.122833251953125,-1.184005737304688,-0.48712158203125
260199,0.8037567138671875,-1.294174194335938,0.0087127685546875
260200,0.399749755859375,-1.173110961914062,0.3585662841796875
260201,0.1236724853515625,-0.837677001953125,0.449615478515625
260202,0.0808563232421875,-0.581085205078125,0.4734344482421875
260203,0.112457275390625,-0.3523101806640625,0.383056640625
260204,0.2669525146484375,-0.2198638916015625,0.1334991455078125
260205,0.545928955078125,-0.312591552734375,-0.136932373046875
260206,0.7739410400390625,-0.434326171875,-0.2199554443359375
260207,0.9286956787109376,-0.5689239501953125,-0.221710205078125
260208,1.074081420898438,-0.835174560546875,-0.3318939208984375
260209,1.161880493164062,-1.124725341796875,-0.4717254638671875
260210,1.057632446289062,-1.346649169921875,-0.5458221435546875
260211,0.6875,-1.38189697265625,-0.4901885986328125
260212,0.2687530517578125,-1.226287841796875,-0.3564453125
260213,0.0103607177734375,-1.076034545898438,-0.20318603515625
260214,-0.1295623779296875,-0.9573516845703124,-0.1157073974609375
260215,-0.2630462646484375,-0.7796783447265625,-0.1419219970703125
260216,-0.3801116943359375,-0.5496063232421875,-0.2090911865234375
260217,-0.43560791015625,-0.280120849609375,-0.270172119140625
260218,-0.4266510009765625,-0.0854644775390625,-0.3175811767578125
260219,-0.37628173828125,0.0178985595703125,-0.305816650390625
260220,-0.3145751953125,0.1160125732421875,-0.267181396484375
260221,-0.2568359375,0.21185302734375,-0.2245941162109375
260222,-0.244598388671875,0.26654052734375,-0.183319091796875
260223,-0.286956787109375,0.275726318359375,-0.13726806640625
260224,-0.333648681640625,0.2520599365234375,-0.109771728515625
260225,-0.3855743408203125,0.1682891845703125,-0.1234130859375
260226,-0.4954681396484375,0.0855865478515625,-0.1243743896484375
260227,-0.631927490234375,0.033233642578125,-0.192962646484375
260228,-0.75341796875,-0.0404815673828125,-0.25543212890625
260229,-0.7724151611328125,-0.1230010986328125,-0.2470550537109375
260230,-0.57598876953125,-0.15972900390625,-0.28338623046875
260231,-0.2939300537109375,-0.133453369140625,-0.391143798828125
260232,-0.0453338623046875,-0.124755859375,-0.6110382080078125
260233,0.169219970703125,-0.14080810546875,-0.8979034423828125
260234,0.3232421875,-0.11260986328125,-1.09124755859375
260235,0.275177001953125,-0.0552978515625,-1.212448120117188
260236,0.275177001953125,-0.0552978515625,-1.212448120117188
260237,-0.4234619140625,0.17047119140625,-0.8397064208984375
260238,-0.8617095947265625,0.221527099609375,-0.652923583984375
260239,-1.340744018554688,0.197540283203125,-0.53497314453125
260240,-1.940872192382812,0.112884521484375,-0.5113983154296875
260241,-2.459732055664062,-0.0119171142578125,-0.6398468017578125
260242,-2.716552734375,-0.084930419921875,-0.9279937744140624
260243,-2.671875,-0.245758056640625,-1.30743408203125
260244,-2.257080078125,-0.41717529296875,-1.615020751953125
260245,-1.029403686523438,-0.6693572998046875,-1.410842895507812
260246,-1.029403686523438,-0.6693572998046875,-1.410842895507812
260247,-0.505218505859375,-0.9608917236328124,-1.605728149414062
260248,-0.197784423828125,-1.452560424804688,-1.83551025390625
260249,-0.2770843505859375,-2.100341796875,-2.012863159179688
260250,-0.2501678466796875,-3.029403686523438,-2.061172485351562
260251,0.087158203125,-3.966384887695312,-1.173049926757812
260252,0.1056060791015625,-3.635147094726562,-0.14715576171875
260253,0.1060638427734375,-2.344802856445312,-0.4763031005859375
260254,0.2005462646484375,-1.336013793945312,-0.7802276611328125
260255,0.29669189453125,-0.8258056640625,-1.031784057617188
260256,0.4666748046875,-0.59393310546875,-1.09539794921875
260257,0.6374969482421875,-0.5567626953125,-1.01605224609375
260258,0.67010498046875,-0.707763671875,-0.843902587890625
260259,0.571258544921875,-1.119338989257812,-0.679443359375
260260,0.3990325927734375,-1.602798461914062,-0.6568145751953125
260261,0.2142791748046875,-2.087478637695312,-0.747589111328125
260262,0.06378173828125,-2.467605590820312,-0.7075347900390625
260263,-0.0734710693359375,-2.097412109375,-0.4892425537109375
260264,-0.26226806640625,-1.188995361328125,-0.3370819091796875
260265,-0.3538665771484375,-0.6521453857421875,-0.1403961181640625
260266,-0.270751953125,-0.4475250244140625,0.092010498046875
260267,-0.2057952880859375,-0.3306732177734375,0.2437591552734375
260268,-0.2057952880859375,-0.3306732177734375,0.2437591552734375
260269,-0.268218994140625,-0.078369140625,0.20782470703125
260270,-0.2782745361328125,-0.05401611328125,0.2203826904296875
260271,-0.2100067138671875,-0.110565185546875,0.222259521484375
260272,-0.0564422607421875,-0.2710113525390625,0.050933837890625
260273,0.106781005859375,-0.481964111328125,-0.3229522705078125
260274,0.2462310791015625,-0.737548828125,-0.8152313232421875
260275,0.366455078125,-1.0753173828125,-1.323379516601562
260276,0.491943359375,-1.461959838867188,-1.522384643554688
260277,0.6271820068359375,-1.688583374023438,-1.053726196289062
260278,0.675994873046875,-1.60986328125,-0.6396942138671875
260279,0.536468505859375,-1.257583618164062,-0.5239105224609375
260280,0.14874267578125,-0.578125,-0.174835205078125
260281,0.14874267578125,-0.578125,-0.174835205078125
260282,0.06591796875,-0.3019256591796875,-0.0562896728515625
260283,-0.0079345703125,-0.064605712890625,0.087738037109375
260284,-0.027313232421875,0.121612548828125,0.16375732421875
260285,-0.0415802001953125,0.199951171875,0.1621551513671875
260286,-0.0683441162109375,0.19757080078125,0.1156463623046875
260287,-0.07025146484375,0.1782073974609375,0.052001953125
260288,-0.04302978515625,0.144683837890625,-0.0377655029296875
260289,-0.013671875,0.091094970703125,-0.1285552978515625
260290,-0.0101776123046875,0.0238189697265625,-0.20751953125
260291,-0.0470428466796875,-0.0341949462890625,-0.2938995361328125
260292,-0.12847900390625,-0.08251953125,-0.387451171875
260293,-0.228851318359375,-0.150421142578125,-0.5199737548828125
260294,-0.3079681396484375,-0.2168426513671875,-0.728424072265625
260295,-0.3453216552734375,-0.2607879638671875,-0.923248291015625
260296,-0.4061279296875,-0.2650604248046875,-0.9143218994140624
260297,-0.50634765625,-0.1581573486328125,-0.84429931640625
260298,-0.557037353515625,-0.0091094970703125,-0.8187103271484375
260299,-0.6110382080078125,0.124267578125,-0.6823883056640625
260300,-0.7240142822265625,0.1972198486328125,-0.461181640625
260301,-0.793243408203125,0.20758056640625,-0.32232666015625
260302,-0.82733154296875,0.1732330322265625,-0.3499908447265625
260303,-1.005645751953125,0.1426849365234375,-0.4847564697265625
260304,-1.346328735351562,0.0959014892578125,-0.6991729736328125
260305,-1.72906494140625,0.020263671875,-0.976715087890625
260306,-2.004180908203125,0.0097808837890625,-1.201370239257812
260307,-2.218841552734375,0.032318115234375,-1.316726684570312
260308,-2.29559326171875,0.0498504638671875,-1.499343872070312
260309,-1.931365966796875,-0.0294342041015625,-1.660232543945312
260310,-1.3670654296875,-0.3094940185546875,-1.725509643554688
260311,-0.8751678466796875,-0.67523193359375,-1.548263549804688
260312,-0.5216217041015625,-1.021484375,-1.10723876953125
260313,-0.297698974609375,-1.523529052734375,-0.813873291015625
260314,-0.0378570556640625,-2.212799072265625,-0.7250518798828125
260315,0.217742919921875,-2.922943115234375,-0.7341156005859375
260316,0.260284423828125,-3.194580078125,-1.145523071289062
260317,-0.0078582763671875,-2.775070190429688,-1.832473754882812
260318,-0.1581268310546875,-2.19403076171875,-2.354110717773438
260319,0.0433807373046875,-1.653305053710938,-1.552139282226562
260320,0.3512725830078125,-1.200790405273438,-0.8114471435546875
260321,0.6107635498046875,-0.70465087890625,-0.4644622802734375
260322,0.892303466796875,-0.2906036376953125,-0.417022705078125
260323,1.091171264648438,-0.2567901611328125,-0.7131500244140625
260324,1.06787109375,-0.561767578125,-0.8819122314453125
260325,0.8299560546875,-1.001846313476562,-1.04119873046875
260326,0.369110107421875,-1.3887939453125,-0.984619140625
260327,-0.230255126953125,-1.710052490234375,-0.397552490234375
260328,-0.8525238037109375,-1.777908325195312,0.178497314453125
260329,-1.1365966796875,-1.256546020507812,0.35552978515625
260330,-1.011566162109375,-0.7217559814453125,0.305145263671875
260331,-0.7212982177734375,-0.5042877197265625,0.193145751953125
260332,-0.7212982177734375,-0.5042877197265625,0.193145751953125
260333,-0.337860107421875,-0.3625640869140625,-0.03271484375
260334,-0.2613677978515625,-0.4712982177734375,-0.2887115478515625
260335,-0.2051849365234375,-0.6479644775390625,-0.5453338623046875
260336,-0.082061767578125,-1.014678955078125,-0.7322235107421875
260337,-0.082061767578125,-1.014678955078125,-0.7322235107421875
260338,0.1604156494140625,-1.19732666015625,-0.7727508544921875
260339,0.542755126953125,-1.392837524414062,-0.661865234375
260340,0.9384307861328124,-1.613983154296875,-0.4411163330078125
260341,1.098495483398438,-1.83709716796875,-0.2644500732421875
260342,0.88677978515625,-1.902557373046875,-0.1259765625
260343,0.4619293212890625,-1.696945190429688,0.0191192626953125
260344,0.1505126953125,-1.249099731445312,0.0131072998046875
260345,0.0386810302734375,-0.69146728515625,-0.12396240234375
260346,-0.010284423828125,-0.2921600341796875,-0.17864990234375
260347,0.0084381103515625,-0.0706939697265625,-0.1363677978515625
260348,0.058868408203125,0.0497589111328125,-0.01953125
260349,0.0813751220703125,0.2342681884765625,0.058013916015625
260350,0.1120452880859375,0.451629638671875,0.0380706787109375
260351,0.16693115234375,0.5586090087890625,0.01715087890625
260352,0.234649658203125,0.520843505859375,-0.04266357421875
260353,0.2190704345703125,0.3169708251953125,-0.119659423828125
260354,0.03179931640625,0.150360107421875,-0.202239990234375
260355,-0.179412841796875,0.0586395263671875,-0.408538818359375
260356,-0.3690185546875,-0.047119140625,-0.7487335205078125
260357,-0.59918212890625,-0.177459716796875,-1.139358520507812
260358,-0.8994598388671875,-0.276275634765625,-1.451263427734375
260359,-1.218734741210938,-0.063446044921875,-1.435836791992188
260360,-1.408889770507812,0.302154541015625,-1.175201416015625
260361,-1.378387451171875,0.4415740966796875,-0.7954559326171875
260362,-1.236724853515625,0.41461181640625,-0.3976287841796875
260363,-1.152008056640625,0.4185028076171875,-0.0725250244140625
260364,-1.092193603515625,0.4318084716796875,0.07568359375
260365,-1.044830322265625,0.374420166015625,0.0392608642578125
260366,-1.15924072265625,0.2697906494140625,-0.280487060546875
260367,-1.43743896484375,0.115203857421875,-0.800506591796875
260368,-2.270431518554688,-0.3273773193359375,-1.132400512695312
260369,-2.270431518554688,-0.3273773193359375,-1.132400512695312
260370,-2.21978759765625,-0.4503936767578125,-1.336944580078125
260371,-1.535186767578125,-0.5959625244140625,-1.725418090820312
260372,-0.8669891357421875,-0.7224273681640625,-1.959320068359375
260373,-0.4528656005859375,-0.9257049560546876,-1.869140625
260374,-0.18115234375,-1.183822631835938,-1.616958618164062
260375,0.0818939208984375,-1.508285522460938,-1.553421020507812
260376,0.33929443359375,-2.135391235351562,-1.470870971679688
260377,0.39691162109375,-2.852005004882812,-1.230453491210938
260378,0.345184326171875,-3.063278198242188,-1.15509033203125
260379,0.25677490234375,-2.43011474609375,-0.784881591796875
260380,0.1409149169921875,-1.423751831054688,-0.74481201171875
260381,0.1808319091796875,-0.8089447021484375,-0.87017822265625
260382,0.2952117919921875,-0.557373046875,-0.900177001953125
260383,0.486724853515625,-0.34820556640625,-0.7368621826171875
260384,0.77740478515625,-0.13824462890625,-0.6080780029296875
260385,1.00836181640625,-0.183502197265625,-0.7098846435546875
260386,1.009445190429688,-0.520263671875,-0.9311065673828124
260387,0.7751312255859375,-0.9552459716796876,-1.084487915039062
260388,0.405853271484375,-1.435775756835938,-1.08319091796875
260389,-0.0008392333984375,-1.977920532226562,-0.869781494140625
260390,-0.48297119140625,-2.3919677734375,-0.45782470703125
260391,-0.871490478515625,-2.092041015625,-0.096038818359375
260392,-0.9994964599609376,-1.1956787109375,0.1468048095703125
260393,-0.88116455078125,-0.512725830078125,0.3054656982421875
260394,-0.68798828125,-0.1875,0.359222412109375
260395,-0.5611572265625,-0.0709686279296875,0.3359375
260396,-0.4261474609375,-0.1791534423828125,0.0618133544921875
260397,-0.29241943359375,-0.492218017578125,-0.31268310546875
260398,-0.1951446533203125,-0.8641357421875,-0.677734375
260399,-0.07867431640625,-1.163665771484375,-0.8902435302734375
260400,0.175048828125,-1.2755126953125,-0.9548187255859376
260401,0.5673980712890625,-1.332183837890625,-0.81243896484375
260402,0.910888671875,-1.439193725585938,-0.682861328125
260403,1.013397216796875,-1.456085205078125,-0.57421875
260404,0.8028411865234375,-1.362289428710938,-0.3381195068359375
260405,0.423919677734375,-1.258377075195312,-0.1185150146484375
260406,0.1335601806640625,-1.149749755859375,-0.065093994140625
260407,0.0229339599609375,-1.006195068359375,-0.0838470458984375
260408,0.0063018798828125,-0.75421142578125,-0.117645263671875
260409,-0.015533447265625,-0.466888427734375,-0.222808837890625
260410,-0.0070648193359375,-0.2675933837890625,-0.3082122802734375
260411,0.03619384765625,-0.1295013427734375,-0.1880340576171875
260412,0.0721282958984375,0.0095672607421875,6.103515625e-05
260413,0.115447998046875,0.1420745849609375,0.137115478515625
260414,0.1451568603515625,0.223480224609375,0.189544677734375
260415,0.130157470703125,0.2330474853515625,0.1468048095703125
260416,0.095977783203125,0.1971588134765625,0.0539093017578125
260417,0.0554046630859375,0.12628173828125,-0.0621185302734375
260418,-0.0410919189453125,0.036224365234375,-0.1670684814453125
260419,-0.1779937744140625,-0.0466461181640625,-0.2852325439453125
260420,-0.33294677734375,-0.0926055908203125,-0.5100860595703125
260421,-0.45361328125,-0.152679443359375,-0.8932342529296875
260422,-0.540008544921875,-0.2475738525390625,-1.36993408203125
260423,-0.71649169921875,-0.313690185546875,-1.615951538085938
260424,-1.019882202148438,-0.1813812255859375,-1.499755859375
260425,-1.22003173828125,0.08441162109375,-1.335281372070312
260426,-1.282958984375,0.2497406005859375,-1.004714965820312
260427,-1.234542846679688,0.2467803955078125,-0.306915283203125
260428,-1.174835205078125,0.2611083984375,0.2231292724609375
260429,-1.16632080078125,0.197052001953125,0.423126220703125
260430,-1.301864624023438,0.0832061767578125,0.2946014404296875
260431,-1.642181396484375,-0.0043792724609375,-0.1630859375
260432,-2.085052490234375,-0.10430908203125,-0.6221923828125
260433,-2.392974853515625,-0.26971435546875,-0.98187255859375
260434,-2.5548095703125,-0.42694091796875,-1.14239501953125
260435,-2.562789916992188,-0.50433349609375,-1.2662353515625
260436,-2.1253662109375,-0.630706787109375,-1.478668212890625
260437,-1.442474365234375,-0.92352294921875,-1.544235229492188
260438,-0.8547210693359375,-1.310165405273438,-1.500503540039062
260439,-0.255035400390625,-1.78985595703125,-1.73370361328125
260440,0.2103729248046875,-2.303497314453125,-1.895217895507812
260441,0.8458251953125,-2.65545654296875,-1.952072143554688
260442,1.439102172851562,-2.6407470703125,-0.4234619140625
260443,1.273971557617188,-2.014602661132812,-0.238067626953125
260444,0.9205780029296876,-1.193527221679688,-0.74688720703125
260445,0.7079010009765625,-0.6421051025390625,-1.122756958007812
260446,0.57354736328125,-0.4051055908203125,-1.069473266601562
260447,0.486846923828125,-0.3743133544921875,-1.122116088867188
260448,0.486846923828125,-0.3743133544921875,-1.122116088867188
260449,0.3698272705078125,-0.826446533203125,-0.792816162109375
260450,0.2557373046875,-1.06634521484375,-0.8150634765625
260451,0.1560821533203125,-1.343032836914062,-0.9202423095703124
260452,-0.053863525390625,-1.699249267578125,-0.7049560546875
260453,-0.377593994140625,-1.851394653320312,-0.4143218994140625
260454,-0.6588287353515625,-1.56903076171875,-0.3677520751953125
260455,-0.8334808349609375,-1.122161865234375,-0.3378753662109375
260456,-0.923492431640625,-0.755096435546875,-0.210052490234375
260457,-0.926513671875,-0.477783203125,-0.074066162109375
260458,-0.8511810302734375,-0.3679046630859375,-0.0134735107421875
260459,-0.711578369140625,-0.46429443359375,-0.107574462890625
260460,-0.4810333251953125,-0.692047119140625,-0.3082733154296875
260461,-0.1804351806640625,-0.9958343505859376,-0.496917724609375
260462,0.072601318359375,-1.240325927734375,-0.61541748046875
260463,0.2289581298828125,-1.36590576171875,-0.626373291015625
260464,0.4547271728515625,-1.460922241210938,-0.5136260986328125
260465,0.64300537109375,-1.469497680664062,-0.353607177734375
260466,0.6160430908203125,-1.371841430664062,-0.1700897216796875
260467,0.551177978515625,-1.273269653320312,0.001434326171875
260468,0.4997711181640625,-1.20550537109375,0.0960845947265625
260469,0.3906707763671875,-1.042877197265625,0.1066131591796875
260470,0.283050537109375,-0.6701812744140625,0.074951171875
260471,0.226043701171875,-0.3266448974609375,0.0780487060546875
260472,0.1656341552734375,-0.158233642578125,0.10076904296875
260473,0.1252288818359375,-0.046295166015625,0.114532470703125
260474,0.161102294921875,0.0588836669921875,0.142578125
260475,0.24151611328125,0.1416015625,0.152008056640625
260476,0.3153533935546875,0.168212890625,0.1059112548828125
260477,0.3358917236328125,0.13848876953125,0.029510498046875
260478,0.2708282470703125,0.0959320068359375,-0.0522613525390625
260479,0.118988037109375,0.0628204345703125,-0.105682373046875
260480,-0.0931396484375,0.0519256591796875,-0.15338134765625
260481,-0.3150787353515625,0.0352783203125,-0.2298126220703125
260482,-0.5245361328125,0.007965087890625,-0.30224609375
260483,-0.7680206298828125,-0.0234527587890625,-0.338134765625
260484,-1.011932373046875,-0.033050537109375,-0.3856048583984375
260485,-1.060821533203125,-0.0516357421875,-0.4974822998046875
260486,-0.7334747314453125,-0.10211181640625,-0.6349029541015625
260487,-0.2063446044921875,-0.13995361328125,-0.6734161376953125
260488,0.2026519775390625,-0.129180908203125,-0.5788726806640625
260489,0.4283447265625,-0.1148681640625,-0.4604034423828125
260490,0.5235137939453125,-0.20172119140625,-0.42010498046875
260491,0.5024566650390625,-0.37017822265625,-0.56927490234375
260492,0.2288665771484375,-0.4407501220703125,-0.775115966796875
260493,-0.3312835693359375,-0.4716796875,-0.9392852783203124
260494,-0.8881072998046875,-0.57073974609375,-1.196517944335938
260495,-1.1607666015625,-0.645843505859375,-1.533294677734375
260496,-1.38250732421875,-0.5664520263671875,-1.954177856445312
260497,-1.73394775390625,-0.5862884521484375,-2.256561279296875
260498,-1.97802734375,-0.8433380126953125,-2.16839599609375
260499,-2.096603393554688,-1.20623779296875,-1.512222290039062
260500,-1.803512573242188,-1.624481201171875,-1.143478393554688
260501,-1.16693115234375,-2.082015991210938,-1.07568359375
260502,-0.7899169921875,-2.693389892578125,-1.282135009765625
260503,-0.68621826171875,-3.3790283203125,-1.125076293945312
260504,-0.68621826171875,-3.3790283203125,-1.125076293945312
260505,-0.758758544921875,-3.621322631835938,-0.7156982421875
260506,-0.27410888671875,-2.2103271484375,-1.345657348632812
260507,-0.0302581787109375,-1.540481567382812,-1.148223876953125
260508,0.13372802734375,-0.966888427734375,-0.910308837890625
260509,0.2007904052734375,-0.537628173828125,-1.097183227539062
260510,0.1785430908203125,-0.3735198974609375,-1.39837646484375
260511,0.144378662109375,-0.46722412109375,-1.418060302734375
260512,0.083282470703125,-0.797882080078125,-0.9355316162109376
260513,-0.27069091796875,-0.9524993896484376,-0.8316650390625
260514,-0.5977783203125,-1.065475463867188,-1.238616943359375
260515,-0.713470458984375,-1.288619995117188,-0.6404571533203125
260516,-0.6423187255859375,-1.205169677734375,0.3584747314453125
260517,-0.2259674072265625,-1.00177001953125,0.5448760986328125
260518,0.2690277099609375,-1.066604614257812,0.2599029541015625
260519,0.3950042724609375,-1.021514892578125,0.221923828125
260520,0.0775146484375,-0.699951171875,0.102813720703125
260521,-0.15155029296875,-0.427337646484375,-0.056976318359375
260522,-0.15155029296875,-0.427337646484375,-0.056976318359375
260523,0.5769195556640625,-0.6526641845703125,-0.0563812255859375
260524,0.868621826171875,-0.9542236328125,0.014068603515625
260525,0.8747711181640625,-1.137191772460938,0.066009521484375
260526,0.7028961181640625,-1.149154663085938,0.1183013916015625
260527,0.576141357421875,-1.017181396484375,0.092529296875
260528,0.567596435546875,-0.783935546875,0.03521728515625
260529,0.55267333984375,-0.5106658935546875,0.0143890380859375
260530,0.4824371337890625,-0.27935791015625,-0.0622711181640625
260531,0.4300537109375,-0.12939453125,-0.1441802978515625
260532,0.378814697265625,-0.0182647705078125,-0.1883697509765625
260533,0.2650146484375,0.028076171875,-0.2190399169921875
260534,0.1405487060546875,0.019439697265625,-0.1783447265625
260535,0.0648345947265625,-0.01971435546875,-0.098663330078125
260536,0.028167724609375,-0.07403564453125,-0.0279388427734375
260537,-0.02532958984375,-0.13092041015625,0.0114593505859375
260538,-0.1083221435546875,-0.1875152587890625,-0.0282440185546875
260539,-0.1957244873046875,-0.2605438232421875,-0.0923309326171875
260540,-0.2716827392578125,-0.3157196044921875,-0.1445465087890625
260541,-0.319061279296875,-0.3312225341796875,-0.2472991943359375
260542,-0.3455810546875,-0.3008575439453125,-0.3257598876953125
260543,-0.38885498046875,-0.2342071533203125,-0.3022613525390625
260544,-0.480743408203125,-0.150970458984375,-0.2147369384765625
260545,-0.5902862548828125,-0.063629150390625,-0.1642303466796875
260546,-0.65576171875,-0.0204925537109375,-0.2149810791015625
260547,-0.6370391845703125,-0.0450897216796875,-0.2387847900390625
260548,-0.3151397705078125,-0.259552001953125,-0.2751007080078125
260549,-0.3151397705078125,-0.259552001953125,-0.2751007080078125
260550,-0.1224365234375,-0.3286895751953125,-0.3036346435546875
260551,0.0114288330078125,-0.274017333984375,-0.4082183837890625
260552,0.0114288330078125,-0.274017333984375,-0.4082183837890625
260553,-0.152435302734375,-0.21844482421875,-0.5181121826171875
260554,-0.3376922607421875,-0.4002227783203125,-0.6163482666015625
260555,-0.4694976806640625,-0.801849365234375,-0.7535247802734375
260556,-0.4694976806640625,-0.801849365234375,-0.7535247802734375
260557,-0.6629486083984375,-1.19720458984375,-0.411773681640625
260558,-1.656509399414062,-2.236846923828125,-1.481399536132812
260559,-2.409774780273438,-2.943817138671875,-1.085235595703125
260560,-2.155364990234375,-2.967880249023438,-0.1580047607421875
260561,-0.5518035888671875,-2.549118041992188,-0.6853179931640625
260562,0.7322540283203125,-2.516998291015625,-1.258041381835938
260563,0.9632110595703124,-2.820648193359375,-1.248397827148438
260564,0.4859619140625,-3.162429809570312,-1.382400512695312
260565,-0.182037353515625,-2.906524658203125,-1.210494995117188
260566,-0.521270751953125,-2.282943725585938,-1.134246826171875
260567,-0.7402191162109375,-2.03619384765625,-0.9410552978515624
260568,-0.7145538330078125,-1.795761108398438,-0.9354248046875
260569,-0.5832977294921875,-1.587799072265625,-0.932403564453125
260570,-0.4401397705078125,-1.52142333984375,-1.093765258789062
260571,-0.214508056640625,-1.567764282226562,-1.174148559570312
260572,0.0134429931640625,-1.60455322265625,-1.106643676757812
260573,0.06072998046875,-1.541046142578125,-0.93572998046875
260574,0.0313262939453125,-1.360031127929688,-0.895416259765625
260575,0.0077056884765625,-1.161041259765625,-0.761810302734375
260576,-0.07562255859375,-0.911895751953125,-0.45843505859375
260577,-0.2032318115234375,-0.57220458984375,-0.2723541259765625
260578,-0.2422332763671875,-0.17877197265625,-0.0671234130859375
260579,-0.1249542236328125,0.127044677734375,0.1210479736328125
260580,0.092559814453125,0.220184326171875,0.0770263671875
260581,0.3416900634765625,0.1574859619140625,-0.05157470703125
260582,0.557464599609375,-0.010498046875,-0.1398162841796875
260583,0.6898345947265625,-0.23797607421875,-0.1898651123046875
260584,0.700164794921875,-0.3894500732421875,-0.1888427734375
260585,0.6623077392578125,-0.495086669921875,-0.2224578857421875
260586,0.63360595703125,-0.80615234375,-0.2938385009765625
260587,0.5691680908203125,-0.9863433837890624,-0.28155517578125
260588,0.4988250732421875,-0.96038818359375,-0.318756103515625
260589,0.439117431640625,-0.9255523681640624,-0.4126129150390625
260590,0.40325927734375,-0.939422607421875,-0.4487457275390625
260591,0.3961181640625,-0.9452056884765624,-0.3610687255859375
260592,0.3730010986328125,-0.885223388671875,-0.148590087890625
260593,0.307708740234375,-0.7653656005859375,0.103729248046875
260594,0.1911163330078125,-0.61865234375,0.2394866943359375
260595,0.0470123291015625,-0.47900390625,0.2354736328125
260596,-0.0736541748046875,-0.26153564453125,0.12542724609375
260597,-0.155548095703125,-0.037994384765625,-0.02813720703125
260598,-0.1735382080078125,0.09649658203125,-0.111419677734375
260599,-0.1354217529296875,0.1676483154296875,-0.1475067138671875
260600,-0.04693603515625,0.2108917236328125,-0.1557769775390625
260601,0.068634033203125,0.19952392578125,-0.15557861328125
260602,0.14599609375,0.134307861328125,-0.1801910400390625
260603,0.162353515625,0.036468505859375,-0.246246337890625
260604,0.0906219482421875,-0.07427978515625,-0.469146728515625
260605,0.0906219482421875,-0.07427978515625,-0.469146728515625
260606,0.0589141845703125,-0.0334014892578125,-0.5039520263671875
260607,0.0401611328125,0.0026092529296875,-0.4798736572265625
260608,0.03594970703125,-0.0053253173828125,-0.4378814697265625
260609,0.0254974365234375,-0.04449462890625,-0.3687591552734375
260610,-0.025482177734375,-0.071014404296875,-0.362548828125
260611,-0.139312744140625,-0.039764404296875,-0.4178466796875
260612,-0.2749481201171875,-0.029754638671875,-0.5390167236328125
260613,-0.2749481201171875,-0.029754638671875,-0.5390167236328125
260614,-0.8424224853515625,-0.1816558837890625,-0.8095855712890625
260615,-1.371826171875,-0.373291015625,-0.9871368408203124
260616,-1.371826171875,-0.373291015625,-0.9871368408203124
260617,-2.157623291015625,-1.050933837890625,-0.787322998046875
260618,-2.000106811523438,-1.300262451171875,-0.4821319580078125
260619,-1.37432861328125,-1.437408447265625,-0.908905029296875
260620,-0.8027801513671875,-1.650619506835938,-1.474746704101562
260621,-0.15325927734375,-1.982406616210938,-1.46270751953125
260622,-0.15325927734375,-1.982406616210938,-1.46270751953125
260623,0.0141143798828125,-2.33697509765625,-1.202987670898438
260624,-0.1153106689453125,-2.690078735351562,-1.080291748046875
260625,-0.1153106689453125,-2.690078735351562,-1.080291748046875
260626,-0.4960784912109375,-2.553497314453125,-1.576614379882812
260627,-0.4276580810546875,-2.16900634765625,-1.485336303710938
260628,-0.4276580810546875,-2.16900634765625,-1.485336303710938
260629,-0.23291015625,-1.8065185546875,-0.6188201904296875
260630,-0.090606689453125,-1.649246215820312,-0.350799560546875
260631,-0.0098724365234375,-1.469802856445312,-0.2939910888671875
260632,-0.0229644775390625,-1.23333740234375,-0.4407958984375
260633,-0.0704803466796875,-1.019393920898438,-0.65631103515625
260634,-0.098541259765625,-0.922760009765625,-0.8707427978515625
260635,-0.1165771484375,-0.977569580078125,-1.107864379882812
260636,-0.14398193359375,-1.112319946289062,-1.247604370117188
260637,-0.14398193359375,-1.112319946289062,-1.247604370117188
260638,-0.26898193359375,-1.176025390625,-0.642852783203125
260639,-0.3384552001953125,-0.9517364501953124,-0.3425140380859375
260640,-0.3250274658203125,-0.5941619873046875,-0.2613677978515625
260641,-0.21636962890625,-0.24761962890625,-0.207550048828125
260642,-0.048797607421875,-0.0063323974609375,-0.0994720458984375
260643,0.15985107421875,0.1079864501953125,-0.0867919921875
260644,0.15985107421875,0.1079864501953125,-0.0867919921875
260645,0.5540008544921875,-0.0085906982421875,-0.2208709716796875
260646,0.753936767578125,-0.2264404296875,-0.2264404296875
260647,0.8610382080078125,-0.52203369140625,-0.229522705078125
260648,0.8610382080078125,-0.52203369140625,-0.229522705078125
260649,0.8358306884765625,-0.726837158203125,-0.296051025390625
260650,0.4683685302734375,-0.8680877685546875,-0.59979248046875
260651,0.323883056640625,-0.9865570068359376,-0.74591064453125
260652,0.173583984375,-1.033447265625,-0.7476654052734375
260653,-0.03173828125,-1.010787963867188,-0.678466796875
260654,-0.2587432861328125,-0.9801483154296876,-0.5689544677734375
260655,-0.4472198486328125,-0.9637298583984376,-0.3545379638671875
260656,-0.3765411376953125,-0.7776947021484375,0.112091064453125
260657,-0.3765411376953125,-0.7776947021484375,0.112091064453125
260658,-0.129058837890625,-0.6368865966796875,0.1171112060546875
260659,0.0324554443359375,-0.3716278076171875,0.0489654541015625
260660,0.0324554443359375,-0.3716278076171875,0.0489654541015625
260661,-0.07220458984375,0.1085205078125,-0.0516204833984375
260662,-0.181427001953125,0.2333984375,-0.194610595703125
260663,-0.2025299072265625,0.3162078857421875,-0.226165771484375
260664,-0.124359130859375,0.3443145751953125,-0.163421630859375
260665,0.04766845703125,0.2951507568359375,-0.0950927734375
260666,0.2511138916015625,0.0886383056640625,-0.09210205078125
260667,0.3926544189453125,-0.20562744140625,-0.1944580078125
260668,0.3926544189453125,-0.20562744140625,-0.1944580078125
260669,0.188262939453125,-0.1774139404296875,-0.1855316162109375
260670,0.037445068359375,-0.157958984375,-0.2191619873046875
260671,-0.042633056640625,-0.1744842529296875,-0.3030548095703125
260672,-0.0787200927734375,-0.1448974609375,-0.3990631103515625
260673,-0.12841796875,-0.0718231201171875,-0.5716400146484375
260674,-0.2694244384765625,0.0090789794921875,-0.74639892578125
260675,-0.4818572998046875,0.1083221435546875,-0.8883819580078125
260676,-0.4818572998046875,0.1083221435546875,-0.8883819580078125
260677,-0.771697998046875,-0.08013916015625,-0.983551025390625
260678,-0.6691131591796875,-0.5876007080078125,-0.85455322265625
260679,-0.8895111083984375,-0.9434356689453124,-0.6855621337890625
260680,-1.29449462890625,-1.234970092773438,-1.073699951171875
260681,-1.29449462890625,-1.234970092773438,-1.073699951171875
260682,-2.037826538085938,-2.105743408203125,-1.554153442382812
260683,-2.127685546875,-1.903472900390625,-0.8195648193359375
260684,-1.773757934570312,-1.47320556640625,-0.3039093017578125
260685,-0.8646697998046875,-1.428390502929688,-0.3484344482421875
260686,-0.0373382568359375,-1.98370361328125,-0.849151611328125
260687,0.3059844970703125,-2.664260864257812,-1.4310302734375
260688,-0.0736083984375,-2.958740234375,-1.928787231445312
260689,-0.4741058349609375,-2.941070556640625,-1.798629760742188
260690,-0.3660125732421875,-2.573333740234375,-1.134490966796875
260691,-0.0729522705078125,-2.272079467773438,-0.545074462890625
260692,0.1359100341796875,-1.993606567382812,-0.4182586669921875
260693,0.0401153564453125,-1.46014404296875,-0.503387451171875
260694,-0.197967529296875,-1.0521240234375,-0.50909423828125
260695,-0.37152099609375,-0.826873779296875,-0.5772857666015625
260696,-0.37152099609375,-0.826873779296875,-0.5772857666015625
260697,-0.4991912841796875,-0.75177001953125,-0.7797088623046875
260698,-0.58453369140625,-0.9453125,-1.234970092773438
260699,-0.5620574951171875,-1.074386596679688,-1.18670654296875
260700,-0.5620574951171875,-1.074386596679688,-1.18670654296875
260701,-0.5861663818359375,-1.161453247070312,-0.9440765380859376
260702,-0.4565277099609375,-0.9751434326171876,-0.4673309326171875
260703,-0.2244415283203125,-0.649261474609375,-0.216217041015625
260704,0.0280609130859375,-0.3532562255859375,-0.144256591796875
260705,0.0280609130859375,-0.3532562255859375,-0.144256591796875
260706,0.3869781494140625,-0.1202392578125,-0.246978759765625
260707,0.5251312255859375,-0.11346435546875,-0.29766845703125
260708,0.5251312255859375,-0.11346435546875,-0.29766845703125
260709,0.661865234375,-0.1978302001953125,-0.3648223876953125
260710,1.031173706054688,-0.689208984375,-0.3554840087890625
260711,1.16339111328125,-0.870574951171875,-0.4104766845703125
260712,1.150848388671875,-1.000656127929688,-0.4240570068359375
260713,1.150848388671875,-1.000656127929688,-0.4240570068359375
260714,0.7696533203125,-0.93682861328125,-0.3492279052734375
260715,0.5768585205078125,-0.811370849609375,-0.3490142822265625
260716,0.4513702392578125,-0.74267578125,-0.3035888671875
260717,0.35736083984375,-0.70477294921875,-0.179412841796875
260718,0.31591796875,-0.68426513671875,-0.0669708251953125
260719,0.2664947509765625,-0.6531829833984375,0.0708770751953125
260720,0.1701812744140625,-0.5523529052734375,0.1506195068359375
260721,0.1701812744140625,-0.5523529052734375,0.1506195068359375
260722,0.00079345703125,-0.2144927978515625,0.2337493896484375
260723,-0.0951995849609375,-0.0654449462890625,0.1592864990234375
260724,-0.1284637451171875,0.1661224365234375,-0.065185546875
260725,-0.1284637451171875,0.1661224365234375,-0.065185546875
260726,-0.0472869873046875,0.2271575927734375,-0.104156494140625
260727,0.0253143310546875,0.215545654296875,-0.13055419921875
260728,0.0427093505859375,0.1585235595703125,-0.1994476318359375
260729,0.0427093505859375,0.1585235595703125,-0.1994476318359375
260730,-0.0318450927734375,0.051513671875,-0.3751983642578125
260731,-0.144561767578125,0.0267181396484375,-0.473175048828125
260732,-0.2615509033203125,0.051239013671875,-0.5287628173828125
260733,-0.2615509033203125,0.051239013671875,-0.5287628173828125
260734,-0.330078125,0.0107879638671875,-0.63616943359375
260735,-0.40252685546875,-0.06976318359375,-0.676300048828125
260736,-0.572479248046875,-0.1194610595703125,-0.64801025390625
260737,-0.810516357421875,-0.208892822265625,-0.592742919921875
260738,-1.081283569335938,-0.3152008056640625,-0.5899505615234375
260739,-1.393173217773438,-0.4554290771484375,-0.670196533203125
260740,-1.872055053710938,-0.6872711181640625,-0.6622467041015625
260741,-1.872055053710938,-0.6872711181640625,-0.6622467041015625
260742,-2.601486206054688,-1.187911987304688,-0.7541351318359375
260743,-2.478912353515625,-1.333587646484375,-0.7137298583984375
260744,-1.609100341796875,-1.759033203125,-1.306671142578125
260745,-1.609100341796875,-1.759033203125,-1.306671142578125
260746,-0.953369140625,-1.806610107421875,-1.409133911132812
260747,-0.1749420166015625,-1.815475463867188,-1.391021728515625
260748,0.7447052001953125,-2.014968872070312,-1.8328857421875
260749,1.600540161132812,-2.606552124023438,-2.037124633789062
260750,1.819595336914062,-3.177825927734375,-1.549484252929688
260751,0.82537841796875,-2.658477783203125,-1.550338745117188
260752,-0.125213623046875,-1.78155517578125,-1.467971801757812
260753,-0.125213623046875,-1.78155517578125,-1.467971801757812
260754,-0.19293212890625,-1.22802734375,-1.002822875976562
260755,0.064056396484375,-1.22015380859375,-0.7614288330078125
260756,0.27166748046875,-1.17388916015625,-0.664947509765625
260757,0.3610382080078125,-1.062744140625,-0.7207794189453125
260758,0.360687255859375,-1.021835327148438,-0.8952484130859375
260759,0.292572021484375,-1.042449951171875,-1.029067993164062
260760,0.1398468017578125,-0.9775238037109376,-1.090377807617188
260761,0.1398468017578125,-0.9775238037109376,-1.090377807617188
260762,-0.368896484375,-0.8934478759765625,-0.99774169921875
260763,-0.6146087646484375,-0.8858795166015625,-0.88580322265625
260764,-0.8154296875,-0.8600311279296875,-0.6641082763671875
260765,-0.8154296875,-0.8600311279296875,-0.6641082763671875
260766,-0.80743408203125,-0.7101898193359375,-0.3510894775390625
260767,-0.646575927734375,-0.52044677734375,-0.337432861328125
260768,-0.471527099609375,-0.27960205078125,-0.25872802734375
260769,-0.471527099609375,-0.27960205078125,-0.25872802734375
260770,-0.0449066162109375,-0.015228271484375,-0.063873291015625
260771,0.2164764404296875,-0.052703857421875,-0.174346923828125
260772,0.5388336181640625,-0.1831512451171875,-0.3384552001953125
260773,0.874267578125,-0.439727783203125,-0.431304931640625
260774,1.133560180664062,-0.666351318359375,-0.366180419921875
260775,1.265579223632812,-0.7573394775390625,-0.3558502197265625
260776,1.276596069335938,-0.81329345703125,-0.4906005859375
260777,1.276596069335938,-0.81329345703125,-0.4906005859375
260778,0.88067626953125,-0.8883209228515625,-0.495941162109375
260779,0.5677642822265625,-0.8277130126953125,-0.4037017822265625
260780,0.1978759765625,-0.573394775390625,-0.0427398681640625
260781,0.1978759765625,-0.573394775390625,-0.0427398681640625
260782,0.0764312744140625,-0.40460205078125,0.1255645751953125
260783,-0.0692901611328125,-0.2676849365234375,0.1934356689453125
260784,-0.234527587890625,-0.146881103515625,0.2117156982421875
260785,-0.234527587890625,-0.146881103515625,0.2117156982421875
260786,-0.4746551513671875,0.0397186279296875,0.072479248046875
260787,-0.5149078369140625,0.08123779296875,-0.011566162109375
260788,-0.5096282958984375,0.0773773193359375,-0.0557708740234375
260789,-0.5096282958984375,0.0773773193359375,-0.0557708740234375
260790,-0.4176788330078125,-0.0275421142578125,-0.0791778564453125
260791,-0.3271331787109375,-0.0660858154296875,-0.0947723388671875
260792,-0.212127685546875,-0.087188720703125,-0.0961761474609375
260793,-0.100982666015625,-0.1193084716796875,-0.095062255859375
260794,0.0017242431640625,-0.1642608642578125,-0.13726806640625
260795,0.0721282958984375,-0.2187957763671875,-0.21405029296875
260796,0.1189422607421875,-0.343475341796875,-0.1967010498046875
260797,0.1189422607421875,-0.343475341796875,-0.1967010498046875
260798,0.1786956787109375,-0.3610687255859375,-0.17620849609375
260799,0.215423583984375,-0.3837432861328125,-0.2556610107421875
260800,0.1773834228515625,-0.3927764892578125,-0.374664306640625
260801,0.197021484375,-0.3558349609375,-0.5111846923828125
260802,0.1685791015625,-0.4048004150390625,-0.6299591064453125
260803,-0.11383056640625,-0.519317626953125,-0.71856689453125
260804,-1.480072021484375,-1.314163208007812,-1.792556762695312
260805,-1.480072021484375,-1.314163208007812,-1.792556762695312
260806,-2.503631591796875,-1.8619384765625,-1.93133544921875
260807,-3.102996826171875,-2.20135498046875,-1.147674560546875
260808,-2.885757446289062,-2.17718505859375,-0.2549591064453125
260809,-2.212188720703125,-1.862823486328125,0.0667572021484375
260810,-1.96514892578125,-1.933502197265625,-0.2430419921875
260811,-1.849166870117188,-2.519546508789062,-0.96722412109375
260812,-1.417816162109375,-3.206436157226562,-1.950363159179688
260813,-1.417816162109375,-3.206436157226562,-1.950363159179688
260814,-0.3042144775390625,-2.665496826171875,-2.568145751953125
260815,0.35211181640625,-2.22064208984375,-2.769088745117188
260816,0.9174957275390624,-1.852386474609375,-2.141708374023438
260817,1.264907836914062,-1.628555297851562,-0.6972503662109375
260818,1.2252197265625,-1.85430908203125,-0.508758544921875
260819,1.034347534179688,-1.914505004882812,-0.696441650390625
260820,0.2932281494140625,-1.328659057617188,-0.6014556884765625
260821,0.2932281494140625,-1.328659057617188,-0.6014556884765625
260822,0.10284423828125,-0.9176483154296876,-0.5775909423828125
260823,0.2562713623046875,-0.7668609619140625,-0.81915283203125
260824,0.786407470703125,-1.0025634765625,-1.110916137695312
260825,0.786407470703125,-1.0025634765625,-1.110916137695312
260826,0.5541839599609375,-0.876495361328125,-1.0633544921875
260827,0.281890869140625,-0.697418212890625,-0.8914947509765625
260828,0.1448974609375,-0.5948028564453125,-0.6820831298828125
260829,0.1707916259765625,-0.5177764892578125,-0.268646240234375
260830,0.2551422119140625,-0.3228607177734375,0.3847503662109375
260831,0.230194091796875,-0.0676116943359375,0.834136962890625
260832,0.177642822265625,0.180267333984375,1.037033081054688
260833,0.177642822265625,0.180267333984375,1.037033081054688
260834,0.37847900390625,0.2264862060546875,0.530242919921875
260835,0.4990997314453125,0.0135498046875,-0.0650787353515625
260836,0.5619964599609375,-0.2144622802734375,-0.5908050537109375
260837,0.5619964599609375,-0.2144622802734375,-0.5908050537109375
260838,0.6565704345703125,-0.7286376953125,-0.9556427001953124
260839,0.487945556640625,-0.8183441162109375,-0.8488311767578125
260840,0.2184600830078125,-0.629302978515625,-0.644378662109375
260841,0.2184600830078125,-0.629302978515625,-0.644378662109375
260842,-0.1510162353515625,-0.2818450927734375,-0.2405548095703125
260843,-0.19537353515625,-0.2229156494140625,0.07373046875
260844,-0.232879638671875,-0.165771484375,0.2921142578125
260845,-0.3170623779296875,-0.1024627685546875,0.30267333984375
260846,-0.43939208984375,-0.02154541015625,0.1904754638671875
260847,-0.5495452880859375,0.0408782958984375,0.0268707275390625
260848,-0.5777587890625,0.0503997802734375,-0.1504974365234375
260849,-0.5777587890625,0.0503997802734375,-0.1504974365234375
260850,-0.3747711181640625,-0.039764404296875,-0.38995361328125
260851,-0.170562744140625,-0.09765625,-0.382659912109375
260852,0.062347412109375,-0.1158905029296875,-0.3237152099609375
260853,0.062347412109375,-0.1158905029296875,-0.3237152099609375
260854,0.490142822265625,-0.0833740234375,-0.1588134765625
260855,0.633697509765625,-0.0595855712890625,-0.0656280517578125
260856,0.6936492919921875,-0.0325469970703125,-0.0003509521484375
260857,0.678863525390625,-0.015289306640625,0.06622314453125
260858,0.6128082275390625,-0.0175018310546875,0.1157684326171875
260859,0.5299224853515625,-0.016693115234375,0.0825347900390625
260860,0.447601318359375,-0.0087738037109375,-0.0980224609375
260861,0.3489532470703125,0.00042724609375,-0.4219512939453125
260862,0.2207794189453125,0.0839385986328125,-0.832489013671875
260863,-0.0020904541015625,0.183746337890625,-1.175506591796875
260864,-0.2939605712890625,0.16351318359375,-1.294830322265625
260865,-0.5510101318359375,0.1884307861328125,-1.227386474609375
260866,-0.8822479248046875,0.310943603515625,-1.075439453125
260867,-1.413589477539062,0.50848388671875,-0.9031219482421876
260868,-1.862136840820312,0.4819793701171875,-0.9514617919921876
260869,-2.189651489257812,0.1569061279296875,-1.21246337890625
260870,-2.432235717773438,-0.0711517333984375,-1.839614868164062
260871,-2.413040161132812,-0.24725341796875,-2.480667114257812
260872,-2.178817749023438,-0.56396484375,-2.44903564453125
260873,-1.966094970703125,-0.9798583984375,-1.973373413085938
260874,-1.698226928710938,-1.5250244140625,-1.735855102539062
260875,-1.438369750976562,-2.172073364257812,-1.61346435546875
260876,-1.412353515625,-2.770477294921875,-1.284683227539062
260877,-1.604812622070312,-3.224624633789062,-0.7474822998046875
260878,-1.58880615234375,-3.293807983398438,-0.6523590087890625
260879,-1.245071411132812,-2.650131225585938,-0.907501220703125
260880,-0.7794036865234375,-1.877731323242188,-1.301025390625
260881,-0.350341796875,-1.408477783203125,-1.873397827148438
260882,0.1571502685546875,-1.200042724609375,-2.38653564453125
260883,0.838470458984375,-0.967529296875,-1.710098266601562
260884,1.1717529296875,-1.04266357421875,-0.6213836669921875
260885,1.37347412109375,-1.380599975585938,-0.4002227783203125
260886,1.387130737304688,-1.501632690429688,-0.6714935302734375
260887,1.22589111328125,-1.549514770507812,-0.560455322265625
260888,0.9293670654296876,-1.69830322265625,-0.3184814453125
260889,0.9293670654296876,-1.69830322265625,-0.3184814453125
260890,-0.08544921875,-1.262893676757812,0.2095489501953125
260891,-0.36944580078125,-0.72607421875,0.186737060546875
260892,-0.314178466796875,-0.3850860595703125,0.1975860595703125
260893,-0.0082244873046875,-0.2345123291015625,0.2514190673828125
260894,0.38726806640625,-0.2964935302734375,0.1373291015625
260895,0.7021942138671875,-0.60076904296875,-0.1129150390625
260896,0.7938385009765625,-0.965057373046875,-0.3666229248046875
260897,0.7564544677734375,-1.302597045898438,-0.4943084716796875
260898,0.7390594482421875,-1.550003051757812,-0.437042236328125
260899,0.63470458984375,-1.511550903320312,-0.4311065673828125
260900,0.456939697265625,-1.316436767578125,-0.4439849853515625
260901,0.456939697265625,-1.316436767578125,-0.4439849853515625
260902,0.20782470703125,-1.075271606445312,-0.088531494140625
260903,0.0952301025390625,-0.996337890625,-0.017486572265625
260904,-0.048736572265625,-0.8693084716796875,0.0431671142578125
260905,-0.17376708984375,-0.6912994384765625,0.0734405517578125
260906,-0.20526123046875,-0.4639434814453125,0.0471649169921875
260907,-0.15869140625,-0.2205047607421875,-0.0167236328125
260908,-0.1176300048828125,-0.017974853515625,-0.085174560546875
260909,-0.0976715087890625,0.1256103515625,-0.1571807861328125
260910,-0.0563812255859375,0.214935302734375,-0.2127838134765625
260911,0.0194091796875,0.273773193359375,-0.2103729248046875
260912,0.1026153564453125,0.3302154541015625,-0.177886962890625
260913,0.1026153564453125,0.3302154541015625,-0.177886962890625
260914,0.1501922607421875,0.3438568115234375,-0.203826904296875
260915,0.0710906982421875,0.3182525634765625,-0.1551666259765625
260916,-0.0505218505859375,0.2747650146484375,-0.079925537109375
260917,-0.1602630615234375,0.205535888671875,-0.0475311279296875
260918,-0.1987762451171875,0.1123199462890625,-0.1035308837890625
260919,-0.1678314208984375,0.002532958984375,-0.23968505859375
260920,-0.0754852294921875,-0.0755462646484375,-0.4320526123046875
260921,-0.0754852294921875,-0.0755462646484375,-0.4320526123046875
260922,0.15863037109375,-0.2272186279296875,-0.7653656005859375
260923,0.119537353515625,-0.1538848876953125,-0.7353668212890625
260924,-0.0246734619140625,-0.0778656005859375,-0.659271240234375
260925,-0.3251495361328125,-0.0017852783203125,-0.6035919189453125
260926,-0.7252349853515625,0.034454345703125,-0.5990753173828125
260927,-1.188186645507812,0.0130157470703125,-0.6023406982421875
260928,-1.900482177734375,0.0684967041015625,-0.397674560546875
260929,-1.900482177734375,0.0684967041015625,-0.397674560546875
260930,-3.268203735351562,0.3798980712890625,-0.2692718505859375
260931,-3.507659912109375,0.2674713134765625,-0.0603485107421875
260932,-3.059417724609375,-0.1739654541015625,-0.21685791015625
260933,-2.339874267578125,-0.5328369140625,-0.7682647705078125
260934,-1.83673095703125,-0.60369873046875,-1.34051513671875
260935,-1.512451171875,-0.6903839111328125,-1.790313720703125
260936,-0.34332275390625,-1.618133544921875,-2.034912109375
260937,-0.34332275390625,-1.618133544921875,-2.034912109375
260938,0.2664031982421875,-2.29608154296875,-2.611297607421875
260939,0.40423583984375,-3.086166381835938,-2.979812622070312
260940,0.2241973876953125,-3.993209838867188,-3.129562377929688
260941,0.1950225830078125,-3.880783081054688,-0.0655059814453125
260942,0.3755950927734375,-2.68414306640625,0.949432373046875
260943,0.422821044921875,-1.579071044921875,0.006317138671875
260944,0.2271575927734375,-0.9149169921875,-0.765625
260945,0.2908782958984375,-0.75860595703125,-1.178955078125
260946,0.4058990478515625,-0.886627197265625,-1.358428955078125
260947,0.52239990234375,-1.143295288085938,-1.035781860351562
260948,0.7645111083984375,-1.741409301757812,-0.710113525390625
260949,0.7645111083984375,-1.741409301757812,-0.710113525390625
260950,0.6410980224609375,-1.919952392578125,-0.7493133544921875
260951,0.2581329345703125,-1.938323974609375,-0.5885162353515625
260952,-0.124420166015625,-1.6251220703125,-0.3180694580078125
260953,-0.4133148193359375,-1.124740600585938,-0.0508270263671875
260954,-0.6022186279296875,-0.644439697265625,0.1412506103515625
260955,-0.61444091796875,-0.2809906005859375,0.1936187744140625
260956,-0.4990997314453125,-0.0620880126953125,0.179901123046875
260957,-0.4990997314453125,-0.0620880126953125,0.179901123046875
260958,0.2075347900390625,-0.1374664306640625,-0.2481689453125
260959,0.6245269775390625,-0.4497528076171875,-0.4990997314453125
260960,0.9651336669921876,-0.77996826171875,-0.6192779541015625
260961,1.22491455078125,-1.025299072265625,-0.5816802978515625
260962,1.311965942382812,-1.28338623046875,-0.594757080078125
260963,1.1544189453125,-1.42425537109375,-0.511199951171875
260964,0.463287353515625,-1.143112182617188,-0.361785888671875
260965,0.463287353515625,-1.143112182617188,-0.361785888671875
260966,0.0777130126953125,-1.034759521484375,-0.3579864501953125
260967,-0.2922821044921875,-0.9836883544921876,-0.3915252685546875
260968,-0.5548248291015625,-0.9369354248046876,-0.4810028076171875
260969,-0.5548248291015625,-0.9369354248046876,-0.4810028076171875
260970,-0.8455352783203125,-0.550689697265625,-0.562164306640625
260971,-0.8059539794921875,-0.4261474609375,-0.5791015625
260972,-0.6519775390625,-0.3910675048828125,-0.5094146728515625
260973,-0.52740478515625,-0.303741455078125,-0.38031005859375
260974,-0.444915771484375,-0.173248291015625,-0.270721435546875
260975,-0.3868408203125,-0.0333251953125,-0.2029571533203125
260976,-0.2301483154296875,0.2061920166015625,-0.1092987060546875
260977,-0.2301483154296875,0.2061920166015625,-0.1092987060546875
260978,-0.155059814453125,0.3334503173828125,-0.055877685546875
260979,-0.0252532958984375,0.4622650146484375,-0.0818634033203125
260980,0.09014892578125,0.5356597900390625,-0.158660888671875
260981,0.09014892578125,0.5356597900390625,-0.158660888671875
260982,0.1468505859375,0.3990020751953125,-0.223541259765625
260983,0.0848846435546875,0.253662109375,-0.2478179931640625
260984,-0.0095062255859375,0.1578369140625,-0.2357940673828125
260985,-0.0960693359375,0.05194091796875,-0.168060302734375
260986,-0.134185791015625,-0.0403289794921875,-0.1377105712890625
260987,-0.1349945068359375,-0.0794677734375,-0.127410888671875
260988,-0.0953216552734375,-0.0592193603515625,-0.1800537109375
260989,-0.0471649169921875,-0.03424072265625,-0.318511962890625
260990,-0.0346832275390625,-0.0744171142578125,-0.4501495361328125
260991,-0.2168426513671875,-0.07940673828125,-0.5157623291015625
260992,-1.3382568359375,0.0274810791015625,-0.9136199951171876
260993,-1.3382568359375,0.0274810791015625,-0.9136199951171876
260994,-1.964218139648438,-0.1204986572265625,-1.2669677734375
260995,-2.371444702148438,-0.24591064453125,-1.566299438476562
260996,-2.5244140625,-0.2453155517578125,-1.42681884765625
260997,-2.278594970703125,-0.3354034423828125,-0.884796142578125
260998,-1.7891845703125,-0.536041259765625,-0.6292724609375
260999,-1.18402099609375,-0.70294189453125,-1.03363037109375
261000,-0.49920654296875,-1.016937255859375,-2.279632568359375
261001,-0.49920654296875,-1.016937255859375,-2.279632568359375
261002,0.15167236328125,-1.516403198242188,-3.21240234375
261003,1.11962890625,-2.181808471679688,-3.770187377929688
261004,1.57177734375,-2.753158569335938,-2.237762451171875
261005,1.39971923828125,-2.937042236328125,-0.90130615234375
261006,0.8536529541015625,-2.720657348632812,-0.4252777099609375
261007,0.2428741455078125,-2.427841186523438,-0.3466796875
261008,-0.23602294921875,-2.143936157226562,-0.5355072021484375
261009,-0.59619140625,-1.8143310546875,-0.992156982421875
261010,-0.97796630859375,-1.573379516601562,-1.529144287109375
261011,-1.256454467773438,-1.417739868164062,-1.602737426757812
261012,-1.059982299804688,-1.346267700195312,-1.29351806640625
261013,-0.61834716796875,-1.368759155273438,-1.141082763671875
261014,-0.1963653564453125,-1.447174072265625,-1.105636596679688
261015,0.124908447265625,-1.533401489257812,-1.013290405273438
261016,0.18511962890625,-1.4578857421875,-0.82708740234375
261017,0.0285491943359375,-1.286163330078125,-0.6044158935546875
261018,-0.1202850341796875,-1.106002807617188,-0.4359283447265625
261019,-0.267578125,-0.8663482666015625,-0.3320770263671875
261020,-0.3925933837890625,-0.607421875,-0.25634765625
261021,-0.3925933837890625,-0.607421875,-0.25634765625
261022,-0.423370361328125,-0.2368011474609375,-0.2109222412109375
261023,-0.336395263671875,-0.0863037109375,-0.2208099365234375
261024,-0.15283203125,-0.020843505859375,-0.25677490234375
261025,0.1409759521484375,-0.0444183349609375,-0.3499603271484375
261026,0.5093536376953125,-0.12872314453125,-0.5067138671875
261027,0.86492919921875,-0.248138427734375,-0.6614990234375
261028,1.187606811523438,-0.4481658935546875,-0.7837982177734375
261029,1.3504638671875,-0.76531982421875,-0.827423095703125
261030,1.235107421875,-0.9670562744140624,-0.9001922607421875
261031,0.929840087890625,-0.9688873291015624,-0.93804931640625
261032,0.58740234375,-0.8619842529296875,-0.832855224609375
261033,0.2769317626953125,-0.756134033203125,-0.65936279296875
261034,0.02880859375,-0.7268218994140625,-0.4566650390625
261035,-0.1737823486328125,-0.734222412109375,-0.2572784423828125
261036,-0.3609161376953125,-0.700927734375,-0.146484375
261037,-0.549713134765625,-0.5449676513671875,-0.0792694091796875
261038,-0.6643829345703125,-0.3045196533203125,0.0212860107421875
261039,-0.6304168701171875,-0.099365234375,0.0944366455078125
261040,-0.5425262451171875,0.0742034912109375,0.1502838134765625
261041,-0.5425262451171875,0.0742034912109375,0.1502838134765625
261042,-0.378570556640625,0.3634490966796875,0.19085693359375
261043,-0.277435302734375,0.430877685546875,0.13458251953125
261044,-0.1325836181640625,0.417266845703125,0.0512847900390625
261045,-0.1325836181640625,0.417266845703125,0.0512847900390625
261046,-0.0210723876953125,0.1060638427734375,-0.110504150390625
261047,-0.12335205078125,-0.0723419189453125,-0.231781005859375
261048,-0.2649078369140625,-0.2392425537109375,-0.2973480224609375
261049,-0.3695068359375,-0.373992919921875,-0.3216400146484375
261050,-0.418914794921875,-0.422760009765625,-0.3563690185546875
261051,-0.433990478515625,-0.3945159912109375,-0.408447265625
261052,-0.408935546875,-0.320587158203125,-0.4595947265625
261053,-0.2783355712890625,-0.26123046875,-0.5449066162109375
261054,-0.0895233154296875,-0.2750244140625,-0.529083251953125
261055,-0.0624542236328125,-0.269744873046875,-0.408416748046875
261056,-0.6908416748046875,-0.2112579345703125,-0.6369781494140625
261057,-0.6908416748046875,-0.2112579345703125,-0.6369781494140625
261058,-1.087814331054688,-0.4049224853515625,-0.9690093994140624
261059,-1.507080078125,-0.60516357421875,-1.11676025390625
261060,-2.09344482421875,-0.6314697265625,-1.15966796875
261061,-2.665069580078125,-0.3360137939453125,-1.09637451171875
261062,-2.786666870117188,-0.0099334716796875,-0.9885101318359376
261063,-2.538848876953125,0.104461669921875,-1.314804077148438
261064,-2.069488525390625,-0.11492919921875,-1.868377685546875
261065,-1.470733642578125,-0.505889892578125,-2.160232543945312
261066,-0.7237701416015625,-0.9979248046875,-2.354598999023438
261067,0.0303802490234375,-1.616729736328125,-2.913131713867188
261068,0.8636016845703125,-2.371505737304688,-2.906875610351562
261069,1.533187866210938,-3.340606689453125,-1.370956420898438
261070,1.576339721679688,-3.826202392578125,-0.4514617919921875
261071,0.857208251953125,-2.858612060546875,-0.30828857421875
261072,0.272430419921875,-1.57733154296875,-0.6999053955078125
261073,-0.0015106201171875,-1.108901977539062,-1.138046264648438
261074,-0.17608642578125,-1.001632690429688,-1.627426147460938
261075,-0.253570556640625,-1.126861572265625,-1.83758544921875
261076,-0.2327728271484375,-1.182266235351562,-1.490447998046875
261077,-0.059600830078125,-1.176788330078125,-0.881927490234375
261078,0.212738037109375,-1.329345703125,-0.54888916015625
261079,0.451171875,-1.468048095703125,-0.5747833251953125
261080,0.4745635986328125,-1.434036254882812,-0.596160888671875
261081,0.345062255859375,-1.306533813476562,-0.4925384521484375
261082,0.220001220703125,-1.144088745117188,-0.403900146484375
261083,0.09375,-0.901947021484375,-0.315948486328125
261084,-0.007720947265625,-0.6150360107421875,-0.207794189453125
261085,-0.06317138671875,-0.3802947998046875,-0.1284637451171875
261086,-0.1168365478515625,-0.2421875,-0.0888671875
261087,-0.1584930419921875,-0.1645355224609375,-0.08001708984375
261088,-0.1243743896484375,-0.1331634521484375,-0.09075927734375
261089,0.009857177734375,-0.1710968017578125,-0.139678955078125
261090,0.2154083251953125,-0.2767791748046875,-0.235107421875
261091,0.4413299560546875,-0.436737060546875,-0.384124755859375
261092,0.6454620361328125,-0.6237640380859375,-0.5525970458984375
261093,0.6454620361328125,-0.6237640380859375,-0.5525970458984375
261094,0.8770294189453125,-0.9904327392578124,-0.8011474609375
261095,0.8388214111328125,-1.156845092773438,-0.829925537109375
261096,0.656341552734375,-1.213043212890625,-0.80120849609375
261097,0.3481903076171875,-1.167282104492188,-0.6883697509765625
261098,0.021331787109375,-1.078903198242188,-0.46954345703125
261099,-0.2180633544921875,-0.94281005859375,-0.232666015625
261100,-0.3417510986328125,-0.7462310791015625,-0.092315673828125
261101,-0.3417510986328125,-0.7462310791015625,-0.092315673828125
261102,-0.460784912109375,-0.163299560546875,-0.0442657470703125
261103,-0.496307373046875,0.057586669921875,-0.1157684326171875
261104,-0.533447265625,0.204071044921875,-0.13836669921875
261105,-0.548583984375,0.3369140625,-0.0651702880859375
261106,-0.4859771728515625,0.503143310546875,0.039459228515625
261107,-0.3445587158203125,0.6562042236328125,0.077392578125
261108,-0.1360931396484375,0.700347900390625,0.0709075927734375
261109,-0.1360931396484375,0.700347900390625,0.0709075927734375
261110,0.298919677734375,0.310028076171875,-0.054351806640625
261111,0.31378173828125,0.0760040283203125,-0.1478424072265625
261112,0.1956787109375,-0.0263824462890625,-0.1419525146484375
261113,0.097442626953125,-0.113616943359375,-0.119049072265625
261114,0.057830810546875,-0.22430419921875,-0.156036376953125
261115,0.0172576904296875,-0.2958984375,-0.2431182861328125
261116,0.0053863525390625,-0.3249969482421875,-0.3587799072265625
261117,0.024139404296875,-0.339599609375,-0.4888458251953125
261118,0.049072265625,-0.31524658203125,-0.667236328125
261119,-0.0168609619140625,-0.2965850830078125,-0.800872802734375
261120,-0.6003570556640625,-0.2783660888671875,-0.7890625
261121,-0.6003570556640625,-0.2783660888671875,-0.7890625
261122,-1.07049560546875,-0.4350738525390625,-0.7245941162109375
261123,-1.465057373046875,-0.72607421875,-0.689453125
261124,-1.962570190429688,-0.8814239501953125,-0.6662139892578125
261125,-2.608978271484375,-0.7126617431640625,-0.8184356689453125
261126,-3.061737060546875,-0.407867431640625,-1.184829711914062
261127,-3.178787231445312,-0.2975311279296875,-1.409011840820312
261128,-2.863861083984375,-0.4170379638671875,-1.755172729492188
261129,-2.232040405273438,-0.65924072265625,-2.022186279296875
261130,-1.517379760742188,-0.95703125,-2.072738647460938
261131,-0.6891326904296875,-1.405303955078125,-2.062454223632812
261132,0.26580810546875,-2.288177490234375,-2.51361083984375
261133,0.70098876953125,-3.286849975585938,-3.006072998046875
261134,0.851043701171875,-3.761138916015625,-2.550704956054688
261135,0.453765869140625,-3.228317260742188,-0.2757720947265625
261136,0.429412841796875,-2.144729614257812,0.1052398681640625
261137,0.3750457763671875,-1.166244506835938,-0.50079345703125
261138,0.325286865234375,-0.5683746337890625,-1.179946899414062
261139,0.4407196044921875,-0.518280029296875,-1.645767211914062
261140,0.4532318115234375,-0.74786376953125,-1.539093017578125
261141,0.319244384765625,-0.8967742919921875,-1.094085693359375
261142,0.157989501953125,-1.099517822265625,-0.9319305419921876
261143,0.01422119140625,-1.306167602539062,-1.023468017578125
261144,-0.169036865234375,-1.371551513671875,-0.8380279541015625
261145,-0.169036865234375,-1.371551513671875,-0.8380279541015625
261146,-0.225250244140625,-0.87713623046875,-0.220977783203125
261147,-0.1065216064453125,-0.5408172607421875,-0.2621612548828125
261148,-0.0153350830078125,-0.330230712890625,-0.2513275146484375
261149,0.0489349365234375,-0.1857757568359375,-0.103363037109375
261150,0.0901031494140625,-0.07855224609375,0.0352630615234375
261151,0.1075897216796875,-0.105010986328125,0.094390869140625
261152,0.111328125,-0.2373199462890625,0.048736572265625
261153,0.2120361328125,-0.386474609375,-0.1529541015625
261154,0.4631805419921875,-0.610626220703125,-0.4026641845703125
261155,0.70648193359375,-0.900787353515625,-0.569976806640625
261156,0.8814239501953125,-1.06231689453125,-0.6866607666015625
261157,0.9306182861328124,-0.9800262451171876,-0.6921844482421875
261158,0.84820556640625,-0.8070220947265625,-0.6015472412109375
261159,0.590576171875,-0.697357177734375,-0.482757568359375
261160,0.2848052978515625,-0.6743927001953125,-0.3584747314453125
261161,0.02996826171875,-0.69000244140625,-0.197509765625
261162,-0.1065673828125,-0.7059783935546875,-0.0638580322265625
261163,-0.096221923828125,-0.7549285888671875,-0.0001983642578125
261164,-0.085357666015625,-0.824859619140625,0.007568359375
261165,-0.1029205322265625,-0.814300537109375,-0.003509521484375
261166,-0.070343017578125,-0.6789703369140625,-0.0281982421875
261167,-0.0060577392578125,-0.396209716796875,-0.077392578125
261168,0.0378265380859375,-0.24078369140625,-0.1287841796875
261169,0.073150634765625,-0.132568359375,-0.0958404541015625
261170,0.1646728515625,0.0101470947265625,0.0047760009765625
261171,0.3042144775390625,0.1089630126953125,0.1364898681640625
261172,0.467498779296875,0.1866912841796875,0.194854736328125
261173,0.6136322021484375,0.1640167236328125,0.1634979248046875
261174,0.61895751953125,0.0147857666015625,0.09088134765625
261175,0.43359375,-0.07708740234375,0.0130615234375
261176,0.158721923828125,-0.0482635498046875,-0.0808868408203125
261177,-0.0508880615234375,-0.049163818359375,-0.2203826904296875
261178,-0.2121429443359375,-0.079132080078125,-0.371917724609375
261179,-0.37249755859375,-0.083099365234375,-0.4910888671875
261180,-0.4343414306640625,-0.057464599609375,-0.6454010009765625
261181,-0.4123687744140625,-0.0887298583984375,-0.7639007568359375
261182,-0.4333343505859375,-0.188934326171875,-0.686370849609375
261183,-0.4786529541015625,-0.1914825439453125,-0.522857666015625
261184,-0.6294097900390625,-0.1808929443359375,-0.336090087890625
261185,-1.015899658203125,-0.227813720703125,0.0672607421875
261186,-1.740447998046875,-0.2809906005859375,0.275421142578125
261187,-2.649261474609375,-0.3994598388671875,0.011474609375
261188,-3.58355712890625,-0.589141845703125,-0.5199737548828125
261189,-3.58355712890625,-0.589141845703125,-0.5199737548828125
261190,-4.190093994140625,-0.26507568359375,-1.12176513671875
261191,-3.132568359375,-0.1199798583984375,-1.239501953125
261192,-2.240631103515625,-0.084442138671875,-1.516098022460938
261193,-1.561630249023438,-0.233062744140625,-1.742904663085938
261194,-0.996795654296875,-0.7254638671875,-1.715805053710938
261195,-0.3961639404296875,-1.4637451171875,-2.0548095703125
261196,-0.022796630859375,-3.009567260742188,-2.862396240234375
261197,-0.022796630859375,-3.009567260742188,-2.862396240234375
261198,0.695220947265625,-4.7557373046875,-0.2907562255859375
261199,0.6231842041015625,-2.652908325195312,0.31689453125
261200,0.1358642578125,-0.2666473388671875,-1.446670532226562
261201,0.1358642578125,-0.2666473388671875,-1.446670532226562
261202,0.2062225341796875,-0.5163726806640625,-1.719024658203125
261203,0.2602691650390625,-0.982391357421875,-1.303970336914062
261204,0.3274688720703125,-1.453964233398438,-0.7054290771484375
261205,0.6003875732421875,-1.906600952148438,-0.4716949462890625
261206,0.8451080322265625,-2.350494384765625,-0.4869384765625
261207,0.8451080322265625,-2.350494384765625,-0.4869384765625
261208,0.73358154296875,-1.05401611328125,-0.126617431640625
261209,0.73358154296875,-1.05401611328125,-0.126617431640625
261210,0.498626708984375,-0.8213043212890625,-0.06463623046875
261211,0.3679962158203125,-0.6793060302734375,-0.1540985107421875
261212,0.2389678955078125,-0.5705108642578125,-0.287353515625
261213,0.1359710693359375,-0.4869842529296875,-0.30010986328125
261214,0.1608123779296875,-0.358917236328125,-0.155975341796875
261215,0.3782501220703125,-0.2682952880859375,0.02276611328125
261216,0.714202880859375,-0.3541259765625,0.0872802734375
261217,0.9988555908203124,-0.5591583251953125,0.041412353515625
261218,1.167449951171875,-0.7985992431640625,-0.0957489013671875
261219,1.19580078125,-0.935943603515625,-0.254852294921875
261220,1.097946166992188,-0.9951171875,-0.4628753662109375
261221,0.8123779296875,-1.042007446289062,-0.630828857421875
261222,0.3707122802734375,-1.097366333007812,-0.6843109130859375
261223,-0.08807373046875,-1.14581298828125,-0.608856201171875
261224,-0.4889678955078125,-1.13958740234375,-0.421661376953125
261225,-0.783294677734375,-1.042343139648438,-0.2375335693359375
261226,-0.8784332275390625,-0.9377288818359376,-0.1499786376953125
261227,-0.8002471923828125,-0.8138275146484375,-0.1534423828125
261228,-0.661834716796875,-0.5659637451171875,-0.21295166015625
261229,-0.534088134765625,-0.293365478515625,-0.2593994140625
261230,-0.4126739501953125,-0.079925537109375,-0.2643280029296875
261231,-0.314453125,0.0854949951171875,-0.2489776611328125
261232,-0.2500152587890625,0.2213134765625,-0.2146148681640625
261233,-0.1943511962890625,0.36212158203125,-0.153961181640625
261234,-0.1187591552734375,0.465545654296875,-0.08111572265625
261235,-0.0322265625,0.490325927734375,-0.041015625
261236,0.012298583984375,0.452362060546875,-0.034027099609375
261237,0.0297088623046875,0.3600311279296875,-0.03887939453125
261238,0.028350830078125,0.2428741455078125,-0.0281982421875
261239,0.0159454345703125,0.1415863037109375,-0.0619354248046875
261240,-0.0582275390625,0.0699005126953125,-0.0985870361328125
261241,-0.1531982421875,-0.0114898681640625,-0.1585235595703125
261242,-0.232635498046875,-0.1461334228515625,-0.2783355712890625
261243,-0.30633544921875,-0.30267333984375,-0.4160003662109375
261244,-0.3145904541015625,-0.279815673828125,-0.4529571533203125
261245,-0.3145904541015625,-0.279815673828125,-0.4529571533203125
261246,-0.17242431640625,-0.233917236328125,-0.5004425048828125
261247,-0.13397216796875,-0.2325897216796875,-0.582489013671875
261248,-0.4016265869140625,-0.3162994384765625,-0.664642333984375
261249,-1.02557373046875,-0.484832763671875,-0.666351318359375
261250,-1.901214599609375,-0.6261444091796875,-0.5804595947265625
261251,-2.737457275390625,-0.458770751953125,-0.707122802734375
261252,-3.130447387695312,-0.0767669677734375,-1.079498291015625
261253,-3.133102416992188,0.0210418701171875,-1.379669189453125
261254,-3.0247802734375,-0.390594482421875,-1.533935546875
261255,-2.98199462890625,-0.961669921875,-1.749237060546875
261256,-2.824310302734375,-1.255661010742188,-1.872451782226562
261257,-2.188491821289062,-1.524078369140625,-1.623947143554688
261258,-1.335372924804688,-2.08489990234375,-1.60430908203125
261259,-0.4171600341796875,-2.805084228515625,-2.14544677734375
261260,0.17529296875,-3.43572998046875,-2.986099243164062
261261,0.596649169921875,-3.155181884765625,-2.765762329101562
261262,0.8498687744140625,-2.249526977539062,-0.3684234619140625
261263,0.6475677490234375,-1.60589599609375,-0.279510498046875
261264,0.6879119873046875,-0.7494659423828125,-1.030532836914062
261265,0.912078857421875,-0.478759765625,-1.557525634765625
261266,0.972320556640625,-0.9550018310546876,-1.420074462890625
261267,0.9013214111328124,-1.442947387695312,-0.807464599609375
261268,0.7584228515625,-1.596420288085938,-0.2905426025390625
261269,0.7513427734375,-1.507110595703125,-0.2172088623046875
261270,0.8427886962890625,-1.28753662109375,-0.278045654296875
261271,0.871002197265625,-0.96136474609375,-0.3206024169921875
261272,0.783172607421875,-0.7617950439453125,-0.1646728515625
261273,0.6110382080078125,-0.648040771484375,0.0096893310546875
261274,0.420257568359375,-0.5891876220703125,0.044586181640625
261275,0.221832275390625,-0.5213775634765625,-0.0174560546875
261276,0.0005340576171875,-0.31085205078125,-0.056488037109375
261277,0.0005340576171875,-0.31085205078125,-0.056488037109375
261278,0.0650177001953125,-0.2416839599609375,0.039581298828125
261279,0.2696685791015625,-0.2687530517578125,0.0609130859375
261280,0.5186309814453125,-0.3756866455078125,-0.015594482421875
261281,0.7671661376953125,-0.5366363525390625,-0.1589813232421875
261282,0.889862060546875,-0.6869964599609375,-0.237060546875
261283,0.9322357177734376,-0.7864532470703125,-0.3051605224609375
261284,0.9289703369140624,-0.9121551513671876,-0.4390411376953125
261285,0.770904541015625,-1.019790649414062,-0.54205322265625
261286,0.438934326171875,-1.093063354492188,-0.54083251953125
261287,0.02703857421875,-1.10479736328125,-0.4682769775390625
261288,-0.338043212890625,-1.064773559570312,-0.349029541015625
261289,-0.564483642578125,-0.975372314453125,-0.23101806640625
261290,-0.6100311279296875,-0.7512054443359375,-0.1702423095703125
261291,-0.50274658203125,-0.4448089599609375,-0.1527099609375
261292,-0.3483123779296875,-0.1829681396484375,-0.1300811767578125
261293,-0.190155029296875,0.0455474853515625,-0.0844268798828125
261294,-0.065277099609375,0.2165069580078125,-0.036224365234375
261295,-0.065277099609375,0.2165069580078125,-0.036224365234375
261296,0.0351715087890625,0.4592437744140625,-0.1609039306640625
261297,0.0351715087890625,0.4592437744140625,-0.1609039306640625
261298,-0.020233154296875,0.4315948486328125,-0.20880126953125
261299,-0.09637451171875,0.3366851806640625,-0.2206878662109375
261300,-0.182281494140625,0.2149810791015625,-0.188385009765625
261301,-0.2008056640625,0.0723724365234375,-0.2223052978515625
261302,-0.2062530517578125,-0.080902099609375,-0.2984619140625
261303,-0.2806549072265625,-0.1920166015625,-0.430633544921875
261304,-0.42938232421875,-0.2210845947265625,-0.62255859375
261305,-0.582550048828125,-0.082916259765625,-0.8558502197265625
261306,-0.7860260009765625,0.0130157470703125,-1.093414306640625
261307,-1.581283569335938,-0.0184173583984375,-0.69256591796875
261308,-1.581283569335938,-0.0184173583984375,-0.69256591796875
261309,-2.126434326171875,0.0410003662109375,-0.5368194580078125
261310,-2.788375854492188,0.186370849609375,-0.6499481201171875
261311,-3.273025512695312,0.186309814453125,-0.7364349365234375
261312,-3.357330322265625,-0.11859130859375,-0.633453369140625
261313,-2.954727172851562,-0.5500640869140625,-0.5733489990234375
261314,-2.505081176757812,-0.727752685546875,-0.7636566162109375
261315,-2.26287841796875,-0.8231353759765625,-1.021804809570312
261316,-2.089767456054688,-1.026351928710938,-1.312759399414062
261317,-1.822982788085938,-1.3902587890625,-1.561431884765625
261318,-0.910125732421875,-1.914230346679688,-1.916183471679688
261319,-0.265045166015625,-2.52655029296875,-2.593170166015625
261320,-0.14044189453125,-2.72979736328125,-3.177886962890625
261321,0.4113922119140625,-2.334381103515625,-1.192184448242188
261322,0.727813720703125,-2.056747436523438,0.084716796875
261323,0.749420166015625,-1.36566162109375,-0.184539794921875
261324,0.6054229736328125,-0.7593994140625,-1.002761840820312
261325,0.2981414794921875,-0.699920654296875,-1.3251953125
261326,0.102752685546875,-0.8683624267578125,-1.104568481445312
261327,0.1139984130859375,-0.9822845458984376,-0.7653350830078125
261328,0.4226837158203125,-1.064285278320312,-0.569122314453125
261329,0.8422393798828125,-1.279769897460938,-0.4630889892578125
261330,1.080612182617188,-1.600204467773438,-0.354949951171875
261331,1.199554443359375,-1.755844116210938,-0.2808685302734375
261332,1.266448974609375,-1.582122802734375,-0.4636077880859375
261333,1.141082763671875,-1.257049560546875,-0.4368896484375
261334,0.786712646484375,-0.944732666015625,-0.0834503173828125
261335,0.3858184814453125,-0.6756439208984375,0.122222900390625
261336,0.1507110595703125,-0.5223846435546875,0.069488525390625
261337,0.06280517578125,-0.47918701171875,-0.09210205078125
261338,-0.0188751220703125,-0.4095001220703125,-0.143768310546875
261339,-0.0601959228515625,-0.3317413330078125,-0.0684661865234375
261340,0.03521728515625,-0.3964385986328125,-0.0309600830078125
261341,0.1772613525390625,-0.589935302734375,-0.1216278076171875
261342,0.3047943115234375,-0.761199951171875,-0.3114471435546875
261343,0.4351806640625,-0.9522857666015624,-0.51318359375
261344,0.486541748046875,-1.105575561523438,-0.6296844482421875
261345,0.4340972900390625,-1.157272338867188,-0.644073486328125
261346,0.3292236328125,-1.121856689453125,-0.602752685546875
261347,0.211883544921875,-1.005462646484375,-0.5099334716796875
261348,0.1147308349609375,-0.941864013671875,-0.3930816650390625
261349,0.0190582275390625,-0.935699462890625,-0.305511474609375
261350,-0.0977630615234375,-0.8220672607421875,-0.2622528076171875
261351,-0.1995849609375,-0.5843353271484375,-0.2140350341796875
261352,-0.225128173828125,-0.2914276123046875,-0.161468505859375
261353,-0.19769287109375,-0.05462646484375,-0.14068603515625
261354,-0.156829833984375,0.108184814453125,-0.10296630859375
261355,-0.110931396484375,0.2211151123046875,-0.031494140625
261356,-0.0795135498046875,0.2798309326171875,0.0219268798828125
261357,-0.072784423828125,0.3325042724609375,0.0057830810546875
261358,-0.094970703125,0.37841796875,-0.0505523681640625
261359,-0.13092041015625,0.40472412109375,-0.11761474609375
261360,-0.171630859375,0.3956298828125,-0.1828460693359375
261361,-0.2014923095703125,0.3539581298828125,-0.27410888671875
261362,-0.23321533203125,0.2789306640625,-0.3790283203125
261363,-0.2832183837890625,0.1707763671875,-0.4579010009765625
261364,-0.313201904296875,0.036865234375,-0.4854583740234375
261365,-0.267303466796875,-0.1499786376953125,-0.4870758056640625
261366,-0.14044189453125,-0.3642120361328125,-0.497406005859375
261367,-0.0202789306640625,-0.5133819580078125,-0.524749755859375
261368,0.033477783203125,-0.543914794921875,-0.6531982421875
261369,0.0191802978515625,-0.5221405029296875,-0.9485321044921876
261370,-0.179290771484375,-0.5444488525390625,-1.052490234375
261371,-0.629852294921875,-0.5478973388671875,-0.7388153076171875
261372,-1.237319946289062,-0.577423095703125,-0.5881805419921875
261373,-2.126571655273438,-0.4873199462890625,-0.7845611572265625
261374,-3.106948852539062,-0.4607696533203125,-1.308319091796875
261375,-3.833740234375,-0.4580078125,-1.380661010742188
261376,-3.712936401367188,-0.4438934326171875,-1.301361083984375
261377,-2.83880615234375,-0.6290740966796875,-1.430496215820312
261378,-2.184722900390625,-0.949310302734375,-1.444259643554688
261379,-2.184722900390625,-0.949310302734375,-1.444259643554688
261380,-1.093109130859375,-2.247604370117188,-1.863250732421875
261381,-0.25201416015625,-3.44818115234375,-2.800308227539062
261382,0.698638916015625,-3.921096801757812,-2.908218383789062
261383,1.097854614257812,-2.904495239257812,-0.698577880859375
261384,0.7514190673828125,-1.694854736328125,-0.1980438232421875
261385,0.5097503662109375,-0.797027587890625,-0.7567291259765625
261386,0.354644775390625,-0.451812744140625,-1.52874755859375
261387,0.344024658203125,-0.676910400390625,-1.502059936523438
261388,0.4746246337890625,-1.142059326171875,-0.772125244140625
261389,0.8337249755859375,-1.732986450195312,-0.233489990234375
261390,1.16473388671875,-2.157745361328125,-0.1865234375
261391,1.469497680664062,-1.90185546875,-0.0686798095703125
261392,1.657302856445312,-1.393524169921875,-0.2692718505859375
261393,1.582611083984375,-1.14703369140625,-0.383636474609375
261394,1.227996826171875,-1.121047973632812,-0.0429229736328125
261395,0.178863525390625,-0.8969573974609375,0.18267822265625
261396,0.178863525390625,-0.8969573974609375,0.18267822265625
261397,-0.065521240234375,-0.605499267578125,0.068695068359375
261398,-0.12945556640625,-0.4270782470703125,-0.02691650390625
261399,-0.1168060302734375,-0.2785797119140625,-0.0201873779296875
261400,0.04876708984375,-0.1936798095703125,-0.0178375244140625
261401,0.300567626953125,-0.24237060546875,0.0084991455078125
261402,0.443389892578125,-0.321563720703125,0.0260162353515625
261403,0.4770965576171875,-0.410888671875,-0.0904541015625
261404,0.516693115234375,-0.5655517578125,-0.30126953125
261405,0.5382537841796875,-0.6894989013671875,-0.43145751953125
261406,0.4644927978515625,-0.804931640625,-0.497406005859375
261407,0.4644927978515625,-0.804931640625,-0.497406005859375
261408,-0.00689697265625,-0.98529052734375,-0.471771240234375
261409,-0.32470703125,-0.931732177734375,-0.41436767578125
261410,-0.506134033203125,-0.7621002197265625,-0.350738525390625
261411,-0.4931488037109375,-0.52685546875,-0.2620391845703125
261412,-0.3502044677734375,-0.3016815185546875,-0.185272216796875
261413,-0.2030029296875,-0.1019287109375,-0.1232452392578125
261414,-0.1237335205078125,0.077484130859375,-0.033966064453125
261415,-0.0647735595703125,0.2256622314453125,0.0514068603515625
261416,0.0027618408203125,0.3224639892578125,0.074554443359375
261417,0.035858154296875,0.356719970703125,0.038604736328125
261418,0.0404815673828125,0.35888671875,-0.06793212890625
261419,0.0001220703125,0.339019775390625,-0.1638946533203125
261420,-0.0746612548828125,0.3083648681640625,-0.195068359375
261421,-0.1388092041015625,0.2613525390625,-0.236328125
261422,-0.167327880859375,0.190887451171875,-0.3443603515625
261423,-0.2017059326171875,0.111236572265625,-0.4579620361328125
261424,-0.2563323974609375,0.0518341064453125,-0.5614013671875
261425,-0.402557373046875,0.0350189208984375,-0.549407958984375
261426,-0.562744140625,0.060455322265625,-0.5665130615234375
261427,-0.6616363525390625,0.007080078125,-0.6435699462890625
261428,-0.8019256591796875,-0.110015869140625,-0.5892486572265625
261429,-1.026321411132812,-0.1819305419921875,-0.5225372314453125
261430,-1.342620849609375,-0.2307281494140625,-0.6260528564453125
261431,-1.699417114257812,-0.32928466796875,-0.76873779296875
261432,-2.029006958007812,-0.3871307373046875,-0.8544921875
261433,-2.258331298828125,-0.3313140869140625,-0.8790283203125
261434,-2.352828979492188,-0.3840484619140625,-0.9012451171875
261435,-2.451614379882812,-0.5618743896484375,-0.9683685302734376
261436,-2.684707641601562,-0.912750244140625,-1.1148681640625
261437,-2.810836791992188,-1.44512939453125,-1.348251342773438
261438,-2.478485107421875,-1.915557861328125,-1.470993041992188
261439,-1.431747436523438,-2.327224731445312,-1.984176635742188
261440,-0.4038238525390625,-3.044403076171875,-2.902786254882812
261441,0.6938934326171875,-3.408905029296875,-3.05963134765625
261442,1.4593505859375,-3.093719482421875,-0.818603515625
261443,1.387725830078125,-2.466354370117188,-0.5840301513671875
261444,0.9804534912109376,-1.552871704101562,-1.110671997070312
261445,0.5621795654296875,-1.209609985351562,-1.369949340820312
261446,0.3163909912109375,-1.305999755859375,-0.930999755859375
261447,0.095733642578125,-1.376022338867188,-0.3619232177734375
261448,0.0236968994140625,-1.289047241210938,-0.1847686767578125
261449,0.1950836181640625,-1.352569580078125,-0.4160614013671875
261450,0.457977294921875,-1.611129760742188,-0.611907958984375
261451,0.6703643798828125,-1.636489868164062,-0.613525390625
261452,0.8221893310546875,-1.49151611328125,-0.534637451171875
261453,0.8662872314453125,-1.336685180664062,-0.41937255859375
261454,0.7772979736328125,-1.167373657226562,-0.1260986328125
261455,0.6072845458984375,-1.05792236328125,0.128875732421875
261456,0.4262542724609375,-0.969207763671875,0.159881591796875
261457,0.2302398681640625,-0.7419891357421875,0.037322998046875
261458,0.0565338134765625,-0.4916839599609375,-0.0887603759765625
261459,-0.0808868408203125,-0.303497314453125,-0.1360626220703125
261460,-0.09173583984375,-0.1806182861328125,-0.102630615234375
261461,0.0293731689453125,-0.125518798828125,-0.0284423828125
261462,0.174713134765625,-0.188385009765625,-0.014495849609375
261463,0.2874298095703125,-0.3235626220703125,-0.1068572998046875
261464,0.4029388427734375,-0.469512939453125,-0.273345947265625
261465,0.45697021484375,-0.6002044677734375,-0.3251495361328125
261466,0.4238128662109375,-0.6699676513671875,-0.2537384033203125
261467,0.3281097412109375,-0.6722259521484375,-0.1747894287109375
261468,0.1660919189453125,-0.5872802734375,-0.1160888671875
261469,0.0121307373046875,-0.4547119140625,-0.1095733642578125
261470,-0.0622406005859375,-0.35333251953125,-0.16644287109375
261471,-0.0845947265625,-0.2233734130859375,-0.21478271484375
261472,-0.06463623046875,-0.0298309326171875,-0.2186737060546875
261473,-0.0188751220703125,0.139007568359375,-0.197296142578125
261474,0.0506439208984375,0.240386962890625,-0.1625518798828125
261475,0.1004791259765625,0.3013458251953125,-0.095947265625
261476,0.1136016845703125,0.321380615234375,-0.0648040771484375
261477,0.0668792724609375,0.289276123046875,-0.0684356689453125
261478,-0.019775390625,0.233673095703125,-0.058135986328125
261479,-0.2428436279296875,0.1398162841796875,-0.0877838134765625
261480,-0.2428436279296875,0.1398162841796875,-0.0877838134765625
261481,-0.3380279541015625,0.1318511962890625,-0.1804351806640625
261482,-0.3907928466796875,0.102264404296875,-0.30059814453125
261483,-0.4409637451171875,0.0434722900390625,-0.4029998779296875
261484,-0.537322998046875,-0.008392333984375,-0.4922332763671875
261485,-0.68988037109375,-0.0056304931640625,-0.5396728515625
261486,-0.8753814697265625,0.0423126220703125,-0.5951690673828125
261487,-1.098129272460938,0.0612640380859375,-0.7350616455078125
261488,-1.332412719726562,0.0324859619140625,-0.858795166015625
261489,-1.58074951171875,-0.0028839111328125,-1.014678955078125
261490,-1.867294311523438,-0.0755462646484375,-1.311309814453125
261491,-2.124267578125,-0.2227783203125,-1.512802124023438
261492,-2.172286987304688,-0.3225250244140625,-1.501724243164062
261493,-1.992645263671875,-0.352783203125,-1.423538208007812
261494,-1.872116088867188,-0.4668121337890625,-1.386245727539062
261495,-1.904510498046875,-0.7893524169921875,-1.37451171875
261496,-1.994171142578125,-1.302947998046875,-1.403106689453125
261497,-2.028717041015625,-1.829437255859375,-1.340499877929688
261498,-1.967437744140625,-2.132598876953125,-1.092361450195312
261499,-1.796249389648438,-2.110885620117188,-0.8756561279296875
261500,-1.442138671875,-1.839126586914062,-0.9904327392578124
261501,-1.165908813476562,-1.599899291992188,-1.342910766601562
261502,-0.8166046142578125,-1.446121215820312,-1.8399658203125
261503,-0.27435302734375,-1.403472900390625,-1.284255981445312
261504,0.171966552734375,-1.521408081054688,-0.6807708740234375
261505,0.437652587890625,-1.564987182617188,-0.54766845703125
261506,0.6727447509765625,-1.430023193359375,-0.8438720703125
261507,1.098983764648438,-1.833831787109375,-0.4962921142578125
261508,1.098983764648438,-1.833831787109375,-0.4962921142578125
261509,1.194686889648438,-2.045013427734375,-0.2101287841796875
261510,1.166656494140625,-1.839859008789062,-0.1842803955078125
261511,1.1541748046875,-1.472564697265625,-0.26715087890625
261512,1.199417114257812,-1.289093017578125,-0.1847381591796875
261513,1.136184692382812,-1.229293823242188,0.0653228759765625
261514,0.9566192626953124,-1.15087890625,0.209442138671875
261515,0.69281005859375,-1.053634643554688,0.2054290771484375
261516,0.3959197998046875,-0.8885345458984375,0.110870361328125
261517,0.1591949462890625,-0.7017364501953125,-0.036102294921875
261518,0.0439605712890625,-0.519195556640625,-0.1025238037109375
261519,0.0439605712890625,-0.519195556640625,-0.1025238037109375
261520,0.25384521484375,-0.4147796630859375,-0.06884765625
261521,0.4065704345703125,-0.5466461181640625,-0.1318817138671875
261522,0.523345947265625,-0.667327880859375,-0.236114501953125
261523,0.523345947265625,-0.667327880859375,-0.236114501953125
261524,0.5469818115234375,-0.772125244140625,-0.336700439453125
261525,0.37152099609375,-0.77313232421875,-0.3630218505859375
261526,0.0933074951171875,-0.7164154052734375,-0.38909912109375
261527,-0.19171142578125,-0.57110595703125,-0.371429443359375
261528,-0.38348388671875,-0.3434906005859375,-0.268096923828125
261529,-0.427001953125,-0.108734130859375,-0.1743927001953125
261530,-0.4113311767578125,0.0652008056640625,-0.140716552734375
261531,-0.332733154296875,0.241729736328125,-0.0973968505859375
261532,-0.2310333251953125,0.35150146484375,-0.040008544921875
261533,-0.1403656005859375,0.3761444091796875,0.0062255859375
261534,-0.0507965087890625,0.3383941650390625,0.0133514404296875
261535,0.0168914794921875,0.2590179443359375,-0.002716064453125
261536,0.0341644287109375,0.1941070556640625,-0.038818359375
261537,0.02294921875,0.1444854736328125,-0.0999755859375
261538,-0.01739501953125,0.1053314208984375,-0.1789093017578125
261539,-0.06719970703125,0.0654144287109375,-0.2843017578125
261540,-0.1217803955078125,0.00445556640625,-0.3817901611328125
261541,-0.2156982421875,-0.06280517578125,-0.472320556640625
261542,-0.314208984375,-0.1192779541015625,-0.5719757080078125
261543,-0.314208984375,-0.1192779541015625,-0.5719757080078125
261544,-0.487762451171875,-0.336883544921875,-0.7631988525390625
261545,-0.58416748046875,-0.3111572265625,-0.8538665771484375
261546,-0.65594482421875,-0.252410888671875,-0.939453125
261547,-0.783935546875,-0.1612548828125,-0.979766845703125
261548,-1.02294921875,-0.0051422119140625,-0.903076171875
261549,-1.318099975585938,0.06951904296875,-0.7524261474609375
261550,-1.607864379882812,0.14862060546875,-0.6333770751953125
261551,-1.88934326171875,0.2398681640625,-0.7587432861328125
261552,-2.145431518554688,0.26580810546875,-1.043792724609375
261553,-2.337615966796875,0.0669097900390625,-1.327362060546875
261554,-2.460067749023438,-0.319671630859375,-1.47723388671875
261555,-2.460067749023438,-0.319671630859375,-1.47723388671875
261556,-2.580612182617188,-1.316879272460938,-1.35205078125
261557,-2.353500366210938,-2.08599853515625,-1.351577758789062
261558,-1.79034423828125,-3.05633544921875,-1.539291381835938
261559,-1.068283081054688,-3.635650634765625,-1.875595092773438
261560,-0.2964630126953125,-3.24493408203125,-2.29656982421875
261561,0.3388519287109375,-2.363357543945312,-1.276382446289062
261562,0.6350250244140625,-1.82757568359375,-0.7646484375
261563,0.6566314697265625,-1.441619873046875,-0.883270263671875
261564,0.54241943359375,-1.119171142578125,-1.198959350585938
261565,0.4832611083984375,-1.093841552734375,-1.192398071289062
261566,0.5194091796875,-1.322723388671875,-0.6454315185546875
261567,0.6093902587890625,-1.67962646484375,-0.1428985595703125
261568,0.765838623046875,-1.898666381835938,-0.0623626708984375
261569,0.913909912109375,-1.823043823242188,-0.225860595703125
261570,1.034454345703125,-1.5499267578125,-0.415191650390625
261571,1.034454345703125,-1.5499267578125,-0.415191650390625
261572,1.145889282226562,-1.215133666992188,-0.2559051513671875
261573,1.02484130859375,-1.122528076171875,0.0637359619140625
261574,0.743011474609375,-1.0643310546875,0.2323455810546875
261575,0.37139892578125,-1.018783569335938,0.2103118896484375
261576,-0.016571044921875,-0.7640838623046875,0.155609130859375
261577,-0.2973175048828125,-0.4666900634765625,0.0378265380859375
261578,-0.3516387939453125,-0.257843017578125,-0.024658203125
261579,-0.3516387939453125,-0.257843017578125,-0.024658203125
261580,0.173919677734375,-0.2442779541015625,-0.0484619140625
261581,0.4637603759765625,-0.37286376953125,-0.134033203125
261582,0.635986328125,-0.5448455810546875,-0.219146728515625
261583,0.7162322998046875,-0.6470184326171875,-0.2812957763671875
261584,0.7057952880859375,-0.728759765625,-0.3294677734375
261585,0.562103271484375,-0.7655029296875,-0.3302764892578125
261586,0.279876708984375,-0.729705810546875,-0.307952880859375
261587,-0.049346923828125,-0.62506103515625,-0.283203125
261588,-0.3182220458984375,-0.443084716796875,-0.2168731689453125
261589,-0.466796875,-0.237823486328125,-0.12811279296875
261590,-0.4704132080078125,-0.061187744140625,-0.101043701171875
261591,-0.384063720703125,0.0831298828125,-0.121917724609375
261592,-0.2611846923828125,0.20318603515625,-0.1165008544921875
261593,-0.1453399658203125,0.2673187255859375,-0.10272216796875
261594,-0.06097412109375,0.2721405029296875,-0.105255126953125
261595,-0.044677734375,0.29058837890625,-0.0991668701171875
261596,-0.079376220703125,0.3189849853515625,-0.1167755126953125
261597,-0.123748779296875,0.3112030029296875,-0.1751861572265625
261598,-0.1644134521484375,0.2760467529296875,-0.2438201904296875
261599,-0.201080322265625,0.220428466796875,-0.2831573486328125
261600,-0.2714691162109375,0.1717681884765625,-0.3075103759765625
261601,-0.3153533935546875,0.1276397705078125,-0.417327880859375
261602,-0.3205413818359375,0.0380401611328125,-0.569610595703125
261603,-0.3205413818359375,0.0380401611328125,-0.569610595703125
261604,-0.367279052734375,-0.0755462646484375,-0.7714080810546875
261605,-0.3938751220703125,-0.0865478515625,-0.885986328125
261606,-0.46746826171875,-0.0780792236328125,-0.99359130859375
261607,-0.64483642578125,-0.0328216552734375,-1.089706420898438
261608,-0.9662017822265624,0.081878662109375,-1.007278442382812
261609,-1.321578979492188,0.2279510498046875,-0.7003173828125
261610,-1.60333251953125,0.301788330078125,-0.366546630859375
261611,-1.836471557617188,0.3047027587890625,-0.2036895751953125
261612,-2.081893920898438,0.21954345703125,-0.4092254638671875
261613,-2.311126708984375,-0.003936767578125,-1.085723876953125
261614,-2.577590942382812,-0.4190673828125,-1.833450317382812
261615,-2.986236572265625,-1.072662353515625,-2.019973754882812
261616,-2.854049682617188,-1.663864135742188,-1.7762451171875
261617,-1.910415649414062,-2.330352783203125,-1.635498046875
261618,-0.90673828125,-3.107757568359375,-1.51812744140625
261619,-0.0338897705078125,-3.689056396484375,-1.852294921875
261620,-0.0338897705078125,-3.689056396484375,-1.852294921875
261621,0.0562591552734375,-2.703659057617188,-1.400039672851562
261622,-0.005889892578125,-1.787338256835938,-0.8148345947265625
261623,-0.0984039306640625,-1.38525390625,-0.6961822509765625
261624,-0.0984039306640625,-1.38525390625,-0.6961822509765625
261625,0.1017303466796875,-0.8293609619140625,-0.8799896240234375
261626,0.5877838134765625,-1.0498046875,-0.726837158203125
261627,0.9897613525390624,-1.717498779296875,-0.47344970703125
261628,1.346145629882812,-2.267807006835938,-0.34344482421875
261629,1.58319091796875,-2.13616943359375,-0.1862640380859375
261630,1.32305908203125,-1.639389038085938,-0.222808837890625
261631,0.824371337890625,-1.152374267578125,-0.4820709228515625
261632,0.5709381103515625,-0.9443359375,-0.5220184326171875
261633,0.423919677734375,-1.147903442382812,-0.1494598388671875
261634,0.14501953125,-1.055892944335938,0.1240234375
261635,-0.095977783203125,-0.8341064453125,0.165985107421875
261636,-0.2264404296875,-0.7056427001953125,0.162322998046875
261637,-0.23065185546875,-0.58367919921875,0.120147705078125
261638,-0.10888671875,-0.4859161376953125,0.063720703125
261639,0.11627197265625,-0.3751068115234375,-0.05133056640625
261640,0.45147705078125,-0.3365020751953125,-0.1433563232421875
261641,0.7766876220703125,-0.53045654296875,-0.184356689453125
261642,0.9179840087890624,-0.7240447998046875,-0.19244384765625
261643,0.8869171142578125,-0.742706298828125,-0.2695159912109375
261644,0.8869171142578125,-0.742706298828125,-0.2695159912109375
261645,0.542205810546875,-0.8408660888671875,-0.3548431396484375
261646,0.1971588134765625,-0.8526611328125,-0.287841796875
261647,-0.166015625,-0.77508544921875,-0.24334716796875
261648,-0.4617462158203125,-0.627227783203125,-0.2304840087890625
261649,-0.6519317626953125,-0.42755126953125,-0.2020111083984375
261650,-0.691864013671875,-0.221649169921875,-0.17498779296875
261651,-0.61004638671875,-0.03216552734375,-0.1864471435546875
261652,-0.4700164794921875,0.1548309326171875,-0.2075347900390625
261653,-0.3027801513671875,0.25836181640625,-0.2110443115234375
261654,-0.146575927734375,0.2570648193359375,-0.116607666015625
261655,-0.0385284423828125,0.252899169921875,0.02630615234375
261656,-0.0385284423828125,0.252899169921875,0.02630615234375
261657,0.0259246826171875,0.22039794921875,-0.0067901611328125
261658,0.00323486328125,0.2163848876953125,-0.1244049072265625
261659,-0.053375244140625,0.2271728515625,-0.26885986328125
261660,-0.1531524658203125,0.2397308349609375,-0.359710693359375
261661,-0.2523193359375,0.184051513671875,-0.4162139892578125
261662,-0.3435821533203125,0.0925445556640625,-0.4681549072265625
261663,-0.387420654296875,-0.022186279296875,-0.5621185302734375
261664,-0.36822509765625,-0.12567138671875,-0.6456756591796875
261665,-0.33807373046875,-0.2432098388671875,-0.7145843505859375
261666,-0.329925537109375,-0.342041015625,-0.8094635009765625
261667,-0.329925537109375,-0.342041015625,-0.8094635009765625
261668,-0.553314208984375,-0.4662933349609375,-1.302978515625
261669,-0.747314453125,-0.4982757568359375,-1.6282958984375
261670,-0.9669952392578124,-0.4461669921875,-1.88421630859375
261671,-1.19384765625,-0.31298828125,-1.966232299804688
261672,-1.19384765625,-0.31298828125,-1.966232299804688
261673,-1.8663330078125,-0.2820281982421875,-0.8637542724609375
261674,-2.338882446289062,-0.4532928466796875,-0.5005340576171875
261675,-2.814865112304688,-0.8904266357421875,-0.64874267578125
261676,-3.200942993164062,-1.4747314453125,-1.219085693359375
261677,-3.290313720703125,-1.994476318359375,-1.850570678710938
261678,-2.457733154296875,-2.532760620117188,-1.655075073242188
261679,0.5212554931640625,-2.146377563476562,-1.102752685546875
261680,0.5212554931640625,-2.146377563476562,-1.102752685546875
261681,1.516555786132812,-1.942413330078125,-1.106491088867188
261682,2.040206909179688,-2.0208740234375,-0.378631591796875
261683,1.962661743164062,-1.872512817382812,-0.0752716064453125
261684,1.462936401367188,-1.569122314453125,-0.6483612060546875
261685,1.049392700195312,-1.357742309570312,-0.9981231689453124
261686,0.69097900390625,-0.99365234375,-0.7009124755859375
261687,0.69097900390625,-0.99365234375,-0.7009124755859375
261688,0.602325439453125,-1.052413940429688,-0.7001800537109375
261689,0.474090576171875,-1.2047119140625,-0.4747772216796875
261690,0.0590057373046875,-1.431076049804688,-0.39190673828125
261691,-0.157135009765625,-1.68853759765625,-0.1694183349609375
261692,-0.157135009765625,-1.68853759765625,-0.1694183349609375
261693,0.6601715087890625,-2.07220458984375,-0.2679443359375
261694,1.094100952148438,-2.066162109375,-0.2595367431640625
261695,1.094100952148438,-2.066162109375,-0.2595367431640625
261696,0.4574737548828125,-1.093414306640625,0.0449371337890625
261697,-0.14837646484375,-0.8094024658203125,-0.0904998779296875
261698,-0.4324798583984375,-0.6207275390625,0.0280609130859375
261699,-0.4324798583984375,-0.6207275390625,0.0280609130859375
261700,-0.3680572509765625,-0.5439300537109375,0.3001708984375
261701,0.5228118896484375,-0.6743621826171875,0.145050048828125
261702,0.885986328125,-0.7845001220703125,-0.094207763671875
261703,0.6357269287109375,-0.78009033203125,-0.47186279296875
261704,0.6357269287109375,-0.78009033203125,-0.47186279296875
261705,0.2685089111328125,-0.6913604736328125,-0.56317138671875
261706,-0.0440673828125,-0.578857421875,-0.496673583984375
261707,-0.215179443359375,-0.487213134765625,-0.33489990234375
261708,-0.215179443359375,-0.487213134765625,-0.33489990234375
261709,-0.3738250732421875,-0.3853302001953125,-0.08819580078125
261710,-0.404937744140625,-0.2537689208984375,0.00164794921875
261711,-0.404937744140625,-0.2537689208984375,0.00164794921875
261712,-0.4199981689453125,-0.0677337646484375,0.044769287109375
261713,-0.3650054931640625,0.3038330078125,-0.0168914794921875
261714,-0.3210906982421875,0.373077392578125,-0.0305328369140625
261715,-0.2628173828125,0.35888671875,-0.0416412353515625
261716,-0.202911376953125,0.27947998046875,-0.0363616943359375
261717,-0.14471435546875,0.17852783203125,-0.0022430419921875
261718,-0.0829010009765625,0.0828399658203125,0.023193359375
261719,-0.0829010009765625,0.0828399658203125,0.023193359375
261720,-0.01556396484375,-0.1224365234375,-0.174041748046875
261721,-0.0272064208984375,-0.1808624267578125,-0.293731689453125
261722,-0.0228271484375,-0.211029052734375,-0.355499267578125
261723,0.002685546875,-0.2327423095703125,-0.3413848876953125
261724,0.002685546875,-0.2327423095703125,-0.3413848876953125
261725,0.1244964599609375,-0.31683349609375,-0.1824493408203125
261726,0.2140960693359375,-0.36895751953125,-0.0940093994140625
261727,0.3186187744140625,-0.422332763671875,-0.086395263671875
261728,0.4039306640625,-0.468597412109375,-0.178192138671875
261729,0.414642333984375,-0.5151214599609375,-0.385772705078125
261730,0.3179473876953125,-0.5822906494140625,-0.693359375
261731,0.3179473876953125,-0.5822906494140625,-0.693359375
261732,-0.24639892578125,-0.5309906005859375,-1.289138793945312
261733,-0.680816650390625,-0.4651336669921875,-1.291275024414062
261734,-1.136856079101562,-0.443145751953125,-0.7218780517578125
261735,-1.136856079101562,-0.443145751953125,-0.7218780517578125
261736,-2.467422485351562,0.104339599609375,0.251495361328125
261737,-3.217437744140625,0.3355865478515625,-0.01025390625
261738,-4.074920654296875,0.3090362548828125,-0.8887786865234375
261739,-4.074920654296875,0.3090362548828125,-0.8887786865234375
261740,-5.1773681640625,-0.343170166015625,-1.850387573242188
261741,-3.086593627929688,-1.34490966796875,-1.640533447265625
261742,-1.966461181640625,-1.59661865234375,-1.088760375976562
261743,-1.233551025390625,-1.825119018554688,-1.33819580078125
261744,-1.233551025390625,-1.825119018554688,-1.33819580078125
261745,-0.3947906494140625,-2.329544067382812,-1.71832275390625
261746,0.1777801513671875,-2.631011962890625,-1.629119873046875
261747,1.019485473632812,-2.999481201171875,-0.544525146484375
261748,1.439544677734375,-2.976776123046875,-0.716766357421875
261749,1.436614990234375,-2.129257202148438,-1.337600708007812
261750,1.411895751953125,-1.598983764648438,-0.9756011962890624
261751,1.742355346679688,-1.594619750976562,0.034423828125
261752,1.742355346679688,-1.594619750976562,0.034423828125
261753,1.735183715820312,-1.421859741210938,-0.2949371337890625
261754,1.567733764648438,-1.325180053710938,-0.440185546875
261755,1.407501220703125,-1.304336547851562,-0.21746826171875
261756,1.122177124023438,-1.179901123046875,0.0305328369140625
261757,1.008621215820312,-1.080215454101562,0.1595458984375
261758,1.006912231445312,-0.985870361328125,0.246917724609375
261759,0.805267333984375,-0.8163299560546875,0.0516510009765625
261760,0.805267333984375,-0.8163299560546875,0.0516510009765625
261761,0.5713043212890625,-0.3602447509765625,-0.1363983154296875
261762,0.6470794677734375,-0.27642822265625,-0.034332275390625
261763,0.6470794677734375,-0.27642822265625,-0.034332275390625
261764,0.69622802734375,-0.2287445068359375,0.069244384765625
261765,0.744842529296875,-0.1457977294921875,0.06646728515625
261766,0.6418914794921875,-0.1447601318359375,0.0335235595703125
261767,0.1655731201171875,-0.09527587890625,-0.026123046875
261768,0.1655731201171875,-0.09527587890625,-0.026123046875
261769,-0.1163330078125,-0.0478515625,-0.0690460205078125
261770,-0.3647003173828125,-0.0005950927734375,-0.13409423828125
261771,-0.5692901611328125,0.0220489501953125,-0.195098876953125
261772,-0.7747344970703125,0.0929412841796875,-0.233917236328125
261773,-0.9241790771484376,0.209381103515625,-0.286590576171875
261774,-0.97393798828125,0.317840576171875,-0.322998046875
261775,-0.97393798828125,0.317840576171875,-0.322998046875
261776,-0.914276123046875,0.40087890625,-0.3095703125
261777,-0.5380096435546875,0.3829345703125,-0.1746826171875
261778,-0.3304901123046875,0.2400665283203125,-0.1901092529296875
261779,-0.3304901123046875,0.2400665283203125,-0.1901092529296875
261780,0.0220184326171875,-0.0240936279296875,-0.30718994140625
261781,0.1625518798828125,-0.115386962890625,-0.284210205078125
261782,0.260162353515625,-0.1735382080078125,-0.2103118896484375
261783,0.260162353515625,-0.1735382080078125,-0.2103118896484375
261784,0.3025360107421875,-0.2061920166015625,-0.1130523681640625
261785,0.1636962890625,-0.1705169677734375,-0.00421142578125
261786,0.0431976318359375,-0.149444580078125,-0.06182861328125
261787,-0.066375732421875,-0.151123046875,-0.1593017578125
261788,-0.066375732421875,-0.151123046875,-0.1593017578125
261789,-0.344207763671875,-0.225250244140625,-0.3556365966796875
261790,-0.548553466796875,-0.2032928466796875,-0.4520111083984375
261791,-0.7003173828125,-0.111419677734375,-0.59136962890625
261792,-0.7003173828125,-0.111419677734375,-0.59136962890625
261793,-0.6876983642578125,0.2430267333984375,-1.216995239257812
261794,-0.77996826171875,0.3818817138671875,-1.710952758789062
261795,-1.136444091796875,0.3876495361328125,-2.286697387695312
261796,-1.136444091796875,0.3876495361328125,-2.286697387695312
261797,-2.691574096679688,-0.0564422607421875,-2.383331298828125
261798,-3.323165893554688,-0.9279937744140624,-1.1951904296875
261799,-3.726791381835938,-2.259185791015625,-0.6548309326171875
261800,-3.726791381835938,-2.259185791015625,-0.6548309326171875
261801,-1.805343627929688,-3.784133911132812,-0.970977783203125
261802,-0.556884765625,-3.008468627929688,-0.6346893310546875
261803,0.1290130615234375,-1.90203857421875,-1.308349609375
261804,0.1290130615234375,-1.90203857421875,-1.308349609375
261805,1.303955078125,-2.071182250976562,-2.553085327148438
261806,1.148391723632812,-2.27581787109375,-1.820388793945312
261807,0.778106689453125,-2.078170776367188,-0.94873046875
261808,0.6795654296875,-2.069046020507812,-0.6374969482421875
261809,0.7618560791015625,-1.984710693359375,-0.5400238037109375
261810,0.58453369140625,-1.453826904296875,-0.5034637451171875
261811,0.0240020751953125,-0.4882659912109375,-0.35400390625
261812,0.0240020751953125,-0.4882659912109375,-0.35400390625
261813,0.092376708984375,-0.554779052734375,-0.38116455078125
261814,0.607025146484375,-0.957611083984375,-0.3161468505859375
261815,1.303146362304688,-1.489532470703125,-0.1112060546875
261816,1.303146362304688,-1.489532470703125,-0.1112060546875
261817,1.638824462890625,-1.933700561523438,0.3731231689453125
261818,1.439453125,-1.37493896484375,0.205902099609375
261819,1.039718627929688,-0.8470611572265625,-0.1930389404296875
261820,1.039718627929688,-0.8470611572265625,-0.1930389404296875
261821,-0.1243896484375,-0.39056396484375,0.1404876708984375
261822,-0.31268310546875,-0.1850433349609375,0.3251800537109375
261823,-0.0778045654296875,-0.2259521484375,0.20025634765625
261824,0.2160186767578125,-0.460662841796875,-0.0926666259765625
261825,0.31488037109375,-0.658477783203125,-0.3658905029296875
261826,0.2237701416015625,-0.7827911376953125,-0.538726806640625
261827,0.08660888671875,-0.8219146728515625,-0.5476531982421875
261828,0.08660888671875,-0.8219146728515625,-0.5476531982421875
261829,-0.0930328369140625,-0.6425933837890625,-0.2815093994140625
261830,-0.160491943359375,-0.4693756103515625,-0.1938629150390625
261831,-0.15301513671875,-0.3205413818359375,-0.1346435546875
261832,-0.15301513671875,-0.3205413818359375,-0.1346435546875
261833,-0.156494140625,0.042816162109375,-0.0103302001953125
261834,-0.1667327880859375,0.213348388671875,-0.0286102294921875
261835,-0.17755126953125,0.3200225830078125,-0.037445068359375
261836,-0.1810760498046875,0.3713226318359375,-0.0371856689453125
261837,-0.16986083984375,0.358428955078125,-0.0337677001953125
261838,-0.16314697265625,0.283599853515625,-0.02374267578125
261839,-0.137176513671875,0.02435302734375,-0.0846405029296875
261840,-0.137176513671875,0.02435302734375,-0.0846405029296875
261841,-0.1212158203125,-0.096343994140625,-0.1278076171875
261842,-0.1093597412109375,-0.17138671875,-0.147491455078125
261843,-0.089691162109375,-0.21588134765625,-0.140625
261844,-0.05694580078125,-0.2412567138671875,-0.1277923583984375
261845,-0.0032196044921875,-0.25640869140625,-0.123748779296875
261846,0.064910888671875,-0.2690887451171875,-0.13946533203125
261847,0.1353302001953125,-0.298126220703125,-0.1690216064453125
261848,0.1353302001953125,-0.298126220703125,-0.1690216064453125
261849,0.311981201171875,-0.3723297119140625,-0.258026123046875
261850,0.3809051513671875,-0.3779754638671875,-0.3194580078125
261851,0.367218017578125,-0.3508453369140625,-0.418243408203125
261852,0.209716796875,-0.3462066650390625,-0.5847015380859375
261853,-0.2142791748046875,-0.339080810546875,-0.8121337890625
261854,-0.6951141357421875,-0.3924560546875,-1.178192138671875
261855,-1.229476928710938,-0.4543304443359375,-1.421096801757812
261856,-1.229476928710938,-0.4543304443359375,-1.421096801757812
261857,-2.6617431640625,0.157501220703125,-1.038406372070312
261858,-3.051620483398438,0.4035491943359375,-0.5926666259765625
261859,-3.520126342773438,-0.1945953369140625,-0.5218505859375
261860,-3.520126342773438,-0.1945953369140625,-0.5218505859375
261861,-3.81195068359375,-0.986785888671875,-1.558502197265625
261862,-3.932525634765625,-1.531295776367188,-2.046066284179688
261863,-3.416732788085938,-1.831085205078125,-1.5859375
261864,-2.266860961914062,-2.271835327148438,-1.217025756835938
261865,-1.026702880859375,-2.638717651367188,-1.430435180664062
261866,-0.413421630859375,-2.921096801757812,-1.505584716796875
261867,0.01080322265625,-3.075607299804688,-1.822052001953125
261868,0.01080322265625,-3.075607299804688,-1.822052001953125
261869,1.347732543945312,-3.084884643554688,-0.6032867431640625
261870,1.656967163085938,-2.180816650390625,-1.060943603515625
261871,1.846527099609375,-1.677337646484375,-1.386215209960938
261872,2.233322143554688,-2.037322998046875,-0.4718475341796875
261873,2.232208251953125,-2.016525268554688,-0.107879638671875
261874,1.727813720703125,-1.50811767578125,-0.3447418212890625
261875,0.96466064453125,-1.061721801757812,-0.2519378662109375
261876,0.96466064453125,-1.061721801757812,-0.2519378662109375
261877,0.7046356201171875,-0.952667236328125,-0.1101837158203125
261878,0.625274658203125,-0.895294189453125,-0.1639862060546875
261879,0.6406097412109375,-0.886993408203125,-0.188751220703125
261880,0.6406097412109375,-0.886993408203125,-0.188751220703125
261881,0.4570159912109375,-0.71685791015625,-0.192138671875
261882,0.2698822021484375,-0.4010467529296875,-0.1416168212890625
261883,0.1892547607421875,-0.039642333984375,-0.0490264892578125
261884,0.1892547607421875,-0.039642333984375,-0.0490264892578125
261885,0.1654205322265625,-0.0087890625,-0.0216522216796875
261886,0.1311798095703125,0.0476226806640625,-0.042449951171875
261887,0.1580657958984375,0.094940185546875,-0.10479736328125
261888,0.1580657958984375,0.094940185546875,-0.10479736328125
261889,0.1915740966796875,0.0572967529296875,-0.1467437744140625
261890,0.09759521484375,0.0420074462890625,-0.1311798095703125
261891,-0.020843505859375,0.0328521728515625,-0.1487579345703125
261892,-0.020843505859375,0.0328521728515625,-0.1487579345703125
261893,-0.334503173828125,0.025543212890625,-0.239501953125
261894,-0.497528076171875,0.059814453125,-0.280670166015625
261895,-0.593994140625,0.1056671142578125,-0.2664642333984375
261896,-0.5957794189453125,0.1587982177734375,-0.1810150146484375
261897,-0.5131378173828125,0.1783294677734375,-0.1571807861328125
261898,-0.3824615478515625,0.0767364501953125,-0.2387847900390625
261899,-0.1674346923828125,-0.163360595703125,-0.3997955322265625
261900,-0.1674346923828125,-0.163360595703125,-0.3997955322265625
261901,-0.0090484619140625,-0.2691650390625,-0.3530426025390625
261902,0.1782379150390625,-0.3119354248046875,-0.22906494140625
261903,0.3423919677734375,-0.3165740966796875,-0.1188201904296875
261904,0.410003662109375,-0.3101654052734375,-0.06317138671875
