time_idx,accelerometerAccelerationX(G),accelerometerAccelerationY(G),accelerometerAccelerationZ(G)
20000,0.1082611083984375,0.9894866943359376,0.0282135009765625
20001,0.109344482421875,0.992034912109375,0.0294647216796875
20002,0.1083831787109375,0.992950439453125,0.0294189453125
20003,0.1067352294921875,0.9940948486328124,0.030029296875
20004,0.1055145263671875,0.9936676025390624,0.0296783447265625
20005,0.1027374267578125,0.9936370849609376,0.0279083251953125
20006,0.1007843017578125,0.99212646484375,0.0259246826171875
20007,0.098175048828125,0.9923248291015624,0.0231170654296875
20008,0.0963897705078125,0.991668701171875,0.0210113525390625
20009,0.09619140625,0.9905548095703124,0.021942138671875
20010,0.0959930419921875,0.990264892578125,0.0228424072265625
20011,0.096954345703125,0.9913482666015624,0.024566650390625
20012,0.0979156494140625,0.993988037109375,0.0268096923828125
20013,0.098907470703125,0.9955291748046876,0.02667236328125
20014,0.0993804931640625,0.997528076171875,0.0264434814453125
20015,0.1015472412109375,0.9972381591796876,0.0262908935546875
20016,0.1015472412109375,0.9972381591796876,0.0262908935546875
20017,0.1037750244140625,0.9919891357421876,0.0272216796875
20018,0.1038360595703125,0.98944091796875,0.02691650390625
20019,0.10247802734375,0.9879608154296876,0.0255584716796875
20020,0.1027069091796875,0.9884796142578124,0.0237579345703125
20021,0.10406494140625,0.987945556640625,0.0218353271484375
20022,0.105438232421875,0.9890594482421876,0.0206146240234375
20023,0.1073760986328125,0.9917144775390624,0.01959228515625
20024,0.10919189453125,0.9924163818359376,0.0213623046875
20025,0.111358642578125,0.9932861328125,0.0218505859375
20026,0.1130523681640625,0.9925079345703124,0.0219879150390625
20027,0.1163177490234375,0.9910888671875,0.0235137939453125
20028,0.1191864013671875,0.9899749755859376,0.023193359375
20029,0.1195220947265625,0.9888763427734376,0.022003173828125
20030,0.1208648681640625,0.988250732421875,0.0206451416015625
20031,0.1213836669921875,0.987518310546875,0.0188140869140625
20032,0.1207427978515625,0.98760986328125,0.0168304443359375
20033,0.1191253662109375,0.988494873046875,0.0162811279296875
20034,0.1191253662109375,0.988494873046875,0.0162811279296875
20035,0.1151123046875,0.99285888671875,0.0173492431640625
20036,0.1139068603515625,0.9918212890625,0.0179290771484375
20037,0.112548828125,0.9901123046875,0.0196075439453125
20038,0.111785888671875,0.9890594482421876,0.0198974609375
20039,0.113433837890625,0.9886016845703124,0.0194091796875
20040,0.11322021484375,0.9884185791015624,0.02008056640625
20041,0.1121673583984375,0.989593505859375,0.0193023681640625
20042,0.1125030517578125,0.99127197265625,0.0207366943359375
20043,0.112823486328125,0.9923248291015624,0.019805908203125
20044,0.1109771728515625,0.9919586181640624,0.0200653076171875
20045,0.1092529296875,0.9916839599609376,0.0226287841796875
20046,0.10888671875,0.9922637939453124,0.0232086181640625
20047,0.1085357666015625,0.9910125732421876,0.0238189697265625
20048,0.10986328125,0.9915008544921876,0.023773193359375
20049,0.111602783203125,0.99169921875,0.02130126953125
20050,0.112579345703125,0.991455078125,0.0220184326171875
20051,0.1133880615234375,0.9936370849609376,0.0223236083984375
20052,0.112823486328125,0.9951324462890624,0.0233612060546875
20053,0.1108856201171875,0.9982452392578124,0.02435302734375
20054,0.1077880859375,1.000289916992188,0.026824951171875
20055,0.1068572998046875,1.001861572265625,0.0272674560546875
20056,0.1045684814453125,1.00201416015625,0.0253753662109375
20057,0.1034698486328125,0.9972686767578124,0.0211181640625
20058,0.103912353515625,0.993255615234375,0.0203399658203125
20059,0.102447509765625,0.988037109375,0.01953125
20060,0.10186767578125,0.985015869140625,0.0209808349609375
20061,0.1024932861328125,0.98614501953125,0.0212249755859375
20062,0.1024932861328125,0.98614501953125,0.0212249755859375
20063,0.10455322265625,0.986419677734375,0.0224609375
20064,0.106781005859375,0.987274169921875,0.023712158203125
20065,0.10968017578125,0.989105224609375,0.02581787109375
20066,0.1115875244140625,0.99151611328125,0.0243682861328125
20067,0.1122894287109375,0.993194580078125,0.0252685546875
20068,0.11187744140625,0.99176025390625,0.0248260498046875
20069,0.1128997802734375,0.98956298828125,0.0227203369140625
20070,0.114013671875,0.98748779296875,0.0212249755859375
20071,0.1154632568359375,0.986419677734375,0.0197906494140625
20072,0.1154632568359375,0.986419677734375,0.0197906494140625
20073,0.119110107421875,0.9872894287109376,0.02166748046875
20074,0.1197662353515625,0.9898834228515624,0.0234375
20075,0.1175689697265625,0.9931488037109376,0.0244598388671875
20076,0.1146392822265625,0.9939727783203124,0.0240020751953125
20077,0.1131439208984375,0.9879913330078124,0.021331787109375
20078,0.1131439208984375,0.9879913330078124,0.021331787109375
20079,0.1149444580078125,0.9842529296875,0.0199127197265625
20080,0.116241455078125,0.981689453125,0.0203094482421875
20081,0.1174468994140625,0.9828948974609376,0.02001953125
20082,0.1179046630859375,0.9846954345703124,0.0220489501953125
20083,0.1158905029296875,0.98748779296875,0.024871826171875
20084,0.1158905029296875,0.98748779296875,0.024871826171875
20085,0.10791015625,0.9943695068359376,0.0307769775390625
20086,0.105316162109375,0.9988861083984376,0.030303955078125
20087,0.1032867431640625,0.9999847412109376,0.0305023193359375
20088,0.1029052734375,1.001693725585938,0.0283050537109375
20089,0.1005859375,0.999755859375,0.0260467529296875
20090,0.098876953125,0.997894287109375,0.0251007080078125
20091,0.0985565185546875,0.997802734375,0.02325439453125
20092,0.0982666015625,0.9970855712890624,0.0214996337890625
20093,0.09820556640625,0.995574951171875,0.0208892822265625
20094,0.09710693359375,0.99395751953125,0.02105712890625
20095,0.096649169921875,0.99346923828125,0.0209197998046875
20096,0.09771728515625,0.9929962158203124,0.02154541015625
20097,0.099029541015625,0.99298095703125,0.02313232421875
20098,0.10040283203125,0.99420166015625,0.02386474609375
20099,0.0990753173828125,0.9927825927734376,0.027313232421875
20100,0.0977020263671875,0.9858856201171876,0.0311279296875
20101,0.0977020263671875,0.9858856201171876,0.0311279296875
20102,0.0984344482421875,0.9831390380859376,0.03125
20103,0.09930419921875,0.9854583740234376,0.0278778076171875
20104,0.1016082763671875,0.989837646484375,0.0257568359375
20105,0.1044464111328125,0.994293212890625,0.021392822265625
20106,0.108428955078125,0.994720458984375,0.018951416015625
20107,0.11053466796875,0.9943084716796876,0.018829345703125
20108,0.1122589111328125,0.9926910400390624,0.02117919921875
20109,0.112884521484375,0.9924468994140624,0.0228729248046875
20110,0.1116485595703125,0.991546630859375,0.023834228515625
20111,0.1110076904296875,0.9907684326171876,0.0239715576171875
20112,0.11065673828125,0.990020751953125,0.0220947265625
20113,0.1114959716796875,0.988311767578125,0.020111083984375
20114,0.110595703125,0.9862213134765624,0.019805908203125
20115,0.11004638671875,0.985260009765625,0.0206298828125
20116,0.1072540283203125,0.9862823486328124,0.022918701171875
20117,0.1072540283203125,0.9862823486328124,0.022918701171875
20118,0.106964111328125,0.9871673583984376,0.0243377685546875
20119,0.107086181640625,0.9872589111328124,0.0247955322265625
20120,0.106353759765625,0.9869232177734376,0.0243988037109375
20121,0.1063690185546875,0.986602783203125,0.025482177734375
20122,0.103790283203125,0.9888763427734376,0.0277557373046875
20123,0.1000823974609375,0.9917144775390624,0.0296783447265625
20124,0.09869384765625,0.9931640625,0.02825927734375
20125,0.0986480712890625,0.9931640625,0.0264892578125
20126,0.1008148193359375,0.9906158447265624,0.026123046875
20127,0.102447509765625,0.98895263671875,0.02557373046875
20128,0.10589599609375,0.9871673583984376,0.02490234375
20129,0.1082916259765625,0.9853363037109376,0.02593994140625
20130,0.1106719970703125,0.985992431640625,0.0257110595703125
20131,0.1143646240234375,0.9858856201171876,0.0227508544921875
20132,0.1165313720703125,0.9871673583984376,0.0224609375
20133,0.1177825927734375,0.9873504638671876,0.0228729248046875
20134,0.1173553466796875,0.9889068603515624,0.0241241455078125
20135,0.115386962890625,0.9911651611328124,0.0248260498046875
20136,0.1120452880859375,0.9942474365234376,0.0263214111328125
20137,0.1092681884765625,0.996917724609375,0.02685546875
20138,0.1048126220703125,1.000076293945312,0.0290069580078125
20139,0.10247802734375,0.9996795654296876,0.027862548828125
20140,0.1016387939453125,0.999664306640625,0.025787353515625
20141,0.1022186279296875,0.9966278076171876,0.0257568359375
20142,0.1033935546875,0.9915771484375,0.026397705078125
20143,0.1049652099609375,0.9872589111328124,0.0257415771484375
20144,0.10565185546875,0.98785400390625,0.02471923828125
20145,0.104522705078125,0.98651123046875,0.0242919921875
20146,0.1031494140625,0.987518310546875,0.024200439453125
20147,0.1021881103515625,0.989288330078125,0.02471923828125
20148,0.1014251708984375,0.99139404296875,0.02294921875
20149,0.1029510498046875,0.9925994873046876,0.0230255126953125
20150,0.104034423828125,0.9944305419921876,0.02325439453125
20151,0.105499267578125,0.994110107421875,0.0241241455078125
20152,0.106903076171875,0.99420166015625,0.0257568359375
20153,0.1068115234375,0.99456787109375,0.027496337890625
20154,0.10589599609375,0.992645263671875,0.029815673828125
20155,0.1048126220703125,0.989776611328125,0.0291290283203125
20156,0.103302001953125,0.9881744384765624,0.027923583984375
20157,0.100738525390625,0.988037109375,0.0261993408203125
20158,0.099578857421875,0.989959716796875,0.024688720703125
20159,0.098175048828125,0.9929656982421876,0.024658203125
20160,0.0958099365234375,0.9953155517578124,0.0250701904296875
20161,0.095977783203125,0.996673583984375,0.0235748291015625
20162,0.0967864990234375,0.99658203125,0.024627685546875
20163,0.0980682373046875,0.9939422607421876,0.027679443359375
20164,0.0991363525390625,0.9934844970703124,0.0270843505859375
20165,0.1020050048828125,0.9921722412109376,0.026092529296875
20166,0.1071624755859375,0.991546630859375,0.025970458984375
20167,0.1105499267578125,0.993072509765625,0.0233917236328125
20168,0.1142578125,0.9949951171875,0.02227783203125
20169,0.1155853271484375,0.99603271484375,0.0216522216796875
20170,0.1161651611328125,0.9944000244140624,0.0228118896484375
20171,0.1140289306640625,0.9922943115234376,0.0252838134765625
20172,0.10491943359375,0.9914093017578124,0.0281829833984375
20173,0.10491943359375,0.9914093017578124,0.0281829833984375
20174,0.100128173828125,0.9903717041015624,0.027191162109375
20175,0.096832275390625,0.9900360107421876,0.0239410400390625
20176,0.095977783203125,0.9875335693359376,0.020263671875
20177,0.097259521484375,0.987335205078125,0.0195159912109375
20178,0.09771728515625,0.9904327392578124,0.0206298828125
20179,0.0977783203125,0.9942779541015624,0.021820068359375
20180,0.0992279052734375,0.9964599609375,0.0233154296875
20181,0.0988311767578125,0.998809814453125,0.02532958984375
20182,0.095062255859375,0.998779296875,0.0258026123046875
20183,0.0924835205078125,0.9971923828125,0.0271453857421875
20184,0.0854949951171875,0.99639892578125,0.0277099609375
20185,0.0854949951171875,0.99639892578125,0.0277099609375
20186,0.081024169921875,0.9945220947265624,0.0263824462890625
20187,0.0772552490234375,0.9915771484375,0.0238800048828125
20188,0.0751190185546875,0.989898681640625,0.022491455078125
20189,0.0753173828125,0.9898223876953124,0.0230712890625
20190,0.0758514404296875,0.9890899658203124,0.0222320556640625
20191,0.0779266357421875,0.989593505859375,0.0221710205078125
20192,0.0779266357421875,0.989593505859375,0.0221710205078125
20193,0.0837860107421875,0.991943359375,0.0252532958984375
20194,0.0886993408203125,0.99298095703125,0.02716064453125
20195,0.09442138671875,0.9940643310546876,0.0275115966796875
20196,0.0982666015625,0.994781494140625,0.027313232421875
20197,0.101318359375,0.995208740234375,0.029022216796875
20198,0.1017303466796875,0.9919586181640624,0.0291900634765625
20199,0.100341796875,0.9908294677734376,0.029022216796875
20200,0.0985870361328125,0.989593505859375,0.0275421142578125
20201,0.0977783203125,0.9875640869140624,0.0262603759765625
20202,0.0988616943359375,0.98681640625,0.0242919921875
20203,0.10015869140625,0.9864959716796876,0.02264404296875
20204,0.1027069091796875,0.9864501953125,0.0222625732421875
20205,0.1036224365234375,0.98944091796875,0.023956298828125
20206,0.1034088134765625,0.9902191162109376,0.027740478515625
20207,0.1009063720703125,0.9941253662109376,0.029388427734375
20208,0.098602294921875,0.9961395263671876,0.0283966064453125
20209,0.0973052978515625,0.996612548828125,0.029083251953125
20210,0.094940185546875,0.996795654296875,0.0299835205078125
20211,0.0937957763671875,0.997406005859375,0.0318145751953125
20212,0.090972900390625,0.996826171875,0.0328826904296875
20213,0.087432861328125,0.995758056640625,0.03289794921875
20214,0.084136962890625,0.9948883056640624,0.0323333740234375
20215,0.0807647705078125,0.995330810546875,0.029754638671875
20216,0.0784912109375,0.9949188232421876,0.0295867919921875
20217,0.0771942138671875,0.9947052001953124,0.0303497314453125
20218,0.075103759765625,0.9954681396484376,0.0312042236328125
20219,0.0731048583984375,0.9950714111328124,0.032745361328125
20220,0.0731048583984375,0.9950714111328124,0.032745361328125
20221,0.07171630859375,0.9915924072265624,0.037078857421875
20222,0.071929931640625,0.991424560546875,0.03814697265625
20223,0.0741729736328125,0.992156982421875,0.037811279296875
20224,0.0782318115234375,0.9919586181640624,0.0395965576171875
20225,0.08343505859375,0.9921875,0.04205322265625
20226,0.087127685546875,0.9916229248046876,0.04351806640625
20227,0.0896453857421875,0.9943084716796876,0.045196533203125
20228,0.0905914306640625,0.999786376953125,0.0472564697265625
20229,0.0894012451171875,1.004470825195312,0.046295166015625
20230,0.08697509765625,1.00848388671875,0.042694091796875
20231,0.0836029052734375,1.008880615234375,0.0400543212890625
20232,0.07733154296875,1.0064697265625,0.035186767578125
20233,0.069854736328125,0.999267578125,0.0296783447265625
20234,0.0646820068359375,0.9916839599609376,0.02447509765625
20235,0.061370849609375,0.983367919921875,0.019805908203125
20236,0.05908203125,0.97882080078125,0.0165863037109375
20237,0.0586090087890625,0.977996826171875,0.013763427734375
20238,0.05792236328125,0.9786376953125,0.0144500732421875
20239,0.0577392578125,0.9830780029296876,0.015289306640625
20240,0.0590972900390625,0.990386962890625,0.01788330078125
20241,0.0618133544921875,0.9967498779296876,0.0214691162109375
20242,0.06451416015625,1.001068115234375,0.0265960693359375
20243,0.0672149658203125,1.00201416015625,0.0293426513671875
20244,0.07122802734375,1.000701904296875,0.0289764404296875
20245,0.074951171875,0.9994354248046876,0.0287322998046875
20246,0.07958984375,0.9962158203125,0.0291595458984375
20247,0.084686279296875,0.9898834228515624,0.029052734375
20248,0.0910797119140625,0.983489990234375,0.0299072265625
20249,0.0979461669921875,0.9780731201171876,0.02886962890625
20250,0.1030120849609375,0.9782257080078124,0.0320892333984375
20251,0.1076202392578125,0.9806060791015624,0.033233642578125
20252,0.1107330322265625,0.9810028076171876,0.033905029296875
20253,0.1120758056640625,0.983856201171875,0.0370635986328125
20254,0.1094207763671875,0.987091064453125,0.040740966796875
20255,0.1061553955078125,0.990478515625,0.04248046875
20256,0.102203369140625,0.9911956787109376,0.043670654296875
20257,0.097869873046875,0.9904327392578124,0.0445404052734375
20258,0.093048095703125,0.9879302978515624,0.044586181640625
20259,0.0892181396484375,0.9861297607421876,0.0435791015625
20260,0.0855560302734375,0.986846923828125,0.0423736572265625
20261,0.08392333984375,0.99072265625,0.0409393310546875
20262,0.0827789306640625,0.9917755126953124,0.0421295166015625
20263,0.0820770263671875,0.9942779541015624,0.0442657470703125
20264,0.082061767578125,0.99322509765625,0.0459136962890625
20265,0.081207275390625,0.9912872314453124,0.04913330078125
20266,0.0808258056640625,0.9902801513671876,0.051513671875
20267,0.0801544189453125,0.989837646484375,0.0516357421875
20268,0.08062744140625,0.9915618896484376,0.0518035888671875
20269,0.0814971923828125,0.9920806884765624,0.0509033203125
20270,0.08245849609375,0.991851806640625,0.050537109375
20271,0.0846099853515625,0.9926300048828124,0.0485992431640625
20272,0.0868988037109375,0.9928436279296876,0.04888916015625
20273,0.08953857421875,0.9925384521484376,0.0498809814453125
20274,0.0923614501953125,0.988189697265625,0.04986572265625
20275,0.0942840576171875,0.9822845458984376,0.0509490966796875
20276,0.0939788818359375,0.9779510498046876,0.0520172119140625
20277,0.092529296875,0.9749298095703124,0.0513458251953125
20278,0.0914764404296875,0.9751434326171876,0.0478057861328125
20279,0.09088134765625,0.9777984619140624,0.0469818115234375
20280,0.092620849609375,0.98388671875,0.0462799072265625
20281,0.0945281982421875,0.989044189453125,0.045684814453125
20282,0.0966339111328125,0.994415283203125,0.0464324951171875
20283,0.098876953125,0.9977874755859376,0.04803466796875
20284,0.098876953125,0.9977874755859376,0.04803466796875
20285,0.101837158203125,0.99652099609375,0.0481719970703125
20286,0.10479736328125,0.994873046875,0.04736328125
20287,0.1077117919921875,0.991455078125,0.046844482421875
20288,0.1094512939453125,0.9895172119140624,0.044830322265625
20289,0.1095428466796875,0.98919677734375,0.044097900390625
20290,0.1073760986328125,0.988006591796875,0.0447540283203125
20291,0.10601806640625,0.9869384765625,0.0429840087890625
20292,0.1041107177734375,0.990234375,0.0404205322265625
20293,0.1041107177734375,0.990234375,0.0404205322265625
20294,0.1041412353515625,0.9911651611328124,0.0402679443359375
20295,0.103363037109375,0.9926605224609376,0.0390777587890625
20296,0.10357666015625,0.9932861328125,0.037078857421875
20297,0.103546142578125,0.993438720703125,0.0346832275390625
20298,0.106048583984375,0.9933929443359376,0.0342254638671875
20299,0.109283447265625,0.9911651611328124,0.035919189453125
20300,0.1115264892578125,0.9893646240234376,0.036224365234375
20301,0.1119232177734375,0.9873504638671876,0.0407257080078125
20302,0.10894775390625,0.9872589111328124,0.0426483154296875
20303,0.1024169921875,0.9849853515625,0.0421295166015625
20304,0.0953369140625,0.9845733642578124,0.044586181640625
20305,0.0953369140625,0.9845733642578124,0.044586181640625
20306,0.083404541015625,0.991119384765625,0.038665771484375
20307,0.0777587890625,0.996185302734375,0.033416748046875
20308,0.076507568359375,1.003768920898438,0.029876708984375
20309,0.0777130126953125,1.009719848632812,0.030120849609375
20310,0.0799102783203125,1.010635375976562,0.0294036865234375
20311,0.0833892822265625,1.011764526367188,0.029083251953125
20312,0.085205078125,1.013290405273438,0.030609130859375
20313,0.0849456787109375,1.013671875,0.0300140380859375
20314,0.0840301513671875,1.010513305664062,0.02618408203125
20315,0.083740234375,1.0045166015625,0.0239410400390625
20316,0.0821533203125,0.99835205078125,0.020965576171875
20317,0.080810546875,0.9918060302734376,0.01708984375
20318,0.0791778564453125,0.989166259765625,0.0131378173828125
20319,0.080474853515625,0.9882354736328124,0.010467529296875
20320,0.0836334228515625,0.9930267333984376,0.0078582763671875
20321,0.0836334228515625,0.9930267333984376,0.0078582763671875
20322,0.086395263671875,0.9934844970703124,0.008514404296875
20323,0.0893096923828125,0.9924774169921876,0.0107269287109375
20324,0.0893096923828125,0.9924774169921876,0.0107269287109375
20325,0.095733642578125,0.9887542724609376,0.0156097412109375
20326,0.0970001220703125,0.99102783203125,0.0168304443359375
20327,0.097900390625,0.9922027587890624,0.0168914794921875
20328,0.1002044677734375,0.9941253662109376,0.0161285400390625
20329,0.1002655029296875,0.9932098388671876,0.015289306640625
20330,0.1015625,0.9927978515625,0.0158233642578125
20331,0.1045379638671875,0.993560791015625,0.0149688720703125
20332,0.106170654296875,0.9939727783203124,0.0120391845703125
20333,0.10833740234375,0.9941558837890624,0.0109405517578125
20334,0.1085662841796875,0.9937591552734376,0.0112152099609375
20335,0.1062469482421875,0.9932098388671876,0.01019287109375
20336,0.1024932861328125,0.991424560546875,0.0108184814453125
20337,0.0998077392578125,0.989471435546875,0.0108184814453125
20338,0.097137451171875,0.990020751953125,0.010009765625
20339,0.0957794189453125,0.988861083984375,0.0088653564453125
20340,0.096343994140625,0.9881134033203124,0.0095062255859375
20341,0.0970001220703125,0.98907470703125,0.010589599609375
20342,0.0964813232421875,0.98968505859375,0.01171875
20343,0.0957489013671875,0.9888763427734376,0.0128631591796875
20344,0.0968017578125,0.990203857421875,0.01324462890625
20345,0.098358154296875,0.9937591552734376,0.013427734375
20346,0.09857177734375,0.9976043701171876,0.013580322265625
20347,0.1001739501953125,0.9992828369140624,0.014404296875
20348,0.1000213623046875,0.999542236328125,0.01568603515625
20349,0.098236083984375,0.998016357421875,0.0187225341796875
20350,0.097259521484375,0.9971160888671876,0.02001953125
20351,0.096038818359375,0.9962005615234376,0.0198822021484375
20352,0.096343994140625,0.9954681396484376,0.019683837890625
20353,0.0977325439453125,0.9947967529296876,0.018218994140625
20354,0.09881591796875,0.9939117431640624,0.0172576904296875
20355,0.1013336181640625,0.9916839599609376,0.018768310546875
20356,0.1020660400390625,0.989501953125,0.0188751220703125
20357,0.1018218994140625,0.986724853515625,0.020111083984375
20358,0.10137939453125,0.9873504638671876,0.0205535888671875
20359,0.099090576171875,0.988311767578125,0.020599365234375
20360,0.0977630615234375,0.989349365234375,0.019134521484375
20361,0.09649658203125,0.9916534423828124,0.01849365234375
20362,0.0958709716796875,0.9939422607421876,0.019989013671875
20363,0.0957794189453125,0.994232177734375,0.0228424072265625
20364,0.0960235595703125,0.9936065673828124,0.0245208740234375
20365,0.09649658203125,0.9942169189453124,0.025634765625
20366,0.0968170166015625,0.9921417236328124,0.0267333984375
20367,0.0974578857421875,0.991546630859375,0.0287322998046875
20368,0.098114013671875,0.992431640625,0.02984619140625
20369,0.0953216552734375,0.9930267333984376,0.0288848876953125
20370,0.0940399169921875,0.99481201171875,0.027801513671875
20371,0.0928192138671875,0.9967498779296876,0.0271453857421875
20372,0.0916748046875,0.996490478515625,0.027496337890625
20373,0.0902862548828125,0.9951324462890624,0.0276336669921875
20374,0.089599609375,0.9944305419921876,0.0289764404296875
20375,0.088409423828125,0.9943389892578124,0.029144287109375
20376,0.086517333984375,0.993133544921875,0.029632568359375
20377,0.0879974365234375,0.9918060302734376,0.030242919921875
20378,0.089324951171875,0.9903564453125,0.0295867919921875
20379,0.090911865234375,0.98797607421875,0.028076171875
20380,0.0939483642578125,0.986053466796875,0.029144287109375
20381,0.0955352783203125,0.98638916015625,0.0313873291015625
20382,0.0964508056640625,0.9873046875,0.0338134765625
20383,0.0944976806640625,0.9893951416015624,0.035430908203125
20384,0.0890655517578125,0.9948577880859376,0.035614013671875
20385,0.0890655517578125,0.9948577880859376,0.035614013671875
20386,0.0860137939453125,0.99505615234375,0.036376953125
20387,0.084747314453125,0.995025634765625,0.03564453125
20388,0.0826416015625,0.9951019287109376,0.0361785888671875
20389,0.0817718505859375,0.993927001953125,0.037261962890625
20390,0.081390380859375,0.993743896484375,0.03717041015625
20391,0.08197021484375,0.99273681640625,0.0367889404296875
20392,0.08197021484375,0.99273681640625,0.0367889404296875
20393,0.0833587646484375,0.9921112060546876,0.0370330810546875
20394,0.08319091796875,0.993438720703125,0.03839111328125
20395,0.0836639404296875,0.9957427978515624,0.0367431640625
20396,0.083343505859375,0.9960174560546876,0.035980224609375
20397,0.082855224609375,0.9952545166015624,0.034271240234375
20398,0.0835418701171875,0.99530029296875,0.033782958984375
20399,0.0841827392578125,0.99566650390625,0.0328216552734375
20400,0.085113525390625,0.993927001953125,0.0329437255859375
20401,0.086334228515625,0.9927215576171876,0.03515625
20402,0.0882720947265625,0.9899139404296876,0.0367889404296875
20403,0.0902099609375,0.98785400390625,0.03826904296875
20404,0.093475341796875,0.984649658203125,0.0395660400390625
20405,0.093475341796875,0.984649658203125,0.0395660400390625
20406,0.095977783203125,0.9851837158203124,0.03759765625
20407,0.0968780517578125,0.9858856201171876,0.0366058349609375
20408,0.09600830078125,0.987640380859375,0.037811279296875
20409,0.0970916748046875,0.989990234375,0.036712646484375
20410,0.0968475341796875,0.9936065673828124,0.0379486083984375
20411,0.096954345703125,0.9952392578125,0.039215087890625
20412,0.096954345703125,0.9952392578125,0.039215087890625
20413,0.099578857421875,0.9951934814453124,0.040252685546875
20414,0.1003875732421875,0.9951324462890624,0.0405426025390625
20415,0.0991058349609375,0.994415283203125,0.040740966796875
20416,0.09710693359375,0.9927520751953124,0.03912353515625
20417,0.095550537109375,0.9900360107421876,0.0389251708984375
20418,0.093597412109375,0.987823486328125,0.037689208984375
20419,0.09197998046875,0.987640380859375,0.03546142578125
20420,0.091339111328125,0.9865264892578124,0.03216552734375
20421,0.091339111328125,0.9865264892578124,0.03216552734375
20422,0.092132568359375,0.987335205078125,0.0310821533203125
20423,0.09259033203125,0.98809814453125,0.0321044921875
20424,0.0924224853515625,0.9940338134765624,0.03369140625
20425,0.0924224853515625,0.9940338134765624,0.03369140625
20426,0.09326171875,0.99761962890625,0.0359344482421875
20427,0.09375,0.9985504150390624,0.03717041015625
20428,0.094451904296875,0.9977264404296876,0.038482666015625
20429,0.0950469970703125,0.99658203125,0.0391693115234375
20430,0.094940185546875,0.994049072265625,0.035797119140625
20431,0.096527099609375,0.9919586181640624,0.03326416015625
20432,0.0961761474609375,0.9868011474609376,0.0316009521484375
20433,0.093475341796875,0.983184814453125,0.033203125
20434,0.090240478515625,0.9829864501953124,0.0340728759765625
20435,0.0877227783203125,0.984283447265625,0.0341033935546875
20436,0.0859832763671875,0.98333740234375,0.0329437255859375
20437,0.0860595703125,0.9847564697265624,0.03253173828125
20438,0.087921142578125,0.9882049560546876,0.032928466796875
20439,0.089630126953125,0.9919891357421876,0.0322265625
20440,0.0921630859375,0.995635986328125,0.032379150390625
20441,0.0956268310546875,0.9957122802734376,0.0325927734375
20442,0.0963287353515625,0.995025634765625,0.033538818359375
20443,0.095123291015625,0.9933013916015624,0.03643798828125
20444,0.093475341796875,0.9906005859375,0.0390777587890625
20445,0.092041015625,0.9894561767578124,0.0418853759765625
20446,0.091461181640625,0.98944091796875,0.041717529296875
20447,0.092620849609375,0.9898223876953124,0.040557861328125
20448,0.09454345703125,0.991973876953125,0.038238525390625
20449,0.0967559814453125,0.9944000244140624,0.035400390625
20450,0.1027374267578125,0.995880126953125,0.0323028564453125
20451,0.10736083984375,0.99517822265625,0.0325775146484375
20452,0.10736083984375,0.99517822265625,0.0325775146484375
20453,0.10931396484375,0.989501953125,0.0386810302734375
20454,0.106536865234375,0.987030029296875,0.0406341552734375
20455,0.1029510498046875,0.98541259765625,0.0390777587890625
20456,0.1029510498046875,0.98541259765625,0.0390777587890625
20457,0.10284423828125,0.985198974609375,0.036895751953125
20458,0.102386474609375,0.984649658203125,0.03460693359375
20459,0.1025848388671875,0.98583984375,0.034454345703125
20460,0.102447509765625,0.9873504638671876,0.035552978515625
20461,0.101806640625,0.98883056640625,0.0357666015625
20462,0.1014404296875,0.990386962890625,0.036529541015625
20463,0.1004486083984375,0.9923553466796876,0.035675048828125
20464,0.0974273681640625,0.9965972900390624,0.0358734130859375
20465,0.0974273681640625,0.9965972900390624,0.0358734130859375
20466,0.095947265625,0.997344970703125,0.0360107421875
20467,0.0941009521484375,0.998809814453125,0.03546142578125
20468,0.091796875,0.997467041015625,0.035186767578125
20469,0.0890960693359375,0.99578857421875,0.0337066650390625
20470,0.0889739990234375,0.9958648681640624,0.030487060546875
20471,0.087921142578125,0.99444580078125,0.0263214111328125
20472,0.08941650390625,0.9917755126953124,0.0243988037109375
20473,0.0892486572265625,0.990875244140625,0.023681640625
20474,0.0879974365234375,0.9897918701171876,0.02532958984375
20475,0.0886993408203125,0.9903717041015624,0.0265655517578125
20476,0.0891876220703125,0.992828369140625,0.0278472900390625
20477,0.0888824462890625,0.99530029296875,0.0304412841796875
20478,0.0893096923828125,0.9959564208984376,0.029632568359375
20479,0.08966064453125,0.994476318359375,0.0275421142578125
20480,0.091278076171875,0.9942474365234376,0.0273895263671875
20481,0.0910797119140625,0.9927978515625,0.025604248046875
20482,0.0903167724609375,0.9921875,0.0253753662109375
20483,0.0901641845703125,0.9923858642578124,0.0258331298828125
20484,0.0901641845703125,0.9923858642578124,0.0258331298828125
20485,0.0887908935546875,0.992431640625,0.0257110595703125
20486,0.0865936279296875,0.9913330078125,0.0260162353515625
20487,0.0867156982421875,0.992401123046875,0.025390625
20488,0.0867156982421875,0.992401123046875,0.025390625
20489,0.0869903564453125,0.9947509765625,0.0238189697265625
20490,0.0894317626953125,0.9965362548828124,0.023712158203125
20491,0.08843994140625,0.9951324462890624,0.0263671875
20492,0.086090087890625,0.994415283203125,0.0284576416015625
20493,0.086090087890625,0.994415283203125,0.0284576416015625
20494,0.0833740234375,0.992706298828125,0.0307769775390625
20495,0.0819854736328125,0.992523193359375,0.0290374755859375
20496,0.0819854736328125,0.992523193359375,0.0290374755859375
20497,0.0843658447265625,0.9920501708984376,0.02740478515625
20498,0.084259033203125,0.9940185546875,0.0279998779296875
20499,0.085205078125,0.99578857421875,0.03118896484375
20500,0.085205078125,0.99578857421875,0.03118896484375
20501,0.0846710205078125,0.9977569580078124,0.0327301025390625
20502,0.0858154296875,1.001327514648438,0.0324554443359375
20503,0.0876617431640625,0.9992523193359376,0.03057861328125
20504,0.0876617431640625,0.9992523193359376,0.03057861328125
20505,0.0900421142578125,0.9962921142578124,0.0303802490234375
20506,0.0854034423828125,0.983642578125,0.031494140625
20507,0.0822601318359375,0.97900390625,0.0333709716796875
20508,0.0822601318359375,0.97900390625,0.0333709716796875
20509,0.076934814453125,0.981353759765625,0.0307159423828125
20510,0.0777587890625,0.9879150390625,0.0300140380859375
20511,0.0790252685546875,0.994415283203125,0.0289154052734375
20512,0.0829010009765625,0.99884033203125,0.0299072265625
20513,0.0829010009765625,0.99884033203125,0.0299072265625
20514,0.0876007080078125,1.002410888671875,0.0323638916015625
20515,0.090850830078125,1.001678466796875,0.030487060546875
20516,0.092498779296875,0.9987945556640624,0.03155517578125
20517,0.0926666259765625,0.994110107421875,0.0316619873046875
20518,0.0909881591796875,0.9894561767578124,0.0316619873046875
20519,0.0903167724609375,0.9818267822265624,0.0305938720703125
20520,0.0903167724609375,0.9818267822265624,0.0305938720703125
20521,0.0878143310546875,0.979156494140625,0.031402587890625
20522,0.087432861328125,0.9826507568359376,0.0312957763671875
20523,0.0884857177734375,0.9874114990234376,0.0297088623046875
20524,0.090576171875,0.991546630859375,0.0299530029296875
20525,0.094207763671875,0.9962310791015624,0.03131103515625
20526,0.0976409912109375,1.000152587890625,0.0307159423828125
20527,0.10076904296875,1.000640869140625,0.033599853515625
20528,0.102081298828125,0.9985504150390624,0.0355682373046875
20529,0.1029815673828125,0.9963531494140624,0.035491943359375
20530,0.1019134521484375,0.994232177734375,0.035552978515625
20531,0.1025390625,0.98980712890625,0.0337982177734375
20532,0.1025390625,0.98980712890625,0.0337982177734375
20533,0.1043548583984375,0.9870758056640624,0.0325164794921875
20534,0.1040191650390625,0.9838104248046876,0.0300445556640625
20535,0.102996826171875,0.9843597412109376,0.030120849609375
20536,0.102630615234375,0.9871673583984376,0.03106689453125
20537,0.1008758544921875,0.9910888671875,0.0324554443359375
20538,0.0985260009765625,0.9938201904296876,0.0322723388671875
20539,0.097198486328125,0.9961700439453124,0.0334625244140625
20540,0.097198486328125,0.9961700439453124,0.0334625244140625
20541,0.097930908203125,0.995635986328125,0.0352020263671875
20542,0.09716796875,0.99542236328125,0.034637451171875
20543,0.098602294921875,0.99346923828125,0.0346527099609375
20544,0.0995330810546875,0.992950439453125,0.034912109375
20545,0.0989227294921875,0.9923858642578124,0.03240966796875
20546,0.09808349609375,0.9910736083984376,0.032318115234375
20547,0.0967559814453125,0.99072265625,0.031158447265625
20548,0.095428466796875,0.9913177490234376,0.032745361328125
20549,0.095428466796875,0.9913177490234376,0.032745361328125
20550,0.0934906005859375,0.9901123046875,0.03240966796875
20551,0.094696044921875,0.9918060302734376,0.03240966796875
20552,0.095977783203125,0.9918212890625,0.0329132080078125
20553,0.095977783203125,0.9918212890625,0.0329132080078125
20554,0.097869873046875,0.9918212890625,0.03240966796875
20555,0.099609375,0.991607666015625,0.033843994140625
20556,0.0973663330078125,0.992584228515625,0.0345306396484375
20557,0.0973663330078125,0.992584228515625,0.0345306396484375
20558,0.0968170166015625,0.9936065673828124,0.0347747802734375
20559,0.0949859619140625,0.9920654296875,0.0329742431640625
20560,0.0949859619140625,0.9920654296875,0.0329742431640625
20561,0.09600830078125,0.9900970458984376,0.0319976806640625
20562,0.096771240234375,0.9899749755859376,0.0315399169921875
20563,0.097412109375,0.99249267578125,0.0312347412109375
20564,0.097412109375,0.99249267578125,0.0312347412109375
20565,0.0958099365234375,0.992706298828125,0.0320892333984375
20566,0.094940185546875,0.9915313720703124,0.0335235595703125
20567,0.0947418212890625,0.990203857421875,0.0331573486328125
20568,0.0941009521484375,0.989227294921875,0.033172607421875
20569,0.0943145751953125,0.9891510009765624,0.0335845947265625
20570,0.0954132080078125,0.9915008544921876,0.03424072265625
20571,0.0973968505859375,0.9926605224609376,0.0343017578125
20572,0.0973968505859375,0.9926605224609376,0.0343017578125
20573,0.099151611328125,0.994354248046875,0.0351409912109375
20574,0.102081298828125,0.9933319091796876,0.0352783203125
20575,0.1022186279296875,0.990570068359375,0.03546142578125
20576,0.1022186279296875,0.990570068359375,0.03546142578125
20577,0.100921630859375,0.98675537109375,0.0328216552734375
20578,0.1006927490234375,0.9869384765625,0.0316314697265625
20579,0.101043701171875,0.98846435546875,0.032257080078125
20580,0.101043701171875,0.98846435546875,0.032257080078125
20581,0.099822998046875,0.9936370849609376,0.0318145751953125
20582,0.099822998046875,0.9936370849609376,0.0318145751953125
20583,0.0986328125,0.9942626953125,0.0326385498046875
20584,0.0947723388671875,0.995452880859375,0.0319366455078125
20585,0.0947723388671875,0.995452880859375,0.0319366455078125
20586,0.0923614501953125,0.9941558837890624,0.03125
20587,0.0915679931640625,0.9926910400390624,0.03131103515625
20588,0.091522216796875,0.992034912109375,0.030548095703125
20589,0.091522216796875,0.992034912109375,0.030548095703125
20590,0.0932464599609375,0.9902191162109376,0.0304107666015625
20591,0.093719482421875,0.99029541015625,0.0301971435546875
20592,0.0935821533203125,0.9903564453125,0.0307464599609375
20593,0.0935821533203125,0.9903564453125,0.0307464599609375
20594,0.09283447265625,0.9929351806640624,0.0315704345703125
20595,0.09368896484375,0.99493408203125,0.0311126708984375
20596,0.0953216552734375,0.993927001953125,0.0286407470703125
20597,0.0953216552734375,0.993927001953125,0.0286407470703125
20598,0.095123291015625,0.991668701171875,0.02801513671875
20599,0.096832275390625,0.9904937744140624,0.030120849609375
20600,0.0974273681640625,0.98919677734375,0.02850341796875
20601,0.0974273681640625,0.98919677734375,0.02850341796875
20602,0.098236083984375,0.9892730712890624,0.02880859375
20603,0.09820556640625,0.9896240234375,0.03070068359375
20604,0.0955810546875,0.9925994873046876,0.0325469970703125
20605,0.0955810546875,0.9925994873046876,0.0325469970703125
20606,0.0956573486328125,0.9941558837890624,0.0330657958984375
20607,0.0953369140625,0.99420166015625,0.03173828125
20608,0.0967864990234375,0.993011474609375,0.03173828125
20609,0.0967864990234375,0.993011474609375,0.03173828125
20610,0.0989837646484375,0.9899139404296876,0.0314178466796875
20611,0.0990142822265625,0.989227294921875,0.0320281982421875
20612,0.09808349609375,0.990814208984375,0.032012939453125
20613,0.09808349609375,0.990814208984375,0.032012939453125
20614,0.0975341796875,0.9916534423828124,0.0315399169921875
20615,0.097015380859375,0.993438720703125,0.03045654296875
20616,0.0960540771484375,0.9932403564453124,0.0310516357421875
20617,0.0960540771484375,0.9932403564453124,0.0310516357421875
20618,0.0958404541015625,0.9930572509765624,0.032745361328125
20619,0.0959930419921875,0.993133544921875,0.0319366455078125
20620,0.09637451171875,0.9926300048828124,0.0312957763671875
20621,0.09637451171875,0.9926300048828124,0.0312957763671875
20622,0.096343994140625,0.99298095703125,0.0318450927734375
20623,0.09429931640625,0.99127197265625,0.032501220703125
20624,0.0925750732421875,0.9918670654296876,0.03424072265625
20625,0.0905914306640625,0.9942626953125,0.034088134765625
20626,0.088897705078125,0.995330810546875,0.032958984375
20627,0.089111328125,0.9936370849609376,0.0320281982421875
20628,0.0898895263671875,0.9934539794921876,0.03118896484375
20629,0.0898895263671875,0.9934539794921876,0.03118896484375
20630,0.091217041015625,0.9922637939453124,0.0309906005859375
20631,0.09283447265625,0.9918212890625,0.0318450927734375
20632,0.0922088623046875,0.993194580078125,0.0333251953125
20633,0.0916595458984375,0.9937744140625,0.03521728515625
20634,0.0912628173828125,0.99462890625,0.0347442626953125
20635,0.090240478515625,0.9930419921875,0.0338592529296875
20636,0.090789794921875,0.9919586181640624,0.0325775146484375
20637,0.090789794921875,0.9919586181640624,0.0325775146484375
20638,0.0931854248046875,0.98907470703125,0.033782958984375
20639,0.094879150390625,0.989837646484375,0.03338623046875
20640,0.0963287353515625,0.992462158203125,0.0341949462890625
20641,0.0998687744140625,0.9944000244140624,0.0329132080078125
20642,0.1028289794921875,0.99462890625,0.0323638916015625
20643,0.104248046875,0.992706298828125,0.032012939453125
20644,0.1046295166015625,0.9897003173828124,0.035003662109375
20645,0.1046295166015625,0.9897003173828124,0.035003662109375
20646,0.100982666015625,0.9868621826171876,0.0372772216796875
20647,0.0996856689453125,0.986907958984375,0.035797119140625
20648,0.0991668701171875,0.9878387451171876,0.03314208984375
20649,0.0991668701171875,0.9878387451171876,0.03314208984375
20650,0.09857177734375,0.9906158447265624,0.0299530029296875
20651,0.09820556640625,0.9919586181640624,0.031982421875
20652,0.09820556640625,0.993804931640625,0.0344390869140625
20653,0.09820556640625,0.993804931640625,0.0344390869140625
20654,0.0974578857421875,0.995758056640625,0.035980224609375
20655,0.09698486328125,0.9960174560546876,0.03607177734375
20656,0.095245361328125,0.99462890625,0.03680419921875
20657,0.0930633544921875,0.9923248291015624,0.0363922119140625
20658,0.0929107666015625,0.990020751953125,0.0341796875
20659,0.0916595458984375,0.989410400390625,0.034332275390625
20660,0.0900726318359375,0.989532470703125,0.0322265625
20661,0.0900726318359375,0.989532470703125,0.0322265625
20662,0.089263916015625,0.9909820556640624,0.03302001953125
20663,0.0903167724609375,0.9924163818359376,0.03228759765625
20664,0.09283447265625,0.9933624267578124,0.0329132080078125
20665,0.09283447265625,0.9933624267578124,0.0329132080078125
20666,0.0939788818359375,0.9930267333984376,0.03448486328125
20667,0.094512939453125,0.9933929443359376,0.0343780517578125
20668,0.0948944091796875,0.992279052734375,0.03411865234375
20669,0.095245361328125,0.992645263671875,0.033294677734375
20670,0.0946197509765625,0.9922027587890624,0.03204345703125
20671,0.0931396484375,0.9914398193359376,0.031646728515625
20672,0.093994140625,0.99212646484375,0.0308837890625
20673,0.093994140625,0.99212646484375,0.0308837890625
20674,0.0955963134765625,0.992584228515625,0.0305023193359375
20675,0.0966339111328125,0.9929656982421876,0.0318145751953125
20676,0.097198486328125,0.9926910400390624,0.03399658203125
20677,0.096954345703125,0.9915924072265624,0.034088134765625
20678,0.09747314453125,0.99029541015625,0.0337371826171875
20679,0.0976715087890625,0.9911346435546876,0.034912109375
20680,0.0965576171875,0.9912872314453124,0.034393310546875
20681,0.0965576171875,0.9912872314453124,0.034393310546875
20682,0.097503662109375,0.991485595703125,0.03607177734375
20683,0.0973663330078125,0.9923095703125,0.0360870361328125
20684,0.0970916748046875,0.9929046630859376,0.0362701416015625
20685,0.0966644287109375,0.9916534423828124,0.0348358154296875
20686,0.0963287353515625,0.9925537109375,0.0337066650390625
20687,0.0955963134765625,0.9928741455078124,0.032257080078125
20688,0.0970001220703125,0.9912109375,0.0315399169921875
20689,0.099151611328125,0.9911346435546876,0.0312652587890625
20690,0.1005859375,0.9901885986328124,0.0316925048828125
20691,0.1025238037109375,0.9900054931640624,0.0323028564453125
20692,0.1028289794921875,0.99151611328125,0.035552978515625
20693,0.1028289794921875,0.99151611328125,0.035552978515625
20694,0.10137939453125,0.993011474609375,0.035858154296875
20695,0.09979248046875,0.990966796875,0.0352020263671875
20696,0.0978240966796875,0.98797607421875,0.036224365234375
20697,0.0978240966796875,0.98797607421875,0.036224365234375
20698,0.0918731689453125,0.985809326171875,0.0376129150390625
20699,0.0899658203125,0.988555908203125,0.03857421875
20700,0.0892791748046875,0.9925384521484376,0.0373992919921875
20701,0.0892791748046875,0.9925384521484376,0.0373992919921875
20702,0.090789794921875,0.998992919921875,0.0355072021484375
20703,0.09259033203125,1.001022338867188,0.03546142578125
20704,0.0948638916015625,1.001861572265625,0.0353851318359375
20705,0.0948638916015625,1.001861572265625,0.0353851318359375
20706,0.0980987548828125,0.999664306640625,0.036163330078125
20707,0.09716796875,0.996795654296875,0.03778076171875
20708,0.09747314453125,0.9951019287109376,0.038055419921875
20709,0.09747314453125,0.9951019287109376,0.038055419921875
20710,0.0985107421875,0.9869384765625,0.031646728515625
20711,0.0991363525390625,0.984375,0.0316314697265625
20712,0.0997161865234375,0.981536865234375,0.033355712890625
20713,0.0997161865234375,0.981536865234375,0.033355712890625
20714,0.091522216796875,0.9827117919921876,0.0336456298828125
20715,0.095611572265625,0.983642578125,0.0344390869140625
20716,0.09527587890625,0.98687744140625,0.03424072265625
20717,0.0942230224609375,0.992218017578125,0.0359039306640625
20718,0.0949554443359375,0.9940643310546876,0.03594970703125
20719,0.09417724609375,0.9949951171875,0.03680419921875
20720,0.0948944091796875,0.995697021484375,0.0377197265625
20721,0.0955963134765625,0.9939422607421876,0.036651611328125
20722,0.09710693359375,0.9925079345703124,0.0355987548828125
20723,0.098480224609375,0.990814208984375,0.0343170166015625
20724,0.0997161865234375,0.9882659912109376,0.03399658203125
20725,0.0997161865234375,0.9882659912109376,0.03399658203125
20726,0.097808837890625,0.9884033203125,0.0343780517578125
20727,0.0981292724609375,0.990203857421875,0.0327606201171875
20728,0.100799560546875,0.9906005859375,0.0319671630859375
20729,0.100799560546875,0.9906005859375,0.0319671630859375
20730,0.1011962890625,0.9906005859375,0.032318115234375
20731,0.1036376953125,0.9913787841796876,0.0339508056640625
20732,0.1050262451171875,0.9910430908203124,0.0343017578125
20733,0.1053466796875,0.990264892578125,0.0348358154296875
20734,0.1046295166015625,0.9891815185546876,0.0357818603515625
20735,0.104248046875,0.987396240234375,0.034942626953125
20736,0.103424072265625,0.9854278564453124,0.0344085693359375
20737,0.103424072265625,0.9854278564453124,0.0344085693359375
20738,0.0992279052734375,0.9883575439453124,0.03521728515625
20739,0.0970611572265625,0.9902801513671876,0.0357513427734375
20740,0.0954132080078125,0.9911041259765624,0.0372467041015625
20741,0.0954132080078125,0.9911041259765624,0.0372467041015625
20742,0.093841552734375,0.9915008544921876,0.036590576171875
20743,0.093780517578125,0.9909210205078124,0.0366058349609375
20744,0.095916748046875,0.9915008544921876,0.0372772216796875
20745,0.096893310546875,0.99285888671875,0.0399017333984375
20746,0.09625244140625,0.992828369140625,0.0413665771484375
20747,0.097503662109375,0.9940032958984376,0.0448150634765625
20748,0.0991363525390625,0.9935760498046876,0.0460662841796875
20749,0.0991363525390625,0.9935760498046876,0.0460662841796875
20750,0.0993499755859375,0.990966796875,0.0441131591796875
20751,0.1009979248046875,0.98931884765625,0.0400238037109375
20752,0.1027984619140625,0.9890594482421876,0.0412750244140625
20753,0.1027984619140625,0.9890594482421876,0.0412750244140625
20754,0.1023101806640625,0.988433837890625,0.0402069091796875
20755,0.1023712158203125,0.988067626953125,0.0388946533203125
20756,0.10198974609375,0.986602783203125,0.037841796875
20757,0.10198974609375,0.986602783203125,0.037841796875
20758,0.1020660400390625,0.9896697998046876,0.03857421875
20759,0.1046142578125,0.991943359375,0.0373687744140625
20760,0.10687255859375,0.9936981201171876,0.0378875732421875
20761,0.1072845458984375,0.9948272705078124,0.0391845703125
20762,0.10516357421875,0.992095947265625,0.040802001953125
20763,0.1039581298828125,0.990386962890625,0.0434722900390625
20764,0.101837158203125,0.9890594482421876,0.0441741943359375
20765,0.101837158203125,0.9890594482421876,0.0441741943359375
20766,0.0973052978515625,0.9907073974609376,0.0390777587890625
20767,0.0968780517578125,0.9904022216796876,0.03839111328125
20768,0.0990447998046875,0.9882965087890624,0.037353515625
20769,0.1018524169921875,0.988037109375,0.03662109375
20770,0.10260009765625,0.9887542724609376,0.0382843017578125
20771,0.10333251953125,0.9905548095703124,0.0395965576171875
20772,0.1093292236328125,0.9985504150390624,0.040252685546875
20773,0.1093292236328125,0.9985504150390624,0.040252685546875
20774,0.11212158203125,0.999237060546875,0.0410003662109375
20775,0.1139068603515625,0.997039794921875,0.04095458984375
20776,0.116180419921875,0.9926300048828124,0.0394287109375
20777,0.116180419921875,0.9926300048828124,0.0394287109375
20778,0.1176300048828125,0.9842376708984376,0.04083251953125
20779,0.1165313720703125,0.9826812744140624,0.0413970947265625
20780,0.115020751953125,0.9822845458984376,0.0404510498046875
20781,0.1142578125,0.9841766357421876,0.0373382568359375
20782,0.113922119140625,0.985626220703125,0.03570556640625
20783,0.1127166748046875,0.986480712890625,0.0348663330078125
20784,0.1102447509765625,0.9882965087890624,0.036224365234375
20785,0.1094818115234375,0.9919281005859376,0.0383148193359375
20786,0.110443115234375,0.9937744140625,0.0391845703125
20787,0.111328125,0.9959869384765624,0.0389556884765625
20788,0.11322021484375,0.99652099609375,0.0372772216796875
20789,0.11322021484375,0.99652099609375,0.0372772216796875
20790,0.114990234375,0.9931182861328124,0.0377197265625
20791,0.1143951416015625,0.9910430908203124,0.0373077392578125
20792,0.11346435546875,0.9905242919921876,0.0355072021484375
20793,0.1125335693359375,0.9908294677734376,0.03466796875
20794,0.11273193359375,0.9901580810546876,0.03375244140625
20795,0.110595703125,0.989166259765625,0.032073974609375
20796,0.1070404052734375,0.99053955078125,0.033966064453125
20797,0.1070404052734375,0.99053955078125,0.033966064453125
20798,0.1070709228515625,0.990753173828125,0.034698486328125
20799,0.1103057861328125,0.9895477294921876,0.035308837890625
20800,0.113372802734375,0.988616943359375,0.0353851318359375
20801,0.1147918701171875,0.9871673583984376,0.0347137451171875
20802,0.1159820556640625,0.9853057861328124,0.0350189208984375
20803,0.1173553466796875,0.9847869873046876,0.0340423583984375
20804,0.1187896728515625,0.9849853515625,0.032745361328125
20805,0.1187896728515625,0.9849853515625,0.032745361328125
20806,0.118011474609375,0.98699951171875,0.031219482421875
20807,0.1177978515625,0.9883880615234376,0.032073974609375
20808,0.113494873046875,0.9905242919921876,0.035064697265625
20809,0.113494873046875,0.9905242919921876,0.035064697265625
20810,0.111297607421875,0.9909820556640624,0.03350830078125
20811,0.1094970703125,0.98974609375,0.03082275390625
20812,0.1105804443359375,0.9894561767578124,0.0290069580078125
20813,0.1105804443359375,0.9894561767578124,0.0290069580078125
20814,0.112945556640625,0.9879913330078124,0.0260009765625
20815,0.114532470703125,0.987274169921875,0.026611328125
20816,0.115814208984375,0.987060546875,0.0279388427734375
20817,0.115814208984375,0.987060546875,0.0279388427734375
20818,0.1186065673828125,0.990478515625,0.03033447265625
20819,0.1197509765625,0.9924468994140624,0.0296478271484375
20820,0.1198883056640625,0.9921722412109376,0.0300750732421875
20821,0.1198883056640625,0.9921722412109376,0.0300750732421875
20822,0.12042236328125,0.991790771484375,0.0311431884765625
20823,0.1201324462890625,0.991943359375,0.0307159423828125
20824,0.11968994140625,0.9903564453125,0.028564453125
20825,0.11968994140625,0.9903564453125,0.028564453125
20826,0.120880126953125,0.9856719970703124,0.0281829833984375
20827,0.121124267578125,0.985443115234375,0.028106689453125
20828,0.1223602294921875,0.984405517578125,0.030242919921875
20829,0.123046875,0.984039306640625,0.029052734375
20830,0.1246185302734375,0.9861602783203124,0.030059814453125
20831,0.1246185302734375,0.9897308349609376,0.032073974609375
20832,0.124114990234375,0.9914398193359376,0.03302001953125
20833,0.124114990234375,0.9914398193359376,0.03302001953125
20834,0.1228485107421875,0.9926300048828124,0.0327301025390625
20835,0.1223907470703125,0.9929046630859376,0.0308837890625
20836,0.1218109130859375,0.99237060546875,0.0309600830078125
20837,0.1212158203125,0.991973876953125,0.031158447265625
20838,0.1206207275390625,0.990264892578125,0.0318603515625
20839,0.1213531494140625,0.9893646240234376,0.0317840576171875
20840,0.125274658203125,0.9915618896484376,0.029937744140625
20841,0.125274658203125,0.9915618896484376,0.029937744140625
20842,0.1273040771484375,0.991119384765625,0.0281524658203125
20843,0.1299591064453125,0.990203857421875,0.0277099609375
20844,0.131378173828125,0.9897613525390624,0.0299835205078125
20845,0.131378173828125,0.9897613525390624,0.0299835205078125
20846,0.1302490234375,0.9891815185546876,0.03326416015625
20847,0.130706787109375,0.9924163818359376,0.032562255859375
20848,0.129364013671875,0.9959564208984376,0.03009033203125
20849,0.129364013671875,0.9959564208984376,0.03009033203125
20850,0.1285552978515625,0.9952850341796876,0.025421142578125
20851,0.1284027099609375,0.9945526123046876,0.0213623046875
20852,0.1296844482421875,0.993865966796875,0.0181732177734375
20853,0.1296844482421875,0.993865966796875,0.0181732177734375
20854,0.13427734375,0.9881744384765624,0.01580810546875
20855,0.136138916015625,0.986541748046875,0.0168914794921875
20856,0.1392974853515625,0.9835052490234376,0.01873779296875
20857,0.1392974853515625,0.9835052490234376,0.01873779296875
20858,0.1400909423828125,0.98516845703125,0.021820068359375
20859,0.14154052734375,0.984893798828125,0.02349853515625
20860,0.1401214599609375,0.9847259521484376,0.02557373046875
20861,0.1401214599609375,0.9847259521484376,0.02557373046875
20862,0.139862060546875,0.984161376953125,0.0241241455078125
20863,0.1391448974609375,0.9839630126953124,0.0243682861328125
20864,0.1390533447265625,0.982757568359375,0.025054931640625
20865,0.1365203857421875,0.980926513671875,0.0260467529296875
20866,0.1342315673828125,0.980865478515625,0.026153564453125
20867,0.13232421875,0.9825286865234376,0.02886962890625
20868,0.13055419921875,0.9839324951171876,0.0312957763671875
20869,0.128509521484375,0.9845428466796876,0.0321807861328125
20870,0.1280670166015625,0.984375,0.03369140625
20871,0.126495361328125,0.985382080078125,0.032867431640625
20872,0.124267578125,0.9899749755859376,0.0306854248046875
20873,0.124267578125,0.9899749755859376,0.0306854248046875
20874,0.1214599609375,0.9957122802734376,0.0275115966796875
20875,0.1215362548828125,0.996734619140625,0.02777099609375
20876,0.1238250732421875,0.9923858642578124,0.0254669189453125
20877,0.1238250732421875,0.9923858642578124,0.0254669189453125
20878,0.126129150390625,0.9899749755859376,0.0285491943359375
20879,0.1298675537109375,0.9909210205078124,0.030548095703125
20880,0.1313323974609375,0.990631103515625,0.031219482421875
20881,0.13433837890625,0.988128662109375,0.0303955078125
20882,0.1377716064453125,0.985565185546875,0.0293121337890625
20883,0.14129638671875,0.9810638427734376,0.0270843505859375
20884,0.146087646484375,0.97674560546875,0.0270233154296875
20885,0.1496429443359375,0.9750518798828124,0.02777099609375
20886,0.150787353515625,0.9775848388671876,0.0293731689453125
20887,0.151153564453125,0.9789276123046876,0.0310211181640625
20888,0.1491546630859375,0.98046875,0.035064697265625
20889,0.1491546630859375,0.98046875,0.035064697265625
20890,0.14239501953125,0.987396240234375,0.0412750244140625
20891,0.13922119140625,0.9900054931640624,0.0418243408203125
20892,0.135498046875,0.9918212890625,0.0416259765625
20893,0.1322174072265625,0.9940338134765624,0.039154052734375
20894,0.129058837890625,0.995819091796875,0.0357513427734375
20895,0.1252593994140625,0.9971160888671876,0.0314788818359375
20896,0.1224822998046875,0.997772216796875,0.02783203125
20897,0.1179351806640625,0.9981689453125,0.0244598388671875
20898,0.1137847900390625,0.9998626708984376,0.0217437744140625
20899,0.1086883544921875,1.0015869140625,0.0178070068359375
20900,0.1061248779296875,1.001953125,0.0132598876953125
20901,0.1041717529296875,0.9984588623046876,0.0119171142578125
20902,0.10430908203125,0.995635986328125,0.009490966796875
20903,0.105560302734375,0.993316650390625,0.0113983154296875
20904,0.1065521240234375,0.991607666015625,0.0131378173828125
20905,0.1083221435546875,0.992767333984375,0.01116943359375
20906,0.10992431640625,0.99530029296875,0.0113067626953125
20907,0.114349365234375,0.99468994140625,0.009185791015625
20908,0.11944580078125,0.993560791015625,0.004730224609375
20909,0.11944580078125,0.993560791015625,0.004730224609375
20910,0.13531494140625,0.989532470703125,0.0050811767578125
20911,0.1425933837890625,0.9857940673828124,0.005401611328125
20912,0.148834228515625,0.981781005859375,0.007171630859375
20913,0.1537933349609375,0.9774932861328124,0.0118560791015625
20914,0.1567840576171875,0.9761505126953124,0.01409912109375
20915,0.157470703125,0.97662353515625,0.01507568359375
20916,0.1565093994140625,0.98114013671875,0.0169525146484375
20917,0.1565093994140625,0.98114013671875,0.0169525146484375
20918,0.15618896484375,0.9840240478515624,0.0160675048828125
20919,0.157073974609375,0.9859161376953124,0.01702880859375
20920,0.16033935546875,0.9870147705078124,0.01806640625
20921,0.16033935546875,0.9870147705078124,0.01806640625
20922,0.1672515869140625,0.98724365234375,0.0181427001953125
20923,0.169219970703125,0.9855499267578124,0.018829345703125
20924,0.1714324951171875,0.9829254150390624,0.0208587646484375
20925,0.17254638671875,0.98052978515625,0.0244293212890625
20926,0.1741180419921875,0.97564697265625,0.0282135009765625
20927,0.175811767578125,0.972991943359375,0.02996826171875
20928,0.175140380859375,0.9716339111328124,0.031585693359375
20929,0.1748046875,0.9735107421875,0.033660888671875
20930,0.17230224609375,0.9781646728515624,0.03546142578125
20931,0.16949462890625,0.981353759765625,0.0358428955078125
20932,0.1656036376953125,0.984619140625,0.037200927734375
20933,0.1610870361328125,0.986663818359375,0.03887939453125
20934,0.1558074951171875,0.9875030517578124,0.0401611328125
20935,0.1513671875,0.9888916015625,0.0420074462890625
20936,0.146270751953125,0.9885406494140624,0.0438995361328125
20937,0.141265869140625,0.9876861572265624,0.045196533203125
20938,0.137939453125,0.987213134765625,0.0449676513671875
20939,0.1340179443359375,0.99005126953125,0.0441741943359375
20940,0.1315155029296875,0.9910125732421876,0.0402374267578125
20941,0.1305389404296875,0.9918060302734376,0.037384033203125
20942,0.1309051513671875,0.9921722412109376,0.0357208251953125
20943,0.131683349609375,0.992431640625,0.032928466796875
20944,0.13330078125,0.9897918701171876,0.0338897705078125
20945,0.13330078125,0.9897918701171876,0.0338897705078125
20946,0.1343841552734375,0.989654541015625,0.035919189453125
20947,0.1344451904296875,0.989501953125,0.038909912109375
20948,0.1342315673828125,0.9878692626953124,0.0389556884765625
20949,0.1342315673828125,0.9878692626953124,0.0389556884765625
20950,0.1337890625,0.9886932373046876,0.03643798828125
20951,0.135589599609375,0.9901885986328124,0.0337066650390625
20952,0.1360931396484375,0.99017333984375,0.0332183837890625
20953,0.1360931396484375,0.99017333984375,0.0332183837890625
20954,0.13446044921875,0.9861297607421876,0.03680419921875
20955,0.1339569091796875,0.9804534912109376,0.03717041015625
20956,0.1352691650390625,0.9756927490234376,0.0369415283203125
20957,0.138763427734375,0.97406005859375,0.0354766845703125
20958,0.1423492431640625,0.9753875732421876,0.033172607421875
20959,0.1440277099609375,0.9786529541015624,0.0331573486328125
20960,0.1450958251953125,0.981689453125,0.032867431640625
20961,0.1450958251953125,0.981689453125,0.032867431640625
20962,0.1470794677734375,0.9883575439453124,0.0283966064453125
20963,0.1486663818359375,0.9904632568359376,0.028533935546875
20964,0.146881103515625,0.9884185791015624,0.0300750732421875
20965,0.14501953125,0.985504150390625,0.0317840576171875
20966,0.1403350830078125,0.98516845703125,0.0319976806640625
20967,0.135284423828125,0.985107421875,0.03179931640625
20968,0.1308135986328125,0.9857635498046876,0.0299835205078125
20969,0.128021240234375,0.9867401123046876,0.028076171875
20970,0.1270599365234375,0.988372802734375,0.026885986328125
20971,0.1251373291015625,0.990203857421875,0.0272064208984375
20972,0.126708984375,0.989898681640625,0.0281524658203125
20973,0.126708984375,0.989898681640625,0.0281524658203125
20974,0.1265869140625,0.9889984130859376,0.030181884765625
20975,0.12701416015625,0.9891357421875,0.031219482421875
20976,0.125946044921875,0.9889373779296876,0.031341552734375
20977,0.123016357421875,0.9890594482421876,0.0312652587890625
20978,0.121978759765625,0.98828125,0.0293121337890625
20979,0.1219482421875,0.988616943359375,0.029266357421875
20980,0.1222991943359375,0.9893646240234376,0.0296783447265625
20981,0.1223602294921875,0.9897308349609376,0.028778076171875
20982,0.1237335205078125,0.990966796875,0.02911376953125
20983,0.1229095458984375,0.9903411865234376,0.0286407470703125
20984,0.1211090087890625,0.9898681640625,0.0299224853515625
20985,0.1187591552734375,0.9888153076171876,0.0295562744140625
20986,0.11737060546875,0.9883270263671876,0.0295257568359375
20987,0.1160888671875,0.9899139404296876,0.029205322265625
20988,0.1171722412109375,0.9905548095703124,0.0290069580078125
20989,0.1171722412109375,0.9905548095703124,0.0290069580078125
20990,0.1226806640625,0.9920501708984376,0.0274200439453125
20991,0.1266937255859375,0.9918670654296876,0.026611328125
20992,0.128448486328125,0.99029541015625,0.0277862548828125
20993,0.128448486328125,0.99029541015625,0.0277862548828125
20994,0.1302490234375,0.98602294921875,0.02838134765625
20995,0.130218505859375,0.9867401123046876,0.0265655517578125
20996,0.1300201416015625,0.9850921630859376,0.02618408203125
20997,0.1300201416015625,0.9850921630859376,0.02618408203125
20998,0.1350250244140625,0.984832763671875,0.0242462158203125
20999,0.1372222900390625,0.9868316650390624,0.02313232421875
21000,0.13922119140625,0.988311767578125,0.02197265625
21001,0.140716552734375,0.98809814453125,0.0216217041015625
21002,0.142547607421875,0.986907958984375,0.0216064453125
21003,0.1432952880859375,0.9852142333984376,0.0228424072265625
21004,0.143798828125,0.98370361328125,0.025421142578125
21005,0.143798828125,0.98370361328125,0.025421142578125
21006,0.141448974609375,0.9838104248046876,0.026763916015625
21007,0.1416168212890625,0.9838409423828124,0.0265960693359375
21008,0.1417236328125,0.9829864501953124,0.0259552001953125
21009,0.1405181884765625,0.9822235107421876,0.02392578125
21010,0.140228271484375,0.9843902587890624,0.0235595703125
21011,0.13922119140625,0.9868621826171876,0.023956298828125
21012,0.1369781494140625,0.9886627197265624,0.0243682861328125
21013,0.1369781494140625,0.9886627197265624,0.0243682861328125
21014,0.1338043212890625,0.99267578125,0.0255279541015625
21015,0.1318817138671875,0.992706298828125,0.026153564453125
21016,0.1320648193359375,0.9917449951171876,0.0249481201171875
21017,0.1320648193359375,0.9917449951171876,0.0249481201171875
21018,0.1316986083984375,0.9883575439453124,0.0254058837890625
21019,0.13092041015625,0.9864654541015624,0.025177001953125
21020,0.1322174072265625,0.9878082275390624,0.025665283203125
21021,0.13189697265625,0.9889984130859376,0.0265045166015625
21022,0.131561279296875,0.988067626953125,0.0257415771484375
21023,0.132232666015625,0.9887237548828124,0.0276336669921875
21024,0.13128662109375,0.991424560546875,0.02947998046875
21025,0.1300048828125,0.992431640625,0.030914306640625
21026,0.129913330078125,0.993194580078125,0.028594970703125
21027,0.1324310302734375,0.9923553466796876,0.02630615234375
21028,0.135955810546875,0.9903106689453124,0.0235748291015625
21029,0.1402435302734375,0.985137939453125,0.0201263427734375
21030,0.143310546875,0.981048583984375,0.0177764892578125
21031,0.1451416015625,0.9782257080078124,0.0189666748046875
21032,0.1455535888671875,0.9798736572265624,0.0214996337890625
21033,0.143829345703125,0.9845733642578124,0.02386474609375
21034,0.143402099609375,0.9895477294921876,0.0279388427734375
21035,0.1415252685546875,0.99310302734375,0.028472900390625
21036,0.1398773193359375,0.993377685546875,0.0266265869140625
21037,0.1403350830078125,0.9924163818359376,0.023834228515625
21038,0.1433258056640625,0.9885406494140624,0.0196533203125
21039,0.1466217041015625,0.9845428466796876,0.0184326171875
21040,0.1508941650390625,0.9810333251953124,0.022369384765625
21041,0.153717041015625,0.981842041015625,0.0257415771484375
21042,0.1521759033203125,0.9835052490234376,0.025360107421875
21043,0.152374267578125,0.984344482421875,0.0240325927734375
21044,0.1533660888671875,0.9883270263671876,0.0248870849609375
21045,0.1523895263671875,0.990692138671875,0.02716064453125
21046,0.1504974365234375,0.98980712890625,0.030426025390625
21047,0.1473541259765625,0.988067626953125,0.0300140380859375
21048,0.1443023681640625,0.9869232177734376,0.0279541015625
21049,0.1422882080078125,0.9864654541015624,0.0263519287109375
21050,0.1417999267578125,0.98541259765625,0.0232391357421875
21051,0.143035888671875,0.984832763671875,0.019866943359375
21052,0.1457366943359375,0.9847412109375,0.0194549560546875
21053,0.1457366943359375,0.9847412109375,0.0194549560546875
21054,0.147796630859375,0.986236572265625,0.0224151611328125
21055,0.149444580078125,0.9888916015625,0.024322509765625
21056,0.1494903564453125,0.991973876953125,0.028106689453125
21057,0.1494903564453125,0.991973876953125,0.028106689453125
21058,0.1461944580078125,0.9889984130859376,0.03173828125
21059,0.144317626953125,0.9851531982421876,0.0319366455078125
21060,0.1395721435546875,0.97991943359375,0.0323333740234375
21061,0.1395721435546875,0.97991943359375,0.0323333740234375
21062,0.1364288330078125,0.9783935546875,0.0290679931640625
21063,0.136749267578125,0.9806365966796876,0.025482177734375
21064,0.1412353515625,0.98431396484375,0.0237579345703125
21065,0.146697998046875,0.98651123046875,0.023773193359375
21066,0.1520233154296875,0.9873199462890624,0.0248870849609375
21067,0.15435791015625,0.986724853515625,0.0261383056640625
21068,0.1563873291015625,0.985992431640625,0.02728271484375
21069,0.1563873291015625,0.985992431640625,0.02728271484375
21070,0.1585540771484375,0.985931396484375,0.0268707275390625
21071,0.1575469970703125,0.98553466796875,0.024749755859375
21072,0.1563262939453125,0.985107421875,0.023834228515625
21073,0.154205322265625,0.9841461181640624,0.0225830078125
21074,0.1521453857421875,0.985321044921875,0.0205841064453125
21075,0.150604248046875,0.98773193359375,0.020050048828125
21076,0.1502685546875,0.9892578125,0.0208740234375
21077,0.149993896484375,0.9869842529296876,0.0240020751953125
21078,0.1476287841796875,0.982025146484375,0.0267333984375
21079,0.1449127197265625,0.9773406982421876,0.029388427734375
21080,0.1429443359375,0.9747467041015624,0.0295562744140625
21081,0.141876220703125,0.9764404296875,0.0311279296875
21082,0.1428375244140625,0.98126220703125,0.0297698974609375
21083,0.1459808349609375,0.98565673828125,0.0279998779296875
21084,0.148895263671875,0.9875335693359376,0.0258026123046875
21085,0.1522064208984375,0.9886932373046876,0.02728271484375
21086,0.1533660888671875,0.9894866943359376,0.0308074951171875
21087,0.1525726318359375,0.9889068603515624,0.0314788818359375
21088,0.1512298583984375,0.988006591796875,0.033111572265625
21089,0.15130615234375,0.9874267578125,0.033294677734375
21090,0.14898681640625,0.9868927001953124,0.030364990234375
21091,0.146728515625,0.98626708984375,0.0284881591796875
21092,0.1453399658203125,0.9867706298828124,0.0269927978515625
21093,0.1431884765625,0.986358642578125,0.0270538330078125
21094,0.1383819580078125,0.985443115234375,0.029510498046875
21095,0.137176513671875,0.9861297607421876,0.0308837890625
21096,0.14093017578125,0.9881134033203124,0.02935791015625
21097,0.14093017578125,0.9881134033203124,0.02935791015625
21098,0.145721435546875,0.9903106689453124,0.0316162109375
21099,0.1487579345703125,0.992462158203125,0.0333099365234375
21100,0.150115966796875,0.99334716796875,0.0342559814453125
21101,0.150238037109375,0.9915313720703124,0.035064697265625
21102,0.15008544921875,0.9884185791015624,0.0335845947265625
21103,0.1470184326171875,0.98333740234375,0.0312652587890625
21104,0.14532470703125,0.9815521240234376,0.0289154052734375
21105,0.142791748046875,0.981903076171875,0.0280914306640625
21106,0.1420440673828125,0.9840240478515624,0.027740478515625
21107,0.1407623291015625,0.98724365234375,0.0305328369140625
21108,0.14117431640625,0.9890594482421876,0.0343475341796875
21109,0.14117431640625,0.9890594482421876,0.0343475341796875
21110,0.1452789306640625,0.9903564453125,0.0394287109375
21111,0.1486968994140625,0.988616943359375,0.0400543212890625
21112,0.1507415771484375,0.9853668212890624,0.0392608642578125
21113,0.1507415771484375,0.9853668212890624,0.0392608642578125
21114,0.149627685546875,0.9779205322265624,0.0360260009765625
21115,0.147552490234375,0.9787750244140624,0.0367889404296875
21116,0.1416168212890625,0.9838409423828124,0.04852294921875
21117,0.13116455078125,0.9916534423828124,0.0627899169921875
21118,0.1176605224609375,0.9979705810546876,0.066986083984375
21119,0.108734130859375,1.000900268554688,0.05804443359375
21120,0.109619140625,1.001937866210938,0.0410308837890625
21121,0.109619140625,1.001937866210938,0.0410308837890625
21122,0.11383056640625,0.9989013671875,0.0414276123046875
21123,0.116790771484375,0.9947509765625,0.04638671875
21124,0.1163330078125,0.99322509765625,0.04730224609375
21125,0.115478515625,0.9923248291015624,0.045989990234375
21126,0.1141357421875,0.9889984130859376,0.0444488525390625
21127,0.1124114990234375,0.9870147705078124,0.0426483154296875
21128,0.110260009765625,0.9878082275390624,0.0408477783203125
21129,0.106231689453125,0.991912841796875,0.0399169921875
21130,0.1035003662109375,0.9954376220703124,0.0393829345703125
21131,0.103759765625,0.996337890625,0.0377655029296875
21132,0.1048126220703125,0.9933319091796876,0.0385284423828125
21133,0.1048126220703125,0.9933319091796876,0.0385284423828125
21134,0.10693359375,0.9892425537109376,0.0473480224609375
21135,0.1036224365234375,0.9917144775390624,0.0543212890625
21136,0.0966033935546875,0.9963226318359376,0.059844970703125
21137,0.0966033935546875,0.9963226318359376,0.059844970703125
21138,0.0886383056640625,1.011077880859375,0.0548248291015625
21139,0.0865020751953125,1.00823974609375,0.0486907958984375
21140,0.0839080810546875,0.9966888427734376,0.0483551025390625
21141,0.07696533203125,0.9850006103515624,0.0553131103515625
21142,0.065643310546875,0.9766998291015624,0.06048583984375
21143,0.0533294677734375,0.9741058349609376,0.0602874755859375
21144,0.0424041748046875,0.9720611572265624,0.0601043701171875
21145,0.0424041748046875,0.9720611572265624,0.0601043701171875
21146,0.0408782958984375,0.9837188720703124,0.058380126953125
21147,0.0566864013671875,0.989837646484375,0.0462493896484375
21148,0.0810699462890625,0.9932708740234376,0.0345001220703125
21149,0.1085205078125,0.9930267333984376,0.0254669189453125
21150,0.1350555419921875,0.9942169189453124,0.025482177734375
21151,0.1527252197265625,0.995849609375,0.0250244140625
21152,0.1499176025390625,0.9969940185546876,0.0351715087890625
21153,0.1499176025390625,0.9969940185546876,0.0351715087890625
21154,0.131805419921875,0.9982147216796876,0.0403900146484375
21155,0.112335205078125,1.002700805664062,0.0420074462890625
21156,0.088409423828125,1.008071899414062,0.0325164794921875
21157,0.088409423828125,1.008071899414062,0.0325164794921875
21158,0.0843353271484375,1.006027221679688,0.0262603759765625
21159,0.0873870849609375,1.003204345703125,0.017852783203125
21160,0.09625244140625,1.004241943359375,0.01336669921875
21161,0.1041412353515625,1.0072021484375,0.0135650634765625
21162,0.111053466796875,1.011550903320312,0.016326904296875
21163,0.1177215576171875,1.01239013671875,0.0205841064453125
21164,0.126861572265625,1.005615234375,0.0239715576171875
21165,0.136474609375,0.993499755859375,0.0260772705078125
21166,0.1464080810546875,0.9842529296875,0.027740478515625
21167,0.152435302734375,0.9805755615234376,0.0267486572265625
21168,0.1554718017578125,0.9808807373046876,0.0286865234375
21169,0.1554718017578125,0.9808807373046876,0.0286865234375
21170,0.1468505859375,0.9838714599609376,0.0329132080078125
21171,0.138580322265625,0.98944091796875,0.02972412109375
21172,0.131805419921875,0.9955902099609376,0.022216796875
21173,0.1265106201171875,0.9966583251953124,0.0163421630859375
21174,0.12469482421875,0.99334716796875,0.0130615234375
21175,0.1235809326171875,0.986083984375,0.0132904052734375
21176,0.1237640380859375,0.9800872802734376,0.0163726806640625
21177,0.1237640380859375,0.9800872802734376,0.0163726806640625
21178,0.1259613037109375,0.97540283203125,0.0167388916015625
21179,0.1315765380859375,0.978973388671875,0.0196075439453125
21180,0.12982177734375,0.9825439453125,0.0199127197265625
21181,0.1264801025390625,0.984893798828125,0.020477294921875
21182,0.1246185302734375,0.9857330322265624,0.018707275390625
21183,0.12139892578125,0.9844970703125,0.0175018310546875
21184,0.11651611328125,0.983795166015625,0.0235137939453125
21185,0.110931396484375,0.9857025146484376,0.032135009765625
21186,0.1052398681640625,0.9905548095703124,0.0412139892578125
21187,0.0984039306640625,0.995819091796875,0.0489501953125
21188,0.0924072265625,0.996124267578125,0.04888916015625
21189,0.0906982421875,0.9888916015625,0.04486083984375
21190,0.0911102294921875,0.980133056640625,0.0393524169921875
21191,0.0948028564453125,0.97418212890625,0.0357666015625
21192,0.0952301025390625,0.9753875732421876,0.03271484375
21193,0.0949554443359375,0.9814910888671876,0.032440185546875
21194,0.0931396484375,0.9867095947265624,0.035400390625
21195,0.0914459228515625,0.9941253662109376,0.038238525390625
21196,0.08831787109375,0.9987335205078124,0.037353515625
21197,0.08831787109375,0.9987335205078124,0.037353515625
21198,0.0983734130859375,0.9979095458984376,0.0379638671875
21199,0.1079559326171875,0.994171142578125,0.0392303466796875
21200,0.1195831298828125,0.99066162109375,0.04022216796875
21201,0.129425048828125,0.985992431640625,0.0422210693359375
21202,0.1367950439453125,0.980010986328125,0.042877197265625
21203,0.140533447265625,0.975128173828125,0.040069580078125
21204,0.1443634033203125,0.9730987548828124,0.0376739501953125
21205,0.1483001708984375,0.972564697265625,0.0388641357421875
21206,0.151153564453125,0.972412109375,0.04058837890625
21207,0.1527862548828125,0.9705047607421876,0.0423431396484375
21208,0.157012939453125,0.971710205078125,0.0510711669921875
21209,0.157012939453125,0.971710205078125,0.0510711669921875
21210,0.159637451171875,0.97174072265625,0.0546417236328125
21211,0.16192626953125,0.970123291015625,0.0566558837890625
21212,0.16302490234375,0.9680633544921876,0.06109619140625
21213,0.1609649658203125,0.966552734375,0.062530517578125
21214,0.15765380859375,0.96868896484375,0.0605010986328125
21215,0.1525115966796875,0.97113037109375,0.0567474365234375
21216,0.148223876953125,0.97216796875,0.0511474609375
21217,0.1446990966796875,0.9744720458984376,0.0463714599609375
21218,0.1428375244140625,0.9779205322265624,0.0435333251953125
21219,0.1403045654296875,0.97906494140625,0.0431365966796875
21220,0.137939453125,0.98223876953125,0.04498291015625
21221,0.1356964111328125,0.9842376708984376,0.0463409423828125
21222,0.132568359375,0.9858245849609376,0.0458221435546875
21223,0.1319427490234375,0.9893951416015624,0.0449371337890625
21224,0.13128662109375,0.9886322021484376,0.04254150390625
21225,0.1301116943359375,0.9875640869140624,0.0418853759765625
21226,0.128814697265625,0.985687255859375,0.04388427734375
21227,0.1259002685546875,0.9858551025390624,0.0452880859375
21228,0.12017822265625,0.988800048828125,0.050140380859375
21229,0.1145477294921875,0.9944915771484376,0.05426025390625
21230,0.110443115234375,0.998687744140625,0.056640625
21231,0.1087188720703125,1.002670288085938,0.0562591552734375
21232,0.1110687255859375,1.005966186523438,0.0559844970703125
21233,0.115631103515625,1.007659912109375,0.0556488037109375
21234,0.1184234619140625,1.006820678710938,0.0551605224609375
21235,0.121734619140625,0.998931884765625,0.055877685546875
21236,0.1244659423828125,0.990386962890625,0.05523681640625
21237,0.128509521484375,0.984039306640625,0.0497589111328125
21238,0.1337432861328125,0.97930908203125,0.0442352294921875
21239,0.1392059326171875,0.975250244140625,0.039459228515625
21240,0.144378662109375,0.9730072021484376,0.0380401611328125
21241,0.150604248046875,0.9771728515625,0.0381011962890625
21242,0.156494140625,0.9843902587890624,0.038177490234375
21243,0.1635284423828125,0.9957122802734376,0.03729248046875
21244,0.1800079345703125,0.9972991943359376,0.0366058349609375
21245,0.1800079345703125,0.9972991943359376,0.0366058349609375
21246,0.1818389892578125,0.9890899658203124,0.036041259765625
21247,0.1780242919921875,0.982086181640625,0.0323944091796875
21248,0.1732025146484375,0.97467041015625,0.0282135009765625
21249,0.1677398681640625,0.9679718017578124,0.02301025390625
21250,0.1608123779296875,0.963653564453125,0.0210113525390625
21251,0.15289306640625,0.9639434814453124,0.01953125
21252,0.1473846435546875,0.9642791748046876,0.02020263671875
21253,0.14276123046875,0.9684600830078124,0.01983642578125
21254,0.1359100341796875,0.973419189453125,0.0207977294921875
21255,0.137969970703125,0.981475830078125,0.0243682861328125
21256,0.127044677734375,0.985443115234375,0.02923583984375
21257,0.120697021484375,0.991058349609375,0.0366668701171875
21258,0.110321044921875,0.99835205078125,0.0384368896484375
21259,0.101776123046875,0.998992919921875,0.03656005859375
21260,0.0965728759765625,0.998199462890625,0.0350799560546875
21261,0.089752197265625,0.9992828369140624,0.03729248046875
21262,0.0860748291015625,0.996551513671875,0.0398406982421875
21263,0.079376220703125,0.9933013916015624,0.04412841796875
21264,0.0735931396484375,0.9901885986328124,0.0465240478515625
21265,0.06842041015625,0.991607666015625,0.0469207763671875
21266,0.064971923828125,1.000640869140625,0.04766845703125
21267,0.0629119873046875,1.007659912109375,0.045196533203125
21268,0.063629150390625,1.011367797851562,0.0437164306640625
21269,0.0687255859375,1.008682250976562,0.0426788330078125
21270,0.0778656005859375,1.003616333007812,0.0438385009765625
21271,0.0873870849609375,0.9998779296875,0.0454864501953125
21272,0.097564697265625,0.996063232421875,0.0483551025390625
21273,0.1051483154296875,0.9901885986328124,0.0494537353515625
21274,0.1097412109375,0.984527587890625,0.0506591796875
21275,0.113311767578125,0.9816436767578124,0.052337646484375
21276,0.1142578125,0.982818603515625,0.0584564208984375
21277,0.1142578125,0.982818603515625,0.0584564208984375
21278,0.1080474853515625,0.984619140625,0.059478759765625
21279,0.1031036376953125,0.986358642578125,0.0596160888671875
21280,0.1003875732421875,0.991790771484375,0.056732177734375
21281,0.0993194580078125,0.997406005859375,0.05377197265625
21282,0.0977325439453125,1.002105712890625,0.05047607421875
21283,0.0959625244140625,1.0068359375,0.0479278564453125
21284,0.093994140625,1.011505126953125,0.050567626953125
21285,0.0891876220703125,1.016647338867188,0.049835205078125
21286,0.0838165283203125,1.01776123046875,0.0462493896484375
21287,0.0818634033203125,1.0162353515625,0.037628173828125
21288,0.0828399658203125,1.01385498046875,0.02587890625
21289,0.084625244140625,1.007827758789062,0.0150604248046875
21290,0.0840301513671875,1.002105712890625,0.012451171875
21291,0.079864501953125,0.9983062744140624,0.0126800537109375
21292,0.0716400146484375,0.9983978271484376,0.01031494140625
21293,0.061553955078125,0.9976959228515624,0.0083465576171875
21294,0.0542449951171875,0.9950408935546876,0.0054931640625
21295,0.04779052734375,0.9926605224609376,0.0043792724609375
21296,0.0428314208984375,0.99359130859375,0.0032196044921875
21297,0.04290771484375,0.9954833984375,0.003387451171875
21298,0.047149658203125,0.9991607666015624,0.00238037109375
21299,0.047149658203125,0.9991607666015624,0.00238037109375
21300,0.0687103271484375,0.9998016357421876,0.012969970703125
21301,0.0687103271484375,0.9998016357421876,0.012969970703125
21302,0.0754241943359375,1.000900268554688,0.0102081298828125
21303,0.079345703125,1.002792358398438,0.0128326416015625
21304,0.0847015380859375,1.003646850585938,0.0135345458984375
21305,0.0847015380859375,1.003646850585938,0.0135345458984375
21306,0.090545654296875,1.003097534179688,0.01239013671875
21307,0.0901031494140625,0.9982147216796876,0.0108489990234375
21308,0.0865478515625,0.994598388671875,0.0112762451171875
21309,0.0818939208984375,0.993133544921875,0.015838623046875
21310,0.0758056640625,0.99432373046875,0.01812744140625
21311,0.0705108642578125,0.993438720703125,0.01641845703125
21312,0.0706634521484375,0.9913177490234376,0.013458251953125
21313,0.070526123046875,0.9907989501953124,0.010040283203125
21314,0.0706024169921875,0.98992919921875,0.0108184814453125
21315,0.0701751708984375,0.9904937744140624,0.01312255859375
21316,0.071258544921875,0.991241455078125,0.0145111083984375
21317,0.07073974609375,0.9921722412109376,0.014434814453125
21318,0.07257080078125,0.99517822265625,0.0139007568359375
21319,0.0724334716796875,0.9947967529296876,0.0137786865234375
21320,0.0712890625,0.992584228515625,0.014892578125
21321,0.06964111328125,0.99224853515625,0.015716552734375
21322,0.067596435546875,0.9916534423828124,0.0149078369140625
21323,0.0662841796875,0.9925994873046876,0.01605224609375
21324,0.0650177001953125,0.994110107421875,0.014434814453125
21325,0.0659332275390625,0.99566650390625,0.0153961181640625
21326,0.06976318359375,0.9972686767578124,0.01678466796875
21327,0.06976318359375,0.9972686767578124,0.01678466796875
21328,0.0738983154296875,1.003158569335938,0.022491455078125
21329,0.07586669921875,1.004425048828125,0.024932861328125
21330,0.079132080078125,1.004653930664062,0.0266265869140625
21331,0.0807342529296875,1.003265380859375,0.027923583984375
21332,0.0813751220703125,1.000198364257812,0.028106689453125
21333,0.0813751220703125,1.000198364257812,0.028106689453125
21334,0.08221435546875,0.9907073974609376,0.027587890625
21335,0.0798187255859375,0.98406982421875,0.0249786376953125
21336,0.08319091796875,0.9795989990234376,0.0240020751953125
21337,0.085845947265625,0.9826202392578124,0.0250244140625
21338,0.0848846435546875,0.9853515625,0.024749755859375
21339,0.0860748291015625,0.98785400390625,0.02642822265625
21340,0.0882720947265625,0.9893646240234376,0.0292816162109375
21341,0.0882720947265625,0.9893646240234376,0.0292816162109375
21342,0.0898590087890625,0.9915313720703124,0.0391387939453125
21343,0.0866241455078125,0.994049072265625,0.040496826171875
21344,0.0870819091796875,0.989837646484375,0.036346435546875
21345,0.0870819091796875,0.989837646484375,0.036346435546875
21346,0.088714599609375,0.98760986328125,0.03436279296875
21347,0.0905303955078125,0.98529052734375,0.032073974609375
21348,0.091766357421875,0.9856414794921876,0.0346832275390625
21349,0.0901336669921875,0.9903106689453124,0.03662109375
21350,0.0880126953125,0.99267578125,0.035980224609375
21351,0.0873565673828125,0.995269775390625,0.034912109375
21352,0.0884552001953125,0.99713134765625,0.0330810546875
21353,0.0901947021484375,0.9975433349609376,0.033843994140625
21354,0.0911712646484375,0.9962005615234376,0.0329742431640625
21355,0.0911712646484375,0.9962005615234376,0.0329742431640625
21356,0.0900115966796875,0.9923553466796876,0.0350799560546875
21357,0.088043212890625,0.989501953125,0.036041259765625
21358,0.085662841796875,0.986785888671875,0.0381011962890625
21359,0.0831146240234375,0.9896392822265624,0.0369110107421875
21360,0.0829620361328125,0.9924468994140624,0.0334625244140625
21361,0.0820159912109375,0.9930877685546876,0.0311737060546875
21362,0.083251953125,0.9933624267578124,0.029541015625
21363,0.087127685546875,0.991455078125,0.0290679931640625
21364,0.091461181640625,0.9911041259765624,0.033477783203125
21365,0.0916748046875,0.9951171875,0.0420684814453125
21366,0.0870361328125,1.0013427734375,0.0453033447265625
21367,0.08026123046875,1.003067016601562,0.04638671875
21368,0.0774993896484375,1.000518798828125,0.0438385009765625
21369,0.076568603515625,0.998931884765625,0.0381317138671875
21370,0.074676513671875,0.997802734375,0.0284423828125
21371,0.074676513671875,0.997802734375,0.0284423828125
21372,0.08160400390625,0.99951171875,0.0178985595703125
21373,0.08160400390625,0.99951171875,0.0178985595703125
21374,0.0814971923828125,0.9993438720703124,0.0192108154296875
21375,0.0818328857421875,0.9964752197265624,0.0203857421875
21376,0.0809173583984375,0.9930267333984376,0.021697998046875
21377,0.0809173583984375,0.9930267333984376,0.021697998046875
21378,0.07769775390625,0.9963836669921876,0.024322509765625
21379,0.0726165771484375,0.9982452392578124,0.025848388671875
21380,0.0695037841796875,0.99407958984375,0.0260162353515625
21381,0.06854248046875,0.9857940673828124,0.0238800048828125
21382,0.0685272216796875,0.97796630859375,0.022918701171875
21383,0.07147216796875,0.9754791259765624,0.02288818359375
21384,0.0728607177734375,0.97760009765625,0.0225677490234375
21385,0.0743865966796875,0.982757568359375,0.021331787109375
21386,0.0777587890625,0.98736572265625,0.0209808349609375
21387,0.082672119140625,0.98907470703125,0.02130126953125
21388,0.087615966796875,0.9913482666015624,0.023162841796875
21389,0.0891265869140625,0.99554443359375,0.026885986328125
21390,0.089569091796875,0.9979095458984376,0.0323486328125
21391,0.088134765625,0.99884033203125,0.0361175537109375
21392,0.0867767333984375,0.997100830078125,0.0402069091796875
21393,0.08538818359375,0.994842529296875,0.0434722900390625
21394,0.080780029296875,0.99322509765625,0.043426513671875
21395,0.076812744140625,0.9926910400390624,0.0426788330078125
21396,0.0750579833984375,0.991485595703125,0.0399322509765625
21397,0.0720062255859375,0.992218017578125,0.0357208251953125
21398,0.07025146484375,0.993072509765625,0.030731201171875
21399,0.0682220458984375,0.9936065673828124,0.0268096923828125
21400,0.0682220458984375,0.9936065673828124,0.0268096923828125
21401,0.068084716796875,0.9920806884765624,0.0291748046875
21402,0.0672760009765625,0.98828125,0.0314178466796875
21403,0.066009521484375,0.98583984375,0.0318756103515625
21404,0.06475830078125,0.9850616455078124,0.0301513671875
21405,0.0657958984375,0.9857635498046876,0.0283966064453125
21406,0.066162109375,0.98681640625,0.027069091796875
21407,0.0677642822265625,0.9888763427734376,0.0268707275390625
21408,0.0679473876953125,0.989990234375,0.0286407470703125
21409,0.0698089599609375,0.9893798828125,0.03009033203125
21410,0.071807861328125,0.9920654296875,0.0325927734375
21411,0.071807861328125,0.9920654296875,0.0325927734375
21412,0.0679473876953125,0.995758056640625,0.0350341796875
21413,0.0662384033203125,0.998443603515625,0.0298614501953125
21414,0.06634521484375,0.996490478515625,0.021240234375
21415,0.0681915283203125,0.989990234375,0.01116943359375
21416,0.076385498046875,0.9818267822265624,0.0023956298828125
21417,0.0823822021484375,0.976409912109375,-0.002166748046875
21418,0.085662841796875,0.9737396240234376,-0.004791259765625
21419,0.0858612060546875,0.9759063720703124,-0.0014190673828125
21420,0.08526611328125,0.9776763916015624,0.00164794921875
21421,0.08135986328125,0.9784393310546876,0.003143310546875
21422,0.0751953125,0.9838409423828124,0.0032958984375
21423,0.064361572265625,0.9917144775390624,-7.62939453125e-05
21424,0.05316162109375,0.9978790283203124,-0.00347900390625
21425,0.0471038818359375,1.003692626953125,-0.0077972412109375
21426,0.0446624755859375,1.005645751953125,-0.0118865966796875
21427,0.035247802734375,1.000259399414062,-0.030670166015625
21428,0.035247802734375,1.000259399414062,-0.030670166015625
21429,0.037841796875,1.00482177734375,-0.037353515625
21430,0.03631591796875,1.011810302734375,-0.047515869140625
21431,0.0269317626953125,1.016876220703125,-0.05828857421875
21432,0.0107421875,1.023391723632812,-0.0632476806640625
21433,-0.011383056640625,1.0341796875,-0.0627288818359375
21434,-0.0334320068359375,1.044784545898438,-0.062591552734375
21435,-0.0334320068359375,1.044784545898438,-0.062591552734375
21436,-0.05340576171875,1.044662475585938,-0.0803375244140625
21437,-0.0431365966796875,1.03656005859375,-0.089874267578125
21438,-0.027557373046875,1.027099609375,-0.092437744140625
21439,-0.006744384765625,1.011962890625,-0.090576171875
21440,0.033538818359375,0.9810028076171876,-0.0600433349609375
21441,0.033538818359375,0.9810028076171876,-0.0600433349609375
21442,0.0491485595703125,0.977935791015625,-0.0438079833984375
21443,0.0632781982421875,0.9804840087890624,-0.0290985107421875
21444,0.0761566162109375,0.989837646484375,-0.0150909423828125
21445,0.0849151611328125,1.00341796875,-0.00860595703125
21446,0.0864410400390625,1.0150146484375,-0.011322021484375
21447,0.0839080810546875,1.025070190429688,-0.012420654296875
21448,0.076507568359375,1.030670166015625,-0.012359619140625
21449,0.0650482177734375,1.031723022460938,-0.008941650390625
21450,0.0525970458984375,1.03302001953125,-0.00250244140625
21451,0.039215087890625,1.032684326171875,0.004486083984375
21452,0.0267791748046875,1.025665283203125,0.0114593505859375
21453,0.016815185546875,1.00640869140625,0.016815185546875
21454,0.0076446533203125,0.98223876953125,0.0167999267578125
21455,-0.00970458984375,0.9337615966796876,-0.0068359375
21456,-0.00970458984375,0.9337615966796876,-0.0068359375
21457,0.00201416015625,0.923919677734375,-0.0115509033203125
21458,0.013275146484375,0.9310455322265624,-0.011749267578125
21459,0.02459716796875,0.9474945068359376,-0.0052947998046875
21460,0.034759521484375,0.9672088623046876,0.0053558349609375
21461,0.0421295166015625,0.9858856201171876,0.0141754150390625
21462,0.0469512939453125,0.998199462890625,0.017059326171875
21463,0.0510101318359375,0.9992828369140624,0.0148162841796875
21464,0.0554351806640625,0.9975433349609376,0.0126800537109375
21465,0.06170654296875,0.99383544921875,0.011688232421875
21466,0.06561279296875,0.991363525390625,0.0119171142578125
21467,0.069305419921875,0.9920501708984376,0.01470947265625
21468,0.0709075927734375,0.997039794921875,0.0155181884765625
21469,0.07110595703125,1.000579833984375,0.0157928466796875
21470,0.0706787109375,0.9987640380859376,0.0165863037109375
21471,0.07177734375,0.9851531982421876,0.010589599609375
21472,0.07177734375,0.9851531982421876,0.010589599609375
21473,0.07666015625,0.974945068359375,0.007965087890625
21474,0.080413818359375,0.965789794921875,0.005157470703125
21475,0.0825958251953125,0.961456298828125,0.003814697265625
21476,0.0894317626953125,0.959991455078125,0.0050811767578125
21477,0.0894317626953125,0.959991455078125,0.0050811767578125
21478,0.106201171875,0.974395751953125,0.014068603515625
21479,0.113372802734375,0.9847869873046876,0.01800537109375
21480,0.1195526123046875,0.992950439453125,0.0243072509765625
21481,0.1269378662109375,0.995635986328125,0.03350830078125
21482,0.13262939453125,0.9957122802734376,0.043701171875
21483,0.1371612548828125,0.993499755859375,0.054046630859375
21484,0.1408843994140625,0.990325927734375,0.06268310546875
21485,0.144744873046875,0.986602783203125,0.0676116943359375
21486,0.1498260498046875,0.9817657470703124,0.0677642822265625
21487,0.1498260498046875,0.9817657470703124,0.0677642822265625
21488,0.1554412841796875,0.9793701171875,0.0547027587890625
21489,0.162933349609375,0.977630615234375,0.044921875
21490,0.1679840087890625,0.97967529296875,0.0338287353515625
21491,0.172607421875,0.988616943359375,0.0276031494140625
21492,0.17730712890625,0.9974212646484376,0.023162841796875
21493,0.1795806884765625,1.002670288085938,0.0220794677734375
21494,0.1792144775390625,1.005462646484375,0.023590087890625
21495,0.1792144775390625,1.005462646484375,0.023590087890625
21496,0.1700897216796875,1.003860473632812,0.0379180908203125
21497,0.1632537841796875,0.998046875,0.0485076904296875
21498,0.15545654296875,0.9943695068359376,0.05914306640625
21499,0.148590087890625,0.991729736328125,0.068817138671875
21500,0.1446075439453125,0.989349365234375,0.073883056640625
21501,0.1453399658203125,0.9871368408203124,0.0763397216796875
21502,0.146942138671875,0.986724853515625,0.076202392578125
21503,0.14886474609375,0.9924163818359376,0.0735931396484375
21504,0.15179443359375,0.991119384765625,0.0698089599609375
21505,0.1559906005859375,0.9927520751953124,0.064208984375
21506,0.1612091064453125,0.9947662353515624,0.057891845703125
21507,0.1692047119140625,0.9915924072265624,0.05096435546875
21508,0.177642822265625,0.9865264892578124,0.044464111328125
21509,0.181732177734375,0.98529052734375,0.0360565185546875
21510,0.185821533203125,0.9768218994140624,0.0300445556640625
21511,0.1943206787109375,0.96295166015625,0.024261474609375
21512,0.2038726806640625,0.9548187255859376,0.0179443359375
21513,0.214141845703125,0.9434661865234376,0.0107879638671875
21514,0.228851318359375,0.9351959228515624,0.005828857421875
21515,0.24407958984375,0.9335784912109376,0.0027313232421875
21516,0.26251220703125,0.9356231689453124,-0.0016632080078125
21517,0.2774810791015625,0.944061279296875,-0.006317138671875
21518,0.2851409912109375,0.9595184326171876,-0.0052947998046875
21519,0.2872772216796875,0.97894287109375,-0.0034942626953125
21520,0.29327392578125,0.9900054931640624,-0.0054473876953125
21521,0.300323486328125,0.9936370849609376,-0.007720947265625
21522,0.308502197265625,0.99169921875,-0.01611328125
21523,0.308502197265625,0.99169921875,-0.01611328125
21524,0.3285369873046875,0.948028564453125,-0.03997802734375
21525,0.3285369873046875,0.948028564453125,-0.03997802734375
21526,0.33367919921875,0.939666748046875,-0.04864501953125
21527,0.33367919921875,0.939666748046875,-0.04864501953125
21528,0.34271240234375,0.9454345703125,-0.069244384765625
21529,0.3487091064453125,0.9574737548828124,-0.0735015869140625
21530,0.349609375,0.9785919189453124,-0.070709228515625
21531,0.349609375,0.9785919189453124,-0.070709228515625
21532,0.3388214111328125,1.016128540039062,-0.051544189453125
21533,0.3280029296875,1.009841918945312,-0.0359954833984375
21534,0.3158416748046875,0.9904937744140624,-0.0210723876953125
21535,0.3067626953125,0.9442291259765624,-0.010772705078125
21536,0.3067626953125,0.9442291259765624,-0.010772705078125
21537,0.305877685546875,0.92828369140625,-0.011932373046875
21538,0.3066864013671875,0.9213104248046876,-0.015167236328125
21539,0.3066864013671875,0.9213104248046876,-0.015167236328125
21540,0.2916259765625,0.93212890625,-0.0244598388671875
21541,0.2732391357421875,0.9363861083984376,-0.0271148681640625
21542,0.2810516357421875,0.9456787109375,-0.0193328857421875
21543,0.2620086669921875,0.97735595703125,-0.0218658447265625
21544,0.231109619140625,1.00042724609375,-0.02630615234375
21545,0.2098846435546875,1.017684936523438,-0.029144287109375
21546,0.1956024169921875,1.02899169921875,-0.036956787109375
21547,0.1956024169921875,1.02899169921875,-0.036956787109375
21548,0.18658447265625,1.030929565429688,-0.045440673828125
21549,0.1882476806640625,1.002029418945312,-0.0431976318359375
21550,0.195465087890625,0.976409912109375,-0.0317840576171875
21551,0.195465087890625,0.976409912109375,-0.0317840576171875
21552,0.211090087890625,0.933746337890625,0.0018310546875
21553,0.2232818603515625,0.925689697265625,0.0075836181640625
21554,0.23968505859375,0.92901611328125,0.0060272216796875
21555,0.2595367431640625,0.94134521484375,-0.003509521484375
21556,0.2797698974609375,0.9583587646484376,-0.014892578125
21557,0.297943115234375,0.979095458984375,-0.02301025390625
21558,0.3077239990234375,0.993560791015625,-0.02630615234375
21559,0.3058929443359375,1.00006103515625,-0.023773193359375
21560,0.2940521240234375,0.996978759765625,-0.0127105712890625
21561,0.2724609375,0.989990234375,-0.0001373291015625
21562,0.24627685546875,0.979217529296875,0.009490966796875
21563,0.2030181884765625,0.9654388427734376,0.0147552490234375
21564,0.2030181884765625,0.9654388427734376,0.0147552490234375
21565,0.1929168701171875,0.96240234375,0.014923095703125
21566,0.192138671875,0.9638214111328124,0.0185699462890625
21567,0.195953369140625,0.969818115234375,0.0198211669921875
21568,0.2016448974609375,0.9778594970703124,0.018707275390625
21569,0.205810546875,0.9900970458984376,0.016632080078125
21570,0.2190399169921875,0.9833526611328124,0.0080413818359375
21571,0.182708740234375,1.011520385742188,0.004302978515625
21572,0.156707763671875,1.008285522460938,0.008087158203125
21573,0.1574554443359375,0.98712158203125,0.02337646484375
21574,0.1414642333984375,0.969879150390625,0.0310821533203125
21575,0.1258392333984375,0.960784912109375,0.037384033203125
21576,0.115386962890625,0.940032958984375,0.0383453369140625
21577,0.115386962890625,0.940032958984375,0.0383453369140625
21578,0.1157073974609375,0.9394989013671876,0.036102294921875
21579,0.1190338134765625,0.9425201416015624,0.03375244140625
21580,0.124786376953125,0.9481201171875,0.032867431640625
21581,0.1290130615234375,0.958587646484375,0.03326416015625
21582,0.1316070556640625,0.96954345703125,0.037567138671875
21583,0.1317138671875,0.9803009033203124,0.0442962646484375
21584,0.133087158203125,0.983612060546875,0.0503692626953125
21585,0.1354827880859375,0.984405517578125,0.0587921142578125
21586,0.132568359375,0.9952850341796876,0.0637054443359375
21587,0.1394195556640625,1.004776000976562,0.0588531494140625
21588,0.1394195556640625,1.004776000976562,0.0588531494140625
21589,0.140533447265625,1.00738525390625,0.0537109375
21590,0.1390533447265625,1.006622314453125,0.048797607421875
21591,0.1390533447265625,1.006622314453125,0.048797607421875
21592,0.1253204345703125,0.993438720703125,0.03985595703125
21593,0.118011474609375,0.9875946044921876,0.038909912109375
21594,0.1093597412109375,0.9842071533203124,0.0382232666015625
21595,0.0982208251953125,0.97918701171875,0.0399017333984375
21596,0.0982208251953125,0.97918701171875,0.0399017333984375
21597,0.0962677001953125,0.9803924560546876,0.0379180908203125
21598,0.099029541015625,0.9804229736328124,0.038970947265625
21599,0.10296630859375,0.98101806640625,0.036529541015625
21600,0.100555419921875,0.9868927001953124,0.0342254638671875
21601,0.0967559814453125,0.9903411865234376,0.0317230224609375
21602,0.091522216796875,0.987640380859375,0.0274658203125
21603,0.0853271484375,0.987213134765625,0.0279541015625
21604,0.0785064697265625,0.9874725341796876,0.0265045166015625
21605,0.06976318359375,0.9920654296875,0.0233154296875
21606,0.067840576171875,0.9946746826171876,0.020660400390625
21607,0.066009521484375,0.99664306640625,0.0162811279296875
21608,0.0631561279296875,0.9947357177734376,0.0128936767578125
21609,0.061676025390625,0.9939422607421876,0.01123046875
21610,0.061859130859375,0.99493408203125,0.01129150390625
21611,0.0615692138671875,0.9984588623046876,0.006011962890625
21612,0.0615692138671875,0.9984588623046876,0.006011962890625
21613,0.0692291259765625,0.9993743896484376,4.57763671875e-05
21614,0.077301025390625,1.000442504882812,-0.00390625
21615,0.0863800048828125,0.9996795654296876,-0.008392333984375
21616,0.0937652587890625,0.995819091796875,-0.0093231201171875
21617,0.09771728515625,0.991363525390625,-0.0059661865234375
21618,0.09735107421875,0.9886322021484376,-0.0011138916015625
21619,0.09527587890625,0.9886016845703124,0.001007080078125
21620,0.09173583984375,0.9898529052734376,0.003875732421875
21621,0.0870513916015625,0.992340087890625,0.0018463134765625
21622,0.084930419921875,0.99334716796875,0.0010223388671875
21623,0.0851287841796875,1.000762939453125,-0.00286865234375
21624,0.0851287841796875,1.000762939453125,-0.00286865234375
21625,0.0883331298828125,0.998260498046875,-0.006561279296875
21626,0.0913848876953125,0.998382568359375,-0.0080108642578125
21627,0.09564208984375,1.006210327148438,-0.006072998046875
21628,0.09564208984375,1.006210327148438,-0.006072998046875
21629,0.0928955078125,1.00518798828125,-0.0063323974609375
21630,0.0900726318359375,1.002120971679688,-0.007659912109375
21631,0.0842132568359375,0.9947967529296876,-0.0096893310546875
21632,0.0842132568359375,0.9947967529296876,-0.0096893310546875
21633,0.0815277099609375,0.9951019287109376,-0.0124053955078125
21634,0.078643798828125,0.9961395263671876,-0.0125732421875
21635,0.075469970703125,0.996826171875,-0.0130157470703125
21636,0.07373046875,0.9976959228515624,-0.0100250244140625
21637,0.0738372802734375,0.9991455078125,-0.0058746337890625
21638,0.0726776123046875,1.00323486328125,-0.0015716552734375
21639,0.0715179443359375,1.014190673828125,0.0048065185546875
21640,0.0715179443359375,1.014190673828125,0.0048065185546875
21641,0.072418212890625,1.017242431640625,0.0061492919921875
21642,0.072235107421875,1.018356323242188,0.00872802734375
21643,0.0712432861328125,1.017593383789062,0.0087127685546875
21644,0.068023681640625,1.013336181640625,0.0054931640625
21645,0.0669097900390625,1.006439208984375,0.0020599365234375
21646,0.0699920654296875,0.9986114501953124,-0.0016632080078125
21647,0.0741424560546875,0.9905548095703124,-0.002960205078125
21648,0.0797576904296875,0.9824371337890624,-0.0025787353515625
21649,0.0843963623046875,0.9776763916015624,-0.0006561279296875
21650,0.087493896484375,0.978668212890625,0.003448486328125
21651,0.090118408203125,0.9832000732421876,0.0111541748046875
21652,0.090118408203125,0.9832000732421876,0.0111541748046875
21653,0.09442138671875,0.999603271484375,0.0243072509765625
21654,0.0975341796875,1.006011962890625,0.0279998779296875
21655,0.10235595703125,1.007431030273438,0.0296783447265625
21656,0.108245849609375,1.005386352539062,0.029052734375
21657,0.1134185791015625,0.999481201171875,0.024932861328125
21658,0.1159515380859375,0.994415283203125,0.0216522216796875
21659,0.1159515380859375,0.994415283203125,0.0216522216796875
21660,0.115814208984375,0.983489990234375,0.0218963623046875
21661,0.112579345703125,0.981353759765625,0.026153564453125
21662,0.1095428466796875,0.9813995361328124,0.03192138671875
21663,0.1068267822265625,0.9853515625,0.0391845703125
21664,0.1021881103515625,0.9879913330078124,0.0446319580078125
21665,0.100189208984375,0.99151611328125,0.047515869140625
21666,0.1003265380859375,0.993408203125,0.04644775390625
21667,0.1026763916015625,0.9911041259765624,0.0430755615234375
21668,0.1082763671875,0.98681640625,0.0374603271484375
21669,0.1150665283203125,0.9824066162109376,0.0338134765625
21670,0.120086669921875,0.98046875,0.030914306640625
21671,0.121795654296875,0.9805755615234376,0.032379150390625
21672,0.12005615234375,0.982757568359375,0.0356292724609375
21673,0.11456298828125,0.9842071533203124,0.04229736328125
21674,0.1068878173828125,0.9837188720703124,0.0484619140625
21675,0.0987091064453125,0.983123779296875,0.0559539794921875
21676,0.091461181640625,0.9873199462890624,0.0625457763671875
21677,0.0818328857421875,0.990325927734375,0.0663909912109375
21678,0.076416015625,0.991302490234375,0.06683349609375
21679,0.0732269287109375,0.99169921875,0.061859130859375
21680,0.0751495361328125,0.9916839599609376,0.055328369140625
21681,0.0808563232421875,0.9949951171875,0.050628662109375
21682,0.0873565673828125,0.9998779296875,0.0487060546875
21683,0.093963623046875,1.004730224609375,0.0480499267578125
21684,0.0975341796875,1.00555419921875,0.0493011474609375
21685,0.0989532470703125,1.00579833984375,0.055999755859375
21686,0.0976715087890625,1.003875732421875,0.06268310546875
21687,0.0943603515625,1.000244140625,0.063232421875
21688,0.0955657958984375,0.9937591552734376,0.06134033203125
21689,0.097808837890625,0.9889678955078124,0.0603485107421875
21690,0.098846435546875,0.9842529296875,0.0565185546875
21691,0.09765625,0.97998046875,0.0530853271484375
21692,0.0943145751953125,0.9782562255859376,0.0503692626953125
21693,0.0939483642578125,0.9769439697265624,0.0504150390625
21694,0.0930938720703125,0.9771270751953124,0.0507354736328125
21695,0.0930938720703125,0.9771270751953124,0.0507354736328125
21696,0.098388671875,0.9799346923828124,0.0487518310546875
21697,0.103118896484375,0.983062744140625,0.0479736328125
21698,0.104522705078125,0.9872283935546876,0.0526123046875
21699,0.10394287109375,0.9921417236328124,0.05682373046875
21700,0.099822998046875,0.9968414306640624,0.0625152587890625
21701,0.0919189453125,0.9985809326171876,0.0670318603515625
21702,0.08544921875,0.999664306640625,0.0693511962890625
21703,0.079986572265625,1.001541137695312,0.0676116943359375
21704,0.0775604248046875,1.0001220703125,0.064727783203125
21705,0.0739593505859375,0.9983978271484376,0.061737060546875
21706,0.0738525390625,0.997711181640625,0.0594024658203125
21707,0.07183837890625,0.994049072265625,0.0565338134765625
21708,0.06951904296875,0.9894256591796876,0.0558319091796875
21709,0.0668182373046875,0.98748779296875,0.0561676025390625
21710,0.0646514892578125,0.988739013671875,0.0556640625
21711,0.064300537109375,0.9918670654296876,0.0545196533203125
21712,0.0656585693359375,0.9938812255859376,0.05450439453125
21713,0.0696868896484375,0.9952239990234376,0.05517578125
21714,0.075927734375,0.9940338134765624,0.0567474365234375
21715,0.081207275390625,0.9936676025390624,0.06085205078125
21716,0.0844268798828125,0.9912567138671876,0.061920166015625
21717,0.0868988037109375,0.99200439453125,0.0616455078125
21718,0.09039306640625,0.990936279296875,0.059906005859375
21719,0.0901947021484375,0.990966796875,0.0565338134765625
21720,0.0893402099609375,0.9898834228515624,0.052703857421875
21721,0.0890350341796875,0.98492431640625,0.049530029296875
21722,0.0892486572265625,0.979949951171875,0.048828125
21723,0.0892486572265625,0.979949951171875,0.048828125
21724,0.091461181640625,0.97845458984375,0.04803466796875
21725,0.0971832275390625,0.9875335693359376,0.047943115234375
21726,0.1011810302734375,0.991546630859375,0.04754638671875
21727,0.10235595703125,0.9919891357421876,0.0477752685546875
21728,0.1034088134765625,0.98724365234375,0.0484466552734375
21729,0.1008758544921875,0.98370361328125,0.050079345703125
21730,0.0963897705078125,0.9836883544921876,0.04986572265625
21731,0.09344482421875,0.984375,0.052001953125
21732,0.090576171875,0.987701416015625,0.0522308349609375
21733,0.0883941650390625,0.988433837890625,0.05078125
21734,0.0902862548828125,0.9885711669921876,0.051177978515625
21735,0.092987060546875,0.98919677734375,0.0499725341796875
21736,0.0964202880859375,0.9920196533203124,0.0488128662109375
21737,0.0999908447265625,0.99432373046875,0.0482635498046875
21738,0.103240966796875,0.994384765625,0.0485382080078125
21739,0.1049041748046875,0.9935760498046876,0.050140380859375
21740,0.104827880859375,0.99285888671875,0.050140380859375
21741,0.1029205322265625,0.9907989501953124,0.0489349365234375
21742,0.1016693115234375,0.989990234375,0.04638671875
21743,0.0965423583984375,0.9875030517578124,0.0475311279296875
21744,0.09295654296875,0.988494873046875,0.0471649169921875
21745,0.09149169921875,0.9913787841796876,0.04595947265625
21746,0.09112548828125,0.9922637939453124,0.0435333251953125
21747,0.088287353515625,0.9896087646484376,0.040557861328125
21748,0.088287353515625,0.9896087646484376,0.040557861328125
21749,0.086883544921875,0.986846923828125,0.040313720703125
21750,0.0853729248046875,0.9860992431640624,0.0402069091796875
21751,0.0783843994140625,0.99066162109375,0.0412139892578125
21752,0.0783843994140625,0.99066162109375,0.0412139892578125
21753,0.0769805908203125,0.992401123046875,0.0400543212890625
21754,0.0767059326171875,0.9940185546875,0.039337158203125
21755,0.0767059326171875,0.9940185546875,0.039337158203125
21756,0.0843353271484375,0.99957275390625,0.0377044677734375
21757,0.0894927978515625,1.0020751953125,0.0364837646484375
21758,0.095977783203125,1.003143310546875,0.0365142822265625
21759,0.1036834716796875,1.000686645507812,0.036285400390625
21760,0.1036834716796875,1.000686645507812,0.036285400390625
21761,0.105560302734375,0.9967041015625,0.0358734130859375
21762,0.1071624755859375,0.9921722412109376,0.037506103515625
21763,0.1071624755859375,0.9921722412109376,0.037506103515625
21764,0.1070404052734375,0.98876953125,0.0366668701171875
21765,0.1066436767578125,0.9815216064453124,0.0335693359375
21766,0.1075286865234375,0.981231689453125,0.034759521484375
21767,0.108154296875,0.9827423095703124,0.0368194580078125
21768,0.11126708984375,0.9846038818359376,0.03704833984375
21769,0.114410400390625,0.99053955078125,0.03741455078125
21770,0.116851806640625,0.9957122802734376,0.03900146484375
21771,0.1194305419921875,1.00091552734375,0.0374298095703125
21772,0.122222900390625,1.00360107421875,0.03668212890625
21773,0.1243743896484375,1.00494384765625,0.03729248046875
21774,0.122467041015625,1.003189086914062,0.036346435546875
21775,0.122467041015625,1.003189086914062,0.036346435546875
21776,0.118560791015625,0.993499755859375,0.0338592529296875
21777,0.1154632568359375,0.9887847900390624,0.0316009521484375
21778,0.1137542724609375,0.98577880859375,0.0309295654296875
21779,0.111053466796875,0.98681640625,0.0301513671875
21780,0.108123779296875,0.9876251220703124,0.0319671630859375
21781,0.104949951171875,0.991058349609375,0.0330810546875
21782,0.103271484375,0.99420166015625,0.0326385498046875
21783,0.103271484375,0.99420166015625,0.0326385498046875
21784,0.1027374267578125,0.9949951171875,0.0349273681640625
21785,0.1071014404296875,0.99334716796875,0.03741455078125
21786,0.1091461181640625,0.990997314453125,0.0399017333984375
21787,0.1120758056640625,0.9890899658203124,0.042938232421875
21788,0.1138763427734375,0.9882659912109376,0.0453643798828125
21789,0.115264892578125,0.98748779296875,0.0457305908203125
21790,0.1182098388671875,0.988006591796875,0.0446014404296875
21791,0.1239776611328125,0.995513916015625,0.0428009033203125
21792,0.1239776611328125,0.995513916015625,0.0428009033203125
21793,0.1240997314453125,0.9965667724609376,0.041534423828125
21794,0.1240997314453125,0.997161865234375,0.04132080078125
21795,0.1270599365234375,0.9969329833984376,0.0389862060546875
21796,0.1299591064453125,0.9949188232421876,0.0363616943359375
21797,0.1333465576171875,0.98974609375,0.0325164794921875
21798,0.1382293701171875,0.98468017578125,0.033599853515625
21799,0.1382293701171875,0.98468017578125,0.033599853515625
21800,0.1380767822265625,0.9804229736328124,0.0356292724609375
21801,0.13189697265625,0.977752685546875,0.039764404296875
21802,0.132080078125,0.976409912109375,0.0395050048828125
21803,0.132080078125,0.976409912109375,0.0395050048828125
21804,0.131378173828125,0.9745941162109376,0.0368499755859375
21805,0.1328125,0.97857666015625,0.0373382568359375
21806,0.13397216796875,0.986236572265625,0.0379791259765625
21807,0.13397216796875,0.986236572265625,0.0379791259765625
21808,0.1338653564453125,0.997039794921875,0.04034423828125
21809,0.1278228759765625,1.006271362304688,0.0511322021484375
21810,0.123992919921875,1.004608154296875,0.0523834228515625
21811,0.123992919921875,1.004608154296875,0.0523834228515625
21812,0.1163482666015625,0.9917144775390624,0.0502471923828125
21813,0.1114044189453125,0.986846923828125,0.0497894287109375
21814,0.1041717529296875,0.9841156005859376,0.046173095703125
21815,0.1041717529296875,0.9841156005859376,0.046173095703125
21816,0.0980072021484375,0.98284912109375,0.0446014404296875
21817,0.0881805419921875,0.9826812744140624,0.0452423095703125
21818,0.0868988037109375,0.98291015625,0.04437255859375
21819,0.0868988037109375,0.98291015625,0.04437255859375
21820,0.090362548828125,0.986968994140625,0.0430450439453125
21821,0.0900421142578125,0.9903106689453124,0.0408935546875
21822,0.094879150390625,0.990478515625,0.04168701171875
21823,0.09649658203125,0.9915771484375,0.0442047119140625
21824,0.09783935546875,0.9912872314453124,0.0450592041015625
21825,0.099639892578125,0.9910430908203124,0.0482025146484375
21826,0.1000213623046875,0.990692138671875,0.0497894287109375
21827,0.09771728515625,0.990264892578125,0.0540924072265625
21828,0.0965118408203125,0.9917755126953124,0.05474853515625
21829,0.0933837890625,0.992279052734375,0.0517425537109375
21830,0.0905914306640625,0.9941864013671876,0.0480194091796875
21831,0.0889434814453125,0.995452880859375,0.04632568359375
21832,0.0860748291015625,0.996002197265625,0.044342041015625
21833,0.08441162109375,0.9973907470703124,0.0416107177734375
21834,0.0828857421875,0.9978790283203124,0.0411834716796875
21835,0.08251953125,0.99603271484375,0.0408477783203125
21836,0.0820159912109375,0.99444580078125,0.04193115234375
21837,0.083038330078125,0.9905548095703124,0.04217529296875
21838,0.08306884765625,0.9873046875,0.04107666015625
21839,0.08306884765625,0.9873046875,0.04107666015625
21840,0.08575439453125,0.983489990234375,0.042205810546875
21841,0.088134765625,0.983673095703125,0.043060302734375
21842,0.0888671875,0.9847259521484376,0.0450897216796875
21843,0.0888671875,0.9847259521484376,0.0450897216796875
21844,0.090087890625,0.9883270263671876,0.04833984375
21845,0.0898895263671875,0.992279052734375,0.0480499267578125
21846,0.0900421142578125,0.996368408203125,0.048126220703125
21847,0.089813232421875,0.9990081787109376,0.0482330322265625
21848,0.0908966064453125,1.000045776367188,0.0496368408203125
21849,0.0932464599609375,0.9986419677734376,0.0500335693359375
21850,0.0970611572265625,0.9951934814453124,0.05023193359375
21851,0.0970611572265625,0.9951934814453124,0.05023193359375
21852,0.1055755615234375,0.9853363037109376,0.0518646240234375
21853,0.109954833984375,0.98260498046875,0.05267333984375
21854,0.113677978515625,0.98114013671875,0.0551910400390625
21855,0.1136627197265625,0.984283447265625,0.05682373046875
21856,0.1136627197265625,0.984283447265625,0.05682373046875
21857,0.1109771728515625,0.99334716796875,0.0577850341796875
21858,0.1096038818359375,0.9971923828125,0.05706787109375
21859,0.10821533203125,1.00018310546875,0.05706787109375
21860,0.10821533203125,1.00018310546875,0.05706787109375
21861,0.1025238037109375,0.9953460693359376,0.0547637939453125
21862,0.102203369140625,0.9918365478515624,0.0551300048828125
21863,0.1055145263671875,0.9806365966796876,0.041351318359375
21864,0.1055145263671875,0.9806365966796876,0.041351318359375
21865,0.11273193359375,0.9674072265625,0.0290374755859375
21866,0.11810302734375,0.9547271728515624,0.011932373046875
21867,0.11810302734375,0.9547271728515624,0.011932373046875
21868,0.1274871826171875,0.94732666015625,-0.010986328125
21869,0.126068115234375,0.955078125,-0.0198211669921875
21870,0.121612548828125,0.963775634765625,-0.02001953125
21871,0.121612548828125,0.963775634765625,-0.02001953125
21872,0.1056976318359375,0.9898223876953124,-0.0024261474609375
21873,0.0911407470703125,0.9986114501953124,0.002288818359375
21874,0.0859527587890625,1.007705688476562,0.011260986328125
21875,0.0785675048828125,1.0130615234375,0.0131072998046875
21876,0.0785675048828125,1.0130615234375,0.0131072998046875
21877,0.067352294921875,1.0216064453125,0.00994873046875
21878,0.05914306640625,1.025955200195312,0.0030975341796875
21879,0.0495452880859375,1.025299072265625,-0.0069580078125
21880,0.0495452880859375,1.025299072265625,-0.0069580078125
21881,0.028839111328125,1.010284423828125,-0.029693603515625
21882,0.019073486328125,1.003753662109375,-0.0383758544921875
21883,0.0107421875,0.9981231689453124,-0.058807373046875
21884,0.0107421875,0.9981231689453124,-0.058807373046875
21885,0.015472412109375,1.000274658203125,-0.064544677734375
21886,0.0237579345703125,1.005935668945312,-0.0724029541015625
21887,0.0237579345703125,1.005935668945312,-0.0724029541015625
21888,0.0338592529296875,1.011138916015625,-0.074310302734375
21889,0.052215576171875,1.016143798828125,-0.063385009765625
21890,0.056915283203125,1.013397216796875,-0.055816650390625
21891,0.056915283203125,1.013397216796875,-0.055816650390625
21892,0.0596466064453125,1.009033203125,-0.054351806640625
21893,0.0748748779296875,0.993499755859375,-0.0560760498046875
21894,0.082855224609375,0.98797607421875,-0.0519256591796875
21895,0.0866546630859375,0.985382080078125,-0.0453643798828125
21896,0.0848541259765625,0.9845428466796876,-0.041229248046875
21897,0.08074951171875,0.9869537353515624,-0.0392913818359375
21898,0.076141357421875,0.9917449951171876,-0.0413970947265625
21899,0.06427001953125,1.003250122070312,-0.048736572265625
21900,0.06427001953125,1.003250122070312,-0.048736572265625
21901,0.0599822998046875,1.007049560546875,-0.049468994140625
21902,0.054168701171875,1.009613037109375,-0.0485076904296875
21903,0.0455474853515625,1.006988525390625,-0.0499267578125
21904,0.0455474853515625,1.006988525390625,-0.0499267578125
21905,0.0419769287109375,1.004745483398438,-0.051666259765625
21906,0.0420074462890625,1.004241943359375,-0.051971435546875
21907,0.03961181640625,1.002670288085938,-0.0517730712890625
21908,0.038421630859375,1.000885009765625,-0.053558349609375
21909,0.0381622314453125,1.001510620117188,-0.0566253662109375
21910,0.0404052734375,1.00201416015625,-0.0564117431640625
21911,0.0406036376953125,1.0050048828125,-0.0602264404296875
21912,0.0406036376953125,1.0050048828125,-0.0602264404296875
21913,0.0407867431640625,1.003036499023438,-0.0628204345703125
21914,0.0403289794921875,1.000900268554688,-0.06317138671875
21915,0.0371246337890625,0.9962005615234376,-0.0644378662109375
21916,0.0371246337890625,0.9962005615234376,-0.0644378662109375
21917,0.0353546142578125,0.99456787109375,-0.065582275390625
21918,0.0306854248046875,0.9960784912109376,-0.060638427734375
21919,0.0237274169921875,0.9954681396484376,-0.0562896728515625
21920,0.0237274169921875,0.9954681396484376,-0.0562896728515625
21921,0.0106658935546875,0.993499755859375,-0.0626983642578125
21922,0.0045166015625,0.99774169921875,-0.0687713623046875
21923,0.0026702880859375,1.005218505859375,-0.0804290771484375
21924,0.0026702880859375,1.005218505859375,-0.0804290771484375
21925,0.000823974609375,1.00347900390625,-0.0850830078125
21926,-0.001068115234375,1.000167846679688,-0.0860748291015625
21927,-0.001068115234375,1.000167846679688,-0.0860748291015625
21928,-0.004486083984375,0.9954681396484376,-0.0863494873046875
21929,-0.0123138427734375,0.994293212890625,-0.0872039794921875
21930,-0.01763916015625,0.99072265625,-0.0925445556640625
21931,-0.02105712890625,0.9877471923828124,-0.0971221923828125
21932,-0.02105712890625,0.9877471923828124,-0.0971221923828125
21933,-0.0213775634765625,0.985015869140625,-0.1108856201171875
21934,-0.02044677734375,0.985015869140625,-0.1171112060546875
21935,-0.0189971923828125,0.9824981689453124,-0.120880126953125
21936,-0.0189971923828125,0.9824981689453124,-0.120880126953125
21937,-0.0179595947265625,0.98150634765625,-0.124053955078125
21938,-0.0173187255859375,0.978729248046875,-0.124847412109375
21939,-0.014617919921875,0.9766082763671876,-0.1259002685546875
21940,-0.014617919921875,0.9766082763671876,-0.1259002685546875
21941,-0.011077880859375,0.9764862060546876,-0.11993408203125
21942,-0.0090789794921875,0.9742584228515624,-0.1113739013671875
21943,-0.0082855224609375,0.97039794921875,-0.1032257080078125
21944,-0.0082855224609375,0.97039794921875,-0.1032257080078125
21945,-0.0101165771484375,0.966400146484375,-0.097686767578125
21946,-0.0149993896484375,0.9698486328125,-0.0976715087890625
21947,-0.0149078369140625,0.9735260009765624,-0.097442626953125
21948,-0.01629638671875,0.977386474609375,-0.089385986328125
21949,-0.016082763671875,0.9792022705078124,-0.0809783935546875
21950,-0.0142059326171875,0.975677490234375,-0.0796051025390625
21951,-0.009124755859375,0.96697998046875,-0.0782928466796875
21952,-0.0015869140625,0.952880859375,-0.0773468017578125
21953,0.0062713623046875,0.9369354248046876,-0.0769195556640625
21954,0.0137176513671875,0.92376708984375,-0.0760040283203125
21955,0.02020263671875,0.9209136962890624,-0.0717010498046875
21956,0.0230712890625,0.9275665283203124,-0.06207275390625
21957,0.0304412841796875,0.9420623779296876,-0.0462799072265625
21958,0.035980224609375,0.9524688720703124,-0.0322113037109375
21959,0.058868408203125,0.95245361328125,-0.018646240234375
21960,0.058868408203125,0.95245361328125,-0.018646240234375
21961,0.0703125,0.9497528076171876,-0.0145416259765625
21962,0.081939697265625,0.960845947265625,-0.011962890625
21963,0.1071624755859375,0.9935760498046876,-0.0011749267578125
21964,0.1071624755859375,0.9935760498046876,-0.0011749267578125
21965,0.207305908203125,1.11236572265625,0.04559326171875
21966,0.2717132568359375,1.165847778320312,0.076324462890625
21967,0.3327484130859375,1.184585571289062,0.1049041748046875
21968,0.3751373291015625,1.169769287109375,0.1343994140625
21969,0.3912811279296875,1.115066528320312,0.1642608642578125
21970,0.390625,1.06109619140625,0.193115234375
21971,0.3694305419921875,1.013946533203125,0.203765869140625
21972,0.3694305419921875,1.013946533203125,0.203765869140625
21973,0.318389892578125,0.9670562744140624,0.174285888671875
21974,0.3018646240234375,0.96923828125,0.152587890625
21975,0.29022216796875,1.01165771484375,0.09375
21976,0.2884979248046875,1.0498046875,0.0733795166015625
21977,0.2884979248046875,1.0498046875,0.0733795166015625
21978,0.2834014892578125,1.101898193359375,0.0715484619140625
21979,0.2661895751953125,1.17852783203125,0.08056640625
21980,0.2661895751953125,1.17852783203125,0.08056640625
21981,0.2331695556640625,1.15570068359375,0.0862274169921875
21982,0.202423095703125,1.1046142578125,0.0925140380859375
21983,0.1834716796875,1.030563354492188,0.096893310546875
21984,0.1834716796875,1.030563354492188,0.096893310546875
21985,0.149871826171875,0.91192626953125,0.0712738037109375
21986,0.1500396728515625,0.865386962890625,0.0393218994140625
21987,0.17059326171875,0.81817626953125,0.003265380859375
21988,0.2052154541015625,0.7688751220703125,-0.043548583984375
21989,0.22454833984375,0.7786712646484375,-0.0811767578125
21990,0.2276763916015625,0.8601226806640625,-0.1028289794921875
21991,0.260528564453125,0.980377197265625,-0.133575439453125
21992,0.260528564453125,0.980377197265625,-0.133575439453125
21993,0.264251708984375,0.98406982421875,-0.1278076171875
