time_idx,accelerometerAccelerationX(G),accelerometerAccelerationY(G),accelerometerAccelerationZ(G)
220000,-0.9798126220703124,-1.09747314453125,-0.99652099609375
220001,-0.9798126220703124,-1.09747314453125,-0.99652099609375
220002,-0.91162109375,-0.997467041015625,-0.8754119873046875
220003,-0.95751953125,-0.7966156005859375,-0.6352996826171875
220004,-1.0546875,-0.539306640625,-0.38336181640625
220005,-1.0546875,-0.539306640625,-0.38336181640625
220006,-1.177413940429688,-0.187103271484375,-0.117095947265625
220007,-1.2093505859375,-0.1490478515625,-0.061492919921875
220008,-1.220550537109375,-0.1927947998046875,-0.0537567138671875
220009,-1.129913330078125,-0.2680511474609375,-0.1172943115234375
220010,-0.9311065673828124,-0.3351898193359375,-0.1225433349609375
220011,-0.6687164306640625,-0.3068389892578125,-0.056488037109375
220012,-0.3931427001953125,-0.20013427734375,0.0251922607421875
220013,-0.3931427001953125,-0.20013427734375,0.0251922607421875
220014,0.067596435546875,0.034332275390625,0.140533447265625
220015,0.2702789306640625,0.1058502197265625,0.11175537109375
220016,0.3919830322265625,0.1398468017578125,0.0546417236328125
220017,0.3919830322265625,0.1398468017578125,0.0546417236328125
220018,0.318511962890625,-0.0037384033203125,-0.0177001953125
220019,0.2420501708984375,-0.0284271240234375,-0.076812744140625
220020,0.1834869384765625,-0.0484161376953125,-0.18865966796875
220021,0.1834869384765625,-0.0484161376953125,-0.18865966796875
220022,0.1631317138671875,-0.419647216796875,-0.4095001220703125
220023,-0.0056915283203125,-0.6151885986328125,-0.3409423828125
220024,-0.265655517578125,-0.8749847412109375,-0.2888336181640625
220025,-0.265655517578125,-0.8749847412109375,-0.2888336181640625
220026,-1.016189575195312,-1.502777099609375,-0.1702728271484375
220027,-1.423294067382812,-1.977706909179688,-0.04119873046875
220028,-1.5372314453125,-2.338775634765625,-0.1380615234375
220029,-1.5372314453125,-2.338775634765625,-0.1380615234375
220030,0.098114013671875,-1.468353271484375,-0.5924224853515625
220031,0.560089111328125,-1.367141723632812,-0.6026611328125
220032,0.9172210693359376,-1.599746704101562,-0.6898956298828125
220033,1.041412353515625,-1.934783935546875,-0.7410736083984375
220034,0.771942138671875,-2.107131958007812,-0.7104339599609375
220035,0.47210693359375,-1.98077392578125,-0.56658935546875
220036,0.2569732666015625,-1.807266235351562,-0.4822540283203125
220037,0.2569732666015625,-1.807266235351562,-0.4822540283203125
220038,-0.1541748046875,-1.711990356445312,-0.305511474609375
220039,-0.3709716796875,-1.622360229492188,-0.2074127197265625
220040,-0.69659423828125,-1.2496337890625,-0.2905426025390625
220041,-0.69659423828125,-1.2496337890625,-0.2905426025390625
220042,-0.8308258056640625,-1.14404296875,-0.306396484375
220043,-0.8983001708984375,-1.059677124023438,-0.211395263671875
220044,-0.825164794921875,-0.9398040771484376,-0.1246337890625
220045,-0.6427154541015625,-0.784210205078125,-0.0939788818359375
220046,-0.3920135498046875,-0.58306884765625,-0.128021240234375
220047,-0.17315673828125,-0.3766937255859375,-0.23333740234375
220048,-0.034454345703125,-0.19110107421875,-0.2950897216796875
220049,-0.034454345703125,-0.19110107421875,-0.2950897216796875
220050,-0.4972076416015625,0.06695556640625,0.1317138671875
220051,-0.9580535888671876,0.1884613037109375,0.4474029541015625
220052,-1.035324096679688,0.277740478515625,0.4969329833984375
220053,-1.035324096679688,0.277740478515625,0.4969329833984375
220054,-0.5293731689453125,0.15130615234375,0.0657806396484375
220055,-0.3714752197265625,0.0327301025390625,-0.006591796875
220056,-0.17633056640625,-0.07073974609375,0.01568603515625
220057,-0.17633056640625,-0.07073974609375,0.01568603515625
220058,-0.235321044921875,-0.124481201171875,0.0753631591796875
220059,-0.2870635986328125,-0.161285400390625,0.044036865234375
220060,-0.331085205078125,-0.1594390869140625,-0.096160888671875
220061,-0.331085205078125,-0.1594390869140625,-0.096160888671875
220062,-0.59771728515625,-0.184600830078125,-0.5408782958984375
220063,-0.9217987060546876,-0.27734375,-0.7788543701171875
220064,-1.219970703125,-0.4253692626953125,-1.014724731445312
220065,-1.303451538085938,-0.59332275390625,-1.204315185546875
220066,-1.248321533203125,-0.7260894775390625,-1.1004638671875
220067,-1.074905395507812,-0.7957611083984375,-0.681427001953125
220068,-0.4159698486328125,-0.6583251953125,-0.16900634765625
220069,-0.4159698486328125,-0.6583251953125,-0.16900634765625
220070,-0.451019287109375,-0.720367431640625,-0.194488525390625
220071,-0.916290283203125,-0.78607177734375,-0.2213592529296875
220072,-1.495498657226562,-0.95916748046875,-0.391754150390625
220073,-1.495498657226562,-0.95916748046875,-0.391754150390625
220074,-2.124176025390625,-1.3408203125,-0.341827392578125
220075,-2.021987915039062,-1.265640258789062,-0.2708587646484375
220076,-1.923492431640625,-1.186813354492188,-0.4019622802734375
220077,-1.923492431640625,-1.186813354492188,-0.4019622802734375
220078,-1.91754150390625,-1.193634033203125,-0.8131103515625
220079,-1.83538818359375,-1.152725219726562,-0.7952423095703125
220080,-1.38629150390625,-0.81951904296875,-0.6280975341796875
220081,-1.38629150390625,-0.81951904296875,-0.6280975341796875
220082,-1.138565063476562,-0.5859222412109375,-0.5687103271484375
220083,-0.9177093505859376,-0.378082275390625,-0.5320587158203125
220084,-0.6291046142578125,-0.1310577392578125,-0.4119110107421875
220085,-0.6291046142578125,-0.1310577392578125,-0.4119110107421875
220086,-0.5445556640625,-0.1000518798828125,-0.33624267578125
220087,-0.457305908203125,-0.1085357666015625,-0.2611846923828125
220088,-0.378753662109375,-0.0954742431640625,-0.1879119873046875
220089,-0.31756591796875,-0.01715087890625,-0.1142425537109375
220090,-0.255615234375,0.103240966796875,-0.0182647705078125
220091,-0.1552734375,0.2079925537109375,0.075103759765625
220092,-0.02825927734375,0.2441558837890625,0.1214141845703125
220093,-0.02825927734375,0.2441558837890625,0.1214141845703125
220094,0.259613037109375,0.176544189453125,0.0013275146484375
220095,0.29315185546875,0.12847900390625,-0.0982666015625
220096,0.29803466796875,0.0386505126953125,-0.2495880126953125
220097,0.304046630859375,-0.07196044921875,-0.391845703125
220098,0.271148681640625,-0.224395751953125,-0.4698638916015625
220099,0.2311859130859375,-0.4352264404296875,-0.5550079345703125
220100,0.1627044677734375,-0.6267547607421875,-0.5734405517578125
220101,0.1627044677734375,-0.6267547607421875,-0.5734405517578125
220102,-0.1535491943359375,-1.036346435546875,-0.1715240478515625
220103,-0.3143310546875,-1.248001098632812,0.0041046142578125
220104,-0.5588531494140625,-1.448806762695312,-0.103424072265625
220105,-0.5588531494140625,-1.448806762695312,-0.103424072265625
220106,-0.5624847412109375,-1.47064208984375,-0.230438232421875
220107,-0.4797515869140625,-1.472564697265625,-0.334228515625
220108,-0.3033447265625,-1.48712158203125,-0.4994964599609375
220109,-0.3033447265625,-1.48712158203125,-0.4994964599609375
220110,-0.08746337890625,-1.686203002929688,-0.903778076171875
220111,-0.089385986328125,-1.939620971679688,-0.9292144775390624
220112,-0.1938018798828125,-2.11175537109375,-0.8030242919921875
220113,-0.1938018798828125,-2.11175537109375,-0.8030242919921875
220114,-0.379669189453125,-1.771682739257812,-0.3035125732421875
220115,-0.3779449462890625,-1.632904052734375,-0.2045440673828125
220116,-0.42181396484375,-1.526046752929688,-0.20208740234375
220117,-0.42181396484375,-1.526046752929688,-0.20208740234375
220118,-0.5697479248046875,-1.321914672851562,-0.2692413330078125
220119,-0.605712890625,-1.1932373046875,-0.3036956787109375
220120,-0.6508026123046875,-1.071044921875,-0.31060791015625
220121,-0.642608642578125,-0.9455413818359376,-0.22357177734375
220122,-0.59503173828125,-0.7836151123046875,-0.078033447265625
220123,-0.51446533203125,-0.6202239990234375,0.0415496826171875
220124,-0.41748046875,-0.4610443115234375,0.0869293212890625
220125,-0.41748046875,-0.4610443115234375,0.0869293212890625
220126,-0.2185821533203125,-0.0609130859375,0.0579986572265625
220127,-0.201904296875,0.156005859375,0.0872039794921875
220128,-0.153228759765625,0.3201904296875,0.1064910888671875
220129,-0.153228759765625,0.3201904296875,0.1064910888671875
220130,0.0209197998046875,0.376678466796875,0.1265106201171875
220131,0.086761474609375,0.33001708984375,0.0996246337890625
220132,0.0828399658203125,0.27642822265625,0.07489013671875
220133,0.0191497802734375,0.2173919677734375,0.0609283447265625
220134,-0.037200927734375,0.1195068359375,0.0
220135,-0.0712127685546875,-0.0138092041015625,-0.1313018798828125
220136,-0.349822998046875,-0.3087310791015625,-0.438140869140625
220137,-0.349822998046875,-0.3087310791015625,-0.438140869140625
220138,-0.5634307861328125,-0.387908935546875,-0.566436767578125
220139,-0.770263671875,-0.476348876953125,-0.6672515869140625
220140,-1.004486083984375,-0.6050567626953125,-0.8068389892578125
220141,-1.342559814453125,-0.6766357421875,-1.016006469726562
220142,-1.66363525390625,-0.77215576171875,-1.021240234375
220143,-1.659744262695312,-1.025375366210938,-0.5792236328125
220144,-1.1295166015625,-1.527496337890625,0.0545196533203125
220145,-1.1295166015625,-1.527496337890625,0.0545196533203125
220146,-1.101242065429688,-1.739883422851562,-0.1356353759765625
220147,-1.257125854492188,-1.91943359375,-0.3937835693359375
220148,-1.415863037109375,-1.968460083007812,-0.57415771484375
220149,-1.415863037109375,-1.968460083007812,-0.57415771484375
220150,-1.381851196289062,-1.684036254882812,-0.7500457763671875
220151,-1.396820068359375,-1.478515625,-0.8125
220152,-1.463836669921875,-1.226303100585938,-0.803924560546875
220153,-1.463836669921875,-1.226303100585938,-0.803924560546875
220154,-1.477279663085938,-1.063522338867188,-0.7487640380859375
220155,-1.445846557617188,-0.8671722412109375,-0.5924530029296875
220156,-1.360321044921875,-0.6370697021484375,-0.3852996826171875
220157,-1.360321044921875,-0.6370697021484375,-0.3852996826171875
220158,-1.044967651367188,-0.3087615966796875,-0.176177978515625
220159,-0.8770904541015625,-0.2380828857421875,-0.2645416259765625
220160,-0.6140289306640625,-0.187042236328125,-0.406097412109375
220161,-0.6140289306640625,-0.187042236328125,-0.406097412109375
220162,-0.493011474609375,-0.1777801513671875,-0.364898681640625
220163,-0.3396453857421875,-0.1649932861328125,-0.236297607421875
220164,-0.1734161376953125,-0.116363525390625,-0.0862884521484375
220165,-0.1734161376953125,-0.116363525390625,-0.0862884521484375
220166,0.045379638671875,-0.002685546875,0.040985107421875
220167,0.1239776611328125,0.019805908203125,0.024749755859375
220168,0.1751708984375,0.0402374267578125,-0.017669677734375
220169,0.1771697998046875,0.0370025634765625,-0.049346923828125
220170,0.1666107177734375,0.004302978515625,-0.0578765869140625
220171,0.1884918212890625,-0.0435791015625,-0.0992889404296875
220172,0.1275177001953125,-0.1097869873046875,-0.1284027099609375
220173,0.1275177001953125,-0.1097869873046875,-0.1284027099609375
220174,-0.180206298828125,-0.2747955322265625,-0.0908203125
220175,-0.35455322265625,-0.4394989013671875,-0.11505126953125
220176,-0.537109375,-0.69451904296875,-0.174102783203125
220177,-0.537109375,-0.69451904296875,-0.174102783203125
220178,-0.6922454833984375,-1.398895263671875,-0.2434539794921875
220179,-0.5391693115234375,-1.627243041992188,-0.34332275390625
220180,-0.3191070556640625,-1.637420654296875,-0.54351806640625
220181,-0.3191070556640625,-1.637420654296875,-0.54351806640625
220182,0.0064544677734375,-1.453094482421875,-0.7039794921875
220183,0.0491180419921875,-1.500091552734375,-0.7110443115234375
220184,-0.0749053955078125,-1.6427001953125,-0.7434844970703125
220185,-0.0749053955078125,-1.6427001953125,-0.7434844970703125
220186,-0.55267333984375,-1.73370361328125,-0.7186431884765625
220187,-0.59503173828125,-1.56964111328125,-0.5830535888671875
220188,-0.4549713134765625,-1.43975830078125,-0.424285888671875
220189,-0.4549713134765625,-1.43975830078125,-0.424285888671875
220190,-0.20782470703125,-1.322006225585938,-0.342437744140625
220191,-0.2548675537109375,-1.35809326171875,-0.3626556396484375
220192,-0.3516693115234375,-1.386199951171875,-0.372161865234375
220193,-0.4560546875,-1.327499389648438,-0.2945556640625
220194,-0.56292724609375,-1.202789306640625,-0.1629791259765625
220195,-0.59185791015625,-0.99603271484375,-0.122589111328125
220196,-0.56646728515625,-0.793365478515625,-0.159393310546875
220197,-0.520538330078125,-0.6540069580078125,-0.1909637451171875
220198,-0.4366912841796875,-0.5363006591796875,-0.19378662109375
220199,-0.3251953125,-0.4047393798828125,-0.1659088134765625
220200,-0.3333587646484375,-0.24432373046875,-0.1114044189453125
220201,-0.3333587646484375,-0.24432373046875,-0.1114044189453125
220202,-0.2476654052734375,0.055816650390625,-0.064788818359375
220203,-0.033843994140625,0.1523895263671875,-0.07354736328125
220204,0.1445770263671875,0.2109832763671875,-0.0156707763671875
220205,0.1958770751953125,0.16998291015625,0.07330322265625
220206,0.17559814453125,0.0189361572265625,0.2320098876953125
220207,0.131866455078125,-0.0999755859375,0.3045501708984375
220208,0.062530517578125,-0.138275146484375,0.2296600341796875
220209,-0.024932861328125,-0.146881103515625,0.0883636474609375
220210,-0.162109375,-0.2358245849609375,-0.100555419921875
220211,-0.381256103515625,-0.4006500244140625,-0.3400115966796875
220212,-0.6667327880859375,-0.5876007080078125,-0.5737762451171875
220213,-0.6667327880859375,-0.5876007080078125,-0.5737762451171875
220214,-1.111328125,-0.7628631591796875,-0.7718505859375
220215,-1.185150146484375,-0.6982421875,-0.6745758056640625
220216,-1.16815185546875,-0.62445068359375,-0.1659698486328125
220217,-1.16815185546875,-0.62445068359375,-0.1659698486328125
220218,-1.154159545898438,-0.6986236572265625,0.0009613037109375
220219,-1.151275634765625,-0.873565673828125,-0.0777587890625
220220,-1.267929077148438,-1.130157470703125,-0.3363800048828125
220221,-1.524368286132812,-1.374618530273438,-0.5551605224609375
220222,-1.733673095703125,-1.603469848632812,-0.5988006591796875
220223,-1.840667724609375,-1.713287353515625,-0.50042724609375
220224,-1.85406494140625,-1.705947875976562,-0.456756591796875
220225,-1.802261352539062,-1.589370727539062,-0.56201171875
220226,-1.818405151367188,-1.390945434570312,-0.65887451171875
220227,-1.866561889648438,-1.22003173828125,-0.6569366455078125
220228,-1.74896240234375,-1.0948486328125,-0.593353271484375
220229,-1.541824340820312,-0.9835205078125,-0.521087646484375
220230,-1.358596801757812,-0.8154754638671875,-0.45623779296875
220231,-1.175613403320312,-0.6224212646484375,-0.428802490234375
220232,-1.067047119140625,-0.443603515625,-0.3915557861328125
220233,-1.036178588867188,-0.3054046630859375,-0.32879638671875
220234,-0.9843902587890624,-0.2181396484375,-0.2880706787109375
220235,-0.8806915283203125,-0.1801910400390625,-0.254058837890625
220236,-0.7139739990234375,-0.1541595458984375,-0.211456298828125
220237,-0.7139739990234375,-0.1541595458984375,-0.211456298828125
220238,-0.294586181640625,-0.0586700439453125,-0.0280914306640625
220239,-0.09771728515625,-0.0077972412109375,0.0514373779296875
220240,0.059783935546875,0.0385589599609375,0.0564117431640625
220241,0.17474365234375,0.0550384521484375,-0.0057373046875
220242,0.2738189697265625,0.059295654296875,-0.0764312744140625
220243,0.3130035400390625,0.04638671875,-0.1271209716796875
220244,0.280731201171875,-0.01171875,-0.1671142578125
220245,0.219970703125,-0.0976715087890625,-0.23602294921875
220246,0.1860504150390625,-0.17889404296875,-0.33258056640625
220247,0.147308349609375,-0.251983642578125,-0.426361083984375
220248,0.0724945068359375,-0.361328125,-0.502532958984375
220249,0.0724945068359375,-0.361328125,-0.502532958984375
220250,-0.114837646484375,-0.6413726806640625,-0.4359283447265625
220251,-0.221038818359375,-0.764007568359375,-0.2828216552734375
220252,-0.32525634765625,-0.8466949462890625,-0.063232421875
220253,-0.32525634765625,-0.8466949462890625,-0.063232421875
220254,-0.3776397705078125,-0.9715576171875,0.010284423828125
220255,-0.237823486328125,-1.067611694335938,-0.13861083984375
220256,-0.0550384521484375,-1.219573974609375,-0.3668670654296875
220257,0.0443267822265625,-1.425445556640625,-0.6164398193359375
220258,0.02008056640625,-1.683258056640625,-0.827606201171875
220259,-0.0927276611328125,-1.95086669921875,-0.9460906982421876
220260,-0.422698974609375,-1.966476440429688,-0.741546630859375
220261,-0.422698974609375,-1.966476440429688,-0.741546630859375
220262,-0.5386962890625,-1.649337768554688,-0.542755126953125
220263,-0.4410400390625,-1.516799926757812,-0.4190216064453125
220264,-0.288543701171875,-1.431991577148438,-0.3111419677734375
220265,-0.193634033203125,-1.334869384765625,-0.31927490234375
220266,-0.20404052734375,-1.2720947265625,-0.4101715087890625
220267,-0.29095458984375,-1.210540771484375,-0.4619598388671875
220268,-0.40130615234375,-1.124343872070312,-0.4514007568359375
220269,-0.48712158203125,-1.027297973632812,-0.424163818359375
220270,-0.5279998779296875,-0.9321746826171876,-0.412750244140625
220271,-0.53839111328125,-0.80322265625,-0.3656158447265625
220272,-0.542999267578125,-0.6761016845703125,-0.2913818359375
220273,-0.5112152099609375,-0.52294921875,-0.2037200927734375
220274,-0.438201904296875,-0.336151123046875,-0.1151580810546875
220275,-0.39111328125,-0.145233154296875,-0.024169921875
220276,-0.389801025390625,0.02099609375,0.0380401611328125
220277,-0.389801025390625,0.02099609375,0.0380401611328125
220278,-0.48736572265625,0.19281005859375,0.3362274169921875
220279,-0.5101776123046875,0.178375244140625,0.4137420654296875
220280,-0.37799072265625,0.116668701171875,0.366241455078125
220281,-0.1717987060546875,0.0213165283203125,0.2101287841796875
220282,-0.0125885009765625,-0.091827392578125,0.020843505859375
220283,0.0484771728515625,-0.21588134765625,-0.1424713134765625
220284,0.0359039306640625,-0.4216766357421875,-0.302642822265625
220285,0.0359039306640625,-0.4216766357421875,-0.302642822265625
220286,-0.0104522705078125,-0.546630859375,-0.4576568603515625
220287,-0.1245880126953125,-0.6524658203125,-0.669342041015625
220288,-0.2876739501953125,-0.7273712158203125,-0.819580078125
220289,-0.4430999755859375,-0.8408355712890625,-0.8953704833984375
220290,-0.5748443603515625,-0.9700469970703124,-0.9429931640625
220291,-0.7700347900390625,-1.019241333007812,-0.85711669921875
220292,-1.187240600585938,-0.9697265625,-0.417449951171875
220293,-1.187240600585938,-0.9697265625,-0.417449951171875
220294,-1.40606689453125,-1.009078979492188,-0.3650054931640625
220295,-1.745819091796875,-1.109375,-0.290252685546875
220296,-2.013107299804688,-1.158447265625,-0.1834259033203125
220297,-2.088455200195312,-1.177841186523438,-0.099853515625
220298,-2.027099609375,-1.151321411132812,-0.078277587890625
220299,-1.87548828125,-1.030670166015625,-0.21630859375
220300,-1.828201293945312,-0.94671630859375,-0.4393157958984375
220301,-1.826171875,-0.9678497314453124,-0.5995330810546875
220302,-1.762405395507812,-0.9707489013671876,-0.724761962890625
220303,-1.596389770507812,-0.9268341064453124,-0.77734375
220304,-1.40264892578125,-0.8280181884765625,-0.754364013671875
220305,-1.225631713867188,-0.68548583984375,-0.704345703125
220306,-1.058334350585938,-0.5363006591796875,-0.6388397216796875
220307,-0.8915252685546875,-0.425537109375,-0.57061767578125
220308,-0.7418212890625,-0.3618011474609375,-0.489715576171875
220309,-0.631744384765625,-0.344207763671875,-0.40618896484375
220310,-0.5326385498046875,-0.342132568359375,-0.334930419921875
220311,-0.4578857421875,-0.343658447265625,-0.2669830322265625
220312,-0.4002685546875,-0.31390380859375,-0.1648101806640625
220313,-0.3429718017578125,-0.2318878173828125,-0.033355712890625
220314,-0.2545623779296875,-0.120208740234375,0.088165283203125
220315,-0.1133880615234375,-0.017913818359375,0.1549530029296875
220316,0.2269287109375,0.076324462890625,0.111175537109375
220317,0.2269287109375,0.076324462890625,0.111175537109375
220318,0.3113250732421875,0.0780029296875,-0.0157012939453125
220319,0.288970947265625,0.0246124267578125,-0.1963348388671875
220320,0.1716766357421875,-0.0754852294921875,-0.388885498046875
220321,0.1716766357421875,-0.0754852294921875,-0.388885498046875
220322,-0.1107635498046875,-0.3848876953125,-0.58074951171875
220323,-0.258697509765625,-0.57598876953125,-0.60443115234375
220324,-0.410675048828125,-0.735107421875,-0.4492034912109375
220325,-0.410675048828125,-0.735107421875,-0.4492034912109375
220326,-0.58343505859375,-1.02508544921875,-0.0206756591796875
220327,-0.4666900634765625,-1.199493408203125,-0.047607421875
220328,-0.2473602294921875,-1.323989868164062,-0.2193450927734375
220329,0.0235748291015625,-1.385848999023438,-0.4221343994140625
220330,0.2322845458984375,-1.448211669921875,-0.512176513671875
220331,0.2981719970703125,-1.542434692382812,-0.6293182373046875
220332,0.288299560546875,-1.669784545898438,-0.7623443603515625
220333,0.1865234375,-1.72174072265625,-0.828857421875
220334,-0.0153656005859375,-1.677841186523438,-0.812713623046875
220335,-0.272552490234375,-1.618484497070312,-0.6814727783203125
220336,-0.6040496826171875,-1.509323120117188,-0.4274139404296875
220337,-0.6040496826171875,-1.509323120117188,-0.4274139404296875
220338,-0.680908203125,-1.4666748046875,-0.353851318359375
220339,-0.7306671142578125,-1.406143188476562,-0.2968902587890625
220340,-0.73968505859375,-1.3157958984375,-0.2298583984375
220341,-0.724761962890625,-1.179519653320312,-0.18603515625
220342,-0.7467193603515625,-1.03118896484375,-0.323089599609375
220343,-0.78985595703125,-0.9238739013671876,-0.4801788330078125
220344,-0.5400848388671875,-0.79266357421875,-0.327484130859375
220345,-0.5400848388671875,-0.79266357421875,-0.327484130859375
220346,-0.38604736328125,-0.63763427734375,-0.222320556640625
220347,-0.3106842041015625,-0.447113037109375,-0.144256591796875
220348,-0.328887939453125,-0.25103759765625,-0.080322265625
220349,-0.328887939453125,-0.25103759765625,-0.080322265625
220350,-0.56683349609375,0.0056915283203125,0.0547027587890625
220351,-0.6230316162109375,0.0542144775390625,0.10809326171875
220352,-0.3773193359375,-0.0231781005859375,0.280517578125
220353,-0.3773193359375,-0.0231781005859375,0.280517578125
220354,-0.13409423828125,-0.151397705078125,0.372772216796875
220355,0.0431060791015625,-0.25396728515625,0.3574676513671875
220356,0.0789031982421875,-0.270843505859375,0.1513214111328125
220357,0.0363616943359375,-0.23486328125,-0.2133636474609375
220358,-0.0552978515625,-0.174407958984375,-0.5109710693359375
220359,-0.2449951171875,-0.1577606201171875,-0.613525390625
220360,-0.8648834228515625,-0.123870849609375,-0.560394287109375
220361,-0.8648834228515625,-0.123870849609375,-0.560394287109375
220362,-1.190139770507812,-0.1862640380859375,-0.55303955078125
220363,-1.477371215820312,-0.3282928466796875,-0.5495452880859375
220364,-1.61053466796875,-0.5089874267578125,-0.5462799072265625
220365,-1.61053466796875,-0.5089874267578125,-0.5462799072265625
220366,-1.642471313476562,-0.772857666015625,-0.3007354736328125
220367,-1.378631591796875,-0.87359619140625,-0.235870361328125
220368,-1.0303955078125,-0.8460540771484375,-0.27764892578125
220369,-1.0303955078125,-0.8460540771484375,-0.27764892578125
220370,-1.004547119140625,-0.634490966796875,-0.26947021484375
220371,-1.217666625976562,-0.7887420654296875,-0.2583770751953125
220372,-1.351318359375,-0.9181976318359376,-0.34063720703125
220373,-1.351318359375,-0.9181976318359376,-0.34063720703125
220374,-1.63775634765625,-0.78167724609375,-0.577972412109375
220375,-1.566558837890625,-0.7030181884765625,-0.67315673828125
220376,-1.482757568359375,-0.7084808349609375,-0.780364990234375
220377,-1.447052001953125,-0.740631103515625,-0.826629638671875
220378,-1.407852172851562,-0.7372283935546875,-0.7850189208984375
220379,-1.32781982421875,-0.6961517333984375,-0.6479949951171875
220380,-1.157058715820312,-0.634307861328125,-0.4866943359375
220381,-1.157058715820312,-0.634307861328125,-0.4866943359375
220382,-0.7507476806640625,-0.4426727294921875,-0.29119873046875
220383,-0.494781494140625,-0.3195037841796875,-0.2667388916015625
220384,-0.494781494140625,-0.3195037841796875,-0.2667388916015625
220385,-0.3699798583984375,-0.2999114990234375,-0.25347900390625
220386,-0.2837066650390625,-0.275665283203125,-0.2294769287109375
220387,-0.1219329833984375,-0.1430511474609375,-0.105438232421875
220388,-0.1219329833984375,-0.1430511474609375,-0.105438232421875
220389,-0.1219329833984375,-0.1430511474609375,-0.105438232421875
220390,0.0230255126953125,0.045196533203125,0.0061492919921875
220391,0.0623779296875,0.1226806640625,0.0278778076171875
220392,0.1200714111328125,0.1538238525390625,0.01702880859375
220393,0.152313232421875,0.1212158203125,0.0341796875
220394,0.101348876953125,0.0698089599609375,0.038177490234375
220395,0.0287017822265625,-0.01751708984375,-0.0448150634765625
220396,-0.0510406494140625,-0.1416168212890625,-0.1744384765625
220397,-0.189453125,-0.32135009765625,-0.268280029296875
220398,-0.3257904052734375,-0.602142333984375,-0.3200225830078125
220399,-0.4141998291015625,-0.97235107421875,-0.3752288818359375
220400,-0.4859771728515625,-1.406234741210938,-0.3622894287109375
220401,-0.4362640380859375,-1.75177001953125,-0.3002777099609375
220402,-0.2469940185546875,-1.756561279296875,-0.2076568603515625
220403,-0.0687255859375,-1.525680541992188,-0.2169952392578125
220404,0.081329345703125,-1.291778564453125,-0.2979736328125
220405,0.081329345703125,-1.291778564453125,-0.2979736328125
220406,0.0323638916015625,-1.282806396484375,-0.5720977783203125
220407,-0.24066162109375,-1.5894775390625,-0.7034149169921875
220408,-0.578399658203125,-1.937515258789062,-0.758148193359375
220409,-0.578399658203125,-1.937515258789062,-0.758148193359375
220410,-0.8672943115234375,-1.914154052734375,-0.526611328125
220411,-0.7937774658203125,-1.63555908203125,-0.30267333984375
220412,-0.6855316162109375,-1.443222045898438,-0.1231231689453125
220413,-0.5783538818359375,-1.357696533203125,-0.0673370361328125
220414,-0.5134429931640625,-1.296463012695312,-0.0911865234375
220415,-0.531494140625,-1.229293823242188,-0.17230224609375
220416,-0.5721435546875,-1.158981323242188,-0.2198028564453125
220417,-0.5936737060546875,-1.08453369140625,-0.173675537109375
220418,-0.5730743408203125,-0.9730682373046876,-0.1047515869140625
220419,-0.4997406005859375,-0.8645477294921875,-0.0379180908203125
220420,-0.448944091796875,-0.75469970703125,0.0137939453125
220421,-0.4359130859375,-0.589569091796875,0.04541015625
220422,-0.433319091796875,-0.3867034912109375,0.050262451171875
220423,-0.3672027587890625,-0.169036865234375,0.0198822021484375
220424,-0.26300048828125,0.085845947265625,0.006744384765625
220425,-0.1217193603515625,0.2585601806640625,0.0025787353515625
220426,0.062469482421875,0.2473297119140625,-0.02349853515625
220427,0.23345947265625,0.197418212890625,-0.0546875
220428,0.316497802734375,0.2011871337890625,-0.0704498291015625
220429,0.316497802734375,0.2011871337890625,-0.0704498291015625
220430,0.092803955078125,0.0409698486328125,-0.105712890625
220431,-0.028900146484375,-0.126495361328125,-0.0846405029296875
220432,-0.1573944091796875,-0.2518463134765625,-0.18377685546875
220433,-0.3535919189453125,-0.3677215576171875,-0.3850860595703125
220434,-0.6339874267578125,-0.5232086181640625,-0.5814666748046875
220435,-0.9649658203125,-0.677764892578125,-0.6794586181640625
220436,-1.339004516601562,-0.7796630859375,-0.733673095703125
220437,-1.732131958007812,-0.889007568359375,-0.7563018798828125
220438,-1.854232788085938,-0.9825439453125,-0.61065673828125
220439,-1.298385620117188,-0.9737701416015624,-0.0753631591796875
220440,-1.298385620117188,-0.9737701416015624,-0.0753631591796875
220441,-1.239028930664062,-1.06103515625,0.1716156005859375
220442,-1.288406372070312,-1.1524658203125,0.35369873046875
220443,-1.306045532226562,-1.123687744140625,0.1366424560546875
220444,-1.306045532226562,-1.123687744140625,0.1366424560546875
220445,-1.47625732421875,-1.054168701171875,-0.111297607421875
220446,-1.690032958984375,-1.018463134765625,-0.2828369140625
220447,-1.8616943359375,-1.059906005859375,-0.481964111328125
220448,-1.988677978515625,-1.139129638671875,-0.667510986328125
220449,-1.967788696289062,-1.123321533203125,-0.7229156494140625
220450,-1.76409912109375,-0.99468994140625,-0.672454833984375
220451,-1.061019897460938,-0.58349609375,-0.46697998046875
220452,-1.061019897460938,-0.58349609375,-0.46697998046875
220453,-0.72308349609375,-0.422332763671875,-0.36798095703125
220454,-0.5178375244140625,-0.345916748046875,-0.2717132568359375
220455,-0.2492218017578125,-0.314117431640625,-0.2073822021484375
220456,-0.2492218017578125,-0.314117431640625,-0.2073822021484375
220457,-0.183258056640625,-0.2778167724609375,-0.223785400390625
220458,-0.167205810546875,-0.2288360595703125,-0.2171173095703125
220459,-0.1493988037109375,-0.177886962890625,-0.148468017578125
220460,-0.095794677734375,-0.1143341064453125,-0.042266845703125
220461,-0.031036376953125,-0.037109375,0.0413818359375
220462,0.0352020263671875,0.042205810546875,0.054168701171875
220463,0.1103668212890625,0.079742431640625,0.016998291015625
220464,0.1769866943359375,0.0805206298828125,-0.03857421875
220465,0.1769866943359375,0.0805206298828125,-0.03857421875
220466,0.1527252197265625,0.0052642822265625,-0.149139404296875
220467,-0.1298370361328125,-0.242218017578125,-0.3316802978515625
220468,-0.1298370361328125,-0.242218017578125,-0.3316802978515625
220469,-0.336883544921875,-0.428619384765625,-0.3519287109375
220470,-0.5745849609375,-0.6852264404296875,-0.368743896484375
220471,-0.82659912109375,-1.020660400390625,-0.3628997802734375
220472,-1.01556396484375,-1.474807739257812,-0.2078399658203125
220473,-1.005523681640625,-1.895401000976562,0.0408172607421875
220474,-0.79034423828125,-1.954818725585938,0.05865478515625
220475,-0.4408111572265625,-1.745773315429688,-0.1662445068359375
220476,-0.062042236328125,-1.592422485351562,-0.32965087890625
220477,0.2187042236328125,-1.561767578125,-0.4732818603515625
220478,0.2788238525390625,-1.6287841796875,-0.6405181884765625
220479,0.1560516357421875,-1.808731079101562,-0.7599639892578125
220480,0.02618408203125,-1.972213745117188,-0.7802734375
220481,-0.18817138671875,-1.89556884765625,-0.5995635986328125
220482,-0.311981201171875,-1.693893432617188,-0.3829803466796875
220483,-0.311981201171875,-1.693893432617188,-0.3829803466796875
220484,-0.314483642578125,-1.45806884765625,-0.2439117431640625
220485,-0.314483642578125,-1.45806884765625,-0.2439117431640625
220486,-0.3721466064453125,-1.35687255859375,-0.2456817626953125
220487,-0.4152374267578125,-1.218704223632812,-0.2324066162109375
220488,-0.4515838623046875,-1.090042114257812,-0.2174224853515625
220489,-0.447174072265625,-0.9736480712890624,-0.1739044189453125
220490,-0.35565185546875,-0.851959228515625,-0.1180419921875
220491,-0.2877349853515625,-0.731658935546875,-0.093536376953125
220492,-0.2684783935546875,-0.5995941162109375,-0.1053009033203125
220493,-0.29302978515625,-0.4583282470703125,-0.1459808349609375
220494,-0.3490142822265625,-0.2984619140625,-0.1719512939453125
220495,-0.4438323974609375,-0.0875091552734375,-0.1201324462890625
220496,-0.43609619140625,0.1190643310546875,-0.03680419921875
220497,-0.43609619140625,0.1190643310546875,-0.03680419921875
220498,-0.029541015625,0.3096160888671875,-0.032867431640625
220499,0.0872650146484375,0.328521728515625,-0.039764404296875
220500,-0.0341339111328125,0.1619873046875,0.0951385498046875
220501,-0.0341339111328125,0.1619873046875,0.0951385498046875
220502,-0.094482421875,0.1125640869140625,0.195770263671875
220503,-0.14666748046875,0.0474700927734375,0.1462249755859375
220504,-0.26104736328125,-0.0453033447265625,0.0052337646484375
220505,-0.4990386962890625,-0.153472900390625,-0.169281005859375
220506,-0.8257598876953125,-0.2911529541015625,-0.3734130859375
220507,-1.108154296875,-0.4443511962890625,-0.5911865234375
220508,-1.34564208984375,-0.56353759765625,-0.734954833984375
220509,-1.50897216796875,-0.6202392578125,-0.7213287353515625
220510,-1.561981201171875,-0.643890380859375,-0.4753875732421875
220511,-1.559158325195312,-0.7254638671875,-0.236358642578125
220512,-1.466323852539062,-0.8421630859375,-0.113037109375
220513,-1.466323852539062,-0.8421630859375,-0.113037109375
220514,-1.168960571289062,-1.177978515625,-0.23309326171875
220515,-1.141357421875,-1.297149658203125,-0.3577423095703125
220516,-1.301116943359375,-1.349334716796875,-0.477935791015625
220517,-1.301116943359375,-1.349334716796875,-0.477935791015625
220518,-1.378372192382812,-1.266265869140625,-0.64031982421875
220519,-1.378372192382812,-1.266265869140625,-0.64031982421875
220520,-1.424713134765625,-1.012939453125,-0.8213958740234375
220521,-1.447097778320312,-0.939727783203125,-0.79888916015625
220522,-1.427291870117188,-0.8676605224609375,-0.702484130859375
220523,-1.361770629882812,-0.7787933349609375,-0.5597686767578125
220524,-1.279464721679688,-0.6585845947265625,-0.4399871826171875
220525,-1.155517578125,-0.547698974609375,-0.384307861328125
220526,-1.010986328125,-0.4709625244140625,-0.347808837890625
220527,-0.875213623046875,-0.4074554443359375,-0.323150634765625
220528,-0.7275848388671875,-0.351287841796875,-0.31878662109375
220529,-0.567535400390625,-0.3146514892578125,-0.3001251220703125
220530,-0.413421630859375,-0.274444580078125,-0.244354248046875
220531,-0.277587890625,-0.22772216796875,-0.1407470703125
220532,-0.148529052734375,-0.170318603515625,-0.03125
220533,-0.0460052490234375,-0.0792236328125,0.04742431640625
220534,0.02825927734375,0.011749267578125,0.05548095703125
220535,0.0914764404296875,0.058746337890625,0.0211181640625
220536,0.1820831298828125,0.03411865234375,-0.082366943359375
220537,0.1820831298828125,0.03411865234375,-0.082366943359375
220538,0.154876708984375,-0.0093994140625,-0.1259765625
220539,0.0451812744140625,-0.1850128173828125,-0.2386627197265625
220540,0.0451812744140625,-0.1850128173828125,-0.2386627197265625
220541,0.0451812744140625,-0.1850128173828125,-0.2386627197265625
220542,-0.2847900390625,-0.416168212890625,-0.2126007080078125
220543,-0.531585693359375,-0.6176910400390625,-0.118499755859375
220544,-0.974822998046875,-1.246475219726562,-0.04522705078125
220545,-0.974822998046875,-1.246475219726562,-0.04522705078125
220546,-1.085113525390625,-1.599594116210938,-0.0149078369140625
220547,-0.9449462890625,-1.826889038085938,-0.093292236328125
220548,-0.4496612548828125,-1.802169799804688,-0.365478515625
220549,0.0816192626953125,-1.6571044921875,-0.5430145263671875
220550,0.34375,-1.5867919921875,-0.635467529296875
220551,0.3668365478515625,-1.663833618164062,-0.70556640625
220552,0.153289794921875,-1.868011474609375,-0.6725006103515625
220553,-0.1933441162109375,-1.886322021484375,-0.5641021728515625
220554,-0.420745849609375,-1.6861572265625,-0.4118499755859375
220555,-0.358367919921875,-1.557342529296875,-0.3098297119140625
220556,-0.358367919921875,-1.557342529296875,-0.3098297119140625
220557,-0.358367919921875,-1.557342529296875,-0.3098297119140625
220558,-0.3167724609375,-1.46282958984375,-0.3526611328125
220559,-0.2842864990234375,-1.342041015625,-0.3793182373046875
220560,-0.2842864990234375,-1.342041015625,-0.3793182373046875
220561,-0.3296356201171875,-1.187911987304688,-0.324615478515625
220562,-0.3978424072265625,-1.053756713867188,-0.2731781005859375
220563,-0.3822479248046875,-0.92547607421875,-0.1900787353515625
220564,-0.346954345703125,-0.8184051513671875,-0.0752105712890625
220565,-0.3206024169921875,-0.6856231689453125,0.03912353515625
220566,-0.3137664794921875,-0.5208587646484375,0.1208953857421875
220567,-0.387054443359375,-0.0870208740234375,0.132720947265625
220568,-0.387054443359375,-0.0870208740234375,0.132720947265625
220569,-0.398040771484375,0.189910888671875,0.1163787841796875
220570,-0.2603607177734375,0.3322296142578125,0.06341552734375
220571,0.077911376953125,0.2198028564453125,-0.0385894775390625
220572,0.425994873046875,0.035888671875,-0.1029052734375
220573,0.57763671875,-0.005584716796875,-0.0507049560546875
220574,0.5056915283203125,-0.0312042236328125,0.00030517578125
220575,0.3237457275390625,-0.0693817138671875,-0.007720947265625
220576,0.2152099609375,-0.1196746826171875,-0.061553955078125
220577,0.1111297607421875,-0.1455535888671875,-0.1925201416015625
220578,-0.1171417236328125,-0.2034454345703125,-0.3335113525390625
220579,-0.467559814453125,-0.31298828125,-0.4381256103515625
220580,-0.8195648193359375,-0.409881591796875,-0.4910430908203125
220581,-1.158493041992188,-0.4156341552734375,-0.4829254150390625
220582,-1.422805786132812,-0.4210968017578125,-0.5470123291015625
220583,-1.919235229492188,-0.6012725830078125,-0.539825439453125
220584,-1.919235229492188,-0.6012725830078125,-0.539825439453125
220585,-1.901260375976562,-0.767547607421875,-0.2660675048828125
220586,-1.642578125,-0.991058349609375,-0.087005615234375
220587,-1.4171142578125,-1.176834106445312,-0.3441314697265625
220588,-1.4171142578125,-1.176834106445312,-0.3441314697265625
220589,-1.44384765625,-1.267807006835938,-0.5149993896484375
220590,-1.541275024414062,-1.316268920898438,-0.5612945556640625
220591,-1.623733520507812,-1.311599731445312,-0.6295928955078125
220592,-1.646697998046875,-1.212997436523438,-0.6815643310546875
220593,-1.635833740234375,-1.134689331054688,-0.6782989501953125
220594,-1.655776977539062,-1.079376220703125,-0.638031005859375
220595,-1.63885498046875,-1.014236450195312,-0.581512451171875
220596,-1.63885498046875,-1.014236450195312,-0.581512451171875
220597,-1.41070556640625,-0.7630615234375,-0.4666900634765625
220598,-1.241455078125,-0.5734405517578125,-0.4563140869140625
220599,-0.8640289306640625,-0.3370208740234375,-0.4312286376953125
220600,-0.8640289306640625,-0.3370208740234375,-0.4312286376953125
220601,-0.717132568359375,-0.316680908203125,-0.44195556640625
220602,-0.6091461181640625,-0.3442535400390625,-0.4479522705078125
220603,-0.4962921142578125,-0.3768463134765625,-0.4147796630859375
220604,-0.355224609375,-0.3416290283203125,-0.3336334228515625
220605,-0.198577880859375,-0.2363128662109375,-0.1966094970703125
220606,-0.032562255859375,-0.1023406982421875,-0.0457763671875
220607,0.121307373046875,0.00592041015625,0.10552978515625
220608,0.2663726806640625,0.0524749755859375,0.149688720703125
220609,0.358245849609375,0.029937744140625,0.0909423828125
220610,0.357330322265625,0.0198211669921875,0.0100250244140625
220611,0.320831298828125,-0.0485992431640625,-0.1527099609375
220612,0.320831298828125,-0.0485992431640625,-0.1527099609375
220613,0.2871856689453125,-0.1270751953125,-0.1793670654296875
220614,0.169708251953125,-0.20782470703125,-0.1439208984375
220615,0.0406036376953125,-0.313140869140625,-0.0895843505859375
220616,-0.1564178466796875,-0.450164794921875,-0.0589141845703125
220617,-0.4599456787109375,-0.6851654052734375,-0.1699981689453125
220618,-0.7185211181640625,-1.065353393554688,-0.269195556640625
220619,-0.8860931396484375,-1.508697509765625,-0.1550140380859375
220620,-0.9039764404296876,-1.874435424804688,-0.088897705078125
220621,-0.613433837890625,-1.871063232421875,-0.4500579833984375
220622,-0.0689849853515625,-1.604339599609375,-0.8031463623046875
220623,0.2859344482421875,-1.413742065429688,-0.8163604736328125
220624,0.38153076171875,-1.408065795898438,-0.8658447265625
220625,0.2556304931640625,-1.695556640625,-0.977142333984375
220626,-0.1555328369140625,-2.042022705078125,-0.8785247802734375
220627,-0.5731658935546875,-2.000198364257812,-0.5755462646484375
220628,-0.6914520263671875,-1.736968994140625,-0.3577117919921875
220629,-0.5927276611328125,-1.622161865234375,-0.2797393798828125
220630,-0.5283966064453125,-1.533279418945312,-0.2160491943359375
220631,-0.5200653076171875,-1.448684692382812,-0.2407989501953125
220632,-0.58642578125,-1.409439086914062,-0.3034820556640625
220633,-0.6548919677734375,-1.375396728515625,-0.30010986328125
220634,-0.6328277587890625,-1.263351440429688,-0.231903076171875
220635,-0.6328277587890625,-1.263351440429688,-0.231903076171875
220636,-0.51580810546875,-0.7827301025390625,0.001617431640625
220637,-0.51580810546875,-0.7827301025390625,0.001617431640625
220638,-0.44598388671875,-0.649505615234375,0.031463623046875
220639,-0.358734130859375,-0.5354156494140625,0.001251220703125
220640,-0.358734130859375,-0.5354156494140625,0.001251220703125
220641,-0.406982421875,-0.1767425537109375,-0.07708740234375
220642,-0.4320831298828125,-0.0064544677734375,-0.092193603515625
220643,-0.0912933349609375,0.158782958984375,-0.0562286376953125
220644,-0.0912933349609375,0.158782958984375,-0.0562286376953125
220645,0.156158447265625,0.14483642578125,-0.0737762451171875
220646,0.2346343994140625,0.167999267578125,-0.0445709228515625
220647,0.1644287109375,0.1934967041015625,0.095184326171875
220648,0.048797607421875,0.109130859375,0.202056884765625
220649,-0.0550384521484375,0.031829833984375,0.197906494140625
220650,-0.1467742919921875,-0.017852783203125,0.1042327880859375
220651,-0.42510986328125,-0.1709442138671875,-0.0858306884765625
220652,-0.619781494140625,-0.3197479248046875,-0.2297210693359375
220653,-0.619781494140625,-0.3197479248046875,-0.2297210693359375
220654,-0.8337554931640625,-0.4973907470703125,-0.4429168701171875
220655,-1.517410278320312,-0.6380767822265625,-0.739410400390625
220656,-1.517410278320312,-0.6380767822265625,-0.739410400390625
220657,-1.812347412109375,-0.793853759765625,-0.814727783203125
220658,-1.853805541992188,-1.039398193359375,-0.8222198486328125
220659,-1.540069580078125,-1.327621459960938,-0.6966552734375
220660,-1.190444946289062,-1.540679931640625,-0.4649810791015625
220661,-1.088516235351562,-1.600250244140625,-0.344940185546875
220662,-1.13201904296875,-1.61004638671875,-0.38262939453125
220663,-1.266281127929688,-1.634063720703125,-0.3994903564453125
220664,-1.384552001953125,-1.58697509765625,-0.469085693359375
220665,-1.425323486328125,-1.418670654296875,-0.5781707763671875
220666,-1.469985961914062,-1.262420654296875,-0.6753692626953125
220667,-1.516494750976562,-1.113372802734375,-0.6980438232421875
220668,-1.516494750976562,-1.113372802734375,-0.6980438232421875
220669,-1.457962036132812,-1.0203857421875,-0.632781982421875
220670,-1.3291015625,-0.910552978515625,-0.5102386474609375
220671,-1.3291015625,-0.910552978515625,-0.5102386474609375
220672,-1.027313232421875,-0.5987091064453125,-0.33905029296875
220673,-0.861175537109375,-0.451141357421875,-0.303619384765625
220674,-0.730377197265625,-0.344146728515625,-0.284027099609375
220675,-0.730377197265625,-0.344146728515625,-0.284027099609375
220676,-0.5064849853515625,-0.2106170654296875,-0.2546539306640625
220677,-0.3802947998046875,-0.1375579833984375,-0.1983489990234375
220678,-0.267608642578125,-0.0406036376953125,-0.085601806640625
220679,-0.16680908203125,0.0697784423828125,-0.0057373046875
220680,-0.081695556640625,0.1582489013671875,0.0145111083984375
220681,-0.0077056884765625,0.1949615478515625,0.0030975341796875
220682,0.0789337158203125,0.1795501708984375,-0.050994873046875
220683,0.0789337158203125,0.1795501708984375,-0.050994873046875
220684,0.1571044921875,-0.017303466796875,-0.2401885986328125
220685,0.1571044921875,-0.017303466796875,-0.2401885986328125
220686,0.209136962890625,-0.0205535888671875,-0.2898101806640625
220687,0.1691741943359375,-0.00543212890625,-0.2585296630859375
220688,0.02508544921875,-0.0333099365234375,-0.0981597900390625
220689,-0.1260528564453125,-0.161224365234375,0.051605224609375
220690,-0.2885894775390625,-0.415008544921875,0.0277252197265625
220691,-0.496368408203125,-0.7706756591796875,-0.0466766357421875
220692,-0.7403564453125,-1.217300415039062,-0.168365478515625
220693,-0.8956298828125,-1.69537353515625,-0.280609130859375
220694,-0.7958831787109375,-2.040435791015625,-0.5501251220703125
220695,-0.42364501953125,-2.025482177734375,-0.848236083984375
220696,0.0242462158203125,-1.812408447265625,-0.810302734375
220697,0.3045806884765625,-1.674911499023438,-0.7257232666015625
220698,0.175018310546875,-1.695510864257812,-0.651397705078125
220699,-0.2737579345703125,-1.80950927734375,-0.59515380859375
220700,-0.599517822265625,-1.74322509765625,-0.459228515625
220701,-0.6872711181640625,-1.606643676757812,-0.34454345703125
220702,-0.662322998046875,-1.542816162109375,-0.3192901611328125
220703,-0.5866546630859375,-1.517288208007812,-0.2883758544921875
220704,-0.5319671630859375,-1.485794067382812,-0.251708984375
220705,-0.493133544921875,-1.4453125,-0.274078369140625
220706,-0.47320556640625,-1.394256591796875,-0.264678955078125
220707,-0.4692230224609375,-1.262100219726562,-0.2138519287109375
220708,-0.435516357421875,-1.067092895507812,-0.1650390625
220709,-0.367095947265625,-0.879058837890625,-0.149261474609375
220710,-0.2888641357421875,-0.7150115966796875,-0.1482086181640625
220711,-0.19769287109375,-0.5778045654296875,-0.10467529296875
220712,-0.1215667724609375,-0.4632568359375,-0.063934326171875
220713,-0.152923583984375,-0.3499755859375,-0.0265045166015625
220714,-0.2790374755859375,-0.2029571533203125,0.027862548828125
220715,-0.33306884765625,-0.049346923828125,0.0238800048828125
220716,-0.272552490234375,0.036895751953125,-0.0320281982421875
220717,-0.1107635498046875,0.03936767578125,-0.0546722412109375
220718,-0.0928192138671875,0.030059814453125,-0.0462188720703125
220719,-0.0728912353515625,-0.1412811279296875,0.1102447509765625
220720,-0.0728912353515625,-0.1412811279296875,0.1102447509765625
220721,-0.04034423828125,-0.13427734375,0.0624847412109375
220722,-0.0417022705078125,-0.11492919921875,-0.0049896240234375
220723,-0.035858154296875,-0.149505615234375,-0.0599822998046875
220724,-0.0820770263671875,-0.20770263671875,-0.1234283447265625
220725,-0.2285003662109375,-0.295166015625,-0.2090911865234375
220726,-0.4251251220703125,-0.421356201171875,-0.3564910888671875
220727,-0.8646240234375,-0.598602294921875,-0.7210693359375
220728,-0.8646240234375,-0.598602294921875,-0.7210693359375
220729,-0.8646240234375,-0.598602294921875,-0.7210693359375
220730,-1.370681762695312,-0.7322540283203125,-0.680633544921875
220731,-1.661422729492188,-1.022857666015625,-0.4674530029296875
220732,-1.661422729492188,-1.022857666015625,-0.4674530029296875
220733,-1.597183227539062,-1.115478515625,-0.368408203125
220734,-1.593231201171875,-1.15087890625,-0.1666717529296875
220735,-1.77880859375,-1.2242431640625,-0.0389251708984375
220736,-1.77880859375,-1.2242431640625,-0.0389251708984375
220737,-1.806961059570312,-1.271072387695312,-0.15570068359375
220738,-1.775146484375,-1.251052856445312,-0.3272552490234375
220739,-1.761871337890625,-1.087356567382812,-0.6314849853515625
220740,-1.761871337890625,-1.087356567382812,-0.6314849853515625
220741,-1.715682983398438,-1.021896362304688,-0.6606903076171875
220742,-1.571151733398438,-0.9488525390625,-0.647796630859375
220743,-1.148773193359375,-0.7087860107421875,-0.4207305908203125
220744,-1.148773193359375,-0.7087860107421875,-0.4207305908203125
220745,-0.9625091552734376,-0.563201904296875,-0.333160400390625
220746,-0.79931640625,-0.45623779296875,-0.3238677978515625
220747,-0.583160400390625,-0.36517333984375,-0.3217926025390625
220748,-0.583160400390625,-0.36517333984375,-0.3217926025390625
220749,-0.4665985107421875,-0.3513031005859375,-0.3259429931640625
220750,-0.3554229736328125,-0.316802978515625,-0.3057708740234375
220751,-0.0549468994140625,-0.1416168212890625,-0.1365966796875
220752,-0.0549468994140625,-0.1416168212890625,-0.1365966796875
220753,0.097259521484375,-0.0153350830078125,-0.030364990234375
220754,0.1862640380859375,0.0845794677734375,0.046722412109375
220755,0.2190093994140625,0.11328125,0.0335235595703125
220756,0.2190093994140625,0.11328125,0.0335235595703125
220757,0.143646240234375,0.0756378173828125,-0.0633392333984375
220758,0.0741729736328125,-0.0020599365234375,-0.1643829345703125
220759,-0.0353851318359375,-0.17022705078125,-0.365753173828125
220760,-0.0353851318359375,-0.17022705078125,-0.365753173828125
220761,-0.120330810546875,-0.26092529296875,-0.3887176513671875
220762,-0.21685791015625,-0.38232421875,-0.344329833984375
220763,-0.3947296142578125,-0.5339508056640625,-0.2004547119140625
220764,-0.3947296142578125,-0.5339508056640625,-0.2004547119140625
220765,-0.7169647216796875,-0.994293212890625,-0.123748779296875
220766,-0.6924896240234375,-1.30645751953125,-0.038726806640625
220767,-0.0125732421875,-1.569076538085938,-0.420989990234375
220768,-0.0125732421875,-1.569076538085938,-0.420989990234375
220769,0.390869140625,-1.561843872070312,-0.666412353515625
220770,0.542572021484375,-1.584854125976562,-0.7700653076171875
220771,0.3758697509765625,-1.823165893554688,-0.8492584228515625
220772,0.3758697509765625,-1.823165893554688,-0.8492584228515625
220773,-0.0829315185546875,-1.774444580078125,-0.739288330078125
220774,-0.500823974609375,-1.7034912109375,-0.5413665771484375
220775,-0.78240966796875,-1.682159423828125,-0.358062744140625
220776,-0.78240966796875,-1.682159423828125,-0.358062744140625
220777,-0.7368927001953125,-1.616241455078125,-0.2747039794921875
220778,-0.6399688720703125,-1.50238037109375,-0.2818450927734375
220779,-0.571533203125,-1.267608642578125,-0.29949951171875
220780,-0.571533203125,-1.267608642578125,-0.29949951171875
220781,-0.5886383056640625,-1.171035766601562,-0.2820587158203125
220782,-0.600006103515625,-0.8784942626953125,-0.2870635986328125
220783,-0.56243896484375,-0.7228851318359375,-0.230712890625
220784,-0.56243896484375,-0.7228851318359375,-0.230712890625
220785,-0.51141357421875,-0.5494384765625,-0.140594482421875
220786,-0.4615936279296875,-0.3699188232421875,-0.05218505859375
220787,-0.4293212890625,-0.1869659423828125,0.0090179443359375
220788,-0.430084228515625,0.0057220458984375,0.0685882568359375
220789,-0.4178009033203125,0.172271728515625,0.13189697265625
220790,-0.3167724609375,0.2386474609375,0.1630706787109375
220791,-0.1779022216796875,0.221038818359375,0.135528564453125
220792,-0.1779022216796875,0.221038818359375,0.135528564453125
220793,0.0267791748046875,0.0493011474609375,0.0550079345703125
220794,0.0286865234375,-0.053985595703125,0.023834228515625
220795,0.055206298828125,-0.1411590576171875,-0.0925140380859375
220796,0.055206298828125,-0.1411590576171875,-0.0925140380859375
220797,-0.031097412109375,-0.2346343994140625,-0.201507568359375
220798,-0.242095947265625,-0.3771209716796875,-0.313079833984375
220799,-0.7277374267578125,-0.655670166015625,-0.639892578125
220800,-0.7277374267578125,-0.655670166015625,-0.639892578125
220801,-0.905426025390625,-0.7982940673828125,-0.7937774658203125
220802,-1.038726806640625,-0.9462432861328124,-0.8423004150390625
220803,-1.225433349609375,-1.099380493164062,-0.5222930908203125
220804,-1.153854370117188,-1.1265869140625,-0.3692169189453125
220805,-1.153854370117188,-1.1265869140625,-0.3692169189453125
220806,-1.091171264648438,-1.15167236328125,-0.2121124267578125
220807,-1.2337646484375,-1.358047485351562,-0.3576507568359375
220808,-1.2337646484375,-1.358047485351562,-0.3576507568359375
220809,-1.406173706054688,-1.419891357421875,-0.407928466796875
220810,-1.4881591796875,-1.439010620117188,-0.4303436279296875
220811,-1.474212646484375,-1.370773315429688,-0.5698394775390625
220812,-1.474212646484375,-1.370773315429688,-0.5698394775390625
220813,-1.611648559570312,-1.102401733398438,-0.8223114013671875
220814,-1.688095092773438,-1.003631591796875,-0.8091888427734375
220815,-1.57171630859375,-0.79669189453125,-0.56976318359375
220816,-1.57171630859375,-0.79669189453125,-0.56976318359375
220817,-1.409194946289062,-0.65460205078125,-0.4331512451171875
220818,-1.220291137695312,-0.4832000732421875,-0.3353118896484375
220819,-0.9152679443359376,-0.2587738037109375,-0.252532958984375
220820,-0.806976318359375,-0.2159881591796875,-0.2791290283203125
220821,-0.806976318359375,-0.2159881591796875,-0.2791290283203125
220822,-0.686981201171875,-0.2040252685546875,-0.2955322265625
220823,-0.4152984619140625,-0.127777099609375,-0.14276123046875
220824,-0.2673492431640625,-0.0449371337890625,-0.0283050537109375
220825,-0.2673492431640625,-0.0449371337890625,-0.0283050537109375
220826,-0.119781494140625,0.0504302978515625,0.0670318603515625
220827,0.1306915283203125,0.1472930908203125,0.1516571044921875
220828,0.1306915283203125,0.1472930908203125,0.1516571044921875
220829,0.1760406494140625,0.14410400390625,0.1093902587890625
220830,0.15374755859375,0.0862579345703125,0.0318145751953125
220831,0.022613525390625,-0.143310546875,-0.2888336181640625
220832,0.022613525390625,-0.143310546875,-0.2888336181640625
220833,-0.0578460693359375,-0.25244140625,-0.413970947265625
220834,-0.1676483154296875,-0.36474609375,-0.498199462890625
220835,-0.1676483154296875,-0.36474609375,-0.498199462890625
220836,-0.453887939453125,-0.650360107421875,-0.47210693359375
220837,-0.572662353515625,-0.8319549560546875,-0.3203582763671875
220838,-0.5549468994140625,-1.06182861328125,-0.2569732666015625
220839,-0.4142303466796875,-1.30572509765625,-0.32122802734375
220840,-0.211181640625,-1.48358154296875,-0.3328399658203125
220841,0.1090850830078125,-1.5377197265625,-0.364837646484375
220842,0.42425537109375,-1.525909423828125,-0.4911346435546875
220843,0.4784698486328125,-1.777359008789062,-0.900543212890625
220844,0.4784698486328125,-1.777359008789062,-0.900543212890625
220845,0.263885498046875,-1.930160522460938,-0.927581787109375
220846,-0.073333740234375,-1.899871826171875,-0.7392730712890625
220847,-0.626739501953125,-1.586990356445312,-0.4443359375
220848,-0.626739501953125,-1.586990356445312,-0.4443359375
220849,-0.6587677001953125,-1.55047607421875,-0.3548126220703125
220850,-0.5988616943359375,-1.49542236328125,-0.272613525390625
220851,-0.53228759765625,-1.286819458007812,-0.302978515625
220852,-0.53228759765625,-1.286819458007812,-0.302978515625
220853,-0.5776519775390625,-1.216201782226562,-0.30291748046875
220854,-0.6450958251953125,-1.133636474609375,-0.3244476318359375
220855,-0.6208953857421875,-0.822601318359375,-0.29022216796875
220856,-0.6208953857421875,-0.822601318359375,-0.29022216796875
220857,-0.56744384765625,-0.6267547607421875,-0.191314697265625
220858,-0.5078582763671875,-0.4268951416015625,-0.1089935302734375
220859,-0.586212158203125,-0.061431884765625,0.047515869140625
220860,-0.586212158203125,-0.061431884765625,0.047515869140625
220861,-0.70086669921875,0.074066162109375,0.1226959228515625
220862,-0.676025390625,0.136871337890625,0.1458740234375
220863,-0.4974212646484375,0.09332275390625,0.13067626953125
220864,-0.2686309814453125,0.0102691650390625,0.099609375
220865,-0.076934814453125,-0.081207275390625,0.1334381103515625
220866,0.0697021484375,-0.16064453125,0.1976776123046875
220867,0.1949920654296875,-0.224212646484375,0.1209564208984375
220868,0.1949920654296875,-0.224212646484375,0.1209564208984375
220869,0.1485137939453125,-0.235076904296875,0.005157470703125
220870,0.07855224609375,-0.2658538818359375,-0.1382598876953125
220871,-0.1964569091796875,-0.3410186767578125,-0.4050140380859375
220872,-0.1964569091796875,-0.3410186767578125,-0.4050140380859375
220873,-0.4594573974609375,-0.36328125,-0.5069732666015625
220874,-0.68133544921875,-0.4154052734375,-0.5894317626953125
220875,-0.9112396240234376,-0.4890594482421875,-0.6561431884765625
220876,-0.9112396240234376,-0.4890594482421875,-0.6561431884765625
220877,-1.579925537109375,-0.7099609375,-0.651824951171875
220878,-1.811416625976562,-0.89373779296875,-0.5773468017578125
220879,-1.611785888671875,-1.031982421875,-0.0817718505859375
220880,-1.611785888671875,-1.031982421875,-0.0817718505859375
220881,-1.571823120117188,-0.9241943359375,0.068359375
220882,-1.671096801757812,-0.912139892578125,0.0776214599609375
220883,-1.767471313476562,-1.021987915039062,-0.317413330078125
220884,-1.767471313476562,-1.021987915039062,-0.317413330078125
220885,-1.763336181640625,-0.94378662109375,-0.5756072998046875
220886,-1.743865966796875,-0.904266357421875,-0.73675537109375
220887,-1.766571044921875,-0.8877105712890625,-0.659027099609375
220888,-1.766571044921875,-0.8877105712890625,-0.659027099609375
220889,-1.673309326171875,-0.8555450439453125,-0.4359588623046875
220890,-1.514328002929688,-0.770263671875,-0.2578125
220891,-1.118438720703125,-0.5469818115234375,-0.1685943603515625
220892,-0.941162109375,-0.4551239013671875,-0.228240966796875
220893,-0.941162109375,-0.4551239013671875,-0.228240966796875
220894,-0.799713134765625,-0.38885498046875,-0.299072265625
220895,-0.49896240234375,-0.329193115234375,-0.3748321533203125
220896,-0.49896240234375,-0.329193115234375,-0.3748321533203125
220897,-0.298370361328125,-0.2834320068359375,-0.2834930419921875
220898,-0.098968505859375,-0.1887969970703125,-0.1257476806640625
220899,0.156005859375,0.1371917724609375,0.132110595703125
220900,0.156005859375,0.1371917724609375,0.132110595703125
220901,0.193572998046875,0.2277679443359375,0.1490631103515625
220902,0.2227935791015625,0.2317962646484375,0.093719482421875
220903,0.1389923095703125,0.0595855712890625,-0.151275634765625
220904,0.1389923095703125,0.0595855712890625,-0.151275634765625
220905,0.0896453857421875,-0.0691986083984375,-0.3171844482421875
220906,0.0584259033203125,-0.1952056884765625,-0.479736328125
220907,-0.0831451416015625,-0.5128021240234375,-0.649993896484375
220908,-0.0831451416015625,-0.5128021240234375,-0.649993896484375
220909,-0.1849822998046875,-0.672607421875,-0.5587615966796875
220910,-0.3899383544921875,-0.822998046875,-0.3633270263671875
220911,-0.829681396484375,-1.275665283203125,0.0662841796875
220912,-0.829681396484375,-1.275665283203125,0.0662841796875
220913,-0.7505035400390625,-1.481201171875,0.1070404052734375
220914,-0.489349365234375,-1.554962158203125,-0.023895263671875
220915,-0.048553466796875,-1.5697021484375,-0.34283447265625
220916,-0.048553466796875,-1.5697021484375,-0.34283447265625
220917,0.4017333984375,-1.627685546875,-0.8226165771484375
220918,0.39569091796875,-1.898590087890625,-0.923858642578125
220919,0.2874298095703125,-2.14031982421875,-0.8670806884765625
220920,0.2874298095703125,-2.14031982421875,-0.8670806884765625
220921,-0.335845947265625,-1.741195678710938,-0.2736358642578125
220922,-0.385498046875,-1.627212524414062,-0.2331085205078125
220923,-0.4794158935546875,-1.486175537109375,-0.1927337646484375
220924,-0.4794158935546875,-1.486175537109375,-0.1927337646484375
220925,-0.5294647216796875,-1.34820556640625,-0.2220001220703125
220926,-0.59942626953125,-1.20318603515625,-0.2245941162109375
220927,-0.7024688720703125,-1.072921752929688,-0.18560791015625
220928,-0.7311553955078125,-0.9110870361328124,-0.17095947265625
220929,-0.7170257568359375,-0.751739501953125,-0.164642333984375
220930,-0.677825927734375,-0.5841522216796875,-0.1336822509765625
220931,-0.6246185302734375,-0.399810791015625,-0.098724365234375
220932,-0.5794677734375,-0.23138427734375,-0.0565643310546875
220933,-0.5798492431640625,-0.0753021240234375,0.0025482177734375
220934,-0.6751556396484375,0.07513427734375,0.088714599609375
220935,-0.690704345703125,0.17510986328125,0.1469573974609375
220936,-0.690704345703125,0.17510986328125,0.1469573974609375
220937,-0.320465087890625,0.1927947998046875,0.1654815673828125
220938,-0.089324951171875,0.10675048828125,0.0697021484375
220939,0.0622100830078125,-0.00128173828125,0.061676025390625
220940,0.0622100830078125,-0.00128173828125,0.061676025390625
220941,0.2429656982421875,-0.1689605712890625,0.0697174072265625
220942,0.2614288330078125,-0.1929168701171875,-0.0339813232421875
220943,0.0140838623046875,-0.339569091796875,-0.3884735107421875
220944,0.0140838623046875,-0.339569091796875,-0.3884735107421875
220945,-0.2801666259765625,-0.4298858642578125,-0.588531494140625
220946,-0.537353515625,-0.5095672607421875,-0.7768707275390625
220947,-0.7928619384765625,-0.597198486328125,-0.94952392578125
220948,-0.7928619384765625,-0.597198486328125,-0.94952392578125
220949,-1.38580322265625,-0.6497344970703125,-0.8168792724609375
220950,-1.667083740234375,-0.689788818359375,-0.4673309326171875
220951,-1.763198852539062,-0.752410888671875,-0.1966094970703125
220952,-1.763198852539062,-0.752410888671875,-0.1966094970703125
220953,-1.5592041015625,-0.82550048828125,0.0911102294921875
220954,-1.521575927734375,-0.919403076171875,0.0930633544921875
220955,-1.5321044921875,-1.008575439453125,-0.1056671142578125
220956,-1.5321044921875,-1.008575439453125,-0.1056671142578125
220957,-1.689285278320312,-1.093765258789062,-0.7143707275390625
220958,-1.737838745117188,-1.089889526367188,-0.8997344970703125
220959,-1.74981689453125,-1.081085205078125,-0.981048583984375
220960,-1.74981689453125,-1.081085205078125,-0.981048583984375
220961,-1.716644287109375,-0.998260498046875,-0.5735931396484375
220962,-1.559951782226562,-0.8947296142578125,-0.3601531982421875
220963,-1.345687866210938,-0.765411376953125,-0.2792205810546875
220964,-1.345687866210938,-0.765411376953125,-0.2792205810546875
220965,-0.9485626220703124,-0.5532379150390625,-0.29351806640625
220966,-0.8122100830078125,-0.472320556640625,-0.3128509521484375
220967,-0.701568603515625,-0.397369384765625,-0.2905426025390625
220968,-0.701568603515625,-0.397369384765625,-0.2905426025390625
220969,-0.4625091552734375,-0.2777557373046875,-0.1793060302734375
220970,-0.32147216796875,-0.172882080078125,-0.0348358154296875
220971,-0.1671905517578125,-0.032745361328125,0.074005126953125
220972,-0.1671905517578125,-0.032745361328125,0.074005126953125
220973,0.1151123046875,0.1612091064453125,0.1282501220703125
220974,0.2487640380859375,0.148193359375,0.0608062744140625
220975,0.2736358642578125,0.0197906494140625,-0.0808563232421875
220976,0.2736358642578125,0.0197906494140625,-0.0808563232421875
220977,0.233551025390625,-0.0970306396484375,-0.2129669189453125
220978,0.24212646484375,-0.223602294921875,-0.3676300048828125
220979,0.235137939453125,-0.3526763916015625,-0.5425262451171875
220980,0.235137939453125,-0.3526763916015625,-0.5425262451171875
220981,0.0694427490234375,-0.745086669921875,-0.56719970703125
220982,-0.0802001953125,-0.942108154296875,-0.4325408935546875
220983,-0.3857574462890625,-1.1075439453125,-0.2787933349609375
220984,-0.3857574462890625,-1.1075439453125,-0.2787933349609375
220985,-0.8731536865234375,-1.663238525390625,-0.075653076171875
220986,-0.722625732421875,-1.731475830078125,-0.1220703125
220987,-0.32476806640625,-1.621078491210938,-0.369720458984375
220988,-0.32476806640625,-1.621078491210938,-0.369720458984375
220989,0.330535888671875,-1.55157470703125,-0.768157958984375
220990,0.255889892578125,-1.795425415039062,-0.9557647705078124
220991,0.1641082763671875,-2.09783935546875,-0.9576873779296876
220992,0.1641082763671875,-2.09783935546875,-0.9576873779296876
220993,-0.3007049560546875,-1.843475341796875,-0.43328857421875
220994,-0.3608551025390625,-1.651718139648438,-0.3117828369140625
220995,-0.363250732421875,-1.524871826171875,-0.2547454833984375
220996,-0.363250732421875,-1.524871826171875,-0.2547454833984375
220997,-0.3817596435546875,-1.2470703125,-0.3126373291015625
220998,-0.420745849609375,-1.10284423828125,-0.340179443359375
220999,-0.50372314453125,-0.976806640625,-0.3202972412109375
221000,-0.50372314453125,-0.976806640625,-0.3202972412109375
221001,-0.5786590576171875,-0.76336669921875,-0.2884368896484375
221002,-0.5955352783203125,-0.605499267578125,-0.226806640625
221003,-0.5452728271484375,-0.2324676513671875,-0.0963287353515625
221004,-0.5452728271484375,-0.2324676513671875,-0.0963287353515625
221005,-0.5338592529296875,-0.049346923828125,-0.0820770263671875
221006,-0.5459136962890625,0.10345458984375,0.0036773681640625
221007,-0.567169189453125,0.167724609375,0.123077392578125
221008,-0.567169189453125,0.167724609375,0.123077392578125
221009,-0.50860595703125,0.171722412109375,0.309539794921875
221010,-0.33782958984375,0.1258087158203125,0.2925567626953125
221011,-0.1687164306640625,0.042999267578125,0.233551025390625
221012,-0.1687164306640625,0.042999267578125,0.233551025390625
221013,0.05633544921875,-0.10614013671875,0.1239013671875
221014,0.057342529296875,-0.1363372802734375,0.010772705078125
221015,0.0052337646484375,-0.169708251953125,-0.179046630859375
221016,0.0052337646484375,-0.169708251953125,-0.179046630859375
221017,-0.38458251953125,-0.3168487548828125,-0.5291290283203125
221018,-0.614532470703125,-0.4038543701171875,-0.6926422119140625
221019,-0.8956146240234375,-0.6879425048828125,-0.9826812744140624
221020,-0.8956146240234375,-0.6879425048828125,-0.9826812744140624
221021,-1.020782470703125,-0.83575439453125,-0.936798095703125
221022,-1.157470703125,-0.9723358154296876,-0.746795654296875
221023,-1.13232421875,-1.162506103515625,-0.292816162109375
221024,-1.13232421875,-1.162506103515625,-0.292816162109375
221025,-1.23388671875,-1.159988403320312,-0.0538482666015625
221026,-1.428558349609375,-1.238906860351562,-0.0037841796875
221027,-1.59783935546875,-1.34429931640625,-0.0084686279296875
221028,-1.751571655273438,-1.263107299804688,-0.2861175537109375
221029,-1.751571655273438,-1.263107299804688,-0.2861175537109375
221030,-1.754547119140625,-1.15728759765625,-0.6139068603515625
221031,-1.756683349609375,-1.115127563476562,-0.887908935546875
221032,-1.815475463867188,-1.073501586914062,-0.9801025390625
221033,-1.79937744140625,-0.9974212646484376,-0.859619140625
221034,-1.657302856445312,-0.8501434326171875,-0.626190185546875
221035,-1.457382202148438,-0.65582275390625,-0.4346923828125
221036,-1.457382202148438,-0.65582275390625,-0.4346923828125
221037,-0.9688262939453124,-0.3875274658203125,-0.2930755615234375
221038,-0.79840087890625,-0.32098388671875,-0.2786712646484375
221039,-0.68798828125,-0.2902679443359375,-0.268768310546875
221040,-0.68798828125,-0.2902679443359375,-0.268768310546875
221041,-0.4687347412109375,-0.31890869140625,-0.272430419921875
221042,-0.3486785888671875,-0.27825927734375,-0.202239990234375
221043,-0.087738037109375,0.02301025390625,0.0661468505859375
221044,-0.087738037109375,0.02301025390625,0.0661468505859375
221045,0.0272064208984375,0.1759490966796875,0.1894073486328125
221046,0.1259613037109375,0.243804931640625,0.2122344970703125
221047,0.203094482421875,0.2439727783203125,0.1271514892578125
221048,0.203094482421875,0.2439727783203125,0.1271514892578125
221049,0.215057373046875,0.001983642578125,-0.228302001953125
221050,0.1659088134765625,-0.174468994140625,-0.4492645263671875
221051,0.0800018310546875,-0.329559326171875,-0.6354217529296875
221052,0.0800018310546875,-0.329559326171875,-0.6354217529296875
221053,-0.1582794189453125,-0.7068634033203125,-0.6826629638671875
221054,-0.2836761474609375,-0.86517333984375,-0.3499755859375
221055,-0.4422454833984375,-0.9582061767578124,0.0527496337890625
221056,-0.5928497314453125,-1.135818481445312,0.1309356689453125
221057,-0.58544921875,-1.376922607421875,-0.04779052734375
221058,-0.3842010498046875,-1.563644409179688,-0.1025238037109375
221059,-0.0605926513671875,-1.592269897460938,-0.240447998046875
221060,-0.0605926513671875,-1.592269897460938,-0.240447998046875
221061,0.1753082275390625,-1.585968017578125,-0.8165435791015625
221062,0.212432861328125,-1.86077880859375,-0.9458465576171876
221063,0.241668701171875,-2.0654296875,-0.947540283203125
221064,0.241668701171875,-2.0654296875,-0.947540283203125
221065,-0.0740814208984375,-1.678909301757812,-0.4576416015625
221066,-0.1203155517578125,-1.5372314453125,-0.373443603515625
221067,-0.1097869873046875,-1.4805908203125,-0.3232574462890625
221068,-0.1097869873046875,-1.4805908203125,-0.3232574462890625
221069,-0.13592529296875,-1.394393920898438,-0.3574981689453125
221070,-0.1942901611328125,-1.309036254882812,-0.35272216796875
221071,-0.3113250732421875,-1.181838989257812,-0.3231658935546875
221072,-0.3113250732421875,-1.181838989257812,-0.3231658935546875
221073,-0.6533355712890625,-0.896697998046875,-0.1897735595703125
221074,-0.7624664306640625,-0.7738037109375,-0.186859130859375
221075,-0.8091583251953125,-0.53125,-0.194305419921875
221076,-0.8091583251953125,-0.53125,-0.194305419921875
221077,-0.7551727294921875,-0.4116363525390625,-0.1382904052734375
221078,-0.6851806640625,-0.2633819580078125,-0.0529327392578125
221079,-0.655487060546875,-0.0726165771484375,0.081146240234375
221080,-0.655487060546875,-0.0726165771484375,0.081146240234375
221081,-0.516845703125,0.30218505859375,0.2748870849609375
221082,-0.3619384765625,0.359832763671875,0.266448974609375
221083,-0.20172119140625,0.3388671875,0.24053955078125
221084,-0.0781707763671875,0.2742919921875,0.1626434326171875
221085,0.032470703125,0.1501007080078125,0.0657196044921875
221086,0.080841064453125,0.0063323974609375,-0.0037689208984375
221087,0.0516357421875,-0.098419189453125,-0.0540313720703125
221088,0.0516357421875,-0.098419189453125,-0.0540313720703125
221089,-0.063720703125,-0.3123931884765625,-0.307342529296875
221090,-0.19854736328125,-0.4057159423828125,-0.5147857666015625
221091,-0.5832366943359375,-0.626190185546875,-0.910919189453125
221092,-0.5832366943359375,-0.626190185546875,-0.910919189453125
221093,-0.667449951171875,-0.763092041015625,-1.0179443359375
221094,-0.743927001953125,-0.93231201171875,-0.91790771484375
221095,-0.894317626953125,-1.106765747070312,-0.5937957763671875
221096,-0.894317626953125,-1.106765747070312,-0.5937957763671875
221097,-1.20068359375,-1.346435546875,-0.18658447265625
221098,-1.348983764648438,-1.471817016601562,-0.115264892578125
221099,-1.67608642578125,-1.560928344726562,-0.1765594482421875
221100,-1.67608642578125,-1.560928344726562,-0.1765594482421875
221101,-1.743255615234375,-1.45989990234375,-0.3024444580078125
221102,-1.711013793945312,-1.37237548828125,-0.46044921875
221103,-1.664627075195312,-1.249969482421875,-0.6303558349609375
221104,-1.665618896484375,-1.137664794921875,-0.7320556640625
221105,-1.738815307617188,-1.019912719726562,-0.730255126953125
221106,-1.813613891601562,-0.904693603515625,-0.6653900146484375
221107,-1.835433959960938,-0.8021240234375,-0.53875732421875
221108,-1.835433959960938,-0.8021240234375,-0.53875732421875
221109,-1.617050170898438,-0.5191497802734375,-0.2818450927734375
221110,-1.380279541015625,-0.3683624267578125,-0.25299072265625
221111,-1.140411376953125,-0.25946044921875,-0.2270355224609375
221112,-1.140411376953125,-0.25946044921875,-0.2270355224609375
221113,-0.753570556640625,-0.2507171630859375,-0.31097412109375
221114,-0.59765625,-0.2781524658203125,-0.3052978515625
221115,-0.2252197265625,-0.211517333984375,-0.1287994384765625
221116,-0.2252197265625,-0.211517333984375,-0.1287994384765625
221117,-0.05169677734375,-0.097412109375,-0.014801025390625
221118,0.07733154296875,0.027130126953125,0.080169677734375
221119,0.175537109375,0.1024627685546875,0.1159210205078125
221120,0.175537109375,0.1024627685546875,0.1159210205078125
221121,0.254638671875,0.0916290283203125,0.032012939453125
221122,0.180511474609375,0.007965087890625,-0.08416748046875
221123,0.1021270751953125,-0.1215667724609375,-0.251556396484375
221124,0.1021270751953125,-0.1215667724609375,-0.251556396484375
221125,0.0022430419921875,-0.3668670654296875,-0.45428466796875
221126,-0.0931854248046875,-0.471771240234375,-0.473114013671875
221127,-0.20892333984375,-0.5646820068359375,-0.4246063232421875
221128,-0.5391845703125,-0.784393310546875,-0.07135009765625
221129,-0.5391845703125,-0.784393310546875,-0.07135009765625
221130,-0.7119598388671875,-0.9611663818359376,-0.1317596435546875
221131,-0.693572998046875,-1.249252319335938,-0.32757568359375
221132,-0.4401092529296875,-1.50665283203125,-0.3708343505859375
221133,0.016510009765625,-1.553237915039062,-0.2997283935546875
221134,0.419342041015625,-1.463623046875,-0.5084228515625
221135,0.6101226806640625,-1.713302612304688,-0.90118408203125
221136,0.6101226806640625,-1.713302612304688,-0.90118408203125
221137,0.414886474609375,-1.914718627929688,-0.8674468994140625
221138,0.01873779296875,-1.902587890625,-0.6660919189453125
221139,-0.3571624755859375,-1.702713012695312,-0.4630889892578125
221140,-0.5251007080078125,-1.553314208984375,-0.3982391357421875
221141,-0.520538330078125,-1.483367919921875,-0.3533782958984375
221142,-0.4183197021484375,-1.394821166992188,-0.347808837890625
221143,-0.3453216552734375,-1.289398193359375,-0.3586578369140625
221144,-0.3368072509765625,-1.203231811523438,-0.37939453125
221145,-0.3909454345703125,-1.122299194335938,-0.3696136474609375
221146,-0.485107421875,-1.044479370117188,-0.334716796875
221147,-0.560882568359375,-0.9577484130859376,-0.3573150634765625
221148,-0.560882568359375,-0.9577484130859376,-0.3573150634765625
221149,-0.648101806640625,-0.6948699951171875,-0.2922821044921875
221150,-0.6502532958984375,-0.533172607421875,-0.1983489990234375
221151,-0.627227783203125,-0.360443115234375,-0.1361083984375
221152,-0.627227783203125,-0.360443115234375,-0.1361083984375
221153,-0.7415008544921875,-0.0108795166015625,0.0452728271484375
221154,-0.8270416259765625,0.17681884765625,0.174560546875
221155,-0.794036865234375,0.282623291015625,0.2519073486328125
221156,-0.794036865234375,0.282623291015625,0.2519073486328125
221157,-0.323211669921875,0.203338623046875,0.1987457275390625
221158,-0.11737060546875,0.0589141845703125,0.1656036376953125
221159,0.0131988525390625,-0.1120758056640625,0.1515960693359375
221160,0.0131988525390625,-0.1120758056640625,0.1515960693359375
221161,0.093353271484375,-0.1809234619140625,-0.0001678466796875
221162,0.051971435546875,-0.21710205078125,-0.1786651611328125
221163,-0.183868408203125,-0.459991455078125,-0.4639434814453125
221164,-0.183868408203125,-0.459991455078125,-0.4639434814453125
221165,-0.3631744384765625,-0.5799102783203125,-0.5905609130859375
221166,-0.550872802734375,-0.69842529296875,-0.789581298828125
221167,-0.6814422607421875,-0.823974609375,-0.9700927734375
221168,-0.6814422607421875,-0.823974609375,-0.9700927734375
221169,-0.935943603515625,-0.973724365234375,-0.807525634765625
221170,-1.15594482421875,-1.057098388671875,-0.4145660400390625
221171,-1.323104858398438,-1.152450561523438,-0.107879638671875
221172,-1.323104858398438,-1.152450561523438,-0.107879638671875
221173,-1.5609130859375,-1.1962890625,0.0792694091796875
221174,-1.677719116210938,-1.237808227539062,0.014617919921875
221175,-1.757598876953125,-1.22210693359375,-0.395843505859375
221176,-1.757598876953125,-1.22210693359375,-0.395843505859375
221177,-1.693603515625,-1.1241455078125,-0.5391387939453125
221178,-1.644119262695312,-1.00518798828125,-0.6362457275390625
221179,-1.645034790039062,-0.9032745361328124,-0.70245361328125
221180,-1.645034790039062,-0.9032745361328124,-0.70245361328125
221181,-1.764022827148438,-0.6757659912109375,-0.586090087890625
221182,-1.7218017578125,-0.52801513671875,-0.408660888671875
221183,-1.580429077148438,-0.3624114990234375,-0.25244140625
221184,-1.580429077148438,-0.3624114990234375,-0.25244140625
221185,-1.141738891601562,-0.1059722900390625,-0.189666748046875
221186,-0.9337615966796876,-0.0605010986328125,-0.224212646484375
221187,-0.786346435546875,-0.0804443359375,-0.2922821044921875
221188,-0.786346435546875,-0.0804443359375,-0.2922821044921875
221189,-0.561065673828125,-0.247802734375,-0.373992919921875
221190,-0.390106201171875,-0.2950439453125,-0.315521240234375
221191,-0.209442138671875,-0.24951171875,-0.2131500244140625
221192,-0.058380126953125,-0.137115478515625,-0.0885467529296875
221193,0.0544586181640625,-0.0213470458984375,0.0380401611328125
221194,0.1653594970703125,0.0511016845703125,0.12969970703125
221195,0.272186279296875,0.0828399658203125,0.1484832763671875
221196,0.272186279296875,0.0828399658203125,0.1484832763671875
221197,0.2827606201171875,0.0426177978515625,-0.105072021484375
221198,0.21148681640625,-0.0608978271484375,-0.2948455810546875
221199,0.1444244384765625,-0.201934814453125,-0.455352783203125
221200,0.1444244384765625,-0.201934814453125,-0.455352783203125
221201,-0.192535400390625,-0.516082763671875,-0.473876953125
221202,-0.437286376953125,-0.690460205078125,-0.3511810302734375
221203,-0.6978759765625,-0.85137939453125,-0.1967620849609375
221204,-0.6978759765625,-0.85137939453125,-0.1967620849609375
221205,-1.09991455078125,-1.422103881835938,-0.0400238037109375
221206,-0.9445343017578124,-1.66302490234375,-0.0725860595703125
221207,-0.402374267578125,-1.729385375976562,-0.3441619873046875
221208,0.3129119873046875,-1.692520141601562,-0.6915130615234375
221209,0.72979736328125,-1.647567749023438,-0.8342132568359375
221210,0.875274658203125,-1.808883666992188,-0.880859375
221211,0.7679901123046875,-2.069000244140625,-0.8701171875
221212,0.7679901123046875,-2.069000244140625,-0.8701171875
221213,-0.2783050537109375,-1.738967895507812,-0.445892333984375
221214,-0.5020751953125,-1.655853271484375,-0.3118896484375
221215,-0.5952911376953125,-1.654373168945312,-0.252410888671875
221216,-0.6256866455078125,-1.583786010742188,-0.2532958984375
221217,-0.6179351806640625,-1.451583862304688,-0.3208465576171875
221218,-0.5804595947265625,-1.29150390625,-0.4373016357421875
221219,-0.5879669189453125,-1.147125244140625,-0.39984130859375
221220,-0.5879669189453125,-1.147125244140625,-0.39984130859375
221221,-0.5193328857421875,-0.90631103515625,-0.21636962890625
221222,-0.4673309326171875,-0.7396087646484375,-0.2216033935546875
221223,-0.4396820068359375,-0.5824432373046875,-0.22283935546875
221224,-0.4396820068359375,-0.5824432373046875,-0.22283935546875
221225,-0.455169677734375,-0.2972869873046875,-0.1262054443359375
221226,-0.58984375,-0.1583709716796875,-0.0284271240234375
221227,-0.948333740234375,0.12091064453125,0.1351776123046875
221228,-0.948333740234375,0.12091064453125,0.1351776123046875
221229,-0.86419677734375,0.180908203125,0.1616668701171875
221230,-0.6070709228515625,0.1694183349609375,0.1642608642578125
221231,-0.3543853759765625,0.1096649169921875,0.1326751708984375
221232,-0.1697540283203125,0.0529632568359375,0.14630126953125
221233,-0.0359649658203125,0.027252197265625,0.1414031982421875
221234,0.04205322265625,-0.0032501220703125,0.069000244140625
221235,0.044921875,-0.0434417724609375,-0.0048675537109375
221236,0.044921875,-0.0434417724609375,-0.0048675537109375
221237,-0.0925750732421875,-0.1509552001953125,-0.2282867431640625
221238,-0.1871185302734375,-0.2009735107421875,-0.350250244140625
221239,-0.3536529541015625,-0.2532501220703125,-0.4561614990234375
221240,-0.3536529541015625,-0.2532501220703125,-0.4561614990234375
221241,-0.70440673828125,-0.3928070068359375,-0.84954833984375
221242,-0.86517333984375,-0.4828948974609375,-1.087265014648438
221243,-1.430999755859375,-0.8583526611328125,-0.6751861572265625
221244,-1.430999755859375,-0.8583526611328125,-0.6751861572265625
221245,-1.552825927734375,-1.053512573242188,-0.2801666259765625
221246,-1.465805053710938,-1.131668090820312,0.0185699462890625
221247,-1.315673828125,-1.07562255859375,0.062530517578125
221248,-1.315673828125,-1.07562255859375,0.062530517578125
221249,-1.587936401367188,-1.11822509765625,-0.3656158447265625
221250,-1.737289428710938,-1.197418212890625,-0.529052734375
221251,-1.714447021484375,-1.188995361328125,-0.632415771484375
221252,-1.714447021484375,-1.188995361328125,-0.632415771484375
221253,-1.617630004882812,-1.062347412109375,-0.7421875
221254,-1.667205810546875,-0.9833221435546876,-0.765869140625
221255,-1.448226928710938,-0.744964599609375,-0.7593231201171875
221256,-1.448226928710938,-0.744964599609375,-0.7593231201171875
221257,-1.26617431640625,-0.5728607177734375,-0.7516326904296875
221258,-1.081741333007812,-0.4693145751953125,-0.7097625732421875
221259,-0.8552093505859375,-0.441925048828125,-0.58477783203125
221260,-0.8552093505859375,-0.441925048828125,-0.58477783203125
221261,-0.4884490966796875,-0.4088897705078125,-0.3853302001953125
221262,-0.4348907470703125,-0.34783935546875,-0.286102294921875
221263,-0.4012603759765625,-0.2709503173828125,-0.2100372314453125
221264,-0.359527587890625,-0.192962646484375,-0.152313232421875
221265,-0.3032073974609375,-0.1318206787109375,-0.076324462890625
221266,-0.23065185546875,-0.0911102294921875,-0.05084228515625
221267,-0.14349365234375,-0.056488037109375,-0.0243377685546875
221268,-0.14349365234375,-0.056488037109375,-0.0243377685546875
221269,0.0583648681640625,-0.0476837158203125,0.0196075439453125
221270,0.1178131103515625,-0.0485076904296875,-0.0136566162109375
221271,0.0997467041015625,-0.0424957275390625,-0.0745697021484375
221272,0.0997467041015625,-0.0424957275390625,-0.0745697021484375
221273,-0.0740966796875,-0.11968994140625,-0.0086669921875
221274,-0.16558837890625,-0.189178466796875,0.0272064208984375
221275,-0.259918212890625,-0.28570556640625,0.0591888427734375
221276,-0.259918212890625,-0.28570556640625,0.0591888427734375
221277,-0.5433807373046875,-0.7684478759765625,0.0944976806640625
221278,-0.70416259765625,-1.063629150390625,0.0243072509765625
221279,-0.7850341796875,-1.296676635742188,-0.1789703369140625
221280,-0.709564208984375,-1.555740356445312,-0.4941253662109375
221281,-0.2598876953125,-1.654693603515625,-0.7427825927734375
221282,0.404754638671875,-1.608306884765625,-1.140838623046875
221283,0.887725830078125,-1.506057739257812,-1.216293334960938
221284,0.887725830078125,-1.506057739257812,-1.216293334960938
221285,0.600128173828125,-1.919677734375,-0.9751739501953124
221286,-0.189300537109375,-2.067398071289062,-0.769073486328125
221287,-0.79779052734375,-1.905685424804688,-0.449951171875
221288,-1.029861450195312,-1.709335327148438,-0.2971954345703125
221289,-0.8797760009765625,-1.600250244140625,-0.2260894775390625
221290,-0.5233001708984375,-1.447998046875,-0.2171173095703125
221291,-0.288665771484375,-1.285552978515625,-0.2533721923828125
221292,-0.288665771484375,-1.285552978515625,-0.2533721923828125
221293,-0.4833526611328125,-1.203018188476562,-0.284149169921875
221294,-0.6052093505859375,-1.205322265625,-0.27618408203125
221295,-0.65802001953125,-1.092254638671875,-0.201751708984375
221296,-0.65802001953125,-1.092254638671875,-0.201751708984375
221297,-0.6586761474609375,-0.6942901611328125,0.089019775390625
221298,-0.6524810791015625,-0.4928436279296875,0.134674072265625
221299,-0.6378021240234375,-0.2632293701171875,0.16943359375
221300,-0.6378021240234375,-0.2632293701171875,0.16943359375
221301,-0.4229888916015625,0.2409210205078125,0.0900115966796875
221302,-0.1712188720703125,0.3492584228515625,-0.0315093994140625
221303,0.1468048095703125,0.2301177978515625,-0.1712799072265625
221304,0.4131317138671875,0.0969085693359375,-0.2484130859375
221305,0.4747161865234375,0.218597412109375,-0.2245025634765625
221306,0.3364410400390625,0.3106231689453125,-0.135955810546875
221307,0.1243133544921875,0.24163818359375,-0.0675506591796875
221308,-0.060546875,0.0732574462890625,-0.0691680908203125
221309,-0.2846221923828125,-0.0961761474609375,-0.143218994140625
221310,-0.479339599609375,-0.228271484375,-0.3037567138671875
221311,-0.630035400390625,-0.4053192138671875,-0.4967803955078125
221312,-0.630035400390625,-0.4053192138671875,-0.4967803955078125
221313,-0.906829833984375,-0.8725433349609375,-0.895477294921875
221314,-0.9769287109375,-1.049789428710938,-1.0025634765625
221315,-1.090530395507812,-1.21142578125,-0.92156982421875
221316,-1.090530395507812,-1.21142578125,-0.92156982421875
221317,-1.10882568359375,-1.349090576171875,-0.0881500244140625
221318,-1.0003662109375,-1.380218505859375,0.238037109375
221319,-1.480484008789062,-1.508056640625,-0.1475372314453125
221320,-1.480484008789062,-1.508056640625,-0.1475372314453125
221321,-1.582656860351562,-1.522659301757812,-0.4922943115234375
221322,-1.420989990234375,-1.560714721679688,-0.741729736328125
221323,-1.1636962890625,-1.60931396484375,-0.852447509765625
221324,-1.1636962890625,-1.60931396484375,-0.852447509765625
221325,-1.15789794921875,-1.246368408203125,-0.898956298828125
221326,-1.254608154296875,-1.072235107421875,-0.7801971435546875
221327,-1.4658203125,-0.710205078125,-0.55810546875
221328,-1.4658203125,-0.710205078125,-0.55810546875
221329,-1.510513305664062,-0.5074005126953125,-0.3969268798828125
221330,-1.4603271484375,-0.336517333984375,-0.2479248046875
221331,-1.341781616210938,-0.20556640625,-0.1695709228515625
221332,-1.183120727539062,-0.1312103271484375,-0.1435394287109375
221333,-1.000564575195312,-0.1187591552734375,-0.1409149169921875
221334,-0.7956390380859375,-0.105499267578125,-0.1253509521484375
221335,-0.6005706787109375,-0.064849853515625,-0.1031951904296875
221336,-0.6005706787109375,-0.064849853515625,-0.1031951904296875
221337,-0.27734375,0.05078125,-0.0491943359375
221338,-0.1029205322265625,0.0702972412109375,0.0036773681640625
221339,0.2060699462890625,0.087860107421875,-0.14306640625
221340,0.2060699462890625,0.087860107421875,-0.14306640625
221341,0.2609710693359375,0.064453125,-0.2459716796875
221342,0.2615509033203125,-0.0029144287109375,-0.3397369384765625
221343,0.2073822021484375,-0.093353271484375,-0.4304656982421875
221344,0.119476318359375,-0.171966552734375,-0.493408203125
221345,0.0561065673828125,-0.2231292724609375,-0.5279083251953125
221346,0.003021240234375,-0.298492431640625,-0.46173095703125
221347,-0.0704498291015625,-0.432891845703125,-0.3097381591796875
221348,-0.0704498291015625,-0.432891845703125,-0.3097381591796875
221349,-0.3463287353515625,-0.8638458251953125,-0.2757720947265625
221350,-0.4998931884765625,-1.2008056640625,-0.321136474609375
221351,-0.4140472412109375,-1.855987548828125,-0.473602294921875
221352,-0.4140472412109375,-1.855987548828125,-0.473602294921875
221353,-0.2078399658203125,-1.904830932617188,-0.7178497314453125
221354,-0.107879638671875,-1.817398071289062,-0.8204345703125
221355,-0.0498504638671875,-1.649703979492188,-0.867523193359375
221356,-0.1309661865234375,-1.43756103515625,-0.8566741943359375
221357,-0.378692626953125,-1.291000366210938,-0.696868896484375
221358,-0.634429931640625,-1.239303588867188,-0.4741058349609375
221359,-0.8189544677734375,-1.2659912109375,-0.2600555419921875
221360,-0.8189544677734375,-1.2659912109375,-0.2600555419921875
221361,-1.109085083007812,-1.369110107421875,-0.1521759033203125
221362,-1.14727783203125,-1.323867797851562,-0.1477813720703125
221363,-1.057098388671875,-1.236099243164062,-0.191864013671875
221364,-1.057098388671875,-1.236099243164062,-0.191864013671875
221365,-0.7059783935546875,-0.9864959716796876,-0.2625579833984375
221366,-0.45477294921875,-0.8465576171875,-0.2872314453125
221367,-0.233123779296875,-0.6107177734375,-0.1891937255859375
221368,-0.233123779296875,-0.6107177734375,-0.1891937255859375
221369,-0.54364013671875,0.09368896484375,0.218780517578125
221370,-0.580596923828125,0.1277618408203125,0.17822265625
221371,-0.3683319091796875,-0.09991455078125,-0.0347900390625
221372,0.0911102294921875,-0.351409912109375,-0.1820526123046875
221373,0.5485076904296875,-0.39715576171875,0.01953125
221374,0.59832763671875,0.1106414794921875,0.022003173828125
221375,0.59832763671875,0.1106414794921875,0.022003173828125
221376,0.22186279296875,0.178436279296875,-0.2059173583984375
221377,-0.064544677734375,0.1294097900390625,-0.2867279052734375
221378,-0.4063720703125,0.009613037109375,-0.2374725341796875
221379,-0.8157958984375,-0.1621551513671875,-0.23834228515625
221380,-0.8157958984375,-0.1621551513671875,-0.23834228515625
221381,-1.654403686523438,-0.273406982421875,-0.5504913330078125
221382,-1.79364013671875,-0.423980712890625,-0.704925537109375
221383,-1.614822387695312,-0.5630950927734375,-0.779541015625
221384,-1.350479125976562,-0.6495208740234375,-0.7415924072265625
221385,-1.10260009765625,-0.7390289306640625,-0.6983184814453125
221386,-0.876678466796875,-0.8895416259765625,-0.850341796875
221387,-0.790557861328125,-1.14764404296875,-1.034591674804688
221388,-0.9515533447265624,-1.419235229492188,-0.954803466796875
221389,-1.175018310546875,-1.541046142578125,-0.80419921875
221390,-1.3525390625,-1.510833740234375,-0.59661865234375
221391,-1.533843994140625,-1.47296142578125,-0.42242431640625
221392,-1.533843994140625,-1.47296142578125,-0.42242431640625
221393,-1.702774047851562,-1.716766357421875,-0.4467010498046875
221394,-1.560379028320312,-1.677536010742188,-0.357391357421875
221395,-1.255569458007812,-1.414779663085938,-0.3075103759765625
221396,-0.9419097900390624,-1.064178466796875,-0.319610595703125
221397,-0.7333831787109375,-0.7080078125,-0.2961273193359375
221398,-0.63323974609375,-0.38616943359375,-0.164306640625
221399,-0.6277008056640625,-0.09429931640625,0.07305908203125
221400,-0.6277008056640625,-0.09429931640625,0.07305908203125
221401,-0.591522216796875,0.440032958984375,0.4855194091796875
221402,-0.4905853271484375,0.6938629150390625,0.54937744140625
221403,-0.28131103515625,0.80560302734375,0.41265869140625
221404,-0.28131103515625,0.80560302734375,0.41265869140625
221405,0.1608123779296875,0.3966827392578125,-0.263214111328125
221406,0.17315673828125,0.13568115234375,-0.6326751708984375
221407,0.030059814453125,-0.1110076904296875,-0.961883544921875
221408,0.030059814453125,-0.1110076904296875,-0.961883544921875
221409,0.141326904296875,-0.198089599609375,-0.8643951416015625
221410,0.28851318359375,-0.292144775390625,-0.5848846435546875
221411,0.378143310546875,-0.3661346435546875,-0.098907470703125
221412,0.378143310546875,-0.3661346435546875,-0.098907470703125
221413,0.213714599609375,-0.8009796142578125,0.336639404296875
221414,-0.1145172119140625,-1.100173950195312,0.451995849609375
221415,-0.6271209716796875,-1.405975341796875,0.5048828125
221416,-1.309555053710938,-1.7393798828125,0.289459228515625
221417,-1.947250366210938,-2.113876342773438,-0.28570556640625
221418,-2.06256103515625,-2.356826782226562,-0.8551025390625
221419,-1.34722900390625,-2.20465087890625,-0.9624481201171876
221420,-0.3354034423828125,-1.996658325195312,-0.986968994140625
221421,0.230926513671875,-1.865646362304688,-0.8556365966796875
221422,0.2828826904296875,-1.848785400390625,-0.553436279296875
221423,0.3374176025390625,-1.764892578125,-0.415496826171875
221424,0.453033447265625,-1.650436401367188,-0.422760009765625
221425,0.41156005859375,-1.535110473632812,-0.39642333984375
221426,0.190185546875,-1.387863159179688,-0.3732757568359375
221427,-0.0535430908203125,-1.2432861328125,-0.3500518798828125
221428,-0.0535430908203125,-1.2432861328125,-0.3500518798828125
221429,-0.3644256591796875,-1.003662109375,-0.221588134765625
221430,-0.350311279296875,-0.8935394287109375,-0.1013946533203125
221431,-0.3316650390625,-0.7527618408203125,-0.0137481689453125
221432,-0.3922271728515625,-0.5686798095703125,0.0114288330078125
221433,-0.7171630859375,-0.337310791015625,0.0584259033203125
221434,-1.211456298828125,-0.0900726318359375,0.12152099609375
221435,-1.427719116210938,0.1135711669921875,0.11444091796875
221436,-1.427719116210938,0.1135711669921875,0.11444091796875
221437,-0.7328338623046875,0.130279541015625,0.14154052734375
221438,-0.1441192626953125,0.0625457763671875,0.3103790283203125
221439,0.208465576171875,0.0703582763671875,0.477142333984375
221440,0.208465576171875,0.0703582763671875,0.477142333984375
221441,0.212158203125,0.0778045654296875,0.382110595703125
221442,0.1685638427734375,0.0712738037109375,0.1021270751953125
221443,0.08221435546875,-0.011077880859375,-0.241119384765625
221444,-0.0691070556640625,-0.1137542724609375,-0.5348968505859375
221445,-0.3759002685546875,-0.175079345703125,-0.6798553466796875
221446,-0.7739410400390625,-0.3048248291015625,-0.849822998046875
221447,-1.162368774414062,-0.4199981689453125,-1.01763916015625
221448,-1.162368774414062,-0.4199981689453125,-1.01763916015625
221449,-1.813079833984375,-0.5179595947265625,-0.8414154052734375
221450,-1.758712768554688,-0.540618896484375,-0.4828643798828125
221451,-1.181900024414062,-0.7911834716796875,-0.054595947265625
221452,-1.181900024414062,-0.7911834716796875,-0.054595947265625
221453,-1.024871826171875,-0.9452972412109376,-0.14691162109375
221454,-1.095947265625,-1.094955444335938,-0.25335693359375
221455,-1.368515014648438,-1.179092407226562,-0.412689208984375
221456,-1.368515014648438,-1.179092407226562,-0.412689208984375
221457,-1.605789184570312,-1.352767944335938,-0.7670440673828125
221458,-1.530715942382812,-1.423812866210938,-0.7395782470703125
221459,-1.41796875,-1.369140625,-0.587615966796875
221460,-1.30108642578125,-1.2938232421875,-0.4290313720703125
221461,-1.172531127929688,-1.197021484375,-0.3192138671875
221462,-0.9986419677734376,-1.069000244140625,-0.288299560546875
221463,-0.8210296630859375,-0.918792724609375,-0.32574462890625
221464,-0.8210296630859375,-0.918792724609375,-0.32574462890625
221465,-0.55792236328125,-0.7244415283203125,-0.345428466796875
221466,-0.47314453125,-0.57623291015625,-0.16058349609375
221467,-0.2068634033203125,-0.1529541015625,0.1848602294921875
221468,-0.2068634033203125,-0.1529541015625,0.1848602294921875
221469,-0.028839111328125,0.050140380859375,0.19464111328125
221470,0.14434814453125,0.189849853515625,0.1561737060546875
221471,0.28192138671875,0.211212158203125,0.0421905517578125
221472,0.28192138671875,0.211212158203125,0.0421905517578125
221473,0.3582000732421875,-0.0093994140625,-0.383544921875
221474,0.2977447509765625,-0.189788818359375,-0.631622314453125
221475,0.2016448974609375,-0.3581085205078125,-0.8108062744140625
221476,0.10223388671875,-0.5306549072265625,-0.943939208984375
221477,0.0257720947265625,-0.7628936767578125,-0.8468017578125
221478,-0.0714569091796875,-0.96142578125,-0.446624755859375
221479,-0.35601806640625,-1.055145263671875,0.0185546875
221480,-0.6996917724609375,-1.129592895507812,0.261871337890625
221481,-0.8354034423828125,-1.23675537109375,0.3139190673828125
221482,-0.8172760009765625,-1.343612670898438,0.294586181640625
221483,-0.6317138671875,-1.40838623046875,-0.0399017333984375
221484,-0.6317138671875,-1.40838623046875,-0.0399017333984375
221485,-0.349517822265625,-1.601715087890625,-0.9759521484375
221486,-0.412750244140625,-1.903717041015625,-1.202484130859375
221487,-0.245819091796875,-2.19287109375,-1.135391235351562
221488,-0.3190460205078125,-1.883071899414062,-0.772918701171875
221489,-0.4404449462890625,-1.507644653320312,-0.4063720703125
221490,-0.37969970703125,-1.3824462890625,-0.156646728515625
221491,-0.3087310791015625,-1.240097045898438,-0.091064453125
221492,-0.2641143798828125,-1.092056274414062,-0.17034912109375
221493,-0.254852294921875,-0.9767303466796876,-0.26263427734375
221494,-0.30914306640625,-0.8943634033203125,-0.236297607421875
221495,-0.3686676025390625,-0.7949371337890625,-0.15643310546875
221496,-0.3947906494140625,-0.647857666015625,-0.128448486328125
221497,-0.4456329345703125,-0.470855712890625,-0.1347198486328125
221498,-0.553558349609375,-0.3407440185546875,-0.123016357421875
221499,-0.710205078125,-0.232635498046875,-0.0848541259765625
221500,-0.710205078125,-0.232635498046875,-0.0848541259765625
221501,-1.007156372070312,-0.0312957763671875,0.069183349609375
221502,-0.945648193359375,0.0119476318359375,0.0750579833984375
221503,-0.6376190185546875,0.001922607421875,0.06689453125
221504,-0.2853851318359375,-0.06878662109375,0.1068572998046875
221505,-0.050567626953125,-0.1528167724609375,0.2677764892578125
221506,0.08514404296875,-0.12823486328125,0.336578369140625
221507,0.122406005859375,-0.09527587890625,0.2794036865234375
221508,0.122406005859375,-0.09527587890625,0.2794036865234375
221509,0.11676025390625,-0.1075439453125,-0.085693359375
221510,0.014495849609375,-0.150390625,-0.3020782470703125
221511,-0.1885528564453125,-0.2156219482421875,-0.5542144775390625
221512,-0.413055419921875,-0.303955078125,-0.817779541015625
221513,-0.7248077392578125,-0.42706298828125,-1.027099609375
221514,-1.04583740234375,-0.5133209228515625,-1.101028442382812
221515,-1.280746459960938,-0.575958251953125,-1.065536499023438
221516,-1.280746459960938,-0.575958251953125,-1.065536499023438
221517,-1.607467651367188,-0.639373779296875,-0.4776611328125
221518,-1.505050659179688,-0.7230682373046875,-0.0415802001953125
221519,-1.345016479492188,-0.8752288818359375,0.0845794677734375
221520,-1.345016479492188,-0.8752288818359375,0.0845794677734375
221521,-1.435317993164062,-1.290924072265625,-0.33050537109375
221522,-1.68414306640625,-1.460220336914062,-0.686767578125
221523,-1.68414306640625,-1.460220336914062,-0.686767578125
221524,-1.7034912109375,-1.4967041015625,-0.8231048583984375
221525,-1.670135498046875,-1.373886108398438,-0.8193817138671875
221526,-1.587677001953125,-1.194610595703125,-0.68499755859375
221527,-1.347366333007812,-0.972808837890625,-0.420562744140625
221528,-1.347366333007812,-0.972808837890625,-0.420562744140625
221529,-1.141464233398438,-0.8723297119140625,-0.3966217041015625
221530,-0.9511260986328124,-0.7892608642578125,-0.3912506103515625
221531,-0.810821533203125,-0.7252197265625,-0.384979248046875
221532,-0.691680908203125,-0.6655731201171875,-0.336334228515625
221533,-0.5675048828125,-0.56866455078125,-0.240081787109375
221534,-0.4115142822265625,-0.4305877685546875,-0.1293487548828125
221535,-0.2370452880859375,-0.279022216796875,-0.0060577392578125
221536,-0.2370452880859375,-0.279022216796875,-0.0060577392578125
221537,0.0087738037109375,0.014678955078125,0.14422607421875
221538,0.0914764404296875,0.1113128662109375,0.149566650390625
221539,0.2367401123046875,0.1609039306640625,-0.010589599609375
221540,0.2367401123046875,0.1609039306640625,-0.010589599609375
221541,0.2491455078125,0.10125732421875,-0.126678466796875
221542,0.2305755615234375,-0.0135955810546875,-0.2736968994140625
221543,0.1840057373046875,-0.121307373046875,-0.4284820556640625
221544,0.1392059326171875,-0.233673095703125,-0.563751220703125
221545,0.1055450439453125,-0.387298583984375,-0.667694091796875
221546,-0.3659820556640625,-1.037277221679688,-0.039276123046875
221547,-0.3659820556640625,-1.037277221679688,-0.039276123046875
221548,-0.3659820556640625,-1.037277221679688,-0.039276123046875
221549,-0.5407257080078125,-1.311279296875,0.0170135498046875
221550,-0.59228515625,-1.542083740234375,0.0270538330078125
221551,-0.5574188232421875,-1.657150268554688,-0.00482177734375
221552,-0.3971405029296875,-1.5963134765625,-0.2492523193359375
221553,-0.2102813720703125,-1.495742797851562,-0.5841064453125
221554,-0.0390625,-1.506515502929688,-0.8701019287109375
221555,0.1282196044921875,-1.70916748046875,-1.100906372070312
221556,0.2406768798828125,-1.978927612304688,-1.09454345703125
221557,0.1105194091796875,-1.995254516601562,-0.8797607421875
221558,-0.114013671875,-1.711639404296875,-0.5518035888671875
221559,-0.1968841552734375,-1.551177978515625,-0.359344482421875
221560,-0.23516845703125,-1.456985473632812,-0.308013916015625
221561,-0.28765869140625,-1.363296508789062,-0.357818603515625
221562,-0.36376953125,-1.294815063476562,-0.448822021484375
221563,-0.4221038818359375,-1.252120971679688,-0.4154205322265625
221564,-0.491668701171875,-1.181976318359375,-0.2907257080078125
221565,-0.5425872802734375,-1.008132934570312,-0.1390380859375
221566,-0.5660552978515625,-0.81512451171875,-0.0541839599609375
221567,-0.59466552734375,-0.5918426513671875,-0.0291900634765625
221568,-0.6466522216796875,-0.3818206787109375,-0.0299224853515625
221569,-0.710479736328125,-0.2158050537109375,-0.018890380859375
221570,-0.8182525634765625,0.0956268310546875,0.109649658203125
221571,-0.8182525634765625,0.0956268310546875,0.109649658203125
221572,-0.6625823974609375,0.215545654296875,0.0978851318359375
221573,-0.3621063232421875,0.2427978515625,0.0624542236328125
221574,-0.0802459716796875,0.1929473876953125,0.0002288818359375
221575,0.054779052734375,0.1038055419921875,0.008148193359375
221576,0.108154296875,-0.0154571533203125,0.1757049560546875
221577,0.0923919677734375,-0.034515380859375,0.2272796630859375
221578,0.01153564453125,-0.0270843505859375,0.153564453125
221579,-0.1674041748046875,-0.1126708984375,-0.1618804931640625
221580,-0.1674041748046875,-0.1126708984375,-0.1618804931640625
221581,-0.3976287841796875,-0.2225341796875,-0.33087158203125
221582,-0.707366943359375,-0.3514404296875,-0.5058746337890625
221583,-0.9264068603515624,-0.47833251953125,-0.692413330078125
221584,-1.182052612304688,-0.535888671875,-0.7693939208984375
221585,-1.475494384765625,-0.551544189453125,-0.730072021484375
221586,-2.018020629882812,-0.7322845458984375,-0.4884796142578125
221587,-2.018020629882812,-0.7322845458984375,-0.4884796142578125
221588,-1.955337524414062,-0.8446502685546875,-0.4125213623046875
221589,-1.544342041015625,-0.9745330810546876,-0.3749237060546875
221590,-1.171646118164062,-1.08612060546875,-0.35968017578125
221591,-1.043426513671875,-1.19403076171875,-0.4044036865234375
221592,-1.043426513671875,-1.19403076171875,-0.4044036865234375
221593,-1.2305908203125,-1.311492919921875,-0.6104736328125
221594,-1.3839111328125,-1.35382080078125,-0.788330078125
221595,-1.474227905273438,-1.360031127929688,-0.883056640625
221596,-1.485183715820312,-1.291793823242188,-0.888671875
221597,-1.466140747070312,-1.208251953125,-0.7900390625
221598,-1.403701782226562,-1.1318359375,-0.6080780029296875
221599,-1.255615234375,-1.030838012695312,-0.4653472900390625
221600,-1.08087158203125,-0.8878021240234375,-0.4063262939453125
221601,-0.9340972900390624,-0.74420166015625,-0.378570556640625
221602,-0.8349609375,-0.620452880859375,-0.3945770263671875
221603,-0.6546478271484375,-0.4289703369140625,-0.38433837890625
221604,-0.6546478271484375,-0.4289703369140625,-0.38433837890625
221605,-0.5344390869140625,-0.2979278564453125,-0.258026123046875
221606,-0.41021728515625,-0.1354217529296875,-0.0753631591796875
221607,-0.27471923828125,0.04608154296875,0.08197021484375
221608,-0.132080078125,0.21038818359375,0.1810150146484375
221609,0.0098876953125,0.3209228515625,0.2149810791015625
221610,0.1534423828125,0.338531494140625,0.1770172119140625
221611,0.2655792236328125,0.2737579345703125,0.047882080078125
221612,0.29315185546875,0.1361083984375,-0.121826171875
221613,0.2650299072265625,-0.001922607421875,-0.29254150390625
221614,0.242950439453125,-0.1038970947265625,-0.4541473388671875
221615,0.2190399169921875,-0.22369384765625,-0.5974578857421875
221616,0.1531219482421875,-0.3911590576171875,-0.6949462890625
221617,0.124847412109375,-0.5837249755859375,-0.6338348388671875
221618,0.0474090576171875,-0.7771148681640625,-0.358062744140625
221619,-0.2289276123046875,-0.9477691650390624,-0.063079833984375
221620,-0.455108642578125,-1.222198486328125,-0.0045013427734375
221621,-0.59619140625,-1.472061157226562,-0.00482177734375
221622,-0.51953125,-1.629226684570312,-0.310577392578125
221623,-0.51953125,-1.629226684570312,-0.310577392578125
221624,-0.238037109375,-1.6085205078125,-0.6834259033203125
221625,-0.0426788330078125,-1.676223754882812,-0.914886474609375
221626,0.0906524658203125,-1.906600952148438,-1.045074462890625
221627,0.0868682861328125,-2.1798095703125,-0.9880218505859376
221628,-0.197479248046875,-2.077346801757812,-0.7553253173828125
221629,-0.4210357666015625,-1.721298217773438,-0.43841552734375
221630,-0.4895477294921875,-1.576217651367188,-0.2605438232421875
221631,-0.5193634033203125,-1.515060424804688,-0.21630859375
221632,-0.517059326171875,-1.428329467773438,-0.2531585693359375
221633,-0.463623046875,-1.302536010742188,-0.342864990234375
221634,-0.432281494140625,-1.09906005859375,-0.2703094482421875
221635,-0.432281494140625,-1.09906005859375,-0.2703094482421875
221636,-0.410186767578125,-0.9475555419921876,-0.2289886474609375
221637,-0.4237823486328125,-0.7495574951171875,-0.2555389404296875
221638,-0.4242095947265625,-0.471466064453125,-0.1569976806640625
221639,-0.4242095947265625,-0.471466064453125,-0.1569976806640625
221640,-0.483489990234375,-0.346710205078125,-0.076202392578125
221641,-0.61968994140625,-0.22021484375,-0.010223388671875
221642,-0.605743408203125,0.0379638671875,-0.025543212890625
221643,-0.605743408203125,0.0379638671875,-0.025543212890625
221644,-0.3091888427734375,0.0992431640625,-0.033477783203125
221645,-0.05963134765625,0.0757293701171875,-0.007110595703125
221646,0.122161865234375,-0.0844879150390625,0.27581787109375
221647,0.122161865234375,-0.0844879150390625,0.27581787109375
221648,0.122161865234375,-0.0844879150390625,0.27581787109375
221649,0.0150604248046875,-0.0733184814453125,0.2357025146484375
221650,0.0150604248046875,-0.0733184814453125,0.2357025146484375
221651,-0.4083709716796875,-0.148956298828125,-0.2443084716796875
221652,-0.4083709716796875,-0.148956298828125,-0.2443084716796875
221653,-0.6790924072265625,-0.21942138671875,-0.400543212890625
221654,-0.8776702880859375,-0.308380126953125,-0.5079345703125
221655,-0.9888458251953124,-0.388397216796875,-0.53863525390625
221656,-1.1510009765625,-0.4622039794921875,-0.4761505126953125
221657,-1.33856201171875,-0.5368499755859375,-0.3988494873046875
221658,-1.572921752929688,-0.6380157470703125,-0.4576263427734375
221659,-1.72259521484375,-0.9136505126953124,-0.82940673828125
221660,-1.72259521484375,-0.9136505126953124,-0.82940673828125
221661,-1.447372436523438,-1.058364868164062,-0.57440185546875
221662,-1.214935302734375,-1.176345825195312,-0.282135009765625
221663,-1.155410766601562,-1.251846313476562,-0.2156524658203125
221664,-1.23211669921875,-1.27728271484375,-0.3199310302734375
221665,-1.358489990234375,-1.284622192382812,-0.5317535400390625
221666,-1.590530395507812,-1.16204833984375,-0.8625030517578125
221667,-1.590530395507812,-1.16204833984375,-0.8625030517578125
221668,-1.637054443359375,-1.13739013671875,-0.8649139404296875
221669,-1.618438720703125,-1.101226806640625,-0.7584228515625
221670,-1.484420776367188,-1.009429931640625,-0.591583251953125
221671,-1.257095336914062,-0.8438720703125,-0.4674072265625
221672,-1.00140380859375,-0.67474365234375,-0.39984130859375
221673,-0.796142578125,-0.5548248291015625,-0.395233154296875
221674,-0.6587982177734375,-0.504608154296875,-0.415435791015625
221675,-0.572021484375,-0.5098724365234375,-0.428955078125
221676,-0.478851318359375,-0.499359130859375,-0.3893890380859375
221677,-0.349945068359375,-0.42254638671875,-0.293670654296875
221678,-0.1934967041015625,-0.292724609375,-0.143280029296875
221679,-0.05230712890625,-0.1355438232421875,0.0231170654296875
221680,0.0543975830078125,0.030670166015625,0.1447601318359375
221681,0.13348388671875,0.164642333984375,0.1982574462890625
221682,0.1936798095703125,0.2368927001953125,0.1771087646484375
221683,0.2242431640625,0.2319793701171875,0.0887298583984375
221684,0.208160400390625,0.156707763671875,-0.037384033203125
221685,0.15399169921875,0.0329437255859375,-0.2208099365234375
221686,0.15399169921875,0.0329437255859375,-0.2208099365234375
221687,-0.0137786865234375,-0.273529052734375,-0.5166015625
221688,-0.1593170166015625,-0.4508514404296875,-0.5606689453125
221689,-0.3075103759765625,-0.642974853515625,-0.4824066162109375
221690,-0.517852783203125,-0.867034912109375,-0.2618865966796875
221691,-0.693756103515625,-1.151779174804688,-0.1150665283203125
221692,-0.7777862548828125,-1.491592407226562,-0.0700531005859375
221693,-0.7556915283203125,-1.760467529296875,-0.036834716796875
221694,-0.580780029296875,-1.803192138671875,-0.097808837890625
221695,-0.1918182373046875,-1.641143798828125,-0.2899017333984375
221696,0.2240142822265625,-1.504119873046875,-0.505859375
221697,0.500701904296875,-1.498123168945312,-0.8003692626953125
221698,0.596160888671875,-1.680770874023438,-0.9894561767578124
221699,0.4723358154296875,-1.917800903320312,-0.9647064208984376
221700,0.108428955078125,-1.878097534179688,-0.75982666015625
221701,-0.2587127685546875,-1.640899658203125,-0.4527587890625
221702,-0.3930816650390625,-1.526885986328125,-0.352203369140625
221703,-0.4554290771484375,-1.525909423828125,-0.2902069091796875
221704,-0.5121307373046875,-1.524398803710938,-0.2542266845703125
221705,-0.5415191650390625,-1.471603393554688,-0.2838897705078125
221706,-0.549774169921875,-1.343994140625,-0.3050994873046875
221707,-0.573638916015625,-1.20526123046875,-0.2952117919921875
221708,-0.5864410400390625,-1.030166625976562,-0.28155517578125
221709,-0.5506591796875,-0.834625244140625,-0.230072021484375
221710,-0.4638214111328125,-0.67462158203125,-0.1304168701171875
221711,-0.386962890625,-0.504791259765625,-0.0238800048828125
221712,-0.387542724609375,-0.34423828125,0.0066375732421875
221713,-0.4870147705078125,-0.181640625,-0.0008087158203125
221714,-0.6380462646484375,0.004791259765625,-0.004150390625
221715,-0.6303558349609375,0.1731414794921875,-0.0150909423828125
221716,-0.3966827392578125,0.2627410888671875,-0.0507659912109375
221717,-0.069793701171875,0.2248992919921875,-0.0649871826171875
221718,0.11688232421875,0.1660919189453125,-0.054351806640625
221719,0.1002655029296875,0.0915374755859375,0.0439910888671875
221720,0.0171051025390625,-0.01068115234375,0.2206878662109375
221721,-0.085693359375,-0.007110595703125,0.2502288818359375
221722,-0.2714080810546875,-0.08050537109375,0.018463134765625
221723,-0.2714080810546875,-0.08050537109375,0.018463134765625
221724,-0.4444732666015625,-0.1948089599609375,-0.13494873046875
221725,-0.6732330322265625,-0.291259765625,-0.2531585693359375
221726,-0.8657684326171875,-0.368377685546875,-0.347930908203125
221727,-1.18865966796875,-0.4517059326171875,-0.4587860107421875
221728,-1.18865966796875,-0.4517059326171875,-0.4587860107421875
221729,-1.4306640625,-0.506195068359375,-0.4694366455078125
221730,-1.7896728515625,-0.808197021484375,-0.5688629150390625
221731,-1.7896728515625,-0.808197021484375,-0.5688629150390625
221732,-1.595611572265625,-1.009857177734375,-0.6488189697265625
221733,-1.218536376953125,-1.160140991210938,-0.5012054443359375
221734,-0.9492034912109376,-1.200973510742188,-0.252960205078125
221735,-0.9492034912109376,-1.200973510742188,-0.252960205078125
221736,-1.085052490234375,-1.211883544921875,-0.3724822998046875
221737,-1.323516845703125,-1.256362915039062,-0.5787811279296875
221738,-1.323516845703125,-1.256362915039062,-0.5787811279296875
221739,-1.644699096679688,-1.194656372070312,-0.8358612060546875
221740,-1.644699096679688,-1.194656372070312,-0.8358612060546875
221741,-1.656204223632812,-1.108154296875,-0.6832275390625
221742,-1.570037841796875,-1.018264770507812,-0.5066070556640625
221743,-1.130203247070312,-0.727203369140625,-0.3382568359375
221744,-1.130203247070312,-0.727203369140625,-0.3382568359375
221745,-0.9158935546875,-0.5756378173828125,-0.350341796875
221746,-0.7606964111328125,-0.4754638671875,-0.4141998291015625
221747,-0.7606964111328125,-0.4754638671875,-0.4141998291015625
221748,-0.5466156005859375,-0.4199981689453125,-0.45062255859375
221749,-0.3990936279296875,-0.3627777099609375,-0.3503265380859375
221750,-0.3990936279296875,-0.3627777099609375,-0.3503265380859375
221751,-0.10986328125,-0.0998077392578125,-0.013824462890625
221752,-0.0180206298828125,0.082275390625,0.13018798828125
221753,0.061309814453125,0.209686279296875,0.2171630859375
221754,0.1374969482421875,0.261199951171875,0.2264556884765625
221755,0.191650390625,0.268585205078125,0.141754150390625
221756,0.205108642578125,0.212432861328125,-0.0064849853515625
221757,0.199066162109375,0.078948974609375,-0.172210693359375
221758,0.025543212890625,-0.2429046630859375,-0.5245513916015625
221759,0.025543212890625,-0.2429046630859375,-0.5245513916015625
221760,-0.11492919921875,-0.426055908203125,-0.6121826171875
221761,-0.234100341796875,-0.6390838623046875,-0.5421295166015625
221762,-0.4202728271484375,-0.8966217041015625,-0.379150390625
221763,-0.6360321044921875,-1.196578979492188,-0.278167724609375
221764,-0.7861480712890625,-1.597457885742188,-0.1616973876953125
221765,-0.85479736328125,-1.937423706054688,0.0486297607421875
221766,-0.72705078125,-2.005828857421875,0.1076812744140625
221767,-0.3119354248046875,-1.769638061523438,-0.173248291015625
221768,0.1359100341796875,-1.53387451171875,-0.4776458740234375
221769,0.4152069091796875,-1.480133056640625,-0.755767822265625
221770,0.372406005859375,-2.027450561523438,-0.907012939453125
221771,0.372406005859375,-2.027450561523438,-0.907012939453125
221772,0.1643218994140625,-2.090606689453125,-0.7348785400390625
221773,-0.1125030517578125,-1.860504150390625,-0.447113037109375
221774,-0.2487945556640625,-1.699691772460938,-0.2973175048828125
221775,-0.432098388671875,-1.514297485351562,-0.2036590576171875
221776,-0.432098388671875,-1.514297485351562,-0.2036590576171875
221777,-0.497100830078125,-1.404586791992188,-0.23101806640625
221778,-0.535186767578125,-1.30633544921875,-0.315521240234375
221779,-0.613922119140625,-1.040847778320312,-0.3511199951171875
221780,-0.613922119140625,-1.040847778320312,-0.3511199951171875
221781,-0.5986175537109375,-0.88702392578125,-0.2086944580078125
221782,-0.5326385498046875,-0.72711181640625,-0.050445556640625
221783,-0.297821044921875,-0.374755859375,0.0547027587890625
221784,-0.297821044921875,-0.374755859375,0.0547027587890625
221785,-0.2960662841796875,-0.189422607421875,0.044403076171875
221786,-0.40301513671875,0.2234344482421875,0.1025848388671875
221787,-0.40301513671875,0.2234344482421875,0.1025848388671875
221788,-0.312042236328125,0.34295654296875,0.1270904541015625
221789,-0.1256561279296875,0.35723876953125,0.11993408203125
221790,0.0906829833984375,0.2964935302734375,0.1170806884765625
221791,0.0906829833984375,0.2964935302734375,0.1170806884765625
221792,-0.008819580078125,0.1927337646484375,0.10858154296875
221793,-0.0721435546875,0.1107025146484375,0.17633056640625
221794,-0.1025390625,0.0870819091796875,0.1819000244140625
221795,-0.1765289306640625,0.0695648193359375,0.0617218017578125
221796,-0.3587799072265625,0.053955078125,-0.1257171630859375
221797,-0.6416168212890625,0.055511474609375,-0.2876434326171875
221798,-0.904876708984375,0.0508270263671875,-0.414520263671875
221799,-1.42291259765625,-0.029296875,-0.759185791015625
221800,-1.42291259765625,-0.029296875,-0.759185791015625
221801,-1.788192749023438,-0.179779052734375,-0.7370758056640625
221802,-2.037033081054688,-0.813812255859375,-0.382781982421875
221803,-2.037033081054688,-0.813812255859375,-0.382781982421875
221804,-1.820816040039062,-1.1553955078125,-0.4717864990234375
221805,-1.301315307617188,-1.484344482421875,-0.4877166748046875
221806,-0.717437744140625,-1.852752685546875,-0.4960174560546875
221807,-0.717437744140625,-1.852752685546875,-0.4960174560546875
221808,-0.859283447265625,-1.9368896484375,-0.6749725341796875
221809,-1.079803466796875,-1.912628173828125,-0.8770751953125
221810,-1.203460693359375,-1.765716552734375,-0.96795654296875
221811,-1.266204833984375,-1.623733520507812,-0.9560089111328124
221812,-1.309310913085938,-1.485214233398438,-0.8829193115234375
221813,-1.2701416015625,-1.333099365234375,-0.7701416015625
221814,-1.193923950195312,-1.170135498046875,-0.5910491943359375
221815,-1.097183227539062,-0.983245849609375,-0.424591064453125
221816,-1.010940551757812,-0.7930908203125,-0.3116455078125
221817,-0.955169677734375,-0.621551513671875,-0.23382568359375
221818,-0.893402099609375,-0.4976348876953125,-0.2255859375
221819,-0.81103515625,-0.4442291259765625,-0.282257080078125
221820,-0.70538330078125,-0.4311676025390625,-0.3482513427734375
221821,-0.562652587890625,-0.3904571533203125,-0.3443145751953125
221822,-0.177947998046875,-0.1775970458984375,-0.1055450439453125
221823,-0.177947998046875,-0.1775970458984375,-0.1055450439453125
221824,0.0095062255859375,-0.0437469482421875,0.0454864501953125
221825,0.143585205078125,0.0781707763671875,0.1163787841796875
221826,0.1979522705078125,0.16912841796875,0.107696533203125
221827,0.2125091552734375,0.1947174072265625,0.06219482421875
221828,0.2125091552734375,0.1947174072265625,0.06219482421875
221829,0.1696624755859375,0.0907135009765625,-0.0007476806640625
221830,0.0495147705078125,-0.037017822265625,0.0075836181640625
221831,0.0495147705078125,-0.037017822265625,0.0075836181640625
221832,-0.0163726806640625,-0.0686492919921875,-0.009002685546875
221833,-0.1156005859375,-0.17193603515625,-0.1671295166015625
221834,-0.226837158203125,-0.3077850341796875,-0.376922607421875
221835,-0.33807373046875,-0.489501953125,-0.4837646484375
221836,-0.5135498046875,-0.75823974609375,-0.416259765625
221837,-0.71209716796875,-0.997772216796875,-0.3810272216796875
221838,-0.76751708984375,-1.165863037109375,-0.4346160888671875
221839,-0.76751708984375,-1.165863037109375,-0.4346160888671875
221840,-0.5220184326171875,-1.41717529296875,-0.2237548828125
221841,-0.305328369140625,-1.602981567382812,-0.3999786376953125
221842,-0.2661285400390625,-2.092788696289062,-0.85858154296875
221843,-0.2661285400390625,-2.092788696289062,-0.85858154296875
221844,-0.41180419921875,-2.317031860351562,-0.8690185546875
221845,-0.5618438720703125,-2.220932006835938,-0.7924346923828125
221846,-0.493316650390625,-1.811264038085938,-0.2336273193359375
221847,-0.493316650390625,-1.811264038085938,-0.2336273193359375
221848,-0.31744384765625,-1.693374633789062,-0.15985107421875
221849,-0.258941650390625,-1.5733642578125,-0.207611083984375
221850,-0.3073272705078125,-1.431137084960938,-0.3099822998046875
221851,-0.3073272705078125,-1.431137084960938,-0.3099822998046875
221852,-0.3889617919921875,-1.340347290039062,-0.3058319091796875
221853,-0.4751739501953125,-1.204116821289062,-0.266571044921875
221854,-0.500823974609375,-0.8446044921875,-0.161041259765625
221855,-0.500823974609375,-0.8446044921875,-0.161041259765625
221856,-0.462890625,-0.650665283203125,-0.07977294921875
221857,-0.379119873046875,-0.4631195068359375,-0.05645751953125
221858,-0.3746795654296875,-0.043914794921875,-0.021697998046875
221859,-0.3746795654296875,-0.043914794921875,-0.021697998046875
221860,-0.3137054443359375,0.1049957275390625,-0.0184478759765625
221861,-0.1063079833984375,0.1603240966796875,-0.0693817138671875
221862,0.113800048828125,0.088470458984375,-0.0099029541015625
221863,0.086883544921875,0.000823974609375,0.1090850830078125
221864,0.086883544921875,0.000823974609375,0.1090850830078125
221865,0.0858612060546875,-0.0784912109375,0.2022705078125
221866,-0.0062713623046875,-0.121551513671875,0.1608428955078125
221867,-0.0062713623046875,-0.121551513671875,0.1608428955078125
221868,-0.0869293212890625,-0.183197021484375,-0.01434326171875
221869,-0.206787109375,-0.2412261962890625,-0.2161712646484375
221870,-0.6490325927734375,-0.263641357421875,-0.426177978515625
221871,-0.6490325927734375,-0.263641357421875,-0.426177978515625
221872,-0.8286285400390625,-0.233489990234375,-0.4153900146484375
221873,-0.9519500732421876,-0.2593231201171875,-0.39837646484375
221874,-1.227157592773438,-0.393707275390625,-0.50537109375
221875,-1.227157592773438,-0.393707275390625,-0.50537109375
221876,-1.400390625,-0.4945831298828125,-0.492950439453125
221877,-1.526046752929688,-0.6474151611328125,-0.558807373046875
221878,-1.465255737304688,-1.257186889648438,-0.536041259765625
221879,-1.465255737304688,-1.257186889648438,-0.536041259765625
221880,-1.476303100585938,-1.510345458984375,-0.18841552734375
221881,-1.529953002929688,-1.6038818359375,-0.0170440673828125
221882,-1.465988159179688,-1.50225830078125,-0.4318695068359375
221883,-1.490402221679688,-1.365524291992188,-0.6757659912109375
221884,-1.490402221679688,-1.365524291992188,-0.6757659912109375
221885,-1.572616577148438,-1.238174438476562,-0.7699737548828125
221886,-1.610824584960938,-1.015228271484375,-0.6806488037109375
221887,-1.610824584960938,-1.015228271484375,-0.6806488037109375
221888,-1.491668701171875,-0.884552001953125,-0.591094970703125
221889,-1.345550537109375,-0.7205963134765625,-0.4833221435546875
221890,-1.008560180664062,-0.4115753173828125,-0.2825469970703125
221891,-1.008560180664062,-0.4115753173828125,-0.2825469970703125
221892,-0.86578369140625,-0.373931884765625,-0.2688446044921875
221893,-0.754364013671875,-0.3934326171875,-0.3251190185546875
221894,-0.4534454345703125,-0.4223175048828125,-0.409088134765625
221895,-0.27685546875,-0.36376953125,-0.2802581787109375
221896,-0.27685546875,-0.36376953125,-0.2802581787109375
