time_idx,accelerometerAccelerationX(G),accelerometerAccelerationY(G),accelerometerAccelerationZ(G)
120000,-0.236541748046875,-2.112457275390625,0.00811767578125
120001,-0.236541748046875,-2.112457275390625,0.00811767578125
120002,-0.3037109375,-2.103302001953125,-0.921142578125
120003,-0.8338623046875,-2.115005493164062,-1.172607421875
120004,-0.8338623046875,-2.115005493164062,-1.172607421875
120005,-1.058914184570312,-2.085861206054688,-1.22088623046875
120006,-1.145675659179688,-1.980194091796875,-1.172439575195312
120007,-0.779632568359375,-1.6993408203125,-0.31939697265625
120008,-0.779632568359375,-1.6993408203125,-0.31939697265625
120009,-0.640380859375,-1.36322021484375,0.0816650390625
120010,-0.517974853515625,-0.9524078369140624,0.3082122802734375
120011,-0.2651214599609375,-0.3613128662109375,0.2888336181640625
120012,-0.2651214599609375,-0.3613128662109375,0.2888336181640625
120013,-0.006439208984375,-0.4797515869140625,-0.084075927734375
120014,0.17071533203125,-0.7686004638671875,-0.5308837890625
120015,0.00408935546875,-1.234405517578125,-0.736724853515625
120016,0.00408935546875,-1.234405517578125,-0.736724853515625
120017,-0.101104736328125,-1.3597412109375,-0.607635498046875
120018,-0.160186767578125,-1.342880249023438,-0.40948486328125
120019,-0.2001190185546875,-1.294189453125,-0.02972412109375
120020,-0.2001190185546875,-1.294189453125,-0.02972412109375
120021,-0.1314849853515625,-1.304763793945312,0.00750732421875
120022,0.021240234375,-1.205581665039062,-0.099945068359375
120023,0.2759246826171875,-0.83013916015625,-0.143463134765625
120024,0.2759246826171875,-0.83013916015625,-0.143463134765625
120025,0.1395416259765625,-0.601959228515625,-0.063232421875
120026,0.010528564453125,-0.341583251953125,0.052947998046875
120027,0.12255859375,-0.0252838134765625,0.0626983642578125
120028,0.12255859375,-0.0252838134765625,0.0626983642578125
120029,0.146820068359375,0.099639892578125,-0.0226593017578125
120030,0.127471923828125,0.1671905517578125,-0.11627197265625
120031,0.133209228515625,0.108673095703125,-0.1613311767578125
120032,0.133209228515625,0.108673095703125,-0.1613311767578125
120033,0.0818023681640625,0.0500640869140625,-0.1793212890625
120034,-0.044708251953125,0.011260986328125,-0.174896240234375
120035,-0.2136688232421875,0.01763916015625,-0.1145172119140625
120036,-0.4169921875,0.05511474609375,-0.022674560546875
120037,-0.6251068115234375,0.1221466064453125,0.0158843994140625
120038,-0.7682952880859375,0.2028656005859375,-0.02215576171875
120039,-0.8575897216796875,0.4309539794921875,-0.0525054931640625
120040,-0.8575897216796875,0.4309539794921875,-0.0525054931640625
120041,-0.79010009765625,0.5636138916015625,0.059295654296875
120042,-0.6253814697265625,0.669708251953125,0.121307373046875
120043,-0.372772216796875,0.6224822998046875,0.2200469970703125
120044,-0.372772216796875,0.6224822998046875,0.2200469970703125
120045,-0.3096466064453125,0.4471282958984375,0.1401519775390625
120046,-0.22705078125,0.2717742919921875,-0.17327880859375
120047,-0.6251983642578125,-0.233184814453125,-1.16705322265625
120048,-0.6251983642578125,-0.233184814453125,-1.16705322265625
120049,-1.224166870117188,-0.795989990234375,-1.676605224609375
120050,-2.157073974609375,-1.476028442382812,-1.701171875
120051,-3.054702758789062,-2.088180541992188,-0.7758636474609375
120052,-3.054702758789062,-2.088180541992188,-0.7758636474609375
120053,-3.054702758789062,-2.088180541992188,-0.7758636474609375
120054,-2.38671875,-2.1998291015625,-0.0865325927734375
120055,-0.6036224365234375,-2.216781616210938,0.5192413330078125
120056,-0.6036224365234375,-2.216781616210938,0.5192413330078125
120057,-0.0601959228515625,-2.025436401367188,0.1418304443359375
120058,0.0767669677734375,-1.900833129882812,-0.4279632568359375
120059,-0.68328857421875,-2.175338745117188,-1.277099609375
120060,-0.68328857421875,-2.175338745117188,-1.277099609375
120061,-1.13616943359375,-2.421539306640625,-1.29833984375
120062,-1.398300170898438,-2.295562744140625,-1.22796630859375
120063,-1.094619750976562,-1.7264404296875,-0.4228057861328125
120064,-1.094619750976562,-1.7264404296875,-0.4228057861328125
120065,-0.721466064453125,-1.367294311523438,-0.0654449462890625
120066,-0.418121337890625,-0.9718475341796876,0.0848236083984375
120067,0.0420989990234375,-0.403167724609375,-0.00244140625
120068,0.0420989990234375,-0.403167724609375,-0.00244140625
120069,0.1516571044921875,-0.3999786376953125,-0.216522216796875
120070,0.2189483642578125,-0.58538818359375,-0.55438232421875
120071,0.132476806640625,-1.133331298828125,-0.9600982666015624
120072,0.132476806640625,-1.133331298828125,-0.9600982666015624
120073,0.050750732421875,-1.339736938476562,-0.8692169189453125
120074,-0.0374298095703125,-1.405059814453125,-0.603271484375
120075,-0.073455810546875,-1.439376831054688,-0.07989501953125
120076,-0.073455810546875,-1.439376831054688,-0.07989501953125
120077,0.0443267822265625,-1.374282836914062,-0.0224609375
120078,0.2091064453125,-1.216110229492188,-0.1109161376953125
120079,0.324554443359375,-0.8744049072265625,-0.224212646484375
120080,0.192626953125,-0.7071990966796875,-0.131500244140625
120081,0.192626953125,-0.7071990966796875,-0.131500244140625
120082,-0.01251220703125,-0.4922637939453125,0.04376220703125
120083,-0.0969085693359375,-0.1772918701171875,0.1958160400390625
120084,-0.0969085693359375,-0.1772918701171875,0.1958160400390625
120085,-0.150054931640625,-0.059326171875,0.216278076171875
120086,-0.2175750732421875,0.039093017578125,0.1636505126953125
120087,-0.1057586669921875,0.0783843994140625,0.01806640625
120088,-0.1057586669921875,0.0783843994140625,0.01806640625
120089,-0.00018310546875,0.0125274658203125,-0.0846405029296875
120090,0.0088653564453125,-0.0771636962890625,-0.1721954345703125
120091,-0.1818084716796875,-0.08013916015625,-0.1805572509765625
120092,-0.1818084716796875,-0.08013916015625,-0.1805572509765625
120093,-0.3586883544921875,-0.0281829833984375,-0.18438720703125
120094,-0.4974365234375,0.0599822998046875,-0.2027130126953125
120095,-0.587890625,0.21734619140625,-0.068389892578125
120096,-0.587890625,0.21734619140625,-0.068389892578125
120097,-0.6245574951171875,0.2330780029296875,-0.005828857421875
120098,-0.6146240234375,0.256622314453125,0.1085052490234375
120099,-0.42755126953125,0.493896484375,0.3027801513671875
120100,-0.42755126953125,0.493896484375,0.3027801513671875
120101,-0.2829437255859375,0.590911865234375,0.181427001953125
120102,-0.1457061767578125,0.6121978759765625,-0.0515594482421875
120103,-0.340179443359375,0.2238616943359375,-0.8508148193359375
120104,-0.340179443359375,0.2238616943359375,-0.8508148193359375
120105,-0.8744964599609375,-0.1290283203125,-1.2388916015625
120106,-1.724090576171875,-0.545654296875,-1.482528686523438
120107,-3.222137451171875,-1.369400024414062,-1.472900390625
120108,-3.222137451171875,-1.369400024414062,-1.472900390625
120109,-3.6180419921875,-1.905075073242188,-1.103485107421875
120110,-3.441131591796875,-2.327804565429688,-0.20672607421875
120111,-1.065704345703125,-2.488861083984375,0.26092529296875
120112,-1.065704345703125,-2.488861083984375,0.26092529296875
120113,-0.1477203369140625,-2.4613037109375,0.1504364013671875
120114,0.049591064453125,-2.394012451171875,-0.1393280029296875
120115,-0.9573822021484376,-2.11834716796875,-1.224273681640625
120116,-0.9573822021484376,-2.11834716796875,-1.224273681640625
120117,-1.31707763671875,-2.08758544921875,-1.256759643554688
120118,-1.358444213867188,-1.984786987304688,-1.155517578125
120119,-1.098281860351562,-1.690826416015625,-0.6712799072265625
120120,-1.098281860351562,-1.690826416015625,-0.6712799072265625
120121,-0.82708740234375,-1.560592651367188,-0.414520263671875
120122,-0.64202880859375,-1.230712890625,-0.10107421875
120123,-0.2831573486328125,-0.455047607421875,0.1826324462890625
120124,-0.2831573486328125,-0.455047607421875,0.1826324462890625
120125,-0.089202880859375,-0.24609375,0.0201568603515625
120126,0.2160186767578125,-0.45867919921875,-0.3478240966796875
120127,0.2513885498046875,-1.058120727539062,-0.92755126953125
120128,0.2513885498046875,-1.058120727539062,-0.92755126953125
120129,0.1369476318359375,-1.221160888671875,-0.8968353271484375
120130,0.03753662109375,-1.343536376953125,-0.7946014404296875
120131,-0.1097564697265625,-1.513290405273438,-0.260894775390625
120132,-0.1097564697265625,-1.513290405273438,-0.260894775390625
120133,-0.01934814453125,-1.581756591796875,-0.0841064453125
120134,0.176666259765625,-1.525726318359375,-0.030120849609375
120135,0.4163970947265625,-1.102188110351562,-0.1390838623046875
120136,0.4163970947265625,-1.102188110351562,-0.1390838623046875
120137,0.3342742919921875,-0.894500732421875,-0.1443939208984375
120138,0.2151641845703125,-0.65228271484375,-0.047332763671875
120139,0.253570556640625,-0.198272705078125,0.146820068359375
120140,0.253570556640625,-0.198272705078125,0.146820068359375
120141,0.3094329833984375,-0.05010986328125,0.10479736328125
120142,0.335479736328125,0.05914306640625,0.026153564453125
120143,0.3180084228515625,0.01947021484375,-0.157440185546875
120144,0.3180084228515625,0.01947021484375,-0.157440185546875
120145,0.21405029296875,-0.0223388671875,-0.2227935791015625
120146,0.056121826171875,-0.0644989013671875,-0.2329864501953125
120147,-0.4719390869140625,-0.105682373046875,-0.0262298583984375
120148,-0.4719390869140625,-0.105682373046875,-0.0262298583984375
120149,-0.75726318359375,-0.095916748046875,0.140167236328125
120150,-0.9598541259765624,-0.0098724365234375,0.270782470703125
120151,-1.006072998046875,0.2418365478515625,0.21533203125
120152,-1.006072998046875,0.2418365478515625,0.21533203125
120153,-0.8977203369140625,0.324249267578125,0.11395263671875
120154,-0.72979736328125,0.3896026611328125,0.095733642578125
120155,-0.311767578125,0.6518096923828125,0.1140899658203125
120156,-0.311767578125,0.6518096923828125,0.1140899658203125
120157,-0.1486663818359375,0.81640625,0.162841796875
120158,-0.0416107177734375,0.8516845703125,0.0863037109375
120159,-0.282135009765625,0.4415740966796875,-1.12420654296875
120160,-0.282135009765625,0.4415740966796875,-1.12420654296875
120161,-0.8798675537109375,-0.0285491943359375,-1.922714233398438
120162,-2.5452880859375,-0.89642333984375,-1.787689208984375
120163,-4.280410766601562,-2.0096435546875,-2.535049438476562
120164,-4.280410766601562,-2.0096435546875,-2.535049438476562
120165,-3.5933837890625,-2.6812744140625,-1.155120849609375
120166,-2.24700927734375,-2.619033813476562,0.8692474365234375
120167,-0.2536163330078125,-2.315414428710938,0.7100372314453125
120168,-0.2536163330078125,-2.315414428710938,0.7100372314453125
120169,-0.7262725830078125,-2.019500732421875,0.174896240234375
120170,-1.069000244140625,-1.720901489257812,-0.6720428466796875
120171,-1.692001342773438,-1.529693603515625,-1.206695556640625
120172,-1.692001342773438,-1.529693603515625,-1.206695556640625
120173,-1.787933349609375,-1.672607421875,-1.255722045898438
120174,-1.594650268554688,-1.769943237304688,-1.108352661132812
120175,-0.8504180908203125,-1.576171875,-0.266571044921875
120176,-0.8504180908203125,-1.576171875,-0.266571044921875
120177,-0.429229736328125,-1.169906616210938,0.03961181640625
120178,-0.0414886474609375,-0.7730255126953125,0.0777130126953125
120179,0.2060546875,-0.5347900390625,-0.3177490234375
120180,0.2060546875,-0.5347900390625,-0.3177490234375
120181,0.03759765625,-0.806976318359375,-0.5997314453125
120182,-0.0996551513671875,-1.100234985351562,-0.8716278076171875
120183,-0.0806427001953125,-1.518966674804688,-0.9210052490234376
120184,-0.0806427001953125,-1.518966674804688,-0.9210052490234376
120185,-0.0568389892578125,-1.642852783203125,-0.6809844970703125
120186,0.0106658935546875,-1.711074829101562,-0.3884124755859375
120187,0.2949371337890625,-1.556167602539062,-0.053009033203125
120188,0.2949371337890625,-1.556167602539062,-0.053009033203125
120189,0.4210052490234375,-1.2449951171875,-0.05303955078125
120190,0.4492645263671875,-0.9425048828125,-0.102996826171875
120191,0.3755950927734375,-0.7906341552734375,-0.145751953125
120192,0.236053466796875,-0.6889801025390625,-0.100555419921875
120193,0.1193695068359375,-0.507781982421875,-0.01385498046875
120194,0.10107421875,-0.29345703125,0.0969390869140625
120195,0.207611083984375,-0.0213775634765625,0.13323974609375
120196,0.207611083984375,-0.0213775634765625,0.13323974609375
120197,0.213958740234375,0.049346923828125,0.07470703125
120198,0.1990966796875,0.1066131591796875,0.03778076171875
120199,0.14501953125,0.0407257080078125,-0.053497314453125
120200,0.14501953125,0.0407257080078125,-0.053497314453125
120201,0.0133819580078125,-0.024627685546875,-0.153839111328125
120202,-0.205841064453125,-0.0979461669921875,-0.2018280029296875
120203,-0.75457763671875,-0.1632080078125,-0.1038055419921875
120204,-0.75457763671875,-0.1632080078125,-0.1038055419921875
120205,-0.9633636474609376,-0.0469970703125,-0.0452728271484375
120206,-1.049224853515625,0.133209228515625,0.0044097900390625
120207,-0.920135498046875,0.428314208984375,0.1099853515625
120208,-0.920135498046875,0.428314208984375,0.1099853515625
120209,-0.785614013671875,0.5204925537109375,0.140899658203125
120210,-0.603271484375,0.546722412109375,0.1302490234375
120211,-0.2138214111328125,0.6955413818359375,0.0430908203125
120212,-0.2138214111328125,0.6955413818359375,0.0430908203125
120213,-0.0988922119140625,0.7095489501953125,-0.08673095703125
120214,-0.0778961181640625,0.575469970703125,-0.35174560546875
120215,-0.6458892822265625,0.0274200439453125,-1.353836059570312
120216,-0.6458892822265625,0.0274200439453125,-1.353836059570312
120217,-1.63189697265625,-0.5384979248046875,-1.628326416015625
120218,-2.783050537109375,-1.14691162109375,-1.39862060546875
120219,-3.705612182617188,-1.930511474609375,-1.782638549804688
120220,-3.705612182617188,-1.930511474609375,-1.782638549804688
120221,-3.239044189453125,-2.434768676757812,-0.9107513427734376
120222,-1.956878662109375,-2.57061767578125,0.4403228759765625
120223,-0.0806427001953125,-2.375808715820312,0.4394073486328125
120224,-0.0806427001953125,-2.375808715820312,0.4394073486328125
120225,-0.27508544921875,-2.15826416015625,-0.156463623046875
120226,-0.6546173095703125,-1.922943115234375,-0.831024169921875
120227,-1.394912719726562,-1.4808349609375,-1.024429321289062
120228,-1.394912719726562,-1.4808349609375,-1.024429321289062
120229,-1.562149047851562,-1.431198120117188,-0.94805908203125
120230,-1.533828735351562,-1.412521362304688,-0.7672882080078125
120231,-0.96405029296875,-1.2664794921875,-0.2619476318359375
120232,-0.96405029296875,-1.2664794921875,-0.2619476318359375
120233,-0.69598388671875,-1.054519653320312,-0.0927734375
120234,-0.1693115234375,-0.6817169189453125,-0.0792999267578125
120235,-0.1693115234375,-0.6817169189453125,-0.0792999267578125
120236,-0.1693115234375,-0.6817169189453125,-0.0792999267578125
120237,-0.048187255859375,-0.9404449462890624,-0.373687744140625
120238,-0.0894012451171875,-1.130569458007812,-0.6573944091796875
120239,-0.1347503662109375,-1.419052124023438,-0.8138427734375
120240,-0.1347503662109375,-1.419052124023438,-0.8138427734375
120241,-0.14990234375,-1.588241577148438,-0.674652099609375
120242,-0.1226043701171875,-1.699386596679688,-0.405548095703125
120243,0.05462646484375,-1.672592163085938,-0.057403564453125
120244,0.05462646484375,-1.672592163085938,-0.057403564453125
120245,0.226226806640625,-1.375808715820312,-0.0583038330078125
120246,0.4029083251953125,-0.9469451904296876,-0.0898895263671875
120247,0.4972686767578125,-0.4131011962890625,0.04833984375
120248,0.4972686767578125,-0.4131011962890625,0.04833984375
120249,0.372802734375,-0.263946533203125,0.1558990478515625
120250,0.331268310546875,-0.1197509765625,0.2364959716796875
120251,0.3624725341796875,0.03515625,0.224212646484375
120252,0.3624725341796875,0.03515625,0.224212646484375
120253,0.3391876220703125,0.0808563232421875,0.079376220703125
120254,0.349884033203125,0.05511474609375,-0.12176513671875
120255,0.30047607421875,-0.0793304443359375,-0.36553955078125
120256,0.30047607421875,-0.0793304443359375,-0.36553955078125
120257,0.133697509765625,-0.1583404541015625,-0.3827056884765625
120258,-0.1244659423828125,-0.1954803466796875,-0.317352294921875
120259,-0.6563262939453125,-0.1754608154296875,-0.033172607421875
120260,-0.6563262939453125,-0.1754608154296875,-0.033172607421875
120261,-0.8636016845703125,-0.089996337890625,0.093994140625
120262,-0.9896087646484376,0.042755126953125,0.1313323974609375
120263,-0.9786376953125,0.2994232177734375,0.089752197265625
120264,-0.9786376953125,0.2994232177734375,0.089752197265625
120265,-0.8567047119140625,0.4241943359375,0.1367645263671875
120266,-0.6625518798828125,0.55450439453125,0.1959991455078125
120267,-0.097015380859375,0.72869873046875,0.146453857421875
120268,-0.097015380859375,0.72869873046875,0.146453857421875
120269,0.09490966796875,0.6925048828125,-0.0944671630859375
120270,0.1785430908203125,0.54132080078125,-0.4356231689453125
120271,0.1598968505859375,0.312835693359375,-0.9808807373046876
120272,-0.2648162841796875,-0.0282440185546875,-1.633209228515625
120273,-1.4749755859375,-0.6578216552734375,-1.724639892578125
120274,-3.046417236328125,-1.352294921875,-1.438339233398438
120275,-4.552658081054688,-2.041519165039062,-1.591964721679688
120276,-4.552658081054688,-2.041519165039062,-1.591964721679688
120277,-3.884597778320312,-2.32623291015625,-0.2794342041015625
120278,-2.317901611328125,-2.339431762695312,0.9829864501953124
120279,-0.15679931640625,-2.279159545898438,0.566009521484375
120280,-0.15679931640625,-2.279159545898438,0.566009521484375
120281,-0.2896728515625,-2.302749633789062,-0.20318603515625
120282,-0.6358795166015625,-2.0672607421875,-1.05316162109375
120283,-1.332717895507812,-1.752822875976562,-1.29364013671875
120284,-1.332717895507812,-1.752822875976562,-1.29364013671875
120285,-1.39617919921875,-1.861770629882812,-1.196258544921875
120286,-1.41058349609375,-1.86669921875,-1.070938110351562
120287,-0.79498291015625,-1.625732421875,-0.093017578125
120288,-0.79498291015625,-1.625732421875,-0.093017578125
120289,-0.550628662109375,-1.10498046875,0.2442474365234375
120290,-0.509429931640625,-0.562255859375,0.4239349365234375
120291,0.03900146484375,-0.5706024169921875,0.075103759765625
120292,0.03900146484375,-0.5706024169921875,0.075103759765625
120293,0.0761871337890625,-0.8928070068359375,-0.4044647216796875
120294,-0.036224365234375,-1.0755615234375,-0.7205657958984375
120295,-0.0423583984375,-1.425125122070312,-0.8698577880859375
120296,-0.0423583984375,-1.425125122070312,-0.8698577880859375
120297,-0.0312652587890625,-1.517730712890625,-0.7070465087890625
120298,0.047088623046875,-1.51495361328125,-0.4331207275390625
120299,0.2342987060546875,-1.3016357421875,-0.0049591064453125
120300,0.2342987060546875,-1.3016357421875,-0.0049591064453125
120301,0.3679962158203125,-1.026885986328125,0.0334320068359375
120302,0.4040679931640625,-0.7126617431640625,0.00775146484375
120303,0.174652099609375,-0.3771514892578125,0.083221435546875
120304,0.174652099609375,-0.3771514892578125,0.083221435546875
120305,0.1229705810546875,-0.2491455078125,0.1505889892578125
120306,0.1277008056640625,-0.0568695068359375,0.1485595703125
120307,0.1750030517578125,0.185333251953125,0.016265869140625
120308,0.1750030517578125,0.185333251953125,0.016265869140625
120309,0.236053466796875,0.1737823486328125,-0.1331787109375
120310,0.306488037109375,0.1003570556640625,-0.239532470703125
120311,0.181304931640625,-0.03033447265625,-0.299713134765625
120312,0.181304931640625,-0.03033447265625,-0.299713134765625
120313,-0.0279541015625,-0.0909576416015625,-0.2432861328125
120314,-0.2807464599609375,-0.116607666015625,-0.1420440673828125
120315,-0.6404571533203125,-0.021759033203125,0.06280517578125
120316,-0.6404571533203125,-0.021759033203125,0.06280517578125
120317,-0.72576904296875,0.0816497802734375,0.0938873291015625
120318,-0.786773681640625,0.1891632080078125,0.069854736328125
120319,-0.750732421875,0.2676544189453125,0.057708740234375
120320,-0.750732421875,0.2676544189453125,0.057708740234375
120321,-0.5795440673828125,0.3248138427734375,0.093475341796875
120322,-0.0574493408203125,0.5606231689453125,-0.046417236328125
120323,-0.0574493408203125,0.5606231689453125,-0.046417236328125
120324,-0.0574493408203125,0.5606231689453125,-0.046417236328125
120325,-0.09405517578125,0.5050201416015625,-0.263702392578125
120326,-0.3492431640625,0.4015350341796875,-0.619720458984375
120327,-2.099166870117188,-0.37298583984375,-1.89691162109375
120328,-2.099166870117188,-0.37298583984375,-1.89691162109375
120329,-3.725540161132812,-0.9920654296875,-1.899642944335938
120330,-4.880081176757812,-1.326309204101562,-1.857208251953125
120331,-4.751419067382812,-1.97393798828125,-1.030044555664062
120332,-3.4820556640625,-1.979736328125,0.79962158203125
120333,-1.88116455078125,-1.742767333984375,1.275054931640625
120334,-0.776947021484375,-1.836029052734375,0.8311614990234375
120335,-0.5559539794921875,-1.8936767578125,-0.124359130859375
120336,-0.5559539794921875,-1.8936767578125,-0.124359130859375
120337,-0.6000213623046875,-1.854705810546875,-0.813262939453125
120338,-0.8676300048828125,-1.849853515625,-1.269210815429688
120339,-1.341079711914062,-1.933074951171875,-1.376480102539062
120340,-1.341079711914062,-1.933074951171875,-1.376480102539062
120341,-1.337844848632812,-1.7999267578125,-1.216354370117188
120342,-1.224365234375,-1.61627197265625,-0.7358551025390625
120343,-0.59442138671875,-1.0250244140625,0.2913055419921875
120344,-0.59442138671875,-1.0250244140625,0.2913055419921875
120345,-0.23944091796875,-0.7211151123046875,0.43011474609375
120346,0.215423583984375,-0.7496490478515625,-0.175384521484375
120347,0.215423583984375,-0.7496490478515625,-0.175384521484375
120348,0.215423583984375,-0.7496490478515625,-0.175384521484375
120349,0.2438812255859375,-1.093414306640625,-0.623748779296875
120350,0.186004638671875,-1.271820068359375,-0.8446044921875
120351,0.297576904296875,-1.783203125,-0.747772216796875
120352,0.297576904296875,-1.783203125,-0.747772216796875
120353,0.327606201171875,-1.8621826171875,-0.5500030517578125
120354,0.3738555908203125,-1.73309326171875,-0.368194580078125
120355,0.4788665771484375,-1.152313232421875,-0.1101226806640625
120356,0.4788665771484375,-1.152313232421875,-0.1101226806640625
120357,0.4062652587890625,-0.939727783203125,-0.092681884765625
120358,0.3172454833984375,-0.884429931640625,-0.0882720947265625
120359,0.1270751953125,-0.6164703369140625,0.0408172607421875
120360,0.1270751953125,-0.6164703369140625,0.0408172607421875
120361,0.0672149658203125,-0.3983917236328125,0.084869384765625
120362,0.0988922119140625,-0.249908447265625,0.07421875
120363,0.133056640625,0.0799713134765625,-0.0743408203125
120364,0.0941925048828125,0.2330780029296875,-0.0822296142578125
120365,0.0941925048828125,0.2330780029296875,-0.0822296142578125
120366,0.1048126220703125,0.2433929443359375,-0.095001220703125
120367,-0.0190887451171875,0.085693359375,-0.1468048095703125
120368,-0.0190887451171875,0.085693359375,-0.1468048095703125
120369,-0.2099609375,0.003997802734375,-0.1999664306640625
120370,-0.7747955322265625,0.0248565673828125,-0.0631866455078125
120371,-0.7747955322265625,0.0248565673828125,-0.0631866455078125
120372,-0.7747955322265625,0.0248565673828125,-0.0631866455078125
120373,-0.8959808349609375,0.1481475830078125,0.010589599609375
120374,-0.85791015625,0.5227508544921875,0.13262939453125
120375,-0.85791015625,0.5227508544921875,0.13262939453125
120376,-0.85791015625,0.5227508544921875,0.13262939453125
120377,-0.523162841796875,0.6572113037109375,0.1531982421875
120378,-0.1348876953125,0.78265380859375,0.0387420654296875
120379,0.2100677490234375,0.6930694580078125,-0.28350830078125
120380,0.2100677490234375,0.6930694580078125,-0.28350830078125
120381,0.1333160400390625,0.51300048828125,-0.6144866943359375
120382,-0.2439422607421875,0.336212158203125,-1.124786376953125
120383,-2.878921508789062,-0.9352569580078124,-1.57965087890625
120384,-2.878921508789062,-0.9352569580078124,-1.57965087890625
120385,-4.537521362304688,-1.389556884765625,-1.395675659179688
120386,-5.07080078125,-1.832534790039062,-1.415985107421875
120387,-2.3541259765625,-2.074844360351562,1.075302124023438
120388,-2.3541259765625,-2.074844360351562,1.075302124023438
120389,-0.789825439453125,-2.0172119140625,0.889984130859375
120390,-0.1412506103515625,-1.957107543945312,0.4459991455078125
120391,-0.3600006103515625,-1.856460571289062,-0.7841796875
120392,-0.3600006103515625,-1.856460571289062,-0.7841796875
120393,-0.48907470703125,-1.652435302734375,-1.24212646484375
120394,-0.7537994384765625,-1.629302978515625,-1.105270385742188
120395,-1.2510986328125,-1.674575805664062,-1.087234497070312
120396,-1.2510986328125,-1.674575805664062,-1.087234497070312
120397,-1.364364624023438,-1.662017822265625,-0.753997802734375
120398,-1.25372314453125,-1.602447509765625,-0.293426513671875
120399,-0.611968994140625,-1.082656860351562,0.3406829833984375
120400,-0.611968994140625,-1.082656860351562,0.3406829833984375
120401,-0.2780914306640625,-0.7692108154296875,0.376129150390625
120402,0.0938568115234375,-0.71209716796875,-0.2407989501953125
120403,0.0938568115234375,-0.71209716796875,-0.2407989501953125
120404,0.0938568115234375,-0.71209716796875,-0.2407989501953125
120405,0.0976715087890625,-0.9656829833984376,-0.590240478515625
120406,-0.0431365966796875,-1.086212158203125,-0.669281005859375
120407,-0.3000946044921875,-1.498992919921875,-0.5448150634765625
120408,-0.3000946044921875,-1.498992919921875,-0.5448150634765625
120409,-0.3701171875,-1.643280029296875,-0.3612518310546875
120410,-0.29302978515625,-1.74462890625,-0.1687164306640625
120411,-0.07342529296875,-1.665725708007812,-0.0474395751953125
120412,0.250885009765625,-1.338302612304688,-0.019561767578125
120413,0.5770721435546875,-0.960357666015625,-0.0172271728515625
120414,0.3231353759765625,-0.4935455322265625,0.1418609619140625
120415,0.3231353759765625,-0.4935455322265625,0.1418609619140625
120416,0.3231353759765625,-0.4935455322265625,0.1418609619140625
120417,0.3050079345703125,-0.3509368896484375,0.1360626220703125
120418,0.286468505859375,-0.2111968994140625,0.0947418212890625
120419,0.16815185546875,0.0559234619140625,-0.1836090087890625
120420,0.16815185546875,0.0559234619140625,-0.1836090087890625
120421,0.2191619873046875,0.069427490234375,-0.33526611328125
120422,0.23870849609375,-0.041107177734375,-0.3082733154296875
120423,0.23870849609375,-0.041107177734375,-0.3082733154296875
120424,0.0460968017578125,-0.0639190673828125,-0.207672119140625
120425,-0.2081146240234375,-0.0911865234375,-0.1273345947265625
120426,-0.457244873046875,-0.120391845703125,-0.0654296875
120427,-0.7588958740234375,-0.0546112060546875,-0.078094482421875
120428,-0.7588958740234375,-0.0546112060546875,-0.078094482421875
120429,-0.839813232421875,0.013916015625,-0.1259918212890625
120430,-0.862030029296875,0.18212890625,-0.0632476806640625
120431,-0.480804443359375,0.6689910888671875,0.083892822265625
120432,-0.480804443359375,0.6689910888671875,0.083892822265625
120433,-0.130950927734375,0.7961883544921875,0.10595703125
120434,0.1241455078125,0.7234039306640625,-0.1356353759765625
120435,0.0689849853515625,0.565155029296875,-0.455108642578125
120436,0.0689849853515625,0.565155029296875,-0.455108642578125
120437,0.0073089599609375,0.3722991943359375,-0.8092041015625
120438,-1.4666748046875,-0.4073638916015625,-1.33966064453125
120439,-1.4666748046875,-0.4073638916015625,-1.33966064453125
120440,-3.243988037109375,-1.18145751953125,-1.248138427734375
120441,-4.770401000976562,-1.616287231445312,-0.9867401123046876
120442,-5.0933837890625,-1.791763305664062,-0.7607879638671875
120443,-4.2470703125,-2.02984619140625,0.25982666015625
120444,-2.670028686523438,-2.256301879882812,1.301315307617188
120445,-0.997344970703125,-2.218490600585938,1.0330810546875
120446,-0.0412445068359375,-2.079437255859375,0.4951324462890625
120447,0.046112060546875,-2.0732421875,-0.0798187255859375
120448,-0.2464447021484375,-1.930953979492188,-0.905731201171875
120449,-0.78033447265625,-1.942062377929688,-1.479354858398438
120450,-1.06414794921875,-2.108993530273438,-1.479461669921875
120451,-1.366058349609375,-1.851882934570312,-0.9355926513671876
120452,-1.366058349609375,-1.851882934570312,-0.9355926513671876
120453,-1.250823974609375,-1.850448608398438,-0.6202545166015625
120454,-0.930755615234375,-1.765869140625,-0.3019866943359375
120455,-0.608673095703125,-1.501083374023438,0.04925537109375
120456,-0.608673095703125,-1.501083374023438,0.04925537109375
120457,-0.3975830078125,-0.771331787109375,0.46575927734375
120458,-0.288116455078125,-0.5435943603515625,0.3926849365234375
120459,0.2817230224609375,-0.9588165283203124,-0.498321533203125
120460,0.2817230224609375,-0.9588165283203124,-0.498321533203125
120461,0.2055816650390625,-1.119522094726562,-0.658203125
120462,0.129669189453125,-1.2762451171875,-0.6565093994140625
120463,0.11602783203125,-1.421463012695312,-0.562896728515625
120464,0.0827789306640625,-1.48919677734375,-0.437652587890625
120465,0.023712158203125,-1.494400024414062,-0.2439727783203125
120466,0.0640106201171875,-1.410873413085938,-0.0715789794921875
120467,0.16754150390625,-1.2296142578125,-0.0251312255859375
120468,0.244842529296875,-0.994781494140625,-0.0057525634765625
120469,0.2349395751953125,-0.7503814697265625,0.0378570556640625
120470,0.03228759765625,-0.326873779296875,0.2410736083984375
120471,0.03228759765625,-0.326873779296875,0.2410736083984375
120472,0.0661773681640625,-0.21307373046875,0.22607421875
120473,0.127960205078125,-0.1213836669921875,0.1780853271484375
120474,0.1737518310546875,0.0039215087890625,0.127471923828125
120475,0.35430908203125,0.099517822265625,-0.15313720703125
120476,0.35430908203125,0.099517822265625,-0.15313720703125
120477,0.422027587890625,0.027130126953125,-0.2966766357421875
120478,0.3767242431640625,-0.0427093505859375,-0.361785888671875
120479,-0.0172271728515625,-0.180145263671875,-0.3111114501953125
120480,-0.0172271728515625,-0.180145263671875,-0.3111114501953125
120481,-0.257537841796875,-0.226715087890625,-0.29302978515625
120482,-0.448028564453125,-0.21630859375,-0.2605743408203125
120483,-0.5455322265625,-0.179779052734375,-0.238983154296875
120484,-0.5455322265625,-0.179779052734375,-0.238983154296875
120485,-0.6221160888671875,0.0785064697265625,0.058807373046875
120486,-0.5143585205078125,0.2751007080078125,0.146697998046875
120487,-0.30859375,0.4927215576171875,0.084503173828125
120488,-0.050689697265625,0.6993408203125,0.0697174072265625
120489,0.1530609130859375,0.8248748779296875,0.119415283203125
120490,0.1805877685546875,0.8198699951171875,0.18682861328125
120491,0.0260467529296875,0.7482452392578125,0.091278076171875
120492,-0.114227294921875,0.6450653076171875,-0.364715576171875
120493,-0.3721160888671875,0.4962921142578125,-1.104141235351562
120494,-1.36480712890625,0.207550048828125,-1.717941284179688
120495,-3.533950805664062,-0.779693603515625,-1.31683349609375
120496,-5.44488525390625,-1.4503173828125,-1.27001953125
120497,-5.848861694335938,-1.80023193359375,-1.589508056640625
120498,-4.646377563476562,-1.99615478515625,0.2440948486328125
120499,-2.946487426757812,-1.465133666992188,1.437088012695312
120500,-1.631912231445312,-1.056564331054688,1.156326293945312
120501,-1.063095092773438,-0.9927215576171876,0.728515625
120502,-0.992950439453125,-1.072769165039062,0.4203033447265625
120503,-0.9813079833984376,-1.1541748046875,0.1254119873046875
120504,-1.027923583984375,-1.35302734375,-0.3435516357421875
120505,-1.057220458984375,-1.756668090820312,-1.04022216796875
120506,-1.084442138671875,-2.287765502929688,-1.685287475585938
120507,-0.88262939453125,-2.772064208984375,-1.615875244140625
120508,-0.88262939453125,-2.772064208984375,-1.615875244140625
120509,-0.620697021484375,-2.383010864257812,-1.219192504882812
120510,-0.4353485107421875,-1.811859130859375,-0.2705230712890625
120511,-0.2493133544921875,-0.5692138671875,0.720489501953125
120512,-0.2493133544921875,-0.5692138671875,0.720489501953125
120513,-0.31439208984375,-0.1147308349609375,0.749664306640625
120514,-0.0473785400390625,-0.26666259765625,0.5272674560546875
120515,0.5603790283203125,-1.244415283203125,-0.488067626953125
120516,0.5603790283203125,-1.244415283203125,-0.488067626953125
120517,0.431304931640625,-1.33856201171875,-0.620391845703125
120518,0.2532806396484375,-1.648468017578125,-0.576446533203125
120519,0.2532806396484375,-1.648468017578125,-0.576446533203125
120520,0.2532806396484375,-1.648468017578125,-0.576446533203125
120521,0.362152099609375,-1.449798583984375,-0.451873779296875
120522,0.595367431640625,-1.255157470703125,-0.382659912109375
120523,0.595367431640625,-1.255157470703125,-0.382659912109375
120524,0.5351409912109375,-1.142852783203125,-0.19476318359375
120525,0.2801971435546875,-0.85357666015625,0.0808258056640625
120526,0.069244384765625,-0.5263214111328125,0.224151611328125
120527,0.1713409423828125,-0.2473297119140625,0.1699981689453125
120528,0.1713409423828125,-0.2473297119140625,0.1699981689453125
120529,0.202728271484375,-0.095550537109375,0.068084716796875
120530,0.2115020751953125,0.04327392578125,-0.0081024169921875
120531,0.1627960205078125,0.016845703125,-0.210784912109375
120532,0.1627960205078125,0.016845703125,-0.210784912109375
120533,0.02288818359375,-0.0102996826171875,-0.3072357177734375
120534,-0.1761474609375,-0.0465850830078125,-0.333282470703125
120535,-0.4027862548828125,-0.063262939453125,-0.2444915771484375
120536,-0.5954742431640625,-0.040985107421875,-0.0987701416015625
120537,-0.7271881103515625,0.0189666748046875,0.067108154296875
120538,-0.783233642578125,0.2191619873046875,0.1677398681640625
120539,-0.783233642578125,0.2191619873046875,0.1677398681640625
120540,-0.7642059326171875,0.292022705078125,0.005645751953125
120541,-0.6854400634765625,0.3749847412109375,-0.0649871826171875
120542,-0.5438995361328125,0.582763671875,0.0656585693359375
120543,-0.304962158203125,0.8048095703125,0.173309326171875
120544,-0.093170166015625,0.9466552734375,0.176666259765625
120545,-0.0298004150390625,0.9899444580078124,0.15032958984375
120546,-0.3875732421875,0.6728515625,-0.7852783203125
120547,-0.3875732421875,0.6728515625,-0.7852783203125
120548,-1.117141723632812,0.2740325927734375,-1.636886596679688
120549,-2.779296875,-0.5242156982421875,-2.009368896484375
120550,-4.640731811523438,-1.194000244140625,-1.814682006835938
120551,-5.051971435546875,-1.60028076171875,-2.352554321289062
120552,-4.001083374023438,-2.438385009765625,-0.97674560546875
120553,-2.428146362304688,-2.1856689453125,1.225738525390625
120554,-0.1683502197265625,-2.22772216796875,0.771820068359375
120555,-0.1683502197265625,-2.22772216796875,0.771820068359375
120556,-0.5461883544921875,-2.322174072265625,0.03131103515625
120557,-0.8287811279296875,-2.281967163085938,-0.66424560546875
120558,-0.8725738525390625,-1.997055053710938,-1.017929077148438
120559,-0.929840087890625,-1.248641967773438,-0.950958251953125
120560,-0.929840087890625,-1.248641967773438,-0.950958251953125
120561,-1.099838256835938,-1.283370971679688,-1.14959716796875
120562,-1.190292358398438,-1.343154907226562,-1.08782958984375
120563,-0.873016357421875,-1.436981201171875,-0.5136260986328125
120564,-0.873016357421875,-1.436981201171875,-0.5136260986328125
120565,-0.5939788818359375,-1.346038818359375,-0.1147918701171875
120566,-0.4194793701171875,-1.07513427734375,0.1738739013671875
120567,-0.375823974609375,-0.7061767578125,0.3739166259765625
120568,-0.21563720703125,-0.5054168701171875,0.3905487060546875
120569,0.1423492431640625,-0.6805572509765625,-0.0274658203125
120570,0.3588409423828125,-1.093475341796875,-0.5856475830078125
120571,0.3588409423828125,-1.093475341796875,-0.5856475830078125
120572,0.2858428955078125,-1.322158813476562,-0.4493408203125
120573,0.1921844482421875,-1.49542236328125,-0.3585662841796875
120574,0.1921844482421875,-1.49542236328125,-0.3585662841796875
120575,0.2143707275390625,-1.646682739257812,-0.2402191162109375
120576,0.319488525390625,-1.616973876953125,-0.2125244140625
120577,0.3818206787109375,-1.49163818359375,-0.2075042724609375
120578,0.300323486328125,-1.228988647460938,-0.2121124267578125
120579,-0.013641357421875,-0.594268798828125,-0.1282958984375
120580,-0.013641357421875,-0.594268798828125,-0.1282958984375
120581,-0.05316162109375,-0.34051513671875,-0.0316619873046875
120582,0.00396728515625,-0.1690826416015625,0.0506591796875
120583,0.1001129150390625,0.0882568359375,-0.0033111572265625
120584,0.1001129150390625,0.0882568359375,-0.0033111572265625
120585,0.12548828125,0.1649932861328125,-0.0776824951171875
120586,0.1488189697265625,0.227142333984375,-0.1168670654296875
120587,0.197509765625,0.2199249267578125,-0.1281890869140625
120588,0.139678955078125,0.1690673828125,-0.127685546875
120589,-0.0344390869140625,0.134857177734375,-0.0985260009765625
120590,-0.23651123046875,0.0804290771484375,-0.0676727294921875
120591,-0.599822998046875,0.0075531005859375,-0.12188720703125
120592,-0.599822998046875,0.0075531005859375,-0.12188720703125
120593,-0.680999755859375,0.0430145263671875,-0.17376708984375
120594,-0.737701416015625,0.1231231689453125,-0.2176513671875
120595,-0.75848388671875,0.1941680908203125,-0.2342529296875
120596,-0.7134552001953125,0.2919769287109375,-0.1250457763671875
120597,-0.5998992919921875,0.4662628173828125,0.0493316650390625
120598,-0.3851318359375,0.6300811767578125,0.148651123046875
120599,-0.059356689453125,0.7097930908203125,0.060699462890625
120600,-0.059356689453125,0.7097930908203125,0.060699462890625
120601,-0.083892822265625,0.6258697509765625,-0.1787872314453125
120602,-0.7711181640625,0.253692626953125,-1.394119262695312
120603,-0.7711181640625,0.253692626953125,-1.394119262695312
120604,-2.027252197265625,-0.2816009521484375,-1.8924560546875
120605,-3.842376708984375,-0.90081787109375,-1.753158569335938
120606,-4.661895751953125,-1.969833374023438,-1.51495361328125
120607,-4.661895751953125,-1.969833374023438,-1.51495361328125
120608,-3.296768188476562,-2.004608154296875,0.6637725830078125
120609,-1.707901000976562,-1.672088623046875,1.427139282226562
120610,-0.8072052001953125,-1.67120361328125,0.994171142578125
120611,-0.711944580078125,-1.7669677734375,0.449127197265625
120612,-0.7898406982421875,-1.787109375,-0.1162567138671875
120613,-0.741546630859375,-1.742660522460938,-0.66656494140625
120614,-0.76361083984375,-1.72869873046875,-1.1890869140625
120615,-0.960784912109375,-1.675018310546875,-1.396072387695312
120616,-0.960784912109375,-1.675018310546875,-1.396072387695312
120617,-1.037704467773438,-1.515869140625,-1.265457153320312
120618,-1.069564819335938,-1.3155517578125,-0.9254150390625
120619,-0.8798980712890625,-1.208419799804688,-0.5096893310546875
120620,-0.624298095703125,-1.193466186523438,-0.114990234375
120621,-0.4718170166015625,-1.0609130859375,0.276885986328125
120622,-0.399627685546875,-0.439788818359375,0.711212158203125
120623,-0.399627685546875,-0.439788818359375,0.711212158203125
120624,-0.04168701171875,-0.5455169677734375,0.3485107421875
120625,0.3253021240234375,-0.9359283447265624,-0.2014007568359375
120626,0.127410888671875,-1.227325439453125,-0.5714263916015625
120627,0.1163330078125,-1.464385986328125,-0.563629150390625
120628,0.1163330078125,-1.464385986328125,-0.563629150390625
120629,0.1091461181640625,-1.700149536132812,-0.5618896484375
120630,0.1806488037109375,-1.89117431640625,-0.538360595703125
120631,0.2134857177734375,-1.641448974609375,-0.267822265625
120632,0.2134857177734375,-1.641448974609375,-0.267822265625
120633,0.2413330078125,-1.35107421875,-0.11419677734375
120634,0.2239990234375,-0.992950439453125,0.0027923583984375
120635,0.063934326171875,-0.6157379150390625,0.1434783935546875
120636,0.038360595703125,-0.3755645751953125,0.1656341552734375
120637,0.1463623046875,-0.2505645751953125,0.127227783203125
120638,0.302215576171875,0.0108642578125,0.0001068115234375
120639,0.3055419921875,0.0688018798828125,-0.0565948486328125
120640,0.3055419921875,0.0688018798828125,-0.0565948486328125
120641,0.3098602294921875,0.034149169921875,-0.1272125244140625
120642,0.3064422607421875,-0.0292510986328125,-0.1747589111328125
120643,0.2177886962890625,-0.08782958984375,-0.184814453125
120644,0.0342559814453125,-0.146148681640625,-0.1641082763671875
120645,-0.1853485107421875,-0.181396484375,-0.1286773681640625
120646,-0.3787841796875,-0.1597137451171875,-0.104705810546875
120647,-0.5495452880859375,-0.0849761962890625,-0.0782623291015625
120648,-0.7050933837890625,-0.00799560546875,-0.04974365234375
120649,-0.8438873291015625,0.07098388671875,-0.067840576171875
120650,-0.9207305908203124,0.176239013671875,-0.03472900390625
120651,-0.8541717529296875,0.357177734375,0.0558319091796875
120652,-0.497100830078125,0.5496063232421875,0.0163726806640625
120653,-0.1085662841796875,0.7418212890625,-0.04144287109375
120654,0.077850341796875,0.8268585205078125,-0.0879669189453125
120655,-0.1455535888671875,0.7486114501953125,-0.489471435546875
120656,-0.1455535888671875,0.7486114501953125,-0.489471435546875
120657,-0.67669677734375,0.720184326171875,-1.1259765625
120658,-1.623153686523438,0.3997802734375,-1.83251953125
120659,-3.409103393554688,-0.1292572021484375,-1.791946411132812
120660,-5.094924926757812,-0.6148681640625,-1.462478637695312
120661,-5.392654418945312,-1.20025634765625,-1.08697509765625
120662,-4.280593872070312,-1.5860595703125,-0.2317657470703125
120663,-2.961471557617188,-1.561279296875,0.5662994384765625
120664,-1.911407470703125,-1.560791015625,0.8976593017578125
120665,-1.433212280273438,-1.750381469726562,0.749420166015625
120666,-1.170730590820312,-1.91168212890625,0.040130615234375
120667,-1.170730590820312,-1.91168212890625,0.040130615234375
120668,-0.4979095458984375,-1.647781372070312,-0.6431884765625
120669,0.137115478515625,-1.475387573242188,-1.293304443359375
120670,-0.025421142578125,-1.32403564453125,-1.287033081054688
120671,-0.025421142578125,-1.32403564453125,-1.287033081054688
120672,-0.3815460205078125,-1.497711181640625,-1.242462158203125
120673,-0.7668914794921875,-1.433578491210938,-1.087020874023438
120674,-0.67523193359375,-0.8898162841796875,0.6783905029296875
120675,-0.67523193359375,-0.8898162841796875,0.6783905029296875
120676,-0.67523193359375,-0.8898162841796875,0.6783905029296875
120677,-0.4083251953125,-0.6802825927734375,0.6369171142578125
120678,-0.0862274169921875,-0.693450927734375,0.3415374755859375
120679,0.282501220703125,-1.166244506835938,-0.341949462890625
120680,0.282501220703125,-1.166244506835938,-0.341949462890625
120681,0.2294464111328125,-1.231842041015625,-0.4647369384765625
120682,0.0914764404296875,-1.441299438476562,-0.48992919921875
120683,0.0914764404296875,-1.441299438476562,-0.48992919921875
120684,0.0411834716796875,-1.577255249023438,-0.418426513671875
120685,0.014923095703125,-1.7852783203125,-0.33673095703125
120686,0.1418609619140625,-1.87188720703125,-0.3153228759765625
120687,0.4149322509765625,-1.623275756835938,-0.2385101318359375
120688,0.6326751708984375,-1.272140502929688,-0.0694580078125
120689,0.6280975341796875,-1.115142822265625,0.1175689697265625
120690,0.1096038818359375,-0.7055206298828125,0.36627197265625
120691,0.1096038818359375,-0.7055206298828125,0.36627197265625
120692,0.14996337890625,-0.5674285888671875,0.277740478515625
120693,0.25634765625,-0.4868011474609375,0.13470458984375
120694,0.172607421875,-0.1563873291015625,-0.2017822265625
120695,0.172607421875,-0.1563873291015625,-0.2017822265625
120696,0.093536376953125,-0.0677337646484375,-0.301605224609375
120697,0.088409423828125,-0.049774169921875,-0.348602294921875
120698,0.0483856201171875,-0.0226287841796875,-0.330352783203125
120699,-0.0903167724609375,0.0019378662109375,-0.275299072265625
120700,-0.312408447265625,0.025482177734375,-0.2017974853515625
120701,-0.5426788330078125,0.0405120849609375,-0.1349945068359375
120702,-0.68243408203125,0.08856201171875,-0.05389404296875
120703,-0.665496826171875,0.1631622314453125,-0.0131378173828125
120704,-0.6131134033203125,0.2061309814453125,-0.0675506591796875
120705,-0.618988037109375,0.2664337158203125,-0.0947113037109375
120706,-0.51708984375,0.6631927490234375,0.0641021728515625
120707,-0.51708984375,0.6631927490234375,0.0641021728515625
120708,-0.4023590087890625,0.7939605712890625,0.1419677734375
120709,-0.2660675048828125,0.8406829833984375,0.1597442626953125
120710,-0.18231201171875,0.795318603515625,0.0465240478515625
120711,-0.1925201416015625,0.66021728515625,-0.230712890625
120712,-0.2982025146484375,0.5148162841796875,-0.6041412353515625
120713,-0.648284912109375,0.335357666015625,-0.9822998046875
120714,-4.338043212890625,-1.226959228515625,-1.7960205078125
120715,-4.338043212890625,-1.226959228515625,-1.7960205078125
120716,-4.338043212890625,-1.226959228515625,-1.7960205078125
120717,-4.83746337890625,-1.699737548828125,-1.49951171875
120718,-2.306442260742188,-2.06396484375,1.546234130859375
120719,-2.306442260742188,-2.06396484375,1.546234130859375
120720,-0.8665008544921875,-1.80718994140625,1.359588623046875
120721,-0.1475982666015625,-1.820770263671875,0.7502899169921875
120722,-0.5069122314453125,-1.928955078125,-0.8326263427734375
120723,-0.5069122314453125,-1.928955078125,-0.8326263427734375
120724,-0.9656219482421876,-2.099029541015625,-1.4942626953125
120725,-1.3555908203125,-2.194900512695312,-1.456329345703125
120726,-1.289154052734375,-2.130355834960938,-1.173995971679688
120727,-1.152816772460938,-1.80908203125,-0.895050048828125
120728,-1.018539428710938,-1.457855224609375,-0.4532318115234375
120729,-0.7920379638671875,-1.127609252929688,-0.14984130859375
120730,-0.181640625,-0.6655120849609375,0.3494110107421875
120731,-0.181640625,-0.6655120849609375,0.3494110107421875
120732,-0.181640625,-0.6655120849609375,0.3494110107421875
120733,-0.2165069580078125,-0.514862060546875,0.3848724365234375
120734,-0.09356689453125,-0.596588134765625,0.1136016845703125
120735,0.0956878662109375,-0.967926025390625,-0.4164886474609375
120736,0.0027313232421875,-1.179183959960938,-0.6923065185546875
120737,-0.153900146484375,-1.351333618164062,-0.740966796875
120738,-0.2783355712890625,-1.73199462890625,-0.4608306884765625
120739,-0.2783355712890625,-1.73199462890625,-0.4608306884765625
120740,-0.2677459716796875,-1.776519775390625,-0.2617645263671875
120741,-0.0967559814453125,-1.719085693359375,-0.01336669921875
120742,0.1840362548828125,-1.508819580078125,0.0853271484375
120743,0.444793701171875,-1.11065673828125,0.056488037109375
120744,0.629119873046875,-0.75079345703125,0.0372161865234375
120745,0.5308074951171875,-0.6028900146484375,0.0880126953125
120746,0.3868865966796875,-0.412994384765625,0.1707305908203125
120747,0.46240234375,-0.28515625,0.08453369140625
120748,0.46240234375,-0.28515625,0.08453369140625
120749,0.4527740478515625,-0.131561279296875,-0.099639892578125
120750,0.389129638671875,-0.0509185791015625,-0.415924072265625
120751,0.389129638671875,-0.0509185791015625,-0.415924072265625
120752,0.4050445556640625,-0.1236572265625,-0.4403839111328125
120753,0.36712646484375,-0.1636505126953125,-0.3825836181640625
120754,-0.047882080078125,-0.2312164306640625,-0.250946044921875
120755,-0.047882080078125,-0.2312164306640625,-0.250946044921875
120756,-0.333770751953125,-0.219940185546875,-0.2302398681640625
120757,-0.6082000732421875,-0.182281494140625,-0.1707611083984375
120758,-0.8699188232421875,0.2816619873046875,0.3258209228515625
120759,-0.8699188232421875,0.2816619873046875,0.3258209228515625
120760,-0.8699188232421875,0.2816619873046875,0.3258209228515625
120761,-0.779388427734375,0.4606170654296875,0.278411865234375
120762,-0.4475555419921875,0.8316650390625,0.2651824951171875
120763,-0.2540130615234375,0.8675079345703125,0.303863525390625
120764,-0.2540130615234375,0.8675079345703125,0.303863525390625
120765,0.0363922119140625,0.626983642578125,-0.1898956298828125
120766,0.0305023193359375,0.5003509521484375,-0.6713714599609375
120767,0.0305023193359375,0.5003509521484375,-0.6713714599609375
120768,-0.290191650390625,0.3560943603515625,-1.384506225585938
120769,-1.290634155273438,-0.1534881591796875,-2.06317138671875
120770,-4.784042358398438,-1.569808959960938,-1.51953125
120771,-4.784042358398438,-1.569808959960938,-1.51953125
120772,-5.432388305664062,-1.81036376953125,-1.026718139648438
120773,-4.7025146484375,-1.947860717773438,0.6746673583984375
120774,-1.900360107421875,-1.512420654296875,0.9866943359375
120775,-1.900360107421875,-1.512420654296875,0.9866943359375
120776,-1.132293701171875,-1.5821533203125,0.6438446044921875
120777,-0.7425384521484375,-1.734832763671875,0.0730438232421875
120778,-0.114715576171875,-1.860198974609375,-1.396102905273438
120779,-0.114715576171875,-1.860198974609375,-1.396102905273438
120780,-0.057830810546875,-2.200103759765625,-1.616928100585938
120781,-0.2141876220703125,-2.259750366210938,-1.477554321289062
120782,-0.886138916015625,-1.320480346679688,-0.297637939453125
120783,-0.886138916015625,-1.320480346679688,-0.297637939453125
120784,-0.886138916015625,-1.320480346679688,-0.297637939453125
120785,-0.820037841796875,-1.074310302734375,0.044891357421875
120786,-0.4640045166015625,-0.5456390380859375,0.3500518798828125
120787,-0.4640045166015625,-0.5456390380859375,0.3500518798828125
120788,-0.4640045166015625,-0.5456390380859375,0.3500518798828125
120789,-0.2907257080078125,-0.619140625,0.1546630859375
120790,-0.1739959716796875,-1.0638427734375,-0.4214630126953125
120791,-0.1739959716796875,-1.0638427734375,-0.4214630126953125
120792,-0.1739959716796875,-1.0638427734375,-0.4214630126953125
120793,-0.2424468994140625,-1.217910766601562,-0.3418731689453125
120794,0.1050262451171875,-1.646270751953125,-0.2213287353515625
120795,0.1050262451171875,-1.646270751953125,-0.2213287353515625
120796,0.4869384765625,-1.712356567382812,-0.357269287109375
120797,0.7688140869140625,-1.662155151367188,-0.5207977294921875
120798,0.77520751953125,-1.407180786132812,-0.292327880859375
120799,0.77520751953125,-1.407180786132812,-0.292327880859375
120800,0.456634521484375,-1.180908203125,-0.0295867919921875
120801,0.2813720703125,-0.840362548828125,0.1168060302734375
120802,0.04193115234375,-0.2292327880859375,0.257843017578125
120803,0.04193115234375,-0.2292327880859375,0.257843017578125
120804,-0.03497314453125,-0.0585174560546875,0.150482177734375
120805,-0.0893707275390625,0.04345703125,-0.01068115234375
120806,0.0211334228515625,0.115966796875,-0.1699981689453125
120807,0.0211334228515625,0.115966796875,-0.1699981689453125
120808,0.1346435546875,0.0921630859375,-0.18414306640625
120809,0.104095458984375,0.0462799072265625,-0.20660400390625
120810,-0.2686920166015625,-0.043975830078125,-0.097442626953125
120811,-0.2686920166015625,-0.043975830078125,-0.097442626953125
120812,-0.45428466796875,-0.1304779052734375,-0.1528778076171875
120813,-0.567352294921875,-0.1608123779296875,-0.2183837890625
120814,-0.59014892578125,0.076629638671875,-0.27008056640625
120815,-0.59014892578125,0.076629638671875,-0.27008056640625
120816,-0.5987701416015625,0.2368927001953125,-0.174407958984375
120817,-0.584747314453125,0.3609161376953125,-0.043121337890625
120818,-0.2246551513671875,0.920379638671875,0.266876220703125
120819,-0.2246551513671875,0.920379638671875,0.266876220703125
120820,-0.2246551513671875,0.920379638671875,0.266876220703125
120821,0.001983642578125,1.033706665039062,0.076995849609375
120822,-0.1517791748046875,0.61102294921875,-0.8163604736328125
120823,-0.1517791748046875,0.61102294921875,-0.8163604736328125
120824,-0.876708984375,0.2275543212890625,-1.492202758789062
120825,-2.2269287109375,-0.3795013427734375,-2.017288208007812
120826,-4.593475341796875,-0.99920654296875,-1.8697509765625
120827,-4.593475341796875,-0.99920654296875,-1.8697509765625
120828,-4.44085693359375,-1.92620849609375,-1.001983642578125
120829,-3.508041381835938,-2.2149658203125,0.9117279052734376
120830,-0.339752197265625,-2.161041259765625,0.248321533203125
120831,-0.339752197265625,-2.161041259765625,0.248321533203125
120832,-0.339752197265625,-2.161041259765625,0.248321533203125
120833,-0.4866943359375,-2.193740844726562,-0.4356536865234375
120834,-0.9893951416015624,-1.677413940429688,-1.15728759765625
120835,-0.9893951416015624,-1.677413940429688,-1.15728759765625
120836,-0.9893951416015624,-1.677413940429688,-1.15728759765625
120837,-1.096649169921875,-1.771453857421875,-1.390853881835938
120838,-0.6135711669921875,-1.492782592773438,-0.1268310546875
120839,-0.6135711669921875,-1.492782592773438,-0.1268310546875
120840,-0.6135711669921875,-1.492782592773438,-0.1268310546875
120841,-0.417388916015625,-1.181198120117188,0.231048583984375
120842,-0.4329833984375,-0.567962646484375,0.474761962890625
120843,-0.262451171875,-0.6390228271484375,0.1992645263671875
120844,-0.262451171875,-0.6390228271484375,0.1992645263671875
120845,-0.014007568359375,-1.034744262695312,-0.3282012939453125
120846,-0.163116455078125,-1.251724243164062,-0.7144927978515625
120847,-0.163116455078125,-1.251724243164062,-0.7144927978515625
120848,-0.251922607421875,-1.387039184570312,-0.5716400146484375
120849,-0.24298095703125,-1.513671875,-0.38232421875
120850,0.025848388671875,-1.456466674804688,-0.1643218994140625
120851,0.025848388671875,-1.456466674804688,-0.1643218994140625
120852,0.156219482421875,-1.276535034179688,-0.132049560546875
120853,0.2936553955078125,-1.032913208007812,-0.0806427001953125
120854,0.3792572021484375,-0.4655914306640625,0.057586669921875
120855,0.28875732421875,-0.2571258544921875,0.202972412109375
120856,0.28875732421875,-0.2571258544921875,0.202972412109375
120857,0.3365478515625,-0.138427734375,0.2393035888671875
120858,0.5189056396484375,0.0865936279296875,0.0794525146484375
120859,0.5189056396484375,0.0865936279296875,0.0794525146484375
120860,0.54290771484375,0.12237548828125,-0.0853424072265625
120861,0.5415496826171875,0.02972412109375,-0.27069091796875
120862,0.068084716796875,-0.2497100830078125,-0.42205810546875
120863,0.068084716796875,-0.2497100830078125,-0.42205810546875
120864,0.068084716796875,-0.2497100830078125,-0.42205810546875
120865,-0.2339630126953125,-0.2870941162109375,-0.3737030029296875
120866,-0.7130584716796875,-0.2862701416015625,-0.1525115966796875
120867,-0.7130584716796875,-0.2862701416015625,-0.1525115966796875
120868,-0.8033905029296875,-0.2015838623046875,-0.0521087646484375
120869,-0.809661865234375,-0.08917236328125,-0.041839599609375
120870,-0.7179718017578125,0.195831298828125,0.129119873046875
120871,-0.7179718017578125,0.195831298828125,0.129119873046875
120872,-0.50439453125,0.3850250244140625,0.16644287109375
120873,-0.244232177734375,0.62127685546875,0.1323394775390625
120874,0.0929412841796875,0.8727264404296875,0.0670623779296875
120875,0.0929412841796875,0.8727264404296875,0.0670623779296875
120876,0.0966033935546875,0.8221435546875,-0.06591796875
120877,-0.0021514892578125,0.687042236328125,-0.5208892822265625
120878,-0.3224029541015625,0.4514312744140625,-1.24261474609375
120879,-2.623046875,-0.6489105224609375,-1.920639038085938
120880,-2.623046875,-0.6489105224609375,-1.920639038085938
120881,-4.149993896484375,-1.125320434570312,-1.793380737304688
120882,-4.689971923828125,-2.27301025390625,-0.431121826171875
120883,-4.689971923828125,-2.27301025390625,-0.431121826171875
120884,-3.333648681640625,-1.97247314453125,1.459716796875
120885,-1.774169921875,-1.83941650390625,1.368728637695312
120886,-0.5280914306640625,-1.653488159179688,0.0524139404296875
120887,-0.5280914306640625,-1.653488159179688,0.0524139404296875
120888,-0.4039154052734375,-1.642562866210938,-0.6870880126953125
120889,-0.351898193359375,-1.609451293945312,-1.135040283203125
120890,-0.8510589599609375,-1.811065673828125,-1.169586181640625
120891,-0.8648681640625,-1.800979614257812,-1.213836669921875
120892,-0.8648681640625,-1.800979614257812,-1.213836669921875
120893,-1.0489501953125,-1.595870971679688,-0.8656158447265625
120894,-0.87542724609375,-1.315536499023438,-0.1584930419921875
120895,-0.87542724609375,-1.315536499023438,-0.1584930419921875
120896,-0.616851806640625,-1.143905639648438,0.04931640625
120897,-0.42657470703125,-0.907318115234375,0.24017333984375
120898,0.132904052734375,-1.14483642578125,-0.3432769775390625
120899,0.132904052734375,-1.14483642578125,-0.3432769775390625
120900,0.132904052734375,-1.14483642578125,-0.3432769775390625
120901,0.1026153564453125,-1.25140380859375,-0.562225341796875
120902,-0.0137939453125,-1.536117553710938,-0.4448394775390625
120903,-0.0137939453125,-1.536117553710938,-0.4448394775390625
120904,0.0238037109375,-1.673202514648438,-0.3765716552734375
120905,0.1438446044921875,-1.765426635742188,-0.281982421875
120906,0.44970703125,-1.589065551757812,-0.234649658203125
120907,0.44970703125,-1.589065551757812,-0.234649658203125
120908,0.502105712890625,-1.301361083984375,-0.1711273193359375
120909,0.39544677734375,-0.965240478515625,-0.0626068115234375
120910,0.160858154296875,-0.16851806640625,0.226654052734375
120911,0.160858154296875,-0.16851806640625,0.226654052734375
120912,0.160858154296875,-0.16851806640625,0.226654052734375
120913,0.2411651611328125,-0.051361083984375,0.1462860107421875
120914,0.277252197265625,0.0932769775390625,-0.1392059326171875
120915,0.277252197265625,0.0932769775390625,-0.1392059326171875
120916,0.3316192626953125,0.0152435302734375,-0.2746429443359375
120917,0.3365631103515625,-0.0521697998046875,-0.3236846923828125
120918,0.045257568359375,-0.1315155029296875,-0.25848388671875
120919,0.045257568359375,-0.1315155029296875,-0.25848388671875
120920,-0.201995849609375,-0.17572021484375,-0.176116943359375
120921,-0.4793243408203125,-0.172607421875,-0.0719451904296875
120922,-0.90234375,0.012237548828125,0.1185150146484375
120923,-0.90234375,0.012237548828125,0.1185150146484375
120924,-0.9813995361328124,0.1651153564453125,0.0878143310546875
120925,-1.029541015625,0.279296875,-0.001068115234375
120926,-1.017364501953125,0.4161224365234375,0.0531005859375
120927,-0.3681640625,0.6676483154296875,0.1169281005859375
120928,-0.3681640625,0.6676483154296875,0.1169281005859375
120929,-0.0045623779296875,0.749114990234375,0.052886962890625
120930,0.28875732421875,0.7132568359375,-0.1866302490234375
120931,0.28875732421875,0.7132568359375,-0.1866302490234375
120932,0.276458740234375,0.5989227294921875,-0.4115142822265625
120933,0.1323394775390625,0.4480133056640625,-0.7622833251953125
120934,-1.331085205078125,-0.2480316162109375,-1.894302368164062
120935,-1.331085205078125,-0.2480316162109375,-1.894302368164062
120936,-3.041580200195312,-1.101776123046875,-1.66424560546875
120937,-4.9039306640625,-1.425369262695312,-1.285324096679688
120938,-4.8341064453125,-2.15191650390625,0.6726226806640625
120939,-4.8341064453125,-2.15191650390625,0.6726226806640625
120940,-2.790802001953125,-1.826934814453125,1.341049194335938
120941,-1.320114135742188,-1.680862426757812,1.0260009765625
120942,-0.6202850341796875,-1.679931640625,0.2249298095703125
120943,-0.6202850341796875,-1.679931640625,0.2249298095703125
120944,-0.49810791015625,-1.60797119140625,-0.5954437255859375
120945,-0.3909759521484375,-1.61712646484375,-1.276123046875
120946,-0.873992919921875,-1.818038940429688,-1.180511474609375
120947,-0.873992919921875,-1.818038940429688,-1.180511474609375
120948,-0.873992919921875,-1.818038940429688,-1.180511474609375
120949,-0.916595458984375,-1.7374267578125,-0.876220703125
120950,-0.7060394287109375,-1.47320556640625,-0.0110321044921875
120951,-0.7060394287109375,-1.47320556640625,-0.0110321044921875
120952,-0.6469268798828125,-1.100173950195312,0.269561767578125
120953,-0.6210784912109375,-0.762969970703125,0.478302001953125
120954,0.184112548828125,-1.021697998046875,-0.034454345703125
120955,0.184112548828125,-1.021697998046875,-0.034454345703125
120956,0.412109375,-1.193496704101562,-0.4081268310546875
120957,0.40692138671875,-1.262100219726562,-0.447418212890625
120958,0.3753814697265625,-1.465911865234375,-0.3191986083984375
120959,0.3753814697265625,-1.465911865234375,-0.3191986083984375
120960,0.41949462890625,-1.52008056640625,-0.3498077392578125
120961,0.4199676513671875,-1.480926513671875,-0.42376708984375
120962,0.214080810546875,-1.0966796875,-0.1677093505859375
120963,0.214080810546875,-1.0966796875,-0.1677093505859375
120964,0.214080810546875,-1.0966796875,-0.1677093505859375
120965,-0.0134429931640625,-0.851104736328125,0.0491943359375
120966,-0.0815277099609375,-0.3297119140625,0.1731109619140625
120967,-0.0815277099609375,-0.3297119140625,0.1731109619140625
120968,-0.014984130859375,-0.1829376220703125,0.1346588134765625
120969,0.050567626953125,-0.0730133056640625,0.0436553955078125
120970,0.151611328125,0.0752410888671875,-0.256744384765625
120971,0.151611328125,0.0752410888671875,-0.256744384765625
120972,0.2597198486328125,0.05438232421875,-0.328277587890625
120973,0.2963409423828125,0.007843017578125,-0.3193359375
120974,-0.0304107666015625,-0.1220550537109375,-0.1977691650390625
120975,-0.0304107666015625,-0.1220550537109375,-0.1977691650390625
120976,-0.2479095458984375,-0.1787567138671875,-0.13531494140625
120977,-0.4424591064453125,-0.1800689697265625,-0.07830810546875
120978,-0.6330413818359375,-0.085418701171875,0.0453643798828125
120979,-0.6330413818359375,-0.085418701171875,0.0453643798828125
120980,-0.6773223876953125,-0.0085906982421875,0.07427978515625
120981,-0.684814453125,0.1430206298828125,0.06842041015625
120982,-0.336822509765625,0.5383453369140625,0.0368804931640625
120983,-0.336822509765625,0.5383453369140625,0.0368804931640625
120984,-0.144561767578125,0.761566162109375,0.1086578369140625
120985,-0.0628814697265625,0.86700439453125,0.1978302001953125
120986,-0.1663818359375,0.7704620361328125,-0.31890869140625
120987,-0.1663818359375,0.7704620361328125,-0.31890869140625
120988,-0.4762725830078125,0.590179443359375,-1.123489379882812
120989,-1.315322875976562,0.13519287109375,-2.134170532226562
120990,-4.544509887695312,-1.690887451171875,-2.148208618164062
120991,-4.544509887695312,-1.690887451171875,-2.148208618164062
120992,-4.935165405273438,-2.312515258789062,-1.759124755859375
120993,-4.187179565429688,-2.866287231445312,0.3536224365234375
120994,-1.09564208984375,-2.043350219726562,0.8884124755859375
120995,-1.09564208984375,-2.043350219726562,0.8884124755859375
120996,-0.5429229736328125,-1.946258544921875,0.3677978515625
120997,-0.6691741943359375,-1.931121826171875,0.0445709228515625
120998,-0.6998443603515625,-1.473770141601562,-0.8011016845703125
120999,-0.6998443603515625,-1.473770141601562,-0.8011016845703125
121000,-0.690460205078125,-1.343124389648438,-0.7998504638671875
121001,-0.7823028564453125,-1.528671264648438,-0.879547119140625
121002,-1.199478149414062,-1.6622314453125,-1.396881103515625
121003,-1.199478149414062,-1.6622314453125,-1.396881103515625
121004,-1.154083251953125,-1.538803100585938,-1.006576538085938
121005,-0.9052276611328124,-1.347366333007812,-0.397491455078125
121006,-0.29931640625,-0.7189788818359375,0.3738250732421875
121007,-0.29931640625,-0.7189788818359375,0.3738250732421875
121008,-0.1624755859375,-0.375152587890625,0.4033660888671875
121009,0.075286865234375,-0.3397369384765625,0.066558837890625
121010,0.3495025634765625,-1.120101928710938,-0.818359375
121011,0.3495025634765625,-1.120101928710938,-0.818359375
121012,0.1769561767578125,-1.266891479492188,-0.78466796875
121013,0.0044097900390625,-1.450759887695312,-0.654205322265625
121014,-0.1001129150390625,-1.595794677734375,-0.3374176025390625
121015,-0.1001129150390625,-1.595794677734375,-0.3374176025390625
121016,-0.0414581298828125,-1.5653076171875,-0.246002197265625
121017,0.1392974853515625,-1.460098266601562,-0.2032928466796875
121018,0.4475860595703125,-1.010971069335938,-0.12847900390625
121019,0.4475860595703125,-1.010971069335938,-0.12847900390625
121020,0.3050079345703125,-0.7885589599609375,-0.04327392578125
121021,0.192230224609375,-0.56744384765625,0.116424560546875
121022,0.3150177001953125,-0.1270751953125,0.2464752197265625
121023,0.3150177001953125,-0.1270751953125,0.2464752197265625
121024,0.2890472412109375,0.0234375,0.2245025634765625
121025,0.2456512451171875,0.0774383544921875,0.0773773193359375
121026,0.202301025390625,0.0142059326171875,-0.195281982421875
121027,0.202301025390625,0.0142059326171875,-0.195281982421875
121028,0.1619110107421875,-6.103515625e-05,-0.205078125
121029,0.0569305419921875,-0.03656005859375,-0.2022705078125
121030,-0.530975341796875,-0.05120849609375,0.103759765625
121031,-0.530975341796875,-0.05120849609375,0.103759765625
121032,-0.530975341796875,-0.05120849609375,0.103759765625
121033,-0.6604766845703125,-0.027984619140625,0.0964202880859375
121034,-0.6631317138671875,0.0467681884765625,-0.22235107421875
121035,-0.6631317138671875,0.0467681884765625,-0.22235107421875
121036,-0.663360595703125,0.1217193603515625,-0.228424072265625
121037,-0.62432861328125,0.275604248046875,-0.0998077392578125
121038,-0.184326171875,0.772369384765625,0.0221099853515625
121039,-0.184326171875,0.772369384765625,0.0221099853515625
121040,-0.184326171875,0.772369384765625,0.0221099853515625
121041,-0.1023406982421875,0.765350341796875,0.078277587890625
121042,-0.0240936279296875,0.5369873046875,-0.39068603515625
121043,-0.0240936279296875,0.5369873046875,-0.39068603515625
121044,-0.366668701171875,0.303497314453125,-0.9925689697265624
121045,-1.161911010742188,-0.03302001953125,-1.6405029296875
121046,-3.536422729492188,-0.786376953125,-1.568115234375
121047,-3.536422729492188,-0.786376953125,-1.568115234375
121048,-4.221343994140625,-0.9449920654296876,-1.726715087890625
121049,-4.366500854492188,-1.671279907226562,-1.367996215820312
121050,-1.878311157226562,-2.013839721679688,1.362045288085938
121051,-1.878311157226562,-2.013839721679688,1.362045288085938
121052,-0.5748138427734375,-2.228469848632812,1.018508911132812
121053,-0.2389068603515625,-2.302703857421875,0.2678375244140625
121054,-0.7373809814453125,-1.982315063476562,-1.090835571289062
121055,-0.7373809814453125,-1.982315063476562,-1.090835571289062
121056,-1.116531372070312,-1.641357421875,-1.193115234375
121057,-1.3857421875,-1.665420532226562,-1.285263061523438
121058,-1.334823608398438,-1.547256469726562,-1.037643432617188
121059,-1.334823608398438,-1.547256469726562,-1.037643432617188
121060,-1.07470703125,-1.505844116210938,-0.5925140380859375
121061,-0.761566162109375,-1.420181274414062,-0.13214111328125
121062,-0.4285888671875,-0.8696136474609375,0.435028076171875
121063,-0.4285888671875,-0.8696136474609375,0.435028076171875
121064,-0.3002777099609375,-0.6681060791015625,0.40704345703125
121065,-0.1126708984375,-0.7406005859375,0.1463165283203125
121066,-0.0719146728515625,-1.125839233398438,-0.427093505859375
121067,-0.0719146728515625,-1.125839233398438,-0.427093505859375
121068,-0.16729736328125,-1.210662841796875,-0.4353790283203125
121069,-0.2262420654296875,-1.33074951171875,-0.4057769775390625
121070,-0.107757568359375,-1.55169677734375,-0.24969482421875
121071,-0.107757568359375,-1.55169677734375,-0.24969482421875
121072,0.051727294921875,-1.595977783203125,-0.1596221923828125
121073,0.2833251953125,-1.519149780273438,-0.1054840087890625
121074,0.5582427978515625,-1.031631469726562,-0.0567779541015625
121075,0.5582427978515625,-1.031631469726562,-0.0567779541015625
121076,0.353668212890625,-0.7194671630859375,0.07159423828125
121077,0.1514892578125,-0.420806884765625,0.214447021484375
121078,0.3208465576171875,-0.1514129638671875,0.1085052490234375
121079,0.3208465576171875,-0.1514129638671875,0.1085052490234375
121080,0.380706787109375,-0.0373992919921875,-0.001190185546875
121081,0.3673553466796875,0.0620574951171875,-0.1233673095703125
121082,0.362213134765625,0.0133209228515625,-0.38665771484375
121083,0.3000030517578125,0.0041351318359375,-0.4018707275390625
121084,0.3000030517578125,0.0041351318359375,-0.4018707275390625
121085,0.1666107177734375,-0.0209808349609375,-0.3651885986328125
121086,-0.30328369140625,-0.0993499755859375,-0.117156982421875
121087,-0.30328369140625,-0.0993499755859375,-0.117156982421875
121088,-0.5240325927734375,-0.1261138916015625,0.043609619140625
121089,-0.693634033203125,-0.0966796875,0.1529083251953125
121090,-0.7922821044921875,0.1344146728515625,-0.212005615234375
121091,-0.7922821044921875,0.1344146728515625,-0.212005615234375
121092,-0.7922821044921875,0.1344146728515625,-0.212005615234375
121093,-0.7364959716796875,0.294342041015625,-0.18048095703125
121094,-0.259246826171875,0.7498779296875,0.05780029296875
121095,-0.259246826171875,0.7498779296875,0.05780029296875
121096,-0.0458984375,0.884765625,0.1307830810546875
121097,0.06317138671875,0.882537841796875,0.142333984375
121098,0.083709716796875,0.6636810302734375,-0.3464202880859375
121099,0.083709716796875,0.6636810302734375,-0.3464202880859375
121100,-0.1784210205078125,0.4443206787109375,-0.9611358642578124
121101,-1.020004272460938,-0.0762481689453125,-1.628463745117188
121102,-4.49456787109375,-1.325332641601562,-1.325363159179688
121103,-4.49456787109375,-1.325332641601562,-1.325363159179688
121104,-5.324417114257812,-1.661117553710938,-1.539398193359375
121105,-4.9813232421875,-2.386962890625,-1.176528930664062
121106,-1.241043090820312,-2.494720458984375,1.349075317382812
121107,-1.241043090820312,-2.494720458984375,1.349075317382812
121108,-0.02557373046875,-2.362014770507812,1.046890258789062
121109,-0.0372314453125,-2.2415771484375,0.26513671875
121110,-0.971282958984375,-1.546005249023438,-1.286483764648438
121111,-0.971282958984375,-1.546005249023438,-1.286483764648438
121112,-1.222122192382812,-1.391433715820312,-1.167617797851562
121113,-1.309295654296875,-1.548126220703125,-1.086395263671875
121114,-1.214950561523438,-1.463424682617188,-0.667755126953125
121115,-0.965118408203125,-1.3089599609375,-0.2714385986328125
121116,-0.965118408203125,-1.3089599609375,-0.2714385986328125
121117,-0.640411376953125,-0.99493408203125,0.049774169921875
121118,-0.388275146484375,-0.4412841796875,0.2591552734375
121119,-0.388275146484375,-0.4412841796875,0.2591552734375
121120,-0.2774810791015625,-0.5231781005859375,0.014892578125
121121,-0.069732666015625,-0.955291748046875,-0.4681549072265625
121122,-0.073883056640625,-1.225540161132812,-0.8297271728515625
121123,-0.1314239501953125,-1.267532348632812,-0.8779754638671875
121124,-0.1558990478515625,-1.317184448242188,-0.7552642822265625
121125,-0.126251220703125,-1.387924194335938,-0.5400543212890625
121126,0.0354156494140625,-1.457962036132812,-0.1478424072265625
121127,0.0354156494140625,-1.457962036132812,-0.1478424072265625
121128,0.232208251953125,-1.439041137695312,-0.15667724609375
121129,0.5588836669921875,-1.278076171875,-0.280670166015625
121130,0.8160552978515625,-0.878509521484375,-0.146087646484375
121131,0.8160552978515625,-0.878509521484375,-0.146087646484375
121132,0.539642333984375,-0.7758636474609375,0.0886383056640625
121133,0.2760467529296875,-0.5350189208984375,0.259185791015625
121134,0.3214874267578125,-0.2399139404296875,0.112152099609375
121135,0.3214874267578125,-0.2399139404296875,0.112152099609375
121136,0.3130950927734375,-0.15478515625,-0.0257568359375
121137,0.254791259765625,-0.0888671875,-0.170379638671875
121138,0.26824951171875,-0.1263275146484375,-0.32244873046875
121139,0.26824951171875,-0.1263275146484375,-0.32244873046875
121140,0.2089996337890625,-0.1372833251953125,-0.280731201171875
121141,0.0370330810546875,-0.1391754150390625,-0.2191162109375
121142,-0.4897613525390625,-0.1253814697265625,-0.0188751220703125
121143,-0.4897613525390625,-0.1253814697265625,-0.0188751220703125
121144,-0.7052154541015625,-0.0639495849609375,0.1300201416015625
121145,-0.81658935546875,0.0575103759765625,0.2293701171875
121146,-0.869110107421875,0.349334716796875,0.17559814453125
121147,-0.869110107421875,0.349334716796875,0.17559814453125
121148,-0.922393798828125,0.485321044921875,0.198089599609375
121149,-0.8654327392578125,0.6577911376953125,0.2207794189453125
121150,-0.4167327880859375,0.9151458740234376,0.23345947265625
121151,-0.4167327880859375,0.9151458740234376,0.23345947265625
121152,-0.2115631103515625,0.913848876953125,0.172607421875
121153,-0.107086181640625,0.8280029296875,-0.0149688720703125
121154,-0.2375030517578125,0.3263092041015625,-1.178634643554688
121155,-0.2375030517578125,0.3263092041015625,-1.178634643554688
121156,-1.0482177734375,-0.12744140625,-1.952651977539062
121157,-2.547439575195312,-0.9754486083984376,-1.94573974609375
121158,-4.354248046875,-1.596481323242188,-1.319244384765625
121159,-4.354248046875,-1.596481323242188,-1.319244384765625
121160,-4.03192138671875,-2.124786376953125,-0.256439208984375
121161,-2.803802490234375,-2.070877075195312,0.696624755859375
121162,-0.4268951416015625,-2.202667236328125,0.2645416259765625
121163,-0.262298583984375,-2.212921142578125,-0.10205078125
121164,-0.262298583984375,-2.212921142578125,-0.10205078125
121165,-0.36065673828125,-2.250595092773438,-0.715301513671875
121166,-1.098968505859375,-1.89959716796875,-0.94903564453125
121167,-1.098968505859375,-1.89959716796875,-0.94903564453125
121168,-1.237289428710938,-1.7850341796875,-0.884521484375
121169,-1.3369140625,-1.535781860351562,-0.7501373291015625
121170,-0.9515380859375,-1.328475952148438,-0.33856201171875
121171,-0.9515380859375,-1.328475952148438,-0.33856201171875
121172,-0.6498260498046875,-1.185226440429688,-0.079925537109375
121173,-0.42291259765625,-0.972503662109375,0.216827392578125
121174,-0.08221435546875,-0.5983123779296875,0.2365264892578125
121175,-0.08221435546875,-0.5983123779296875,0.2365264892578125
121176,0.1527557373046875,-0.7447357177734375,-0.23968505859375
121177,0.2847900390625,-1.01824951171875,-0.7026214599609375
121178,0.2063140869140625,-1.4609375,-0.7711639404296875
121179,0.2063140869140625,-1.4609375,-0.7711639404296875
121180,0.0885772705078125,-1.68231201171875,-0.629364013671875
121181,-0.0496063232421875,-1.810440063476562,-0.3791046142578125
121182,0.2068023681640625,-1.690261840820312,0.1549835205078125
121183,0.2068023681640625,-1.690261840820312,0.1549835205078125
121184,0.5371551513671875,-1.32037353515625,0.0686187744140625
121185,0.68658447265625,-1.020767211914062,-0.061614990234375
121186,0.24871826171875,-0.7957000732421875,0.119415283203125
121187,0.24871826171875,-0.7957000732421875,0.119415283203125
121188,0.04119873046875,-0.62646484375,0.13580322265625
121189,-0.0015106201171875,-0.4075775146484375,0.10943603515625
121190,0.0321044921875,-0.1956329345703125,-0.0242462158203125
121191,0.0321044921875,-0.1956329345703125,-0.0242462158203125
121192,-0.00927734375,-0.101043701171875,-0.11279296875
121193,-0.04022216796875,-0.06787109375,-0.201171875
121194,0.0595855712890625,-0.074127197265625,-0.319580078125
121195,0.0595855712890625,-0.074127197265625,-0.319580078125
121196,-0.0005950927734375,-0.0291900634765625,-0.2522430419921875
121197,-0.168731689453125,0.0656280517578125,-0.1226348876953125
121198,-0.615875244140625,0.1819000244140625,0.143951416015625
121199,-0.615875244140625,0.1819000244140625,0.143951416015625
121200,-0.795867919921875,0.2227935791015625,0.224151611328125
121201,-0.853424072265625,0.27960205078125,0.2200775146484375
121202,-0.78082275390625,0.29754638671875,0.1365966796875
121203,-0.78082275390625,0.29754638671875,0.1365966796875
121204,-0.67962646484375,0.315338134765625,0.125823974609375
121205,-0.5295562744140625,0.3826446533203125,0.1624298095703125
121206,-0.1346282958984375,0.5382537841796875,0.0670013427734375
121207,-0.1346282958984375,0.5382537841796875,0.0670013427734375
121208,0.0247802734375,0.598114013671875,-0.113494873046875
121209,0.1262969970703125,0.5683135986328125,-0.434661865234375
121210,-0.258941650390625,0.0572662353515625,-1.627685546875
121211,-0.258941650390625,0.0572662353515625,-1.627685546875
121212,-1.201034545898438,-0.5872955322265625,-1.7706298828125
121213,-2.409683227539062,-1.181549072265625,-1.580810546875
121214,-4.092544555664062,-2.018173217773438,-1.541641235351562
121215,-4.092544555664062,-2.018173217773438,-1.541641235351562
121216,-3.869659423828125,-2.67822265625,0.0171356201171875
121217,-2.436141967773438,-2.437606811523438,0.8298492431640625
121218,0.08209228515625,-2.231903076171875,0.090850830078125
121219,0.08209228515625,-2.231903076171875,0.090850830078125
121220,-0.065673828125,-2.262863159179688,-0.3078155517578125
121221,-0.466461181640625,-2.259963989257812,-0.877899169921875
121222,-1.522262573242188,-2.12176513671875,-1.127243041992188
121223,-1.522262573242188,-2.12176513671875,-1.127243041992188
121224,-1.586990356445312,-1.996490478515625,-1.1070556640625
121225,-1.508346557617188,-1.76580810546875,-0.802581787109375
121226,-0.744354248046875,-1.3155517578125,-0.0107421875
121227,-0.744354248046875,-1.3155517578125,-0.0107421875
121228,-0.355804443359375,-0.9624786376953124,0.1299285888671875
121229,-0.122650146484375,-0.689666748046875,0.1203155517578125
121230,-0.0607757568359375,-0.7433929443359375,-0.3882293701171875
121231,-0.0607757568359375,-0.7433929443359375,-0.3882293701171875
121232,-0.1132659912109375,-1.029464721679688,-0.7187042236328125
121233,-0.191650390625,-1.231796264648438,-0.9269256591796876
121234,-0.339691162109375,-1.563339233398438,-0.7889251708984375
121235,-0.339691162109375,-1.563339233398438,-0.7889251708984375
121236,-0.3680572509765625,-1.705978393554688,-0.4618072509765625
121237,-0.2760772705078125,-1.76373291015625,-0.1583099365234375
121238,0.480743408203125,-1.156173706054688,0.0336761474609375
121239,0.808868408203125,-0.7849273681640625,-0.047943115234375
121240,0.808868408203125,-0.7849273681640625,-0.047943115234375
121241,0.8238067626953125,-0.6629791259765625,-0.0941314697265625
121242,0.460357666015625,-0.604400634765625,0.097442626953125
121243,0.460357666015625,-0.604400634765625,0.097442626953125
121244,0.321990966796875,-0.3626861572265625,0.1740264892578125
121245,0.27899169921875,-0.193389892578125,0.1397552490234375
121246,0.107513427734375,0.0499267578125,-0.074432373046875
121247,0.107513427734375,0.0499267578125,-0.074432373046875
121248,0.024200439453125,0.1060028076171875,-0.1472930908203125
121249,-0.000732421875,0.0655517578125,-0.2038726806640625
121250,0.00982666015625,-0.082061767578125,-0.3016357421875
121251,0.00982666015625,-0.082061767578125,-0.3016357421875
121252,-0.119049072265625,-0.1506195068359375,-0.1790618896484375
121253,-0.3646697998046875,-0.2174835205078125,-0.08477783203125
121254,-0.8080902099609375,-0.1033782958984375,0.010955810546875
121255,-0.8080902099609375,-0.1033782958984375,0.010955810546875
121256,-0.8459014892578125,0.067962646484375,0.096282958984375
121257,-0.80718994140625,0.1858673095703125,0.17095947265625
121258,-0.6365966796875,0.417327880859375,0.2425994873046875
121259,-0.6365966796875,0.417327880859375,0.2425994873046875
121260,-0.5226898193359375,0.5726776123046875,0.2574005126953125
121261,-0.3853759765625,0.725189208984375,0.282806396484375
121262,-0.1085357666015625,0.806732177734375,-0.0398101806640625
121263,-0.1085357666015625,0.806732177734375,-0.0398101806640625
121264,-0.0307769775390625,0.656982421875,-0.4023284912109375
121265,-0.062164306640625,0.44207763671875,-0.9431610107421876
121266,-1.503509521484375,-0.599090576171875,-2.128219604492188
121267,-1.503509521484375,-0.599090576171875,-2.128219604492188
121268,-2.85101318359375,-1.295318603515625,-2.057357788085938
121269,-3.879470825195312,-1.630935668945312,-2.236221313476562
121270,-3.520736694335938,-2.917068481445312,0.532989501953125
121271,-3.520736694335938,-2.917068481445312,0.532989501953125
121272,-1.729705810546875,-2.804244995117188,1.28692626953125
121273,-0.1581268310546875,-2.818267822265625,0.709503173828125
121274,-0.48052978515625,-2.162353515625,-0.6708526611328125
121275,-0.48052978515625,-2.162353515625,-0.6708526611328125
121276,-1.075775146484375,-1.8353271484375,-1.122665405273438
121277,-1.637283325195312,-1.799514770507812,-1.010650634765625
121278,-1.820953369140625,-1.689987182617188,-1.074920654296875
121279,-1.820953369140625,-1.689987182617188,-1.074920654296875
121280,-1.457427978515625,-1.546340942382812,-0.90069580078125
121281,-0.9027099609375,-1.42364501953125,-0.6042938232421875
121282,-0.289337158203125,-0.7454986572265625,0.1313323974609375
121283,-0.289337158203125,-0.7454986572265625,0.1313323974609375
121284,-0.0366058349609375,-0.50787353515625,0.2188720703125
121285,0.0526580810546875,-0.40972900390625,0.1109466552734375
121286,0.0968017578125,-0.8340911865234375,-0.5513916015625
121287,0.0968017578125,-0.8340911865234375,-0.5513916015625
121288,-0.012451171875,-1.148162841796875,-0.7985687255859375
121289,-0.1450042724609375,-1.365493774414062,-0.8752593994140625
121290,-0.329315185546875,-1.662155151367188,-0.53826904296875
121291,-0.329315185546875,-1.662155151367188,-0.53826904296875
121292,-0.266845703125,-1.738082885742188,-0.25146484375
121293,-0.0258636474609375,-1.651580810546875,-0.142578125
121294,0.64453125,-1.012161254882812,-0.3040771484375
121295,0.64453125,-1.012161254882812,-0.3040771484375
121296,0.7924957275390625,-0.781951904296875,-0.3166961669921875
121297,0.783172607421875,-0.6907958984375,-0.1627655029296875
121298,0.51483154296875,-0.39886474609375,0.214111328125
121299,0.51483154296875,-0.39886474609375,0.214111328125
121300,0.416412353515625,-0.24127197265625,0.2266693115234375
121301,0.3568115234375,-0.129913330078125,0.1422119140625
121302,0.2008056640625,0.042144775390625,-0.0460357666015625
121303,0.2008056640625,0.042144775390625,-0.0460357666015625
121304,0.161407470703125,-0.0200347900390625,-0.1291351318359375
121305,0.166595458984375,-0.1148529052734375,-0.239471435546875
121306,-0.1033782958984375,-0.181671142578125,-0.2129669189453125
121307,-0.1033782958984375,-0.181671142578125,-0.2129669189453125
121308,-0.4020843505859375,-0.12420654296875,-0.0719146728515625
121309,-0.6966552734375,-0.0589752197265625,0.044403076171875
121310,-0.9356536865234376,0.080535888671875,0.1463470458984375
121311,-1.028656005859375,0.243560791015625,0.2021484375
121312,-0.9620208740234376,0.3560791015625,0.18798828125
121313,-0.8636627197265625,0.4150848388671875,0.1308746337890625
121314,-0.66607666015625,0.5621185302734375,0.1883544921875
121315,-0.66607666015625,0.5621185302734375,0.1883544921875
121316,-0.4560699462890625,0.6302947998046875,0.2154693603515625
121317,-0.2197265625,0.613739013671875,0.1220855712890625
121318,0.122222900390625,0.4730377197265625,-0.3664093017578125
121319,0.122222900390625,0.4730377197265625,-0.3664093017578125
121320,0.095977783203125,0.2743072509765625,-0.8065032958984375
121321,-0.21795654296875,-0.01348876953125,-1.429183959960938
121322,-2.304443359375,-1.172760009765625,-1.901290893554688
121323,-2.304443359375,-1.172760009765625,-1.901290893554688
121324,-3.577606201171875,-1.565460205078125,-1.907684326171875
121325,-4.43768310546875,-1.977706909179688,-1.974685668945312
121326,-2.479568481445312,-2.500106811523438,0.53448486328125
121327,-2.479568481445312,-2.500106811523438,0.53448486328125
121328,-0.7544403076171875,-2.598892211914062,0.8721771240234375
121329,0.020843505859375,-2.473342895507812,0.511138916015625
121330,-0.5345306396484375,-1.89520263671875,-0.8390350341796875
121331,-0.5345306396484375,-1.89520263671875,-0.8390350341796875
121332,-0.9203643798828124,-1.499954223632812,-1.183059692382812
121333,-1.2647705078125,-1.486846923828125,-1.19171142578125
121334,-1.722015380859375,-1.657882690429688,-1.0948486328125
121335,-1.722015380859375,-1.657882690429688,-1.0948486328125
121336,-1.463287353515625,-1.577529907226562,-0.7087249755859375
121337,-0.9673614501953124,-1.354827880859375,-0.315704345703125
121338,-0.38873291015625,-0.738189697265625,0.2014617919921875
121339,-0.38873291015625,-0.738189697265625,0.2014617919921875
121340,-0.196380615234375,-0.57080078125,0.12799072265625
121341,-0.1024932861328125,-0.4951934814453125,-0.106842041015625
121342,-0.0226898193359375,-0.8661956787109375,-0.716766357421875
121343,-0.0226898193359375,-0.8661956787109375,-0.716766357421875
121344,-0.0993804931640625,-1.125686645507812,-0.8504638671875
121345,-0.1527099609375,-1.253952026367188,-0.8153533935546875
121346,-0.3811492919921875,-1.326171875,-0.4366455078125
121347,-0.3811492919921875,-1.326171875,-0.4366455078125
121348,-0.45001220703125,-1.393539428710938,-0.2489776611328125
121349,-0.306182861328125,-1.458328247070312,-0.1129913330078125
121350,0.6428070068359375,-1.195220947265625,-0.0607757568359375
121351,0.6428070068359375,-1.195220947265625,-0.0607757568359375
121352,0.924774169921875,-0.859100341796875,-0.151611328125
121353,0.8787384033203125,-0.633819580078125,-0.1748809814453125
121354,0.4356689453125,-0.2799224853515625,0.027801513671875
121355,0.4356689453125,-0.2799224853515625,0.027801513671875
121356,0.383636474609375,-0.1456298828125,0.0868988037109375
121357,0.3768157958984375,-0.0553131103515625,0.0539703369140625
121358,0.305419921875,0.0197296142578125,-0.0863189697265625
121359,0.305419921875,0.0197296142578125,-0.0863189697265625
121360,0.2888641357421875,-0.053436279296875,-0.1697235107421875
121361,0.227783203125,-0.138153076171875,-0.2216796875
121362,-0.1148681640625,-0.157073974609375,-0.1612548828125
121363,-0.1148681640625,-0.157073974609375,-0.1612548828125
121364,-0.3843841552734375,-0.13055419921875,-0.019439697265625
121365,-0.6515045166015625,-0.1043853759765625,0.120208740234375
121366,-0.9686737060546876,0.08099365234375,0.1743621826171875
121367,-0.9686737060546876,0.08099365234375,0.1743621826171875
121368,-0.9602813720703124,0.1754150390625,0.10064697265625
121369,-0.8770294189453125,0.2404632568359375,0.064208984375
121370,-0.52337646484375,0.463958740234375,0.0994873046875
121371,-0.52337646484375,0.463958740234375,0.0994873046875
121372,-0.296356201171875,0.606781005859375,0.108489990234375
121373,-0.1062469482421875,0.7336578369140625,0.0344085693359375
121374,0.1378936767578125,0.7147979736328125,-0.3672637939453125
121375,0.1378936767578125,0.7147979736328125,-0.3672637939453125
121376,0.089935302734375,0.4720306396484375,-0.8338470458984375
121377,-0.18560791015625,0.128936767578125,-1.53460693359375
121378,-2.490768432617188,-1.1837158203125,-1.867874145507812
121379,-2.490768432617188,-1.1837158203125,-1.867874145507812
121380,-3.864837646484375,-1.544281005859375,-1.975860595703125
121381,-4.686264038085938,-2.175094604492188,-2.269607543945312
121382,-2.273178100585938,-2.723114013671875,1.110748291015625
121383,-2.273178100585938,-2.723114013671875,1.110748291015625
121384,-0.3657379150390625,-2.934524536132812,1.312637329101562
121385,0.0242462158203125,-2.785186767578125,0.6497650146484375
121386,-0.9167938232421876,-1.77923583984375,-0.57513427734375
121387,-0.9167938232421876,-1.77923583984375,-0.57513427734375
121388,-1.29473876953125,-1.283187866210938,-0.74847412109375
121389,-1.6103515625,-1.176406860351562,-0.909423828125
121390,-1.92919921875,-1.385299682617188,-1.174148559570312
121391,-1.92919921875,-1.385299682617188,-1.174148559570312
121392,-1.630752563476562,-1.426727294921875,-0.972320556640625
121393,-1.188491821289062,-1.321319580078125,-0.5052947998046875
121394,-0.321044921875,-0.6966705322265625,0.353424072265625
121395,-0.321044921875,-0.6966705322265625,0.353424072265625
121396,-0.02777099609375,-0.4682159423828125,0.3782958984375
121397,0.2313385009765625,-0.9069366455078124,-0.7691497802734375
121398,0.2313385009765625,-0.9069366455078124,-0.7691497802734375
121399,0.2313385009765625,-0.9069366455078124,-0.7691497802734375
121400,0.1062774658203125,-1.11328125,-0.8162841796875
121401,0.034515380859375,-1.338516235351562,-0.7810211181640625
121402,-0.304718017578125,-1.592880249023438,-0.3741455078125
121403,-0.304718017578125,-1.592880249023438,-0.3741455078125
121404,-0.3111114501953125,-1.660324096679688,-0.11297607421875
121405,-0.0829925537109375,-1.565658569335938,-0.051177978515625
121406,0.6141510009765625,-0.9624786376953124,-0.2550048828125
121407,0.6141510009765625,-0.9624786376953124,-0.2550048828125
121408,0.6868133544921875,-0.762420654296875,-0.2577056884765625
121409,0.587646484375,-0.6796722412109375,-0.102264404296875
121410,0.2794952392578125,-0.3262481689453125,0.198211669921875
121411,0.2794952392578125,-0.3262481689453125,0.198211669921875
121412,0.2715301513671875,-0.1936492919921875,0.211761474609375
121413,0.2632598876953125,-0.0924072265625,0.1257171630859375
121414,0.1920318603515625,0.0241241455078125,-0.1491546630859375
121415,0.1920318603515625,0.0241241455078125,-0.1491546630859375
121416,0.255096435546875,-0.04876708984375,-0.3098297119140625
121417,0.25811767578125,-0.1366729736328125,-0.3837432861328125
121418,-0.104644775390625,-0.202911376953125,-0.220550537109375
121419,-0.104644775390625,-0.202911376953125,-0.220550537109375
121420,-0.38641357421875,-0.2171630859375,-0.1474761962890625
121421,-0.63861083984375,-0.1921844482421875,-0.0537261962890625
121422,-0.838409423828125,0.021331787109375,0.152618408203125
121423,-0.838409423828125,0.021331787109375,0.152618408203125
121424,-0.788665771484375,0.133392333984375,0.1470794677734375
121425,-0.739776611328125,0.2203521728515625,0.1358795166015625
121426,-0.6661529541015625,0.35076904296875,0.1785125732421875
121427,-0.55023193359375,0.498809814453125,0.20391845703125
121428,-0.3904876708984375,0.6762237548828125,0.249359130859375
121429,-0.178863525390625,0.85882568359375,0.2145538330078125
121430,0.1016387939453125,0.8660430908203125,-0.264373779296875
121431,0.1016387939453125,0.8660430908203125,-0.264373779296875
121432,0.1055908203125,0.642852783203125,-0.8106536865234375
121433,-0.1575927734375,0.3122100830078125,-1.53399658203125
121434,-2.80267333984375,-1.189102172851562,-1.964813232421875
121435,-2.80267333984375,-1.189102172851562,-1.964813232421875
121436,-4.057937622070312,-1.561065673828125,-2.147720336914062
121437,-4.373855590820312,-2.04437255859375,-2.477325439453125
121438,-2.076583862304688,-2.400115966796875,0.9640655517578124
121439,-2.076583862304688,-2.400115966796875,0.9640655517578124
121440,-0.73406982421875,-2.366744995117188,1.53131103515625
121441,-0.4923858642578125,-2.241195678710938,1.020675659179688
121442,-1.244705200195312,-1.761428833007812,-0.629913330078125
121443,-1.244705200195312,-1.761428833007812,-0.629913330078125
121444,-1.446243286132812,-1.336151123046875,-0.781524658203125
121445,-1.529739379882812,-1.276123046875,-0.8803863525390625
121446,-1.497207641601562,-1.88116455078125,-1.274703979492188
121447,-1.497207641601562,-1.88116455078125,-1.274703979492188
121448,-1.399688720703125,-1.910430908203125,-1.256195068359375
121449,-0.9434356689453124,-1.831222534179688,-0.9837799072265624
121450,-0.53668212890625,-1.50616455078125,-0.377227783203125
121451,-0.3293304443359375,-0.949951171875,0.1143341064453125
121452,-0.2512969970703125,-0.430572509765625,0.3095245361328125
121453,-0.1727447509765625,-0.1432952880859375,0.2695159912109375
121454,-0.0125732421875,-0.9056243896484376,-0.5
121455,-0.0125732421875,-0.9056243896484376,-0.5
121456,-0.123748779296875,-1.17559814453125,-0.7191162109375
121457,-0.292144775390625,-1.311843872070312,-0.7545013427734375
121458,-0.500946044921875,-1.501434326171875,-0.5446929931640625
121459,-0.500946044921875,-1.501434326171875,-0.5446929931640625
121460,-0.4678192138671875,-1.535293579101562,-0.3335723876953125
121461,-0.2947540283203125,-1.433151245117188,-0.206512451171875
121462,0.3347625732421875,-0.967315673828125,-0.1600494384765625
121463,0.3347625732421875,-0.967315673828125,-0.1600494384765625
121464,0.605072021484375,-0.71875,-0.138458251953125
121465,0.362091064453125,-0.215118408203125,0.23248291015625
121466,0.362091064453125,-0.215118408203125,0.23248291015625
121467,0.362091064453125,-0.215118408203125,0.23248291015625
121468,0.3086700439453125,-0.0408477783203125,0.23785400390625
121469,0.21484375,0.1238250732421875,0.1688995361328125
121470,0.1522216796875,0.1969451904296875,-0.1359100341796875
121471,0.1522216796875,0.1969451904296875,-0.1359100341796875
121472,0.227630615234375,0.0764923095703125,-0.311065673828125
121473,0.2800445556640625,-0.0132904052734375,-0.3748321533203125
121474,0.031890869140625,-0.1627655029296875,-0.2530364990234375
121475,0.031890869140625,-0.1627655029296875,-0.2530364990234375
121476,-0.213134765625,-0.229339599609375,-0.199554443359375
121477,-0.37835693359375,-0.22979736328125,-0.16717529296875
121478,-0.4857330322265625,-0.0023193359375,-0.07073974609375
121479,-0.4857330322265625,-0.0023193359375,-0.07073974609375
121480,-0.5627288818359375,0.137542724609375,-0.008636474609375
121481,-0.6351318359375,0.27581787109375,0.0235748291015625
121482,-0.571319580078125,0.4941558837890625,0.1969757080078125
121483,-0.571319580078125,0.4941558837890625,0.1969757080078125
121484,-0.40460205078125,0.5468902587890625,0.17791748046875
121485,-0.1771087646484375,0.5598602294921875,0.02655029296875
121486,0.1583404541015625,0.45623779296875,-0.4463043212890625
121487,0.1583404541015625,0.45623779296875,-0.4463043212890625
121488,0.02984619140625,0.3387603759765625,-0.6634674072265625
121489,-0.4894256591796875,0.1645050048828125,-1.003616333007812
121490,-2.606765747070312,-0.74798583984375,-1.941390991210938
121491,-2.606765747070312,-0.74798583984375,-1.941390991210938
121492,-4.226318359375,-1.102523803710938,-2.091766357421875
121493,-4.865280151367188,-1.64263916015625,-2.124786376953125
121494,-2.660079956054688,-1.547958374023438,0.824310302734375
121495,-2.660079956054688,-1.547958374023438,0.824310302734375
121496,-1.468856811523438,-1.549362182617188,0.7310638427734375
121497,-0.8820037841796875,-1.64501953125,0.3534393310546875
121498,-0.859619140625,-1.811248779296875,-0.23785400390625
121499,-0.859619140625,-1.811248779296875,-0.23785400390625
121500,-0.872161865234375,-1.671157836914062,-0.59271240234375
121501,-1.087493896484375,-1.367706298828125,-0.9599609375
121502,-1.506698608398438,-1.331268310546875,-1.112258911132812
121503,-1.506698608398438,-1.331268310546875,-1.112258911132812
121504,-1.4686279296875,-1.449081420898438,-0.78515625
121505,-1.185302734375,-1.466033935546875,-0.541748046875
121506,-0.348968505859375,-1.120330810546875,-0.0599517822265625
121507,-0.348968505859375,-1.120330810546875,-0.0599517822265625
121508,-0.1611175537109375,-0.812042236328125,0.083587646484375
121509,-0.091552734375,-0.6411895751953125,0.1034088134765625
121510,0.05609130859375,-0.8011932373046875,-0.037078857421875
121511,0.14007568359375,-1.034835815429688,-0.270355224609375
121512,0.0848236083984375,-1.1983642578125,-0.4656219482421875
121513,-0.092803955078125,-1.76055908203125,-0.6324615478515625
121514,-0.092803955078125,-1.76055908203125,-0.6324615478515625
121515,-0.092803955078125,-1.76055908203125,-0.6324615478515625
121516,-0.071044921875,-1.749099731445312,-0.46905517578125
121517,0.078399658203125,-1.55657958984375,-0.322357177734375
121518,0.4354705810546875,-1.000137329101562,-0.158447265625
121519,0.4508056640625,-0.8101043701171875,-0.082427978515625
121520,0.4508056640625,-0.8101043701171875,-0.082427978515625
121521,0.264801025390625,-0.64923095703125,0.0713348388671875
121522,0.10919189453125,-0.4494781494140625,0.122406005859375
121523,0.124969482421875,-0.2822723388671875,0.0795135498046875
121524,0.1733551025390625,-0.12744140625,0.0356903076171875
121525,0.190338134765625,0.014129638671875,-0.0279083251953125
121526,0.164825439453125,0.147613525390625,-0.084747314453125
121527,0.1988372802734375,0.217376708984375,-0.117523193359375
121528,0.3174896240234375,0.204925537109375,-0.1339263916015625
121529,0.3839111328125,0.14776611328125,-0.1423187255859375
121530,0.2799530029296875,0.13348388671875,-0.166717529296875
121531,0.0694122314453125,0.1222381591796875,-0.1932373046875
121532,-0.1957855224609375,0.0684814453125,-0.19775390625
121533,-0.438629150390625,0.0541229248046875,-0.1582489013671875
121534,-0.71771240234375,0.19775390625,0.06353759765625
121535,-0.71771240234375,0.19775390625,0.06353759765625
121536,-0.79412841796875,0.2720184326171875,0.1168365478515625
121537,-0.82708740234375,0.2874755859375,0.0865478515625
121538,-0.78448486328125,0.3651580810546875,0.1257781982421875
121539,-0.5775299072265625,0.5133514404296875,0.19439697265625
121540,-0.28515625,0.6367645263671875,0.1688385009765625
121541,-0.0760955810546875,0.743316650390625,0.1215362548828125
121542,-0.0915985107421875,0.676116943359375,-0.2916259765625
121543,-0.0915985107421875,0.676116943359375,-0.2916259765625
121544,-0.42816162109375,0.5039520263671875,-0.9098968505859376
121545,-1.160888671875,0.149658203125,-1.773162841796875
121546,-4.760986328125,-1.3621826171875,-2.437332153320312
121547,-4.760986328125,-1.3621826171875,-2.437332153320312
121548,-4.799179077148438,-2.352676391601562,-2.727890014648438
121549,-2.2176513671875,-1.906448364257812,1.196380615234375
121550,-2.2176513671875,-1.906448364257812,1.196380615234375
121551,-1.112899780273438,-1.853744506835938,0.573638916015625
121552,-0.734100341796875,-1.956558227539062,0.048187255859375
121553,-0.8502349853515625,-1.967330932617188,0.00238037109375
121554,-1.061065673828125,-1.624465942382812,-0.8102264404296875
121555,-1.061065673828125,-1.624465942382812,-0.8102264404296875
121556,-0.9408721923828124,-1.377639770507812,-0.89910888671875
121557,-0.9055938720703124,-1.430404663085938,-0.9733123779296876
121558,-1.1466064453125,-1.578018188476562,-1.0927734375
121559,-1.392776489257812,-1.672119140625,-0.982940673828125
121560,-1.306594848632812,-1.655181884765625,-0.751373291015625
121561,-0.983001708984375,-1.598037719726562,-0.3775634765625
121562,-0.77679443359375,-1.335769653320312,0.0026397705078125
121563,-0.5819091796875,-0.9816131591796876,0.2494659423828125
121564,-0.4306793212890625,-0.7037506103515625,0.357940673828125
121565,-0.1971588134765625,-0.650421142578125,0.21630859375
121566,0.165802001953125,-0.853759765625,-0.116912841796875
121567,0.312286376953125,-1.022232055664062,-0.2461090087890625
121568,0.233001708984375,-1.165023803710938,-0.182281494140625
121569,0.1447296142578125,-1.338531494140625,-0.2046051025390625
121570,0.058990478515625,-1.465042114257812,-0.281219482421875
121571,-0.0400543212890625,-1.439666748046875,-0.310699462890625
121572,-0.02178955078125,-1.272720336914062,-0.194976806640625
121573,0.19378662109375,-0.7788543701171875,-0.0350341796875
121574,0.19378662109375,-0.7788543701171875,-0.0350341796875
121575,0.19378662109375,-0.7788543701171875,-0.0350341796875
121576,0.208221435546875,-0.6356048583984375,-0.00665283203125
121577,-0.0319976806640625,-0.3966827392578125,0.1376495361328125
121578,-0.0345306396484375,-0.22027587890625,0.1456146240234375
121579,0.0583648681640625,-0.1960296630859375,0.0938568115234375
121580,0.1050262451171875,-0.17333984375,0.0213165283203125
121581,0.1379241943359375,-0.0072021484375,-0.2725372314453125
121582,0.1379241943359375,-0.0072021484375,-0.2725372314453125
121583,0.2043914794921875,-0.0130157470703125,-0.387359619140625
121584,0.21588134765625,-0.0604095458984375,-0.397186279296875
121585,0.1441650390625,-0.0885467529296875,-0.3495330810546875
121586,0.0389404296875,-0.0825042724609375,-0.297760009765625
121587,-0.0787811279296875,-0.0456390380859375,-0.2296295166015625
121588,-0.189361572265625,0.007232666015625,-0.1872406005859375
121589,-0.2837066650390625,0.025482177734375,-0.2150726318359375
121590,-0.4008941650390625,0.0252532958984375,-0.169586181640625
121591,-0.4485321044921875,0.1432952880859375,0.0924835205078125
121592,-0.4325103759765625,0.3350372314453125,0.38763427734375
121593,-0.3296356201171875,0.48895263671875,0.4090423583984375
121594,-0.047454833984375,0.8012542724609375,0.0227203369140625
121595,-0.047454833984375,0.8012542724609375,0.0227203369140625
121596,-0.0651092529296875,0.80767822265625,-0.0149688720703125
121597,-0.6762237548828125,0.8396759033203125,-0.60491943359375
121598,-1.515213012695312,0.549591064453125,-1.538330078125
121599,-1.515213012695312,0.549591064453125,-1.538330078125
121600,-3.314300537109375,-0.1037445068359375,-2.283767700195312
121601,-5.871902465820312,-0.96002197265625,-2.574020385742188
121602,-4.778427124023438,-2.324462890625,0.159271240234375
121603,-4.778427124023438,-2.324462890625,0.159271240234375
121604,-2.938735961914062,-2.002700805664062,1.086334228515625
121605,-1.473175048828125,-1.776046752929688,0.9330291748046876
121606,-0.6133270263671875,-1.63800048828125,0.5531463623046875
121607,-0.578857421875,-1.494354248046875,0.5131683349609375
121608,-0.6295928955078125,-1.394912719726562,0.525970458984375
121609,-0.4832916259765625,-1.2806396484375,-0.05792236328125
121610,-0.5465545654296875,-1.096923828125,-1.604507446289062
121611,-0.5465545654296875,-1.096923828125,-1.604507446289062
121612,-0.745574951171875,-1.15582275390625,-1.824371337890625
121613,-0.986846923828125,-1.198623657226562,-1.86077880859375
121614,-0.98846435546875,-1.192733764648438,-1.521041870117188
121615,-0.8125,-1.211471557617188,-0.8092041015625
121616,-0.413543701171875,-1.204879760742188,-0.1922454833984375
121617,-0.03387451171875,-1.093338012695312,0.2356719970703125
121618,0.1317901611328125,-0.897308349609375,0.6120758056640625
121619,0.025054931640625,-0.734100341796875,0.6004791259765625
121620,-0.11700439453125,-0.749237060546875,0.037384033203125
121621,0.09332275390625,-1.010848999023438,-0.525146484375
121622,0.09332275390625,-1.010848999023438,-0.525146484375
121623,0.222198486328125,-1.23541259765625,-0.3399810791015625
121624,0.1667327880859375,-1.301040649414062,-0.2619171142578125
121625,-0.0839385986328125,-1.216140747070312,-0.198974609375
121626,-0.2122039794921875,-1.319259643554688,-0.2121124267578125
121627,-0.2122039794921875,-1.319259643554688,-0.2121124267578125
121628,-0.2385406494140625,-1.28717041015625,-0.3031158447265625
121629,-0.0353851318359375,-1.11932373046875,-0.23272705078125
121630,0.203399658203125,-1.007064819335938,-0.202606201171875
121631,0.1045379638671875,-0.8052978515625,-0.0701904296875
121632,-0.431915283203125,-0.400970458984375,0.06378173828125
121633,-0.70306396484375,-0.1868438720703125,0.102081298828125
121634,-0.6522369384765625,-0.19677734375,0.1225738525390625
121635,-0.4646453857421875,-0.1069793701171875,0.0841522216796875
121636,-0.2090911865234375,0.028472900390625,-0.008758544921875
121637,0.0493621826171875,-0.00372314453125,-0.1376495361328125
121638,0.2946014404296875,-0.1215362548828125,-0.23822021484375
121639,0.485107421875,-0.172271728515625,-0.31170654296875
121640,0.5558319091796875,-0.17620849609375,-0.3526763916015625
121641,0.444305419921875,-0.1574554443359375,-0.37274169921875
121642,0.2733001708984375,-0.177490234375,-0.393341064453125
121643,0.12261962890625,-0.152862548828125,-0.37445068359375
121644,-0.0359954833984375,-0.081451416015625,-0.2883453369140625
121645,-0.200836181640625,-0.001190185546875,-0.1354522705078125
121646,-0.351348876953125,0.131195068359375,0.0805816650390625
121647,-0.4433746337890625,0.2389984130859375,0.3087310791015625
121648,-0.4876251220703125,0.2747650146484375,0.3649444580078125
121649,-0.4413909912109375,0.281341552734375,0.2639007568359375
121650,-0.3250274658203125,0.4228668212890625,0.1720123291015625
121651,-0.2227630615234375,0.6649017333984375,-0.0413818359375
121652,-0.0423431396484375,0.793243408203125,-0.4050445556640625
121653,0.115203857421875,0.719940185546875,-0.5234222412109375
121654,-0.238525390625,0.497344970703125,-0.652923583984375
121655,-1.126480102539062,0.18804931640625,-1.294448852539062
121656,-2.414642333984375,-0.2931671142578125,-1.953720092773438
121657,-4.262298583984375,-1.002761840820312,-2.1983642578125
121658,-5.762237548828125,-2.011871337890625,-1.361846923828125
121659,-5.448135375976562,-2.21136474609375,0.4636993408203125
121660,-3.553390502929688,-2.03717041015625,1.270599365234375
121661,-0.7244720458984375,-2.1982421875,0.34979248046875
121662,-0.7244720458984375,-2.1982421875,0.34979248046875
121663,-0.7546844482421875,-2.06610107421875,-0.0607147216796875
121664,-0.9398345947265624,-1.6593017578125,-0.4039154052734375
121665,-0.866912841796875,-1.173019409179688,-1.211807250976562
121666,-0.866912841796875,-1.173019409179688,-1.211807250976562
121667,-0.925262451171875,-1.319808959960938,-1.4244384765625
121668,-1.047012329101562,-1.206741333007812,-1.3758544921875
121669,-1.067062377929688,-1.042770385742188,-1.074783325195312
121670,-0.9192047119140624,-0.8986358642578125,-0.82574462890625
121671,-0.57806396484375,-0.846343994140625,-0.615936279296875
121672,-0.252166748046875,-0.797576904296875,-0.367767333984375
121673,-0.0251007080078125,-0.65692138671875,-0.0731658935546875
121674,0.4718780517578125,-0.3019866943359375,0.0782928466796875
121675,0.4718780517578125,-0.3019866943359375,0.0782928466796875
121676,0.66949462890625,-0.2291259765625,-0.1613006591796875
121677,0.7843170166015625,-0.4244384765625,-0.42926025390625
121678,0.765228271484375,-0.7707672119140625,-0.5262908935546875
121679,0.657867431640625,-0.9808502197265624,-0.575958251953125
121680,0.4027099609375,-1.106597900390625,-0.65167236328125
121681,0.04754638671875,-1.278564453125,-0.6417083740234375
121682,-0.59063720703125,-1.84942626953125,-0.3817901611328125
121683,-0.59063720703125,-1.84942626953125,-0.3817901611328125
121684,-0.7298583984375,-1.899383544921875,-0.0396728515625
121685,-0.556304931640625,-1.688766479492188,0.232025146484375
121686,-0.0078125,-1.157333374023438,-0.07501220703125
121687,-0.0078125,-1.157333374023438,-0.07501220703125
121688,-0.28173828125,-0.9758148193359376,0.0695953369140625
121689,-0.17608642578125,-0.526580810546875,0.1403961181640625
121690,-0.17608642578125,-0.526580810546875,0.1403961181640625
121691,-0.17608642578125,-0.526580810546875,0.1403961181640625
121692,0.0674896240234375,-0.429412841796875,0.0741119384765625
121693,0.1016845703125,-0.2597808837890625,0.0444488525390625
121694,0.0927886962890625,-0.112579345703125,-0.003509521484375
121695,0.0911407470703125,-0.04058837890625,-0.035858154296875
121696,0.0499267578125,0.0901336669921875,-0.065826416015625
121697,-0.0319976806640625,0.27264404296875,-0.14501953125
121698,-0.161865234375,0.440338134765625,-0.155670166015625
121699,-0.3444976806640625,0.5270538330078125,-0.0535125732421875
121700,-0.545135498046875,0.52288818359375,0.1075897216796875
121701,-0.690826416015625,0.4972991943359375,0.311126708984375
121702,-0.690826416015625,0.4972991943359375,0.311126708984375
121703,-0.5732421875,0.4422760009765625,0.21240234375
121704,-0.3879547119140625,0.52130126953125,-0.25946044921875
121705,-0.3879547119140625,0.52130126953125,-0.25946044921875
121706,-0.5674896240234375,0.620391845703125,-0.470306396484375
121707,-0.85845947265625,0.7595672607421875,-0.473236083984375
121708,-1.077545166015625,0.9884490966796876,-0.4273681640625
121709,-1.44403076171875,1.127777099609375,-0.5317840576171875
121710,-1.89630126953125,0.9834442138671876,-0.9172515869140624
121711,-2.547515869140625,0.7647552490234375,-1.535400390625
121712,-3.50555419921875,0.4022216796875,-1.740203857421875
121713,-4.097244262695312,-1.373306274414062,0.0066375732421875
121714,-4.097244262695312,-1.373306274414062,0.0066375732421875
121715,-3.594436645507812,-2.363449096679688,0.845062255859375
121716,-2.0770263671875,-3.244979858398438,0.6247100830078125
121717,-0.71026611328125,-3.56488037109375,0.0451202392578125
121718,-0.74627685546875,-2.128021240234375,-0.94921875
121719,-0.74627685546875,-2.128021240234375,-0.94921875
121720,-1.056716918945312,-1.385879516601562,-1.19024658203125
121721,-1.097152709960938,-1.125,-1.458648681640625
121722,-1.097152709960938,-1.125,-1.458648681640625
121723,-0.823699951171875,-0.946044921875,-1.379714965820312
121724,-0.197662353515625,-0.9430084228515624,-1.09906005859375
121725,0.403076171875,-0.997100830078125,-0.761505126953125
121726,0.4249267578125,-0.8214874267578125,-0.1135101318359375
121727,0.4249267578125,-0.8214874267578125,-0.1135101318359375
121728,0.20648193359375,-0.808624267578125,-0.004058837890625
121729,0.13763427734375,-0.8636016845703125,-0.0859222412109375
121730,0.3000640869140625,-0.9532318115234376,-0.3731536865234375
121731,0.6467437744140625,-1.04595947265625,-0.7103729248046875
121732,0.9083099365234376,-1.172286987304688,-0.83636474609375
121733,0.4742279052734375,-1.585723876953125,-0.737518310546875
121734,0.4742279052734375,-1.585723876953125,-0.737518310546875
121735,-0.208648681640625,-1.648971557617188,-0.660400390625
121736,-0.84515380859375,-1.744430541992188,-0.5832366943359375
121737,-1.31256103515625,-1.80853271484375,-0.34393310546875
121738,-1.5599365234375,-1.65032958984375,0.1256103515625
121739,-1.243057250976562,-1.349700927734375,0.39471435546875
121740,-0.4921112060546875,-1.0245361328125,0.2481536865234375
121741,0.085968017578125,-0.860595703125,-0.0100250244140625
121742,-0.4316253662109375,-0.4100494384765625,0.062042236328125
121743,-0.4316253662109375,-0.4100494384765625,0.062042236328125
121744,-0.4137725830078125,-0.3137664794921875,0.0728759765625
121745,-0.3214569091796875,-0.145721435546875,0.0222930908203125
121746,-0.207550048828125,0.1149444580078125,-0.0013885498046875
121747,-0.207550048828125,0.1149444580078125,-0.0013885498046875
121748,-0.15936279296875,0.1236724853515625,-0.06878662109375
121749,0.03717041015625,0.08056640625,-0.1571197509765625
121750,0.03717041015625,0.08056640625,-0.1571197509765625
121751,0.0335693359375,0.047393798828125,-0.194732666015625
121752,-0.0149688720703125,0.0705108642578125,-0.18096923828125
121753,-0.0986480712890625,0.122161865234375,-0.112457275390625
121754,-0.390350341796875,0.20294189453125,-0.01019287109375
121755,-0.390350341796875,0.20294189453125,-0.01019287109375
121756,-0.5106964111328125,0.26629638671875,0.07086181640625
121757,-0.608489990234375,0.3666534423828125,0.2574005126953125
121758,-0.608489990234375,0.3666534423828125,0.2574005126953125
121759,-0.58349609375,0.4906005859375,0.282623291015625
121760,-0.484466552734375,0.6696014404296875,0.242828369140625
121761,-0.294464111328125,0.821502685546875,0.1329498291015625
121762,-0.2335662841796875,0.7419281005859375,0.0621795654296875
121763,-0.2566375732421875,0.6234588623046875,-0.2126617431640625
121764,-0.477508544921875,0.519287109375,-1.011917114257812
121765,-1.663482666015625,0.16290283203125,-1.853118896484375
121766,-3.846832275390625,-0.9495086669921876,-1.608901977539062
121767,-5.029327392578125,-1.8912353515625,-1.993576049804688
121768,-4.495071411132812,-2.639297485351562,-1.024581909179688
121769,-2.993942260742188,-2.781661987304688,0.668701171875
121770,-1.464691162109375,-2.699234008789062,0.7657623291015625
121771,-0.5492706298828125,-2.601547241210938,0.3544921875
121772,-0.6258544921875,-2.26788330078125,0.377471923828125
121773,-1.508453369140625,-1.758575439453125,-0.9488372802734376
121774,-1.508453369140625,-1.758575439453125,-0.9488372802734376
121775,-1.893081665039062,-1.51947021484375,-1.369659423828125
121776,-1.976593017578125,-1.414215087890625,-1.0816650390625
121777,-1.539871215820312,-1.457992553710938,-0.833648681640625
121778,-0.89093017578125,-1.507858276367188,-0.777313232421875
121779,-0.428192138671875,-1.604995727539062,-0.631378173828125
121780,-0.2533721923828125,-1.58203125,-0.3538818359375
121781,-0.242462158203125,-1.080245971679688,-0.0041046142578125
121782,-0.242462158203125,-1.080245971679688,-0.0041046142578125
121783,-0.272796630859375,-0.7684783935546875,-0.060882568359375
121784,-0.1798553466796875,-0.7265625,-0.285797119140625
121785,-0.00347900390625,-0.934906005859375,-0.5833282470703125
121786,0.16986083984375,-1.317474365234375,-0.75115966796875
121787,0.16986083984375,-1.317474365234375,-0.75115966796875
121788,0.1168365478515625,-1.361968994140625,-0.62628173828125
121789,0.048553466796875,-1.363845825195312,-0.4153289794921875
121790,0.2910919189453125,-1.153213500976562,-0.2572021484375
121791,0.2910919189453125,-1.153213500976562,-0.2572021484375
121792,0.4735870361328125,-1.004669189453125,-0.333099365234375
121793,0.633453369140625,-0.9192047119140624,-0.3618011474609375
121794,0.585479736328125,-0.8523406982421875,-0.3439178466796875
121795,0.333740234375,-0.7609100341796875,-0.246307373046875
121796,0.085906982421875,-0.5619659423828125,-0.1404571533203125
121797,-0.0447540283203125,-0.374786376953125,-0.1020965576171875
121798,-0.1187591552734375,-0.09808349609375,-0.1295623779296875
121799,-0.1187591552734375,-0.09808349609375,-0.1295623779296875
121800,-0.09027099609375,-0.065673828125,-0.11993408203125
121801,0.0319366455078125,0.114013671875,-0.013275146484375
121802,0.0319366455078125,0.114013671875,-0.013275146484375
121803,0.0319366455078125,0.114013671875,-0.013275146484375
121804,0.100555419921875,0.113739013671875,-0.0262908935546875
121805,-0.13629150390625,0.0540924072265625,-0.0479278564453125
121806,-0.13629150390625,0.0540924072265625,-0.0479278564453125
121807,-0.3296661376953125,0.0102081298828125,-0.0872039794921875
121808,-0.468658447265625,0.0276336669921875,-0.0610504150390625
121809,-0.6383209228515625,0.2250518798828125,0.100494384765625
121810,-0.6383209228515625,0.2250518798828125,0.100494384765625
121811,-0.6879119873046875,0.303955078125,0.13372802734375
121812,-0.606292724609375,0.351959228515625,0.15069580078125
121813,-0.245635986328125,0.51507568359375,0.1505279541015625
121814,-0.245635986328125,0.51507568359375,0.1505279541015625
121815,-0.05743408203125,0.63330078125,-0.085784912109375
121816,0.07373046875,0.5846710205078125,-0.4319000244140625
121817,-0.6259307861328125,0.0218963623046875,-1.519577026367188
121818,-0.6259307861328125,0.0218963623046875,-1.519577026367188
121819,-1.708587646484375,-0.5265045166015625,-2.0042724609375
121820,-3.36346435546875,-1.301498413085938,-2.476974487304688
121821,-3.872787475585938,-2.618804931640625,-1.232223510742188
121822,-3.872787475585938,-2.618804931640625,-1.232223510742188
121823,-3.01959228515625,-1.734130859375,0.4919586181640625
121824,-1.888092041015625,-1.408279418945312,0.9493408203125
121825,-1.019561767578125,-1.2332763671875,-0.0768585205078125
121826,-1.019561767578125,-1.2332763671875,-0.0768585205078125
121827,-1.019561767578125,-1.2332763671875,-0.0768585205078125
121828,-1.16339111328125,-1.209274291992188,-0.5111846923828125
121829,-1.671463012695312,-1.301467895507812,-1.230804443359375
121830,-1.671463012695312,-1.301467895507812,-1.230804443359375
121831,-1.908676147460938,-1.40576171875,-1.42694091796875
121832,-1.8321533203125,-1.456512451171875,-1.414474487304688
121833,-0.8560943603515625,-1.255935668945312,-0.57135009765625
121834,-0.8560943603515625,-1.255935668945312,-0.57135009765625
121835,-0.51031494140625,-0.90185546875,-0.09954833984375
121836,-0.2369384765625,-0.558441162109375,0.2339019775390625
121837,0.185211181640625,-0.21453857421875,0.091461181640625
121838,0.185211181640625,-0.21453857421875,0.091461181640625
121839,0.559906005859375,-0.5219879150390625,-0.465850830078125
121840,0.65460205078125,-0.955352783203125,-0.8752593994140625
121841,0.3142242431640625,-1.39599609375,-0.904388427734375
121842,0.3142242431640625,-1.39599609375,-0.904388427734375
121843,0.1077117919921875,-1.53424072265625,-0.796234130859375
121844,-0.0292816162109375,-1.607086181640625,-0.66375732421875
121845,0.31964111328125,-1.580001831054688,-0.2592926025390625
121846,0.31964111328125,-1.580001831054688,-0.2592926025390625
121847,0.31964111328125,-1.580001831054688,-0.2592926025390625
121848,0.4697265625,-1.308090209960938,-0.0054779052734375
121849,0.1736907958984375,-0.5458526611328125,0.0432586669921875
121850,0.1736907958984375,-0.5458526611328125,0.0432586669921875
121851,0.0329132080078125,-0.3484344482421875,0.009552001953125
121852,0.0279388427734375,-0.2513427734375,0.0585479736328125
121853,0.1464385986328125,0.02960205078125,0.0769500732421875
121854,0.1464385986328125,0.02960205078125,0.0769500732421875
121855,0.146575927734375,0.1354827880859375,0.025115966796875
121856,0.20794677734375,0.1202239990234375,-0.0811614990234375
121857,0.3000640869140625,-0.0778045654296875,-0.1568145751953125
121858,0.3000640869140625,-0.0778045654296875,-0.1568145751953125
121859,0.1221771240234375,-0.147979736328125,-0.16607666015625
121860,-0.114501953125,-0.1921844482421875,-0.20208740234375
121861,-0.553619384765625,-0.153411865234375,-0.240753173828125
121862,-0.553619384765625,-0.153411865234375,-0.240753173828125
121863,-0.75634765625,-0.061126708984375,-0.145721435546875
121864,-0.957733154296875,0.0555572509765625,0.058746337890625
121865,-0.723541259765625,0.561798095703125,0.0099639892578125
121866,-0.723541259765625,0.561798095703125,0.0099639892578125
121867,-0.723541259765625,0.561798095703125,0.0099639892578125
121868,-0.5272674560546875,0.7275390625,0.0932464599609375
121869,-0.253936767578125,0.783905029296875,0.0831146240234375
121870,-0.253936767578125,0.783905029296875,0.0831146240234375
121871,-0.3077850341796875,0.7262420654296875,-0.113800048828125
121872,-0.526458740234375,0.63232421875,-0.704498291015625
121873,-4.458053588867188,-0.5494537353515625,-0.7936248779296875
121874,-4.458053588867188,-0.5494537353515625,-0.7936248779296875
121875,-4.458053588867188,-0.5494537353515625,-0.7936248779296875
121876,-5.2252197265625,-1.148681640625,-0.931121826171875
121877,-3.60748291015625,-1.954544067382812,0.586395263671875
121878,-3.60748291015625,-1.954544067382812,0.586395263671875
121879,-2.0413818359375,-1.785400390625,0.9787139892578124
121880,-0.9949188232421876,-1.724716186523438,0.75360107421875
121881,-0.6178131103515625,-1.806564331054688,-1.006271362304688
121882,-0.6178131103515625,-1.806564331054688,-1.006271362304688
121883,-0.6178131103515625,-1.806564331054688,-1.006271362304688
121884,-0.5314178466796875,-1.808944702148438,-1.446685791015625
121885,-0.762359619140625,-1.851181030273438,-1.293441772460938
121886,-0.762359619140625,-1.851181030273438,-1.293441772460938
121887,-0.8955841064453125,-1.921615600585938,-1.183731079101562
121888,-0.7221221923828125,-1.960128784179688,-0.8206634521484375
121889,-0.1111602783203125,-1.520858764648438,0.169769287109375
121890,-0.1111602783203125,-1.520858764648438,0.169769287109375
121891,-0.01434326171875,-1.074142456054688,0.3141632080078125
121892,-0.0432281494140625,-0.78240966796875,0.3508758544921875
121893,0.248565673828125,-0.914215087890625,-0.13067626953125
121894,0.248565673828125,-0.914215087890625,-0.13067626953125
121895,0.44390869140625,-1.169631958007812,-0.4277191162109375
121896,0.5008544921875,-1.354354858398438,-0.5001373291015625
121897,0.522216796875,-1.52508544921875,-0.46051025390625
121898,0.522216796875,-1.52508544921875,-0.46051025390625
121899,0.5413360595703125,-1.468429565429688,-0.456573486328125
121900,0.5208740234375,-1.321426391601562,-0.4274139404296875
121901,0.4164886474609375,-1.130111694335938,-0.4229736328125
121902,0.4164886474609375,-1.130111694335938,-0.4229736328125
121903,0.4274749755859375,-1.022933959960938,-0.3125152587890625
121904,0.3176116943359375,-0.830474853515625,-0.0941925048828125
121905,0.0233306884765625,-0.4324951171875,0.1115875244140625
121906,0.0233306884765625,-0.4324951171875,0.1115875244140625
121907,0.0274658203125,-0.2772674560546875,0.1016998291015625
121908,0.0006866455078125,-0.1053466796875,0.058319091796875
121909,-0.1273651123046875,0.1716766357421875,-0.0628814697265625
121910,-0.1273651123046875,0.1716766357421875,-0.0628814697265625
121911,-0.1435546875,0.2108001708984375,-0.168426513671875
121912,-0.147918701171875,0.1917266845703125,-0.2498779296875
121913,-0.3029632568359375,0.0693817138671875,-0.1898040771484375
121914,-0.3029632568359375,0.0693817138671875,-0.1898040771484375
121915,-0.433929443359375,0.07843017578125,-0.0925750732421875
