time_idx,accelerometerAccelerationX(G),accelerometerAccelerationY(G),accelerometerAccelerationZ(G)
0,,,
1,,,
2,,,
3,,,
4,,,
5,,,
6,,,
7,,,
8,,,
9,,,
10,,,
11,,,
12,,,
13,,,
14,,,
15,,,
16,,,
17,,,
18,,,
19,,,
20,,,
21,,,
22,,,
23,,,
24,,,
25,,,
26,,,
27,,,
28,,,
29,,,
30,,,
31,,,
32,,,
33,,,
34,,,
35,,,
36,,,
37,,,
38,,,
39,,,
40,,,
41,,,
42,,,
43,,,
44,,,
45,,,
46,,,
47,,,
48,,,
49,,,
50,,,
51,,,
52,,,
53,,,
54,,,
55,,,
56,,,
57,,,
58,,,
59,,,
60,,,
61,,,
62,,,
63,,,
64,,,
65,,,
66,,,
67,,,
68,,,
69,,,
70,,,
71,,,
72,,,
73,,,
74,,,
75,,,
76,,,
77,,,
78,,,
79,,,
80,,,
81,,,
82,,,
83,,,
84,,,
85,,,
86,,,
87,,,
88,,,
89,,,
90,,,
91,,,
92,,,
93,,,
94,,,
95,,,
96,,,
97,,,
98,,,
99,,,
100,,,
101,,,
102,,,
103,,,
104,,,
105,,,
106,,,
107,,,
108,,,
109,,,
110,,,
111,,,
112,,,
113,,,
114,,,
115,,,
116,,,
117,,,
118,,,
119,,,
120,,,
121,,,
122,,,
123,,,
124,,,
125,,,
126,,,
127,,,
128,,,
129,,,
130,,,
131,,,
132,,,
133,,,
134,,,
135,,,
136,,,
137,,,
138,,,
139,,,
140,,,
141,,,
142,,,
143,,,
144,,,
145,,,
146,,,
147,,,
148,,,
149,,,
150,,,
151,,,
152,,,
153,,,
154,,,
155,,,
156,,,
157,,,
158,,,
159,,,
160,,,
161,,,
162,,,
163,,,
164,,,
165,,,
166,,,
167,,,
168,,,
169,,,
170,,,
171,,,
172,,,
173,,,
174,,,
175,,,
176,,,
177,,,
178,,,
179,,,
180,,,
181,,,
182,,,
183,0.160308837890625,-0.9877471923828124,-0.0373992919921875
184,0.160308837890625,-0.9877471923828124,-0.0373992919921875
185,0.160308837890625,-0.9877471923828124,-0.0373992919921875
186,0.160308837890625,-0.9877471923828124,-0.0373992919921875
187,0.160308837890625,-0.9877471923828124,-0.0373992919921875
188,0.160308837890625,-0.9877471923828124,-0.0373992919921875
189,0.160308837890625,-0.9877471923828124,-0.0373992919921875
190,0.160308837890625,-0.9877471923828124,-0.0373992919921875
191,0.160308837890625,-0.9877471923828124,-0.0373992919921875
192,0.160308837890625,-0.9877471923828124,-0.0373992919921875
193,0.160308837890625,-0.9877471923828124,-0.0373992919921875
194,0.160308837890625,-0.9877471923828124,-0.0373992919921875
195,0.160308837890625,-0.9877471923828124,-0.0373992919921875
196,0.160308837890625,-0.9877471923828124,-0.0373992919921875
197,0.160308837890625,-0.9877471923828124,-0.0373992919921875
198,0.160308837890625,-0.9877471923828124,-0.0373992919921875
199,0.160308837890625,-0.9877471923828124,-0.0373992919921875
200,0.160308837890625,-0.9877471923828124,-0.0373992919921875
201,0.160308837890625,-0.9877471923828124,-0.0373992919921875
202,0.160308837890625,-0.9877471923828124,-0.0373992919921875
203,0.160064697265625,-0.989227294921875,-0.031097412109375
204,0.15972900390625,-0.988494873046875,-0.0230865478515625
205,0.15972900390625,-0.988494873046875,-0.0230865478515625
206,0.1564788818359375,-0.982086181640625,-0.0276031494140625
207,0.1528472900390625,-0.9768524169921876,-0.0261688232421875
208,0.1454315185546875,-0.97259521484375,-0.01715087890625
209,0.1454315185546875,-0.97259521484375,-0.01715087890625
210,0.1348724365234375,-0.9605865478515624,-0.0156707763671875
211,0.1310272216796875,-0.96044921875,-0.0084075927734375
212,0.1244659423828125,-0.9642486572265624,0.003448486328125
213,0.1244659423828125,-0.9642486572265624,0.003448486328125
214,0.12579345703125,-0.97479248046875,-0.00335693359375
215,0.133270263671875,-0.9881134033203124,-0.009979248046875
216,0.1358184814453125,-0.996734619140625,-0.018768310546875
217,0.1358184814453125,-0.996734619140625,-0.018768310546875
218,0.140106201171875,-1.011367797851562,-0.0421142578125
219,0.14581298828125,-1.0235595703125,-0.0601806640625
220,0.1464385986328125,-1.035614013671875,-0.08343505859375
221,0.1535491943359375,-1.049362182617188,-0.10614013671875
222,0.172515869140625,-1.066207885742188,-0.1416015625
223,0.1938629150390625,-1.078933715820312,-0.17657470703125
224,0.2086334228515625,-1.089859008789062,-0.175994873046875
225,0.2086334228515625,-1.089859008789062,-0.175994873046875
226,0.1914215087890625,-1.052200317382812,-0.1056365966796875
227,0.1785125732421875,-1.03485107421875,-0.0933074951171875
228,0.1665191650390625,-1.02545166015625,-0.085479736328125
229,0.1665191650390625,-1.02545166015625,-0.085479736328125
230,0.125,-1.006546020507812,-0.0243377685546875
231,0.101715087890625,-1.010482788085938,0.0081024169921875
232,0.0903167724609375,-1.02484130859375,0.0208282470703125
233,0.0903167724609375,-1.02484130859375,0.0208282470703125
234,0.1373138427734375,-1.079681396484375,-0.0212860107421875
235,0.1373138427734375,-1.079681396484375,-0.0212860107421875
236,0.261322021484375,-1.026870727539062,-0.087066650390625
237,0.261322021484375,-1.026870727539062,-0.087066650390625
238,0.2782440185546875,-1.0697021484375,-0.1076202392578125
239,0.2945709228515625,-1.108474731445312,-0.1321563720703125
240,0.30487060546875,-1.145263671875,-0.163665771484375
241,0.30487060546875,-1.145263671875,-0.163665771484375
242,0.2743988037109375,-1.183334350585938,-0.2366485595703125
243,0.24462890625,-1.166412353515625,-0.262786865234375
244,0.2109222412109375,-1.131576538085938,-0.290252685546875
245,0.2109222412109375,-1.131576538085938,-0.290252685546875
246,0.1451873779296875,-1.050201416015625,-0.349151611328125
247,0.1094818115234375,-0.9988555908203124,-0.3664703369140625
248,0.061187744140625,-0.9459381103515624,-0.3675384521484375
249,0.061187744140625,-0.9459381103515624,-0.3675384521484375
250,-0.0224151611328125,-0.88726806640625,-0.3545684814453125
251,-0.0482177734375,-0.891021728515625,-0.342071533203125
252,-0.05322265625,-0.8953857421875,-0.3255462646484375
253,-0.05322265625,-0.8953857421875,-0.3255462646484375
254,-0.01934814453125,-0.892333984375,-0.31646728515625
255,0.000579833984375,-0.8978118896484375,-0.2924346923828125
256,0.028350830078125,-0.9154510498046876,-0.2680511474609375
257,0.028350830078125,-0.9154510498046876,-0.2680511474609375
258,0.1074981689453125,-1.005859375,-0.2619781494140625
259,0.1397247314453125,-1.04718017578125,-0.25341796875
260,0.154571533203125,-1.070526123046875,-0.2394256591796875
261,0.153594970703125,-1.0714111328125,-0.214324951171875
262,0.13818359375,-1.048812866210938,-0.195953369140625
263,0.113006591796875,-1.016433715820312,-0.1814117431640625
264,0.0790252685546875,-0.9724884033203124,-0.1978912353515625
265,0.0790252685546875,-0.9724884033203124,-0.1978912353515625
266,0.008544921875,-0.8979644775390625,-0.2220001220703125
267,-0.0199432373046875,-0.884246826171875,-0.229522705078125
268,-0.02691650390625,-0.8812713623046875,-0.214324951171875
269,-0.02691650390625,-0.8812713623046875,-0.214324951171875
270,-0.0195770263671875,-0.9026947021484376,-0.172088623046875
271,-0.01483154296875,-0.9133758544921876,-0.1622467041015625
272,0.00994873046875,-0.9247283935546876,-0.1545257568359375
273,0.00994873046875,-0.9247283935546876,-0.1545257568359375
274,0.05206298828125,-0.9470977783203124,-0.131988525390625
275,0.072540283203125,-0.9485931396484376,-0.1316680908203125
276,0.0989837646484375,-0.9541168212890624,-0.1256103515625
277,0.0989837646484375,-0.9541168212890624,-0.1256103515625
278,0.1308746337890625,-0.9642333984375,-0.1217041015625
279,0.1514892578125,-0.9498138427734376,-0.10546875
280,0.164764404296875,-0.95062255859375,-0.096923828125
281,0.164764404296875,-0.95062255859375,-0.096923828125
282,0.1770782470703125,-0.94329833984375,-0.0747528076171875
283,0.1676788330078125,-0.9441375732421876,-0.0868377685546875
284,0.153564453125,-0.946990966796875,-0.086090087890625
285,0.153564453125,-0.946990966796875,-0.086090087890625
286,0.1165771484375,-0.9541778564453124,-0.067535400390625
287,0.1109466552734375,-0.9478912353515624,-0.0725555419921875
288,0.1095123291015625,-0.9444732666015624,-0.0701751708984375
289,0.1095123291015625,-0.9444732666015624,-0.0701751708984375
290,0.102996826171875,-0.947113037109375,-0.044708251953125
291,0.10296630859375,-0.9460906982421876,-0.0350341796875
292,0.093536376953125,-0.9511871337890624,-0.0294647216796875
293,0.093536376953125,-0.9511871337890624,-0.0294647216796875
294,0.0609283447265625,-0.97564697265625,-0.039886474609375
295,0.0496368408203125,-0.9852294921875,-0.0471649169921875
296,0.043731689453125,-0.9902496337890624,-0.04736328125
297,0.043731689453125,-0.9902496337890624,-0.04736328125
298,0.0292205810546875,-0.96343994140625,-0.0455169677734375
299,0.014556884765625,-0.9554290771484376,-0.0423736572265625
300,0.003753662109375,-0.9558258056640624,-0.0407867431640625
301,0.003753662109375,-0.9558258056640624,-0.0407867431640625
302,-0.013397216796875,-0.9547882080078124,-0.0391082763671875
303,-0.01837158203125,-0.9502410888671876,-0.03790283203125
304,-0.0323638916015625,-0.9482421875,-0.0249176025390625
305,-0.0323638916015625,-0.9482421875,-0.0249176025390625
306,-0.0608673095703125,-0.946624755859375,-0.0435638427734375
307,-0.0702667236328125,-0.944488525390625,-0.059600830078125
308,-0.07916259765625,-0.94287109375,-0.072662353515625
309,-0.07916259765625,-0.94287109375,-0.072662353515625
310,-0.0951385498046875,-0.967193603515625,-0.065948486328125
311,-0.0951385498046875,-0.967193603515625,-0.065948486328125
312,-0.1036834716796875,-1.04266357421875,-0.0201873779296875
313,-0.1036834716796875,-1.04266357421875,-0.0201873779296875
314,-0.10528564453125,-1.06988525390625,-0.0088958740234375
315,-0.10528564453125,-1.06988525390625,-0.0088958740234375
316,-0.087432861328125,-1.137298583984375,-0.0057525634765625
317,-0.087432861328125,-1.137298583984375,-0.0057525634765625
318,-0.094696044921875,-1.157669067382812,0.034912109375
319,-0.1242828369140625,-1.170867919921875,0.0530853271484375
320,-0.1135101318359375,-1.157119750976562,0.07501220703125
321,-0.1135101318359375,-1.157119750976562,0.07501220703125
322,-0.0369110107421875,-1.145263671875,0.060882568359375
323,-0.030242919921875,-1.163375854492188,0.1132354736328125
324,-0.057830810546875,-1.229324340820312,0.0531158447265625
325,-0.057830810546875,-1.229324340820312,0.0531158447265625
326,-0.0943450927734375,-1.285354614257812,-0.1866607666015625
327,-0.0943450927734375,-1.285354614257812,-0.1866607666015625
328,-0.1693878173828125,-1.307830810546875,-0.59307861328125
329,-0.1693878173828125,-1.307830810546875,-0.59307861328125
330,-0.2415924072265625,-1.22869873046875,-0.6840057373046875
331,-0.2444305419921875,-1.201187133789062,-0.6065521240234375
332,-0.1967926025390625,-1.191650390625,-0.4416961669921875
333,-0.1967926025390625,-1.191650390625,-0.4416961669921875
334,0.097076416015625,-1.038223266601562,-0.322174072265625
335,0.2338714599609375,-0.892364501953125,-0.3630218505859375
336,0.3549652099609375,-0.7914886474609375,-0.397979736328125
337,0.3549652099609375,-0.7914886474609375,-0.397979736328125
338,0.4937896728515625,-0.7407379150390625,-0.3758392333984375
339,0.526458740234375,-0.7615509033203125,-0.2921600341796875
340,0.539093017578125,-0.7912445068359375,-0.17950439453125
341,0.539093017578125,-0.7912445068359375,-0.17950439453125
342,0.3327789306640625,-0.793304443359375,-0.139404296875
343,0.223175048828125,-0.8106536865234375,-0.1858673095703125
344,0.1663665771484375,-0.83233642578125,-0.2678985595703125
345,-0.065185546875,-1.228775024414062,-0.358795166015625
346,-0.065185546875,-1.228775024414062,-0.358795166015625
347,-0.065185546875,-1.228775024414062,-0.358795166015625
348,-0.065185546875,-1.228775024414062,-0.358795166015625
349,-0.065185546875,-1.228775024414062,-0.358795166015625
350,-0.14031982421875,-1.269271850585938,-0.1860198974609375
351,-0.099456787109375,-1.252166748046875,-0.2357635498046875
352,-0.034576416015625,-1.226547241210938,-0.2573089599609375
353,-0.034576416015625,-1.226547241210938,-0.2573089599609375
354,0.0561676025390625,-1.050811767578125,-0.1922454833984375
355,0.0561676025390625,-1.050811767578125,-0.1922454833984375
356,0.1442413330078125,-0.9703826904296876,-0.1147613525390625
357,0.1442413330078125,-0.9703826904296876,-0.1147613525390625
358,0.1786346435546875,-0.9670562744140624,-0.1847381591796875
359,0.1438446044921875,-0.939971923828125,-0.2244415283203125
360,0.097320556640625,-0.90185546875,-0.239410400390625
361,0.097320556640625,-0.90185546875,-0.239410400390625
362,0.01544189453125,-0.834625244140625,-0.225067138671875
363,0.01544189453125,-0.834625244140625,-0.225067138671875
364,-0.0644378662109375,-0.8899993896484375,-0.14398193359375
365,-0.0644378662109375,-0.8899993896484375,-0.14398193359375
366,-0.107391357421875,-0.8787384033203125,-0.18267822265625
367,-0.107391357421875,-0.8787384033203125,-0.18267822265625
368,0.02191162109375,-0.8719024658203125,-0.03509521484375
369,0.02191162109375,-0.8719024658203125,-0.03509521484375
370,0.02191162109375,-0.8719024658203125,-0.03509521484375
371,0.02191162109375,-0.8719024658203125,-0.03509521484375
372,0.02191162109375,-0.8719024658203125,-0.03509521484375
373,0.02191162109375,-0.8719024658203125,-0.03509521484375
374,0.02191162109375,-0.8719024658203125,-0.03509521484375
375,0.02191162109375,-0.8719024658203125,-0.03509521484375
376,0.02191162109375,-0.8719024658203125,-0.03509521484375
377,0.02191162109375,-0.8719024658203125,-0.03509521484375
378,0.02191162109375,-0.8719024658203125,-0.03509521484375
379,0.02191162109375,-0.8719024658203125,-0.03509521484375
380,0.02081298828125,-0.8889923095703125,-0.035858154296875
381,0.02081298828125,-0.8889923095703125,-0.035858154296875
382,0.02081298828125,-0.8889923095703125,-0.035858154296875
383,0.02081298828125,-0.8889923095703125,-0.035858154296875
384,0.0271759033203125,-0.9010467529296876,-0.0496978759765625
385,0.0271759033203125,-0.9010467529296876,-0.0496978759765625
386,0.0582275390625,-1.004501342773438,-0.0037841796875
387,0.0429229736328125,-1.04443359375,0.01019287109375
388,0.020721435546875,-1.079437255859375,0.00494384765625
389,0.020721435546875,-1.079437255859375,0.00494384765625
390,0.0517120361328125,-1.189849853515625,0.0419769287109375
391,0.08294677734375,-1.23150634765625,0.001922607421875
392,0.1273193359375,-1.26171875,-0.05596923828125
393,0.1273193359375,-1.26171875,-0.05596923828125
394,0.18603515625,-1.328475952148438,-0.0933990478515625
395,0.2195587158203125,-1.381378173828125,-0.166412353515625
396,0.239654541015625,-1.441452026367188,-0.2008514404296875
397,0.239654541015625,-1.441452026367188,-0.2008514404296875
398,0.0401153564453125,-1.423751831054688,-0.0911102294921875
399,-0.0715789794921875,-1.379745483398438,-0.02801513671875
400,-0.1123504638671875,-1.365997314453125,-0.02490234375
401,-0.1123504638671875,-1.365997314453125,-0.02490234375
402,-0.0448455810546875,-1.39434814453125,-0.1662445068359375
403,0.03656005859375,-1.371337890625,-0.2824554443359375
404,0.1371917724609375,-1.3065185546875,-0.3640594482421875
405,0.1371917724609375,-1.3065185546875,-0.3640594482421875
406,0.279510498046875,-0.959320068359375,-0.4978485107421875
407,0.310760498046875,-0.854278564453125,-0.5675811767578125
408,0.2894134521484375,-0.7963104248046875,-0.5612335205078125
409,0.2894134521484375,-0.7963104248046875,-0.5612335205078125
410,0.140045166015625,-0.6735687255859375,-0.5739898681640625
411,0.140045166015625,-0.6735687255859375,-0.5739898681640625
412,-0.0438690185546875,-0.686859130859375,-0.5607757568359375
413,-0.0438690185546875,-0.686859130859375,-0.5607757568359375
414,-0.170745849609375,-0.7497711181640625,-0.3350067138671875
415,-0.192840576171875,-0.764678955078125,-0.263092041015625
416,-0.1904296875,-0.8029937744140625,-0.2301788330078125
417,-0.1904296875,-0.8029937744140625,-0.2301788330078125
418,-0.1084747314453125,-0.9643402099609376,-0.1874847412109375
419,-0.0201263427734375,-0.9943695068359376,-0.196441650390625
420,0.0750579833984375,-1.00677490234375,-0.1954498291015625
421,0.0750579833984375,-1.00677490234375,-0.1954498291015625
422,0.22235107421875,-0.9684295654296876,-0.1790313720703125
423,0.27203369140625,-0.9611968994140624,-0.14251708984375
424,0.2948760986328125,-0.9503326416015624,-0.0766448974609375
425,0.2948760986328125,-0.9503326416015624,-0.0766448974609375
426,0.1767120361328125,-0.89013671875,-0.086639404296875
427,0.1767120361328125,-0.89013671875,-0.086639404296875
428,0.0287017822265625,-0.8625946044921875,-0.1515960693359375
429,0.0287017822265625,-0.8625946044921875,-0.1515960693359375
430,-0.0457000732421875,-0.8519287109375,-0.136505126953125
431,-0.057373046875,-0.83966064453125,-0.1139984130859375
432,-0.0556640625,-0.8357086181640625,-0.1018829345703125
433,-0.0556640625,-0.8357086181640625,-0.1018829345703125
434,-0.023193359375,-0.8574066162109375,-0.08514404296875
435,-0.01153564453125,-0.8777923583984375,-0.0760498046875
436,-0.0128936767578125,-0.8880767822265625,-0.0634613037109375
437,-0.0128936767578125,-0.8880767822265625,-0.0634613037109375
438,0.01507568359375,-0.8452911376953125,-0.2435760498046875
439,-0.0067291259765625,-0.9353790283203124,0.125457763671875
440,-0.0537109375,-0.986297607421875,0.0185546875
441,-0.03472900390625,-1.04345703125,-0.2357177734375
442,-0.0133819580078125,-0.9595947265625,-0.0847930908203125
443,0.001373291015625,-0.987091064453125,-0.120635986328125
444,0.01165771484375,-1.035797119140625,-0.187713623046875
445,0.032196044921875,-1.058456420898438,-0.16229248046875
446,0.037261962890625,-1.048675537109375,-0.156585693359375
447,0.04437255859375,-1.03173828125,-0.1511383056640625
448,0.0487060546875,-1.027420043945312,-0.0991973876953125
449,0.0487060546875,-1.027420043945312,-0.0991973876953125
450,0.037139892578125,-1.04168701171875,-0.049224853515625
451,0.037139892578125,-1.04168701171875,-0.049224853515625
452,0.0163116455078125,-1.08123779296875,-0.03228759765625
453,0.003692626953125,-1.120223999023438,-0.0927581787109375
454,-0.0256500244140625,-1.178802490234375,-0.2189178466796875
455,-0.0256500244140625,-1.178802490234375,-0.2189178466796875
456,-0.1291046142578125,-1.3656005859375,-0.6159210205078125
457,-0.1291046142578125,-1.3656005859375,-0.6159210205078125
458,-0.106597900390625,-1.279129028320312,-0.7716827392578125
459,-0.07684326171875,-1.232925415039062,-0.672515869140625
460,-0.0305633544921875,-1.130889892578125,-0.5283203125
461,-0.0305633544921875,-1.130889892578125,-0.5283203125
462,0.1298370361328125,-0.883514404296875,-0.396942138671875
463,0.1939544677734375,-0.7825927734375,-0.3784942626953125
464,0.250579833984375,-0.7169647216796875,-0.33807373046875
465,0.250579833984375,-0.7169647216796875,-0.33807373046875
466,0.37078857421875,-0.821136474609375,-0.1930084228515625
467,0.3574981689453125,-1.015655517578125,-0.1387939453125
468,0.2743988037109375,-1.080780029296875,-0.112701416015625
469,0.2743988037109375,-1.080780029296875,-0.112701416015625
470,0.1466522216796875,-1.113067626953125,-0.271087646484375
471,0.1466522216796875,-1.113067626953125,-0.271087646484375
472,0.0236358642578125,-1.167816162109375,-0.4079742431640625
473,0.0236358642578125,-1.167816162109375,-0.4079742431640625
474,-0.1186370849609375,-1.165115356445312,-0.2126312255859375
475,-0.1694488525390625,-1.0860595703125,-0.0978851318359375
476,-0.116058349609375,-0.9365692138671876,-0.0596771240234375
477,-0.116058349609375,-0.9365692138671876,-0.0596771240234375
478,-0.048004150390625,-0.8951263427734375,-0.0262908935546875
479,0.0219879150390625,-0.8526763916015625,-0.0466156005859375
480,0.0770721435546875,-0.8373565673828125,-0.090362548828125
481,0.0770721435546875,-0.8373565673828125,-0.090362548828125
482,0.0659027099609375,-0.832763671875,-0.06298828125
483,0.0340423583984375,-0.81634521484375,-0.0236053466796875
484,0.0230560302734375,-0.7946014404296875,-0.1362152099609375
485,0.0230560302734375,-0.7946014404296875,-0.1362152099609375
486,-0.0030364990234375,-0.7827301025390625,-0.10650634765625
487,-0.0006256103515625,-0.79815673828125,-0.06121826171875
488,0.0317840576171875,-0.8188323974609375,-0.106292724609375
489,0.0317840576171875,-0.8188323974609375,-0.106292724609375
490,0.065093994140625,-0.931365966796875,0.002471923828125
491,0.0416107177734375,-0.917327880859375,-0.04412841796875
492,0.0108184814453125,-0.8682098388671875,-0.0285797119140625
493,0.0108184814453125,-0.8682098388671875,-0.0285797119140625
494,-0.0019378662109375,-0.84857177734375,0.009368896484375
495,-0.010284423828125,-0.832366943359375,-0.0139312744140625
496,-0.007659912109375,-0.81488037109375,-0.0174407958984375
497,-0.007659912109375,-0.81488037109375,-0.0174407958984375
498,0.005859375,-0.8068389892578125,0.0106353759765625
499,0.0158538818359375,-0.806549072265625,-0.0022125244140625
500,0.0291595458984375,-0.8121490478515625,-9.1552734375e-05
501,0.0291595458984375,-0.8121490478515625,-9.1552734375e-05
502,0.0352783203125,-0.822296142578125,0.007232666015625
503,0.0352783203125,-0.822296142578125,0.007232666015625
504,0.04364013671875,-0.84149169921875,0.0668792724609375
505,0.0627288818359375,-0.8831024169921875,0.093536376953125
506,0.0861968994140625,-0.9222259521484376,0.0970001220703125
507,0.0861968994140625,-0.9222259521484376,0.0970001220703125
508,0.1290283203125,-0.96728515625,0.089508056640625
509,0.1290283203125,-0.96728515625,0.089508056640625
510,0.1434783935546875,-0.97064208984375,0.15728759765625
511,0.141326904296875,-0.96881103515625,0.21295166015625
512,0.131439208984375,-0.9919891357421876,0.2350616455078125
513,0.131439208984375,-0.9919891357421876,0.2350616455078125
514,0.1220703125,-1.125274658203125,-0.046905517578125
515,0.11029052734375,-1.18438720703125,-0.178131103515625
516,0.091796875,-1.224609375,-0.2719268798828125
517,0.091796875,-1.224609375,-0.2719268798828125
518,-0.0149993896484375,-1.216323852539062,-0.489898681640625
519,-0.04925537109375,-1.203018188476562,-0.5883636474609375
520,-0.1020660400390625,-1.206741333007812,-0.6414947509765625
521,-0.1020660400390625,-1.206741333007812,-0.6414947509765625
522,-0.2777099609375,-1.17901611328125,-0.59722900390625
523,-0.3379058837890625,-1.18511962890625,-0.4774169921875
524,-0.374114990234375,-1.243728637695312,-0.3723602294921875
525,-0.374114990234375,-1.243728637695312,-0.3723602294921875
526,-0.3972015380859375,-1.389938354492188,-0.2509918212890625
527,-0.3972015380859375,-1.389938354492188,-0.2509918212890625
528,-0.298583984375,-1.375930786132812,-0.18572998046875
529,-0.298583984375,-1.375930786132812,-0.18572998046875
530,-0.046722412109375,-1.178726196289062,-0.2420654296875
531,-0.046722412109375,-1.178726196289062,-0.2420654296875
532,0.056854248046875,-1.073257446289062,-0.1806640625
533,0.076568603515625,-1.03070068359375,-0.16015625
534,0.1035919189453125,-1.039215087890625,-0.1477508544921875
535,0.15362548828125,-1.01861572265625,-0.1007537841796875
536,0.1872100830078125,-0.9524383544921876,-0.0712890625
537,0.1872100830078125,-0.9524383544921876,-0.0712890625
538,0.21173095703125,-0.8359832763671875,0.0010528564453125
539,0.1801910400390625,-0.78936767578125,0.0015106201171875
540,0.0941162109375,-0.76385498046875,-0.0369110107421875
541,0.0941162109375,-0.76385498046875,-0.0369110107421875
542,-0.064849853515625,-0.7685546875,-0.075531005859375
543,-0.064849853515625,-0.7685546875,-0.075531005859375
544,-0.0891265869140625,-0.780426025390625,-0.10491943359375
545,-0.0891265869140625,-0.780426025390625,-0.10491943359375
546,-0.0891265869140625,-0.780426025390625,-0.10491943359375
547,0.0247955322265625,-0.7717132568359375,-0.063568115234375
548,0.065155029296875,-0.7967529296875,-0.04351806640625
549,0.065155029296875,-0.7967529296875,-0.04351806640625
550,0.08380126953125,-0.8198699951171875,-0.0143280029296875
551,0.0347900390625,-0.8593597412109375,0.01947021484375
552,0.0347900390625,-0.8593597412109375,0.01947021484375
553,0.003570556640625,-0.8634033203125,0.045440673828125
554,0.0076446533203125,-0.85394287109375,0.0523223876953125
555,0.0050048828125,-0.8641815185546875,0.0458221435546875
556,0.0167388916015625,-0.865997314453125,0.0401763916015625
557,0.0167388916015625,-0.865997314453125,0.0401763916015625
558,0.0134735107421875,-0.899871826171875,-0.020050048828125
559,-0.017547607421875,-0.937774658203125,-0.0579681396484375
560,-0.0725250244140625,-1.017074584960938,-0.07537841796875
561,-0.0725250244140625,-1.017074584960938,-0.07537841796875
562,-0.149139404296875,-1.099288940429688,-0.0514068603515625
563,-0.1873016357421875,-1.102798461914062,-0.0357666015625
564,-0.2176513671875,-1.13165283203125,0.0078887939453125
565,-0.2176513671875,-1.13165283203125,0.0078887939453125
566,-0.2349700927734375,-1.211639404296875,-0.033782958984375
567,-0.215118408203125,-1.32464599609375,-0.133697509765625
568,-0.215118408203125,-1.32464599609375,-0.133697509765625
569,-0.215118408203125,-1.32464599609375,-0.133697509765625
570,-0.215118408203125,-1.32464599609375,-0.133697509765625
571,-0.215118408203125,-1.32464599609375,-0.133697509765625
572,-0.215118408203125,-1.32464599609375,-0.133697509765625
573,-0.215118408203125,-1.32464599609375,-0.133697509765625
574,-0.215118408203125,-1.32464599609375,-0.133697509765625
575,0.5876007080078125,-0.8659210205078125,-0.3940582275390625
576,0.5876007080078125,-0.8659210205078125,-0.3940582275390625
577,0.5876007080078125,-0.8659210205078125,-0.3940582275390625
578,0.5876007080078125,-0.8659210205078125,-0.3940582275390625
579,0.5876007080078125,-0.8659210205078125,-0.3940582275390625
580,0.5876007080078125,-0.8659210205078125,-0.3940582275390625
581,0.5876007080078125,-0.8659210205078125,-0.3940582275390625
582,0.6031951904296875,-0.8671112060546875,-0.3583831787109375
583,0.5751495361328125,-0.8738250732421875,-0.351654052734375
584,0.482269287109375,-0.8873443603515625,-0.3473968505859375
585,0.482269287109375,-0.8873443603515625,-0.3473968505859375
586,0.19775390625,-0.9911956787109376,-0.390533447265625
587,0.19775390625,-0.9911956787109376,-0.390533447265625
588,-0.01397705078125,-1.059402465820312,-0.3070068359375
589,-0.01397705078125,-1.059402465820312,-0.3070068359375
590,-0.1053314208984375,-1.116683959960938,-0.2777252197265625
591,-0.1053314208984375,-1.116683959960938,-0.2777252197265625
592,-0.156768798828125,-1.12994384765625,-0.1968231201171875
593,-0.156768798828125,-1.12994384765625,-0.1968231201171875
594,-0.1609039306640625,-1.029129028320312,-0.1291656494140625
595,-0.1609039306640625,-1.029129028320312,-0.1291656494140625
596,-0.1250457763671875,-0.9169769287109376,-0.118499755859375
597,-0.1250457763671875,-0.9169769287109376,-0.118499755859375
598,-0.005706787109375,-0.8229827880859375,-0.093902587890625
599,0.0396728515625,-0.79766845703125,-0.0775299072265625
600,0.080657958984375,-0.7862548828125,-0.059539794921875
601,0.080657958984375,-0.7862548828125,-0.059539794921875
602,0.1110687255859375,-0.7551727294921875,-0.1047210693359375
603,0.100555419921875,-0.7329559326171875,-0.2214508056640625
604,0.0930328369140625,-0.8066864013671875,-0.2044525146484375
605,0.0930328369140625,-0.8066864013671875,-0.2044525146484375
606,-0.00439453125,-0.8375091552734375,-0.03607177734375
607,0.00909423828125,-0.855377197265625,-0.1081390380859375
608,0.020477294921875,-0.87628173828125,-0.0297393798828125
609,0.020477294921875,-0.87628173828125,-0.0297393798828125
610,0.02130126953125,-0.919219970703125,-0.0014495849609375
611,0.02130126953125,-0.919219970703125,-0.0014495849609375
612,0.0406494140625,-0.922271728515625,-0.06982421875
613,0.0406494140625,-0.922271728515625,-0.06982421875
614,0.0627288818359375,-0.959442138671875,0.0086822509765625
615,0.0627288818359375,-0.959442138671875,0.0086822509765625
616,0.0867156982421875,-0.9573822021484376,-0.060455322265625
617,0.0867156982421875,-0.9573822021484376,-0.060455322265625
618,0.0770416259765625,-0.994964599609375,-0.04876708984375
619,0.0770416259765625,-0.994964599609375,-0.04876708984375
620,0.05389404296875,-1.065338134765625,0.005706787109375
621,0.05389404296875,-1.065338134765625,0.005706787109375
622,-0.0277252197265625,-1.139144897460938,0.076934814453125
623,-0.0277252197265625,-1.139144897460938,0.076934814453125
624,-0.1126708984375,-1.218841552734375,0.24774169921875
625,-0.1126708984375,-1.218841552734375,0.24774169921875
626,-0.0125579833984375,-1.294418334960938,0.1546783447265625
627,-0.0125579833984375,-1.294418334960938,0.1546783447265625
628,0.212982177734375,-1.32073974609375,-0.3637237548828125
629,0.212982177734375,-1.32073974609375,-0.3637237548828125
630,0.2693328857421875,-1.2337646484375,-0.5885162353515625
631,0.2693328857421875,-1.2337646484375,-0.5885162353515625
632,0.3546142578125,-0.9897308349609376,-0.6723785400390625
633,0.3546142578125,-0.9897308349609376,-0.6723785400390625
634,0.2774200439453125,-0.754547119140625,-0.756744384765625
635,0.2774200439453125,-0.754547119140625,-0.756744384765625
636,0.0697021484375,-0.6318817138671875,-0.7683258056640625
637,0.0697021484375,-0.6318817138671875,-0.7683258056640625
638,-0.1068878173828125,-0.751953125,-0.4808197021484375
639,-0.1068878173828125,-0.751953125,-0.4808197021484375
640,-0.1265106201171875,-0.999053955078125,-0.04107666015625
641,-0.1265106201171875,-0.999053955078125,-0.04107666015625
642,-0.0410003662109375,-1.163253784179688,0.1624298095703125
643,-0.0410003662109375,-1.163253784179688,0.1624298095703125
644,0.3616790771484375,-1.509292602539062,-0.070831298828125
645,0.3616790771484375,-1.509292602539062,-0.070831298828125
646,0.4210205078125,-1.460433959960938,-0.0196380615234375
647,0.4210205078125,-1.460433959960938,-0.0196380615234375
648,0.2103424072265625,-1.069381713867188,-0.1344451904296875
649,0.2103424072265625,-1.069381713867188,-0.1344451904296875
650,0.1407012939453125,-1.00836181640625,-0.1882476806640625
651,0.1407012939453125,-1.00836181640625,-0.1882476806640625
652,0.0834808349609375,-0.9033203125,-0.1302642822265625
653,0.0834808349609375,-0.9033203125,-0.1302642822265625
654,0.084381103515625,-0.8823699951171875,-0.0917510986328125
655,0.084381103515625,-0.8823699951171875,-0.0917510986328125
656,0.0856781005859375,-0.8581695556640625,-0.0590972900390625
657,0.0898895263671875,-0.829620361328125,-0.0527801513671875
658,0.1732025146484375,-0.7603607177734375,-0.187286376953125
659,0.1732025146484375,-0.7603607177734375,-0.187286376953125
660,0.152374267578125,-0.862548828125,-0.021514892578125
661,0.152374267578125,-0.862548828125,-0.021514892578125
662,0.060272216796875,-0.781707763671875,0.05718994140625
663,0.060272216796875,-0.781707763671875,0.05718994140625
664,-0.00396728515625,-0.9075927734375,-0.0773773193359375
665,-0.00396728515625,-0.9075927734375,-0.0773773193359375
666,-0.022247314453125,-0.8716888427734375,-0.0889739990234375
667,-0.022247314453125,-0.8716888427734375,-0.0889739990234375
668,0.0150299072265625,-0.872467041015625,-0.1136016845703125
669,0.0150299072265625,-0.872467041015625,-0.1136016845703125
670,0.0001373291015625,-0.8655242919921875,-0.116790771484375
671,0.0001373291015625,-0.8655242919921875,-0.116790771484375
672,-0.00250244140625,-0.8648529052734375,-0.1083221435546875
673,-0.00250244140625,-0.8648529052734375,-0.1083221435546875
674,0.017364501953125,-0.8880767822265625,-0.0954132080078125
675,0.0157623291015625,-0.8923187255859375,-0.100555419921875
676,-0.129058837890625,-0.91693115234375,-0.103912353515625
677,-0.129058837890625,-0.91693115234375,-0.103912353515625
678,-0.10406494140625,-0.9291839599609376,-0.099639892578125
679,-0.0096435546875,-0.976104736328125,-0.1179046630859375
680,-0.0096435546875,-0.976104736328125,-0.1179046630859375
681,-0.0096435546875,-0.976104736328125,-0.1179046630859375
682,-0.023956298828125,-1.081008911132812,-0.2689056396484375
683,-0.023956298828125,-1.081008911132812,-0.2689056396484375
684,0.16192626953125,-1.317611694335938,-0.711822509765625
685,0.16192626953125,-1.317611694335938,-0.711822509765625
686,0.2662353515625,-1.400222778320312,-0.5240020751953125
687,0.2662353515625,-1.400222778320312,-0.5240020751953125
688,0.406280517578125,-1.4281005859375,-0.293853759765625
689,0.5655364990234375,-1.379501342773438,-0.112152099609375
690,0.8304595947265625,-1.110122680664062,0.094879150390625
691,0.8304595947265625,-1.110122680664062,0.094879150390625
692,0.8255615234375,-0.837249755859375,0.0487060546875
693,0.7420806884765625,-0.7699737548828125,-0.0563507080078125
694,0.656585693359375,-0.769439697265625,-0.1615447998046875
695,0.656585693359375,-0.769439697265625,-0.1615447998046875
696,0.5106201171875,-0.8702850341796875,-0.244354248046875
697,0.5106201171875,-0.8702850341796875,-0.244354248046875
698,0.3393402099609375,-1.053390502929688,-0.06683349609375
699,0.3393402099609375,-1.053390502929688,-0.06683349609375
700,0.2103118896484375,-1.116836547851562,-0.046661376953125
701,0.194366455078125,-1.112594604492188,-0.160308837890625
702,0.1849822998046875,-1.116119384765625,-0.189208984375
703,0.1849822998046875,-1.116119384765625,-0.189208984375
704,0.1652069091796875,-1.1307373046875,-0.1490936279296875
705,0.1521759033203125,-1.12860107421875,-0.1020050048828125
706,0.152374267578125,-1.089675903320312,-0.07623291015625
707,0.152374267578125,-1.089675903320312,-0.07623291015625
708,0.1898345947265625,-1.012466430664062,-0.03350830078125
709,0.1898345947265625,-1.012466430664062,-0.03350830078125
710,0.2485809326171875,-0.9633941650390624,-0.061248779296875
711,0.2485809326171875,-0.9633941650390624,-0.061248779296875
712,0.258026123046875,-0.9466400146484376,-0.0554962158203125
713,0.24798583984375,-0.9290771484375,-0.029205322265625
714,0.22125244140625,-0.9160614013671876,0.053070068359375
715,0.22125244140625,-0.9160614013671876,0.053070068359375
716,0.21807861328125,-0.908233642578125,0.0745849609375
717,0.2194061279296875,-0.9124298095703124,0.059814453125
718,0.22344970703125,-0.9308929443359376,0.067413330078125
719,0.22344970703125,-0.9308929443359376,0.067413330078125
720,0.2229766845703125,-0.965423583984375,0.0879669189453125
721,0.2229766845703125,-0.965423583984375,0.0879669189453125
722,0.21466064453125,-0.96923828125,0.0167694091796875
723,0.21466064453125,-0.96923828125,0.0167694091796875
724,0.1812896728515625,-0.877471923828125,-0.084259033203125
725,0.1837921142578125,-0.8563232421875,-0.138427734375
726,0.2158355712890625,-0.84808349609375,-0.2034454345703125
727,0.2158355712890625,-0.84808349609375,-0.2034454345703125
728,0.30462646484375,-0.9170379638671876,-0.2777252197265625
729,0.2919769287109375,-1.01776123046875,-0.2599334716796875
730,0.256256103515625,-1.10198974609375,-0.22918701171875
731,0.256256103515625,-1.10198974609375,-0.22918701171875
732,-0.0372161865234375,-1.144515991210938,-0.261993408203125
733,-0.0372161865234375,-1.144515991210938,-0.261993408203125
734,-0.159332275390625,-1.151687622070312,-0.22705078125
735,-0.159332275390625,-1.151687622070312,-0.22705078125
736,-0.073883056640625,-1.06341552734375,-0.0718841552734375
737,-0.073883056640625,-1.06341552734375,-0.0718841552734375
738,0.164886474609375,-1.059844970703125,-0.0670166015625
739,0.164886474609375,-1.059844970703125,-0.0670166015625
740,0.198486328125,-0.9472198486328124,-0.1733551025390625
741,0.198486328125,-0.9472198486328124,-0.1733551025390625
742,0.11737060546875,-0.987823486328125,-0.2257080078125
743,0.11737060546875,-0.987823486328125,-0.2257080078125
744,0.00457763671875,-1.017303466796875,-0.244842529296875
745,0.00457763671875,-1.017303466796875,-0.244842529296875
746,-0.0044097900390625,-1.022781372070312,-0.2056121826171875
747,0.0883636474609375,-1.041748046875,-0.126251220703125
748,0.0883636474609375,-1.041748046875,-0.126251220703125
749,0.0969085693359375,-1.027862548828125,-0.105865478515625
750,0.0902862548828125,-0.997344970703125,-0.0982208251953125
751,0.0902862548828125,-0.997344970703125,-0.0982208251953125
752,0.0804595947265625,-0.958740234375,-0.130889892578125
753,0.0191192626953125,-0.9930877685546876,-0.03289794921875
754,-0.0021820068359375,-1.000274658203125,-0.0943603515625
755,-0.0021820068359375,-1.000274658203125,-0.0943603515625
756,-0.056182861328125,-1.04827880859375,-0.043365478515625
757,-0.056182861328125,-1.04827880859375,-0.043365478515625
758,-0.06439208984375,-1.034210205078125,-0.058380126953125
759,-0.06439208984375,-1.034210205078125,-0.058380126953125
760,-0.0455322265625,-0.98333740234375,-0.0561065673828125
761,-0.0455322265625,-0.98333740234375,-0.0561065673828125
762,-0.0323944091796875,-0.966552734375,-0.054046630859375
763,-0.0323944091796875,-0.966552734375,-0.054046630859375
764,-0.0216064453125,-0.9566650390625,-0.0428009033203125
765,-0.00933837890625,-0.9514312744140624,-0.03106689453125
766,-0.0062713623046875,-0.9597625732421876,-0.01031494140625
767,-0.0062713623046875,-0.9597625732421876,-0.01031494140625
768,-0.0403594970703125,-0.9499359130859376,0.000946044921875
769,-0.0403594970703125,-0.9499359130859376,0.000946044921875
770,-0.07958984375,-0.9777984619140624,0.006103515625
771,-0.1092987060546875,-1.001480102539062,0.0122833251953125
772,-0.1092987060546875,-1.001480102539062,0.0122833251953125
773,-0.111785888671875,-1.000640869140625,0.0082855224609375
774,-0.1126861572265625,-0.9836578369140624,0.0039825439453125
775,-0.1126861572265625,-0.9836578369140624,0.0039825439453125
776,-0.1134185791015625,-0.97308349609375,-0.006561279296875
777,-0.1152191162109375,-0.962005615234375,-0.0163726806640625
778,-0.1349029541015625,-0.9969024658203124,-0.0677032470703125
779,-0.1349029541015625,-0.9969024658203124,-0.0677032470703125
780,-0.1755828857421875,-1.065155029296875,-0.124542236328125
781,-0.2039337158203125,-1.08404541015625,-0.138153076171875
782,-0.243377685546875,-1.12896728515625,-0.1281585693359375
783,-0.243377685546875,-1.12896728515625,-0.1281585693359375
784,-0.2751007080078125,-1.108535766601562,-0.00335693359375
785,-0.2412261962890625,-1.059494018554688,-0.0105743408203125
786,-0.1913909912109375,-1.007080078125,-0.0218048095703125
787,-0.1913909912109375,-1.007080078125,-0.0218048095703125
788,-0.15380859375,-0.953857421875,-0.0588836669921875
789,-0.15380859375,-0.953857421875,-0.0588836669921875
790,-0.15667724609375,-0.9599761962890624,-0.058380126953125
791,-0.15667724609375,-0.9599761962890624,-0.058380126953125
792,-0.0986328125,-0.9770050048828124,0.0603179931640625
793,-0.0986328125,-0.9770050048828124,0.0603179931640625
794,-0.061309814453125,-0.9731903076171876,0.09259033203125
795,-0.061309814453125,-0.9731903076171876,0.09259033203125
796,0.00201416015625,-0.9728851318359376,0.099609375
797,0.0221405029296875,-0.9724578857421876,0.0847930908203125
798,0.031982421875,-0.964569091796875,0.0606689453125
799,0.031982421875,-0.964569091796875,0.0606689453125
800,0.02874755859375,-0.9322357177734376,0.013580322265625
801,0.02874755859375,-0.9322357177734376,0.013580322265625
802,0.0191192626953125,-0.9446563720703124,0.013458251953125
803,0.0191192626953125,-0.9446563720703124,0.013458251953125
804,-0.034271240234375,-0.9833831787109376,0.00054931640625
805,-0.034271240234375,-0.9833831787109376,0.00054931640625
806,-0.05535888671875,-0.990875244140625,0.015289306640625
807,-0.05535888671875,-0.990875244140625,0.015289306640625
808,-0.01800537109375,-1.023666381835938,0.008392333984375
809,0.0110015869140625,-1.018096923828125,-0.033660888671875
810,0.063629150390625,-1.0009765625,-0.026519775390625
811,0.063629150390625,-1.0009765625,-0.026519775390625
812,0.1529083251953125,-0.998199462890625,0.0204620361328125
813,0.1529083251953125,-0.998199462890625,0.0204620361328125
814,0.1652374267578125,-1.014007568359375,0.06365966796875
815,0.1652374267578125,-1.014007568359375,0.06365966796875
816,0.140411376953125,-1.04290771484375,0.07769775390625
817,0.1280059814453125,-1.048065185546875,0.073577880859375
818,0.13262939453125,-1.034622192382812,0.056396484375
819,0.13262939453125,-1.034622192382812,0.056396484375
820,0.1978607177734375,-0.987579345703125,0.0052947998046875
821,0.2410430908203125,-0.9937286376953124,-0.0147857666015625
822,0.278350830078125,-1.01177978515625,-0.0091094970703125
823,0.278350830078125,-1.01177978515625,-0.0091094970703125
824,0.31341552734375,-1.05615234375,0.0733642578125
825,0.31341552734375,-1.05615234375,0.0733642578125
826,0.2914276123046875,-1.054519653320312,0.0893402099609375
827,0.2914276123046875,-1.054519653320312,0.0893402099609375
828,0.2312469482421875,-0.96649169921875,0.0380401611328125
829,0.2312469482421875,-0.96649169921875,0.0380401611328125
830,0.2118377685546875,-0.959930419921875,0.0416717529296875
831,0.1752471923828125,-0.9857635498046876,0.066192626953125
832,0.1752471923828125,-0.9857635498046876,0.066192626953125
833,0.1760711669921875,-0.95452880859375,0.0380859375
834,0.165191650390625,-1.004180908203125,0.063568115234375
835,0.165191650390625,-1.004180908203125,0.063568115234375
836,0.1775665283203125,-0.965240478515625,0.0017852783203125
837,0.1925048828125,-0.9786529541015624,0.011871337890625
838,0.1996917724609375,-0.9916839599609376,0.02423095703125
839,0.1996917724609375,-0.9916839599609376,0.02423095703125
840,0.204864501953125,-1.001388549804688,0.0243377685546875
841,0.212615966796875,-0.995269775390625,0.0205841064453125
842,0.212615966796875,-0.9757232666015624,0.006134033203125
843,0.1959075927734375,-0.9417877197265624,0.0296173095703125
844,0.1959075927734375,-0.9417877197265624,0.0296173095703125
845,0.18621826171875,-0.93438720703125,0.0364532470703125
846,0.1762847900390625,-0.93310546875,0.02789306640625
847,0.1687774658203125,-0.9380035400390624,0.024261474609375
848,0.1687774658203125,-0.9380035400390624,0.024261474609375
849,0.156097412109375,-0.9517974853515624,0.02197265625
850,0.1362762451171875,-0.97698974609375,0.0334320068359375
851,0.1362762451171875,-0.97698974609375,0.0334320068359375
852,0.1187286376953125,-0.9951324462890624,0.0427703857421875
853,0.1187286376953125,-0.9951324462890624,0.0427703857421875
854,0.1022186279296875,-1.016448974609375,0.03326416015625
855,0.1022186279296875,-1.016448974609375,0.03326416015625
856,0.0973052978515625,-1.029220581054688,0.035797119140625
857,0.0973052978515625,-1.029220581054688,0.035797119140625
858,0.08660888671875,-1.029006958007812,0.056488037109375
859,0.08660888671875,-1.029006958007812,0.056488037109375
860,0.0738372802734375,-1.032302856445312,0.0978240966796875
861,0.0738372802734375,-1.032302856445312,0.0978240966796875
862,0.086578369140625,-1.029006958007812,0.0795135498046875
863,0.086578369140625,-1.029006958007812,0.0795135498046875
864,0.1447906494140625,-1.007247924804688,-0.0008087158203125
865,0.168670654296875,-0.992156982421875,-0.04071044921875
866,0.14593505859375,-1.007675170898438,-0.071319580078125
867,0.14593505859375,-1.007675170898438,-0.071319580078125
868,0.0960693359375,-1.080322265625,-0.046234130859375
869,0.0659637451171875,-1.090866088867188,-0.058319091796875
870,0.03973388671875,-1.0751953125,-0.129669189453125
871,0.03973388671875,-1.0751953125,-0.129669189453125
872,0.0301971435546875,-1.054473876953125,-0.2660369873046875
873,0.0404052734375,-1.050765991210938,-0.2800750732421875
874,0.0404052734375,-1.050765991210938,-0.2800750732421875
875,0.0674285888671875,-1.043716430664062,-0.27423095703125
876,0.2317352294921875,-0.9304046630859376,-0.112945556640625
877,0.2317352294921875,-0.9304046630859376,-0.112945556640625
878,0.284698486328125,-0.8824310302734375,-0.090545654296875
879,0.32598876953125,-0.864654541015625,-0.111053466796875
880,0.3719635009765625,-0.892303466796875,-0.16070556640625
881,0.3719635009765625,-0.892303466796875,-0.16070556640625
882,0.3770294189453125,-0.99395751953125,-0.23974609375
883,0.3770294189453125,-0.99395751953125,-0.23974609375
884,0.236419677734375,-1.034530639648438,-0.25067138671875
885,0.1459197998046875,-1.021942138671875,-0.2622528076171875
886,0.0776519775390625,-0.988372802734375,-0.2535858154296875
887,0.0776519775390625,-0.988372802734375,-0.2535858154296875
888,0.0449981689453125,-0.923675537109375,-0.232147216796875
889,0.0563812255859375,-0.9267730712890624,-0.225677490234375
890,0.0563812255859375,-0.9267730712890624,-0.225677490234375
891,0.067657470703125,-0.950286865234375,-0.201812744140625
892,0.0925750732421875,-1.000030517578125,-0.16046142578125
893,0.106353759765625,-1.015045166015625,-0.156036376953125
894,0.1181488037109375,-1.022567749023438,-0.163482666015625
895,0.1181488037109375,-1.022567749023438,-0.163482666015625
896,0.1443328857421875,-1.051864624023438,-0.171356201171875
897,0.153839111328125,-1.061553955078125,-0.1607208251953125
898,0.153839111328125,-1.061553955078125,-0.1607208251953125
899,0.138946533203125,-0.9923553466796876,-0.1495361328125
900,0.138946533203125,-0.9923553466796876,-0.1495361328125
901,0.130462646484375,-0.9713897705078124,-0.12823486328125
902,0.1257171630859375,-0.9592437744140624,-0.1144866943359375
903,0.1257171630859375,-0.9592437744140624,-0.1144866943359375
904,0.12567138671875,-0.949737548828125,-0.1204681396484375
905,0.12286376953125,-0.9516448974609376,-0.1322021484375
906,0.12286376953125,-0.9595489501953124,-0.1403045654296875
907,0.120452880859375,-0.9669647216796876,-0.15447998046875
908,0.118927001953125,-0.987823486328125,-0.2115325927734375
909,0.0893402099609375,-1.03948974609375,-0.129669189453125
910,0.0811614990234375,-1.007095336914062,-0.1637115478515625
911,0.0811614990234375,-1.007095336914062,-0.1637115478515625
912,0.09130859375,-1.007644653320312,-0.2036895751953125
913,0.0735626220703125,-1.01715087890625,-0.1499176025390625
914,0.0719757080078125,-0.99755859375,-0.162353515625
915,0.0719757080078125,-0.99755859375,-0.162353515625
916,0.06787109375,-0.99566650390625,-0.1612701416015625
917,0.07269287109375,-0.984130859375,-0.175079345703125
918,0.078521728515625,-0.980255126953125,-0.1846466064453125
919,0.078521728515625,-0.980255126953125,-0.1846466064453125
920,0.090057373046875,-0.9852447509765624,-0.18634033203125
921,0.09228515625,-0.9900054931640624,-0.1817779541015625
922,0.0909423828125,-0.9957427978515624,-0.174530029296875
923,0.0909423828125,-0.9957427978515624,-0.174530029296875
924,0.08099365234375,-0.998931884765625,-0.16595458984375
925,0.077789306640625,-0.9964752197265624,-0.1656341552734375
926,0.077789306640625,-0.9964752197265624,-0.1656341552734375
927,0.0708160400390625,-0.9917449951171876,-0.1710052490234375
928,0.0586700439453125,-0.9947509765625,-0.1837921142578125
929,0.0563812255859375,-0.9976348876953124,-0.192474365234375
930,0.0518035888671875,-0.9966888427734376,-0.21014404296875
931,0.045501708984375,-0.9964141845703124,-0.22589111328125
932,0.0418853759765625,-0.993804931640625,-0.227508544921875
933,0.036865234375,-1.008819580078125,-0.2156829833984375
934,0.031585693359375,-1.008758544921875,-0.1784820556640625
935,0.1158905029296875,-0.9918670654296876,-0.17205810546875
936,0.1158905029296875,-0.9918670654296876,-0.17205810546875
937,0.147430419921875,-0.9841156005859376,-0.15106201171875
938,0.181976318359375,-0.9773712158203124,-0.1541595458984375
939,0.181976318359375,-0.9773712158203124,-0.1541595458984375
940,0.1911468505859375,-0.9719696044921876,-0.1566925048828125
941,0.185272216796875,-0.973388671875,-0.1784210205078125
942,0.1768798828125,-0.9808349609375,-0.195892333984375
943,0.1768798828125,-0.9808349609375,-0.195892333984375
944,0.172393798828125,-0.9860992431640624,-0.196044921875
945,0.1672210693359375,-0.9793853759765624,-0.1819000244140625
946,0.1712188720703125,-0.9713897705078124,-0.163421630859375
947,0.1860809326171875,-0.9648284912109376,-0.15716552734375
948,0.203125,-0.9546966552734376,-0.1533203125
949,0.203125,-0.9546966552734376,-0.1533203125
950,0.2060546875,-0.9472808837890624,-0.1561126708984375
951,0.2060546875,-0.9472808837890624,-0.1561126708984375
952,0.1950225830078125,-0.9525604248046876,-0.152740478515625
953,0.1950225830078125,-0.9525604248046876,-0.152740478515625
954,0.1912384033203125,-0.9571990966796876,-0.1544647216796875
955,0.1912384033203125,-0.9571990966796876,-0.1544647216796875
956,0.18621826171875,-0.9663543701171876,-0.1611480712890625
957,0.1831512451171875,-0.977874755859375,-0.16314697265625
958,0.178558349609375,-0.9913330078125,-0.1630859375
959,0.178558349609375,-0.9913330078125,-0.1630859375
960,0.182403564453125,-0.9956817626953124,-0.15997314453125
961,0.1917266845703125,-1.000991821289062,-0.1512298583984375
962,0.2128753662109375,-1.001510620117188,-0.1514434814453125
963,0.2128753662109375,-1.001510620117188,-0.1514434814453125
964,0.2319793701171875,-0.995147705078125,-0.141265869140625
965,0.23089599609375,-0.9910888671875,-0.1324615478515625
966,0.2227783203125,-0.9912109375,-0.1212158203125
967,0.2227783203125,-0.9912109375,-0.1212158203125
968,0.210235595703125,-0.989105224609375,-0.1209869384765625
969,0.205474853515625,-0.988677978515625,-0.1224365234375
970,0.2009735107421875,-0.9859619140625,-0.12799072265625
971,0.2009735107421875,-0.9859619140625,-0.12799072265625
972,0.199981689453125,-0.9755859375,-0.12762451171875
973,0.199981689453125,-0.9755859375,-0.12762451171875
974,0.2022552490234375,-0.9773101806640624,-0.1395263671875
975,0.2022552490234375,-0.9773101806640624,-0.1395263671875
976,0.1958465576171875,-0.975189208984375,-0.1323699951171875
977,0.204071044921875,-0.97943115234375,-0.142791748046875
978,0.200103759765625,-0.984649658203125,-0.1316680908203125
979,0.200103759765625,-0.984649658203125,-0.1316680908203125
980,0.1994476318359375,-0.991943359375,-0.1356201171875
981,0.1994171142578125,-0.9927215576171876,-0.1409149169921875
982,0.1794281005859375,-0.9835052490234376,-0.1392669677734375
983,0.1794281005859375,-0.9835052490234376,-0.1392669677734375
984,0.1719818115234375,-0.9818572998046876,-0.1458740234375
985,0.164459228515625,-0.983154296875,-0.148284912109375
986,0.155181884765625,-0.986907958984375,-0.144256591796875
987,0.155181884765625,-0.986907958984375,-0.144256591796875
988,0.1593780517578125,-0.9879302978515624,-0.14031982421875
989,0.1593780517578125,-0.9879302978515624,-0.14031982421875
990,0.166778564453125,-0.9827423095703124,-0.1444549560546875
991,0.170135498046875,-0.974090576171875,-0.14111328125
992,0.175262451171875,-0.95233154296875,-0.1275787353515625
993,0.175262451171875,-0.95233154296875,-0.1275787353515625
994,0.1762847900390625,-0.9507293701171876,-0.1221160888671875
995,0.1762847900390625,-0.9507293701171876,-0.1221160888671875
996,0.17352294921875,-0.952850341796875,-0.120513916015625
997,0.164825439453125,-0.966949462890625,-0.112457275390625
998,0.163726806640625,-0.9766387939453124,-0.113677978515625
999,0.163726806640625,-0.9766387939453124,-0.113677978515625
1000,0.1638336181640625,-0.9894256591796876,-0.114166259765625
1001,0.1638031005859375,-0.99407958984375,-0.1103057861328125
1002,0.1639862060546875,-0.99462890625,-0.105987548828125
1003,0.1639862060546875,-0.99462890625,-0.105987548828125
1004,0.1679840087890625,-0.992828369140625,-0.1046295166015625
1005,0.1648406982421875,-0.9885711669921876,-0.0919036865234375
1006,0.1599578857421875,-0.9874267578125,-0.0921478271484375
1007,0.1580047607421875,-0.9918060302734376,-0.1010284423828125
1008,0.1580047607421875,-0.9918060302734376,-0.1010284423828125
1009,0.143585205078125,-0.99200439453125,-0.0944366455078125
1010,0.139312744140625,-0.9890289306640624,-0.0967559814453125
1011,0.139312744140625,-0.9890289306640624,-0.0967559814453125
1012,0.12890625,-0.9795989990234376,-0.0976409912109375
1013,0.128326416015625,-0.9821014404296876,-0.100799560546875
1014,0.1285400390625,-0.986236572265625,-0.10107421875
1015,0.1285400390625,-0.986236572265625,-0.10107421875
1016,0.133026123046875,-0.9773406982421876,-0.104034423828125
1017,0.1378173828125,-0.980499267578125,-0.1009979248046875
1018,0.1395721435546875,-0.983001708984375,-0.0974273681640625
1019,0.1407928466796875,-0.9796905517578124,-0.0801849365234375
1020,0.1407928466796875,-0.9796905517578124,-0.0801849365234375
1021,0.1403961181640625,-0.9778900146484376,-0.077606201171875
1022,0.1406707763671875,-0.978515625,-0.0770263671875
1023,0.1406707763671875,-0.978515625,-0.0770263671875
1024,0.1360931396484375,-0.9849700927734376,-0.078399658203125
1025,0.13427734375,-0.9908294677734376,-0.0822906494140625
1026,0.1338958740234375,-0.9956512451171876,-0.0836334228515625
1027,0.1338958740234375,-0.9956512451171876,-0.0836334228515625
1028,0.1419677734375,-1.003097534179688,-0.082763671875
1029,0.14984130859375,-1.003128051757812,-0.084442138671875
1030,0.1618194580078125,-0.9988861083984376,-0.0811920166015625
1031,0.17449951171875,-0.9908294677734376,-0.0783843994140625
1032,0.17449951171875,-0.9908294677734376,-0.0783843994140625
1033,0.196136474609375,-0.9790496826171876,-0.0678863525390625
1034,0.2086944580078125,-0.9774322509765624,-0.0626068115234375
1035,0.2086944580078125,-0.9774322509765624,-0.0626068115234375
1036,0.229949951171875,-0.9756011962890624,-0.0532989501953125
1037,0.2339324951171875,-0.976715087890625,-0.0500335693359375
1038,0.2342681884765625,-0.979766845703125,-0.045806884765625
1039,0.2342681884765625,-0.979766845703125,-0.045806884765625
1040,0.2262115478515625,-0.986419677734375,-0.039459228515625
1041,0.2192230224609375,-0.9835205078125,-0.0370635986328125
1042,0.210113525390625,-0.9834442138671876,-0.0395965576171875
1043,0.1998291015625,-0.98468017578125,-0.0369110107421875
1044,0.1820831298828125,-0.9889068603515624,-0.0402679443359375
1045,0.1820831298828125,-0.9889068603515624,-0.0402679443359375
1046,0.175445556640625,-0.99462890625,-0.040008544921875
1047,0.165313720703125,-0.998565673828125,-0.0425567626953125
1048,0.1452789306640625,-0.997772216796875,-0.0474395751953125
1049,0.1452789306640625,-0.997772216796875,-0.0474395751953125
1050,0.135772705078125,-0.99346923828125,-0.0509796142578125
1051,0.135772705078125,-0.99346923828125,-0.0509796142578125
1052,0.131805419921875,-0.9912109375,-0.05126953125
1053,0.118927001953125,-0.9922943115234376,-0.04150390625
1054,0.114288330078125,-0.9882354736328124,-0.0516204833984375
1055,0.114288330078125,-0.9882354736328124,-0.0516204833984375
1056,0.115264892578125,-0.98565673828125,-0.0459136962890625
1057,0.127288818359375,-0.9866790771484376,-0.0451507568359375
1058,0.1430816650390625,-0.9837799072265624,-0.044830322265625
1059,0.1430816650390625,-0.9837799072265624,-0.044830322265625
1060,0.1582794189453125,-0.9836273193359376,-0.0379638671875
1061,0.1645050048828125,-0.98077392578125,-0.0384368896484375
1062,0.1699981689453125,-0.9827423095703124,-0.044158935546875
1063,0.1699981689453125,-0.9827423095703124,-0.044158935546875
1064,0.186370849609375,-0.978302001953125,-0.047637939453125
1065,0.1904296875,-0.97607421875,-0.0479736328125
1066,0.2065887451171875,-0.97357177734375,-0.0447235107421875
1067,0.2093658447265625,-0.977783203125,-0.0391082763671875
1068,0.2093658447265625,-0.977783203125,-0.0391082763671875
1069,0.206817626953125,-0.976715087890625,-0.0385589599609375
1070,0.2114410400390625,-0.9833984375,-0.0381927490234375
1071,0.2114410400390625,-0.9833984375,-0.0381927490234375
1072,0.2080841064453125,-1.002273559570312,-0.038238525390625
1073,0.2080841064453125,-1.002273559570312,-0.038238525390625
1074,0.2039947509765625,-1.001724243164062,-0.0386810302734375
1075,0.2039947509765625,-1.001724243164062,-0.0386810302734375
1076,0.200714111328125,-0.996917724609375,-0.040252685546875
1077,0.196136474609375,-0.9932708740234376,-0.0474395751953125
1078,0.20196533203125,-0.9877471923828124,-0.04736328125
1079,0.20196533203125,-0.9877471923828124,-0.04736328125
1080,0.209228515625,-0.9778900146484376,-0.0451202392578125
1081,0.206756591796875,-0.977386474609375,-0.0460205078125
1082,0.210845947265625,-0.9795989990234376,-0.04803466796875
1083,0.210845947265625,-0.9795989990234376,-0.04803466796875
1084,0.2170257568359375,-0.99700927734375,-0.0521392822265625
1085,0.2274322509765625,-0.997161865234375,-0.0537567138671875
1086,0.2355804443359375,-0.99444580078125,-0.0600128173828125
1087,0.2355804443359375,-0.99444580078125,-0.0600128173828125
1088,0.2542572021484375,-0.988189697265625,-0.055908203125
1089,0.25958251953125,-0.9850006103515624,-0.05841064453125
1090,0.25103759765625,-0.9819488525390624,-0.0576629638671875
1091,0.25103759765625,-0.9819488525390624,-0.0576629638671875
1092,0.2299652099609375,-0.9740447998046876,-0.05804443359375
1093,0.22418212890625,-0.9633331298828124,-0.060882568359375
1094,0.2162628173828125,-0.9598236083984376,-0.0673980712890625
1095,0.2162628173828125,-0.9598236083984376,-0.0673980712890625
1096,0.20916748046875,-0.95513916015625,-0.0714874267578125
1097,0.2103729248046875,-0.9591217041015624,-0.072174072265625
1098,0.2144775390625,-0.963714599609375,-0.0747528076171875
1099,0.222137451171875,-0.9791107177734376,-0.0712738037109375
1100,0.222137451171875,-0.9791107177734376,-0.0712738037109375
1101,0.227569580078125,-0.9748992919921876,-0.0695037841796875
1102,0.2343597412109375,-0.9743194580078124,-0.0672760009765625
1103,0.2343597412109375,-0.9743194580078124,-0.0672760009765625
1104,0.2432861328125,-0.972381591796875,-0.062286376953125
1105,0.2466583251953125,-0.9662933349609376,-0.0623016357421875
1106,0.24432373046875,-0.9652557373046876,-0.061279296875
1107,0.2435760498046875,-0.9634552001953124,-0.0666656494140625
1108,0.2435760498046875,-0.9634552001953124,-0.0666656494140625
1109,0.2522125244140625,-0.9616241455078124,-0.0661773681640625
1110,0.2545166015625,-0.9670562744140624,-0.07293701171875
1111,0.2545166015625,-0.9670562744140624,-0.07293701171875
1112,0.2615966796875,-0.968597412109375,-0.07476806640625
1113,0.2692108154296875,-0.9674072265625,-0.075897216796875
1114,0.2815704345703125,-0.96826171875,-0.07623291015625
1115,0.2815704345703125,-0.96826171875,-0.07623291015625
1116,0.2861328125,-0.9596710205078124,-0.06341552734375
1117,0.286712646484375,-0.9599151611328124,-0.0653076171875
1118,0.3002777099609375,-0.9597015380859376,-0.0594482421875
1119,0.3002777099609375,-0.9597015380859376,-0.0594482421875
1120,0.307373046875,-0.9493865966796876,-0.051971435546875
1121,0.312957763671875,-0.9488067626953124,-0.0562744140625
1122,0.3152923583984375,-0.947845458984375,-0.058135986328125
1123,0.30474853515625,-0.9486083984375,-0.058746337890625
1124,0.30474853515625,-0.9486083984375,-0.058746337890625
1125,0.304473876953125,-0.954132080078125,-0.06427001953125
1126,0.2979583740234375,-0.9643402099609376,-0.0742034912109375
1127,0.287261962890625,-0.975799560546875,-0.0763092041015625
1128,0.257904052734375,-0.981201171875,-0.0872039794921875
1129,0.244049072265625,-0.9826202392578124,-0.0940704345703125
1130,0.236114501953125,-0.9844512939453124,-0.0993499755859375
1131,0.236114501953125,-0.9844512939453124,-0.0993499755859375
1132,0.2162017822265625,-0.9797210693359376,-0.12371826171875
1133,0.21051025390625,-0.9690704345703124,-0.1295013427734375
1134,0.20404052734375,-0.9605712890625,-0.130889892578125
1135,0.202667236328125,-0.95538330078125,-0.13653564453125
1136,0.202667236328125,-0.95538330078125,-0.13653564453125
1137,0.195159912109375,-0.9618988037109376,-0.1441802978515625
1138,0.196319580078125,-0.96380615234375,-0.1527557373046875
1139,0.196319580078125,-0.96380615234375,-0.1527557373046875
1140,0.2039337158203125,-0.968170166015625,-0.167205810546875
1141,0.2039337158203125,-0.968170166015625,-0.167205810546875
1142,0.2153778076171875,-0.96368408203125,-0.1683502197265625
1143,0.241424560546875,-0.9550628662109376,-0.16644287109375
1144,0.2940826416015625,-0.9227447509765624,-0.1529388427734375
1145,0.3140411376953125,-0.9146575927734376,-0.1479644775390625
1146,0.3173370361328125,-0.9045257568359376,-0.150115966796875
1147,0.3173370361328125,-0.9045257568359376,-0.150115966796875
1148,0.3354644775390625,-0.9048919677734376,-0.13507080078125
1149,0.3402099609375,-0.9182281494140624,-0.132080078125
1150,0.3448638916015625,-0.9327239990234376,-0.1315765380859375
1151,0.3448638916015625,-0.9327239990234376,-0.1315765380859375
1152,0.346923828125,-0.95184326171875,-0.1211090087890625
1153,0.3532562255859375,-0.9647064208984376,-0.1080474853515625
1154,0.359893798828125,-0.970062255859375,-0.1162872314453125
1155,0.359619140625,-0.9715576171875,-0.1118927001953125
1156,0.3562469482421875,-0.9705657958984376,-0.10198974609375
1157,0.3516693115234375,-0.9668426513671876,-0.09857177734375
1158,0.3479461669921875,-0.96484375,-0.1007080078125
1159,0.3479461669921875,-0.96484375,-0.1007080078125
1160,0.323211669921875,-0.96588134765625,-0.107208251953125
1161,0.3138427734375,-0.970947265625,-0.1128082275390625
1162,0.3032379150390625,-0.976165771484375,-0.115509033203125
1163,0.3032379150390625,-0.976165771484375,-0.115509033203125
1164,0.302886962890625,-0.9897003173828124,-0.120819091796875
1165,0.29852294921875,-0.9948883056640624,-0.1212158203125
1166,0.2922210693359375,-0.99114990234375,-0.117523193359375
1167,0.2922210693359375,-0.99114990234375,-0.117523193359375
1168,0.26898193359375,-0.9677581787109376,-0.12762451171875
1169,0.26898193359375,-0.9677581787109376,-0.12762451171875
1170,0.2585296630859375,-0.969940185546875,-0.13409423828125
1171,0.247344970703125,-0.979766845703125,-0.1444549560546875
1172,0.2362213134765625,-0.980560302734375,-0.1466217041015625
1173,0.2362213134765625,-0.980560302734375,-0.1466217041015625
1174,0.2290191650390625,-0.9800872802734376,-0.1548919677734375
1175,0.2229766845703125,-0.9688262939453124,-0.167266845703125
1176,0.2189788818359375,-0.9610748291015624,-0.1720733642578125
1177,0.2189788818359375,-0.9610748291015624,-0.1720733642578125
1178,0.2216339111328125,-0.95654296875,-0.177642822265625
1179,0.2216339111328125,-0.95654296875,-0.177642822265625
1180,0.233551025390625,-0.9451751708984376,-0.1781768798828125
1181,0.2385711669921875,-0.9431610107421876,-0.1761016845703125
1182,0.241607666015625,-0.9444580078125,-0.1747283935546875
1183,0.241607666015625,-0.9444580078125,-0.1747283935546875
1184,0.243560791015625,-0.945556640625,-0.1750030517578125
1185,0.2459869384765625,-0.9492034912109376,-0.174468994140625
1186,0.24932861328125,-0.951171875,-0.181549072265625
1187,0.24932861328125,-0.951171875,-0.181549072265625
1188,0.25909423828125,-0.94696044921875,-0.1788482666015625
1189,0.2670440673828125,-0.95233154296875,-0.1737518310546875
1190,0.27557373046875,-0.9520416259765624,-0.1673736572265625
1191,0.2890167236328125,-0.9478607177734376,-0.16082763671875
1192,0.2890167236328125,-0.9478607177734376,-0.16082763671875
1193,0.2950592041015625,-0.945220947265625,-0.16229248046875
1194,0.302337646484375,-0.939300537109375,-0.1655120849609375
1195,0.302337646484375,-0.939300537109375,-0.1655120849609375
1196,0.3192901611328125,-0.9409637451171876,-0.1629486083984375
1197,0.3192901611328125,-0.9409637451171876,-0.1629486083984375
1198,0.322723388671875,-0.938201904296875,-0.1610870361328125
1199,0.322723388671875,-0.938201904296875,-0.1610870361328125
1200,0.3263702392578125,-0.9324798583984376,-0.164520263671875
1201,0.3236236572265625,-0.93402099609375,-0.1704559326171875
1202,0.32275390625,-0.93768310546875,-0.170989990234375
1203,0.32275390625,-0.93768310546875,-0.170989990234375
1204,0.3236236572265625,-0.9449920654296876,-0.1726226806640625
1205,0.3236236572265625,-0.9449920654296876,-0.1726226806640625
1206,0.32025146484375,-0.9524078369140624,-0.17364501953125
1207,0.317413330078125,-0.950714111328125,-0.17559814453125
1208,0.317413330078125,-0.950714111328125,-0.17559814453125
1209,0.3099365234375,-0.9426727294921876,-0.1767425537109375
1210,0.30047607421875,-0.9370880126953124,-0.18096923828125
1211,0.30047607421875,-0.9370880126953124,-0.18096923828125
1212,0.2945556640625,-0.9294891357421876,-0.184295654296875
1213,0.2945556640625,-0.9294891357421876,-0.184295654296875
1214,0.2993621826171875,-0.930999755859375,-0.1862945556640625
1215,0.2993621826171875,-0.930999755859375,-0.1862945556640625
1216,0.3118438720703125,-0.94580078125,-0.1956634521484375
1217,0.315216064453125,-0.9534454345703124,-0.20001220703125
1218,0.3235931396484375,-0.960723876953125,-0.2015228271484375
1219,0.3282928466796875,-0.953643798828125,-0.20428466796875
1220,0.334442138671875,-0.9479522705078124,-0.19879150390625
1221,0.338531494140625,-0.940643310546875,-0.1947174072265625
1222,0.343780517578125,-0.934814453125,-0.1922454833984375
1223,0.343780517578125,-0.934814453125,-0.1922454833984375
1224,0.3429412841796875,-0.9155120849609376,-0.200225830078125
1225,0.3429412841796875,-0.9155120849609376,-0.200225830078125
1226,0.34503173828125,-0.916351318359375,-0.1878509521484375
1227,0.34356689453125,-0.9132537841796876,-0.1776580810546875
1228,0.3262786865234375,-0.9205322265625,-0.1733551025390625
1229,0.3262786865234375,-0.9205322265625,-0.1733551025390625
1230,0.3274688720703125,-0.9212188720703124,-0.1685638427734375
1231,0.3274688720703125,-0.9212188720703124,-0.1685638427734375
1232,0.35296630859375,-0.908538818359375,-0.1529083251953125
1233,0.35296630859375,-0.908538818359375,-0.1529083251953125
1234,0.3597869873046875,-0.9161376953125,-0.1443634033203125
1235,0.35980224609375,-0.9349822998046876,-0.1237640380859375
1236,0.35980224609375,-0.9349822998046876,-0.1237640380859375
1237,0.347991943359375,-0.96417236328125,-0.0999908447265625
1238,0.3429412841796875,-0.9711151123046876,-0.0922088623046875
1239,0.326812744140625,-0.9743499755859376,-0.0897674560546875
1240,0.326812744140625,-0.9743499755859376,-0.0897674560546875
1241,0.326812744140625,-0.9743499755859376,-0.0897674560546875
1242,0.33001708984375,-0.978759765625,-0.0983734130859375
1243,0.33001708984375,-0.978759765625,-0.0983734130859375
1244,0.338653564453125,-0.985626220703125,-0.121795654296875
1245,0.339996337890625,-0.983917236328125,-0.130584716796875
1246,0.333648681640625,-0.976715087890625,-0.1421966552734375
1247,0.31072998046875,-0.93975830078125,-0.1309051513671875
1248,0.3096160888671875,-0.922943115234375,-0.1172637939453125
1249,0.3096160888671875,-0.922943115234375,-0.1172637939453125
1250,0.3076019287109375,-0.9171600341796876,-0.106414794921875
1251,0.31494140625,-0.92120361328125,-0.0879669189453125
1252,0.31494140625,-0.92120361328125,-0.0879669189453125
1253,0.31494140625,-0.92120361328125,-0.0879669189453125
1254,0.317138671875,-0.9315185546875,-0.09698486328125
1255,0.292816162109375,-0.95037841796875,-0.082427978515625
1256,0.292816162109375,-0.95037841796875,-0.082427978515625
1257,0.292816162109375,-0.95037841796875,-0.082427978515625
1258,0.2734375,-0.9507293701171876,-0.0898284912109375
1259,0.258148193359375,-0.956787109375,-0.122833251953125
1260,0.258148193359375,-0.956787109375,-0.122833251953125
1261,0.258148193359375,-0.956787109375,-0.122833251953125
1262,0.25787353515625,-0.946685791015625,-0.1588592529296875
1263,0.222259521484375,-0.9763336181640624,-0.171630859375
1264,0.222259521484375,-0.9763336181640624,-0.171630859375
1265,0.1898193359375,-1.00262451171875,-0.1622161865234375
1266,0.1854705810546875,-1.03167724609375,-0.1926422119140625
1267,0.1851043701171875,-1.024246215820312,-0.2062225341796875
1268,0.1851043701171875,-1.024246215820312,-0.2062225341796875
1269,0.2212982177734375,-0.9635009765625,-0.23272705078125
1270,0.2440338134765625,-0.9408416748046876,-0.211639404296875
1271,0.2959136962890625,-0.9055938720703124,-0.1395416259765625
1272,0.3311004638671875,-0.8758392333984375,-0.1190948486328125
1273,0.3311004638671875,-0.8758392333984375,-0.1190948486328125
1274,0.3625946044921875,-0.86077880859375,-0.125640869140625
1275,0.3625946044921875,-0.86077880859375,-0.125640869140625
1276,0.364654541015625,-0.8573760986328125,-0.1354217529296875
1277,0.3057403564453125,-0.88323974609375,-0.18878173828125
1278,0.27154541015625,-0.9141693115234376,-0.2046356201171875
1279,0.24053955078125,-0.9430084228515624,-0.2318115234375
1280,0.24053955078125,-0.9430084228515624,-0.2318115234375
1281,0.1890106201171875,-0.970855712890625,-0.259033203125
1282,0.1843719482421875,-0.970123291015625,-0.2371063232421875
1283,0.19677734375,-0.9675445556640624,-0.2248382568359375
1284,0.2295684814453125,-0.97772216796875,-0.197265625
1285,0.2295684814453125,-0.97772216796875,-0.197265625
1286,0.2295684814453125,-0.97772216796875,-0.197265625
1287,0.215972900390625,-1.006607055664062,-0.135040283203125
1288,0.215972900390625,-1.006607055664062,-0.135040283203125
1289,0.1999359130859375,-1.013473510742188,-0.1280059814453125
1290,0.184814453125,-1.021469116210938,-0.1323089599609375
1291,0.18310546875,-1.02862548828125,-0.150848388671875
1292,0.18310546875,-1.02862548828125,-0.150848388671875
1293,0.193267822265625,-1.0347900390625,-0.167083740234375
1294,0.202789306640625,-1.041183471679688,-0.1766510009765625
1295,0.2192535400390625,-1.033859252929688,-0.1872711181640625
1296,0.2192535400390625,-1.033859252929688,-0.1872711181640625
1297,0.243408203125,-0.989990234375,-0.2024078369140625
1298,0.23968505859375,-0.9744110107421876,-0.20355224609375
1299,0.2092437744140625,-0.9526824951171876,-0.179931640625
1300,0.2092437744140625,-0.9526824951171876,-0.179931640625
1301,0.195281982421875,-0.9453277587890624,-0.163970947265625
1302,0.1828460693359375,-0.937286376953125,-0.156707763671875
1303,0.1688995361328125,-0.927978515625,-0.1646575927734375
1304,0.1688995361328125,-0.927978515625,-0.1646575927734375
1305,0.170257568359375,-0.9293212890625,-0.17401123046875
1306,0.1751861572265625,-0.931732177734375,-0.177337646484375
1307,0.1742401123046875,-0.94342041015625,-0.2113800048828125
1308,0.1742401123046875,-0.94342041015625,-0.2113800048828125
1309,0.1629180908203125,-0.9669647216796876,-0.18231201171875
1310,0.18280029296875,-0.996673583984375,-0.1735687255859375
1311,0.1974639892578125,-0.9976654052734376,-0.1803436279296875
1312,0.213226318359375,-0.995849609375,-0.162689208984375
1313,0.213226318359375,-0.995849609375,-0.162689208984375
1314,0.233123779296875,-0.996490478515625,-0.162872314453125
1315,0.2436981201171875,-0.9894866943359376,-0.1689910888671875
1316,0.2349700927734375,-0.9707489013671876,-0.1803436279296875
1317,0.2349700927734375,-0.9707489013671876,-0.1803436279296875
1318,0.2239227294921875,-0.964752197265625,-0.1982574462890625
1319,0.2079925537109375,-0.9655303955078124,-0.20941162109375
1320,0.1770172119140625,-0.990447998046875,-0.2060394287109375
1321,0.1770172119140625,-0.990447998046875,-0.2060394287109375
1322,0.1739044189453125,-0.997711181640625,-0.196990966796875
1323,0.182037353515625,-0.992919921875,-0.198577880859375
1324,0.21954345703125,-0.994873046875,-0.2044219970703125
1325,0.21954345703125,-0.994873046875,-0.2044219970703125
1326,0.2296905517578125,-0.993316650390625,-0.2233123779296875
1327,0.225677490234375,-0.9768218994140624,-0.2414093017578125
1328,0.225677490234375,-0.9768218994140624,-0.2414093017578125
1329,0.218902587890625,-0.9590911865234376,-0.239166259765625
1330,0.2168731689453125,-0.94488525390625,-0.225830078125
1331,0.2461700439453125,-0.9352874755859376,-0.196319580078125
1332,0.2461700439453125,-0.9352874755859376,-0.196319580078125
1333,0.2657928466796875,-0.9339752197265624,-0.1926422119140625
1334,0.2752227783203125,-0.9307708740234376,-0.193603515625
1335,0.27667236328125,-0.9243927001953124,-0.193878173828125
1336,0.27667236328125,-0.9243927001953124,-0.193878173828125
1337,0.28729248046875,-0.901702880859375,-0.2086181640625
1338,0.286529541015625,-0.898712158203125,-0.209259033203125
1339,0.2710723876953125,-0.9042816162109376,-0.2183074951171875
1340,0.2710723876953125,-0.9042816162109376,-0.2183074951171875
1341,0.270111083984375,-0.912841796875,-0.220733642578125
1342,0.2675933837890625,-0.9209136962890624,-0.2303314208984375
1343,0.263397216796875,-0.9332275390625,-0.2588043212890625
1344,0.263397216796875,-0.9332275390625,-0.2588043212890625
1345,0.26287841796875,-0.9420928955078124,-0.2584075927734375
1346,0.26416015625,-0.9479522705078124,-0.261322021484375
1347,0.2673187255859375,-0.9473114013671876,-0.2582244873046875
1348,0.2673187255859375,-0.9473114013671876,-0.2582244873046875
1349,0.260772705078125,-0.943511962890625,-0.2570343017578125
1350,0.2559051513671875,-0.9421844482421876,-0.2524261474609375
1351,0.24853515625,-0.940032958984375,-0.25286865234375
1352,0.24853515625,-0.940032958984375,-0.25286865234375
1353,0.232513427734375,-0.9410552978515624,-0.250946044921875
1354,0.22393798828125,-0.9423980712890624,-0.2469024658203125
1355,0.217926025390625,-0.9513702392578124,-0.2319793701171875
1356,0.217926025390625,-0.9513702392578124,-0.2319793701171875
1357,0.2206268310546875,-0.9555816650390624,-0.2280731201171875
1358,0.225738525390625,-0.9581451416015624,-0.2292938232421875
1359,0.2287445068359375,-0.958343505859375,-0.232818603515625
1360,0.2287445068359375,-0.958343505859375,-0.232818603515625
1361,0.2273101806640625,-0.9545135498046876,-0.242767333984375
1362,0.226837158203125,-0.952239990234375,-0.2534637451171875
1363,0.230743408203125,-0.95172119140625,-0.2604217529296875
1364,0.230743408203125,-0.95172119140625,-0.2604217529296875
1365,0.230743408203125,-0.95172119140625,-0.2604217529296875
1366,0.2382965087890625,-0.9568023681640624,-0.258941650390625
1367,0.2565460205078125,-0.9587249755859376,-0.2659149169921875
1368,0.2565460205078125,-0.9587249755859376,-0.2659149169921875
1369,0.266143798828125,-0.959014892578125,-0.265289306640625
1370,0.266143798828125,-0.959014892578125,-0.265289306640625
1371,0.281494140625,-0.94580078125,-0.2675018310546875
1372,0.281494140625,-0.94580078125,-0.2675018310546875
1373,0.281494140625,-0.94580078125,-0.2675018310546875
1374,0.27996826171875,-0.9437713623046876,-0.268463134765625
1375,0.2626190185546875,-0.935791015625,-0.2575225830078125
1376,0.2626190185546875,-0.935791015625,-0.2575225830078125
1377,0.2554931640625,-0.9373626708984376,-0.25592041015625
1378,0.2516021728515625,-0.936614990234375,-0.2557830810546875
1379,0.2406768798828125,-0.9399566650390624,-0.2615966796875
1380,0.2406768798828125,-0.9399566650390624,-0.2615966796875
1381,0.236419677734375,-0.9438934326171876,-0.2581024169921875
1382,0.229705810546875,-0.945068359375,-0.257781982421875
1383,0.21038818359375,-0.948699951171875,-0.2545013427734375
1384,0.21038818359375,-0.948699951171875,-0.2545013427734375
1385,0.21038818359375,-0.948699951171875,-0.2545013427734375
1386,0.2032928466796875,-0.950164794921875,-0.2543487548828125
1387,0.1980133056640625,-0.9534454345703124,-0.2634429931640625
1388,0.1980133056640625,-0.9534454345703124,-0.2634429931640625
1389,0.1967620849609375,-0.9656829833984376,-0.2671356201171875
1390,0.1952667236328125,-0.971160888671875,-0.264862060546875
1391,0.19891357421875,-0.97491455078125,-0.26409912109375
1392,0.19891357421875,-0.97491455078125,-0.26409912109375
1393,0.1981658935546875,-0.9776153564453124,-0.253143310546875
1394,0.2029876708984375,-0.9732666015625,-0.247528076171875
1395,0.2054290771484375,-0.956634521484375,-0.220611572265625
1396,0.2054290771484375,-0.956634521484375,-0.220611572265625
1397,0.2054290771484375,-0.956634521484375,-0.220611572265625
1398,0.20697021484375,-0.9470062255859376,-0.2238616943359375
1399,0.2056884765625,-0.9556732177734376,-0.225250244140625
1400,0.2056884765625,-0.9556732177734376,-0.225250244140625
1401,0.213287353515625,-0.940032958984375,-0.20947265625
1402,0.219482421875,-0.934417724609375,-0.1975860595703125
1403,0.22882080078125,-0.9676971435546876,-0.180816650390625
1404,0.22882080078125,-0.9676971435546876,-0.180816650390625
1405,0.2308197021484375,-0.97259521484375,-0.190277099609375
1406,0.2447967529296875,-0.9981689453125,-0.1446533203125
1407,0.2490386962890625,-1.016510009765625,-0.127349853515625
1408,0.2490386962890625,-1.016510009765625,-0.127349853515625
1409,0.251678466796875,-1.016204833984375,-0.164154052734375
1410,0.2313385009765625,-0.9970245361328124,-0.1463775634765625
1411,0.17938232421875,-0.974090576171875,-0.1546478271484375
1412,0.17938232421875,-0.974090576171875,-0.1546478271484375
1413,0.158172607421875,-0.97900390625,-0.1592254638671875
1414,0.1380462646484375,-0.9900054931640624,-0.161834716796875
1415,0.1036529541015625,-1.018722534179688,-0.1859588623046875
1416,0.1036529541015625,-1.018722534179688,-0.1859588623046875
1417,0.089691162109375,-1.028427124023438,-0.204376220703125
1418,0.0750274658203125,-1.0340576171875,-0.2122802734375
1419,0.05938720703125,-1.049530029296875,-0.199188232421875
1420,0.05938720703125,-1.049530029296875,-0.199188232421875
1421,0.0471038818359375,-1.048095703125,-0.2090301513671875
1422,0.049072265625,-1.028076171875,-0.2099456787109375
1423,0.056854248046875,-1.016220092773438,-0.1898040771484375
1424,0.056854248046875,-1.016220092773438,-0.1898040771484375
1425,0.060791015625,-0.9967193603515624,-0.2093963623046875
1426,0.076904296875,-0.9629364013671876,-0.1875457763671875
1427,0.0986480712890625,-0.9157562255859376,-0.1891632080078125
1428,0.0986480712890625,-0.9157562255859376,-0.1891632080078125
1429,0.117706298828125,-0.91082763671875,-0.1908721923828125
1430,0.1345977783203125,-0.9133148193359376,-0.1864013671875
1431,0.1541290283203125,-0.907012939453125,-0.1633758544921875
1432,0.1541290283203125,-0.907012939453125,-0.1633758544921875
1433,0.160003662109375,-0.917999267578125,-0.15557861328125
1434,0.160003662109375,-0.917999267578125,-0.15557861328125
1435,0.1448974609375,-0.947052001953125,-0.1578826904296875
1436,0.1448974609375,-0.947052001953125,-0.1578826904296875
1437,0.129302978515625,-0.9539642333984376,-0.157135009765625
1438,0.129302978515625,-0.9539642333984376,-0.157135009765625
1439,0.0653076171875,-0.97607421875,-0.16162109375
1440,0.0653076171875,-0.97607421875,-0.16162109375
1441,0.038787841796875,-0.990142822265625,-0.1657257080078125
1442,0.014678955078125,-0.99267578125,-0.1626739501953125
1443,0.0011444091796875,-0.996826171875,-0.163970947265625
1444,0.0011444091796875,-0.996826171875,-0.163970947265625
1445,-0.01409912109375,-1.018173217773438,-0.155670166015625
1446,-0.0230255126953125,-1.01947021484375,-0.1612396240234375
1447,-0.0288848876953125,-1.005355834960938,-0.163330078125
1448,-0.0288848876953125,-1.005355834960938,-0.163330078125
1449,-0.0344696044921875,-0.98828125,-0.1587982177734375
1450,-0.0473175048828125,-0.9525146484375,-0.198333740234375
1451,-0.0358734130859375,-0.96380615234375,-0.1405487060546875
1452,-0.0358734130859375,-0.96380615234375,-0.1405487060546875
1453,-0.035736083984375,-0.93621826171875,-0.192779541015625
1454,-0.03814697265625,-0.939453125,-0.16705322265625
1455,-0.035186767578125,-0.9550628662109376,-0.1670074462890625
1456,-0.035186767578125,-0.9550628662109376,-0.1670074462890625
1457,-0.0243072509765625,-0.9776763916015624,-0.159881591796875
1458,-0.0243072509765625,-0.9776763916015624,-0.159881591796875
1459,-0.0257415771484375,-0.9837646484375,-0.1624755859375
1460,-0.0257415771484375,-0.9837646484375,-0.1624755859375
1461,-0.027008056640625,-0.9815521240234376,-0.1623687744140625
1462,-0.023895263671875,-0.982757568359375,-0.1583099365234375
1463,-0.028411865234375,-0.9839935302734376,-0.182525634765625
1464,-0.028411865234375,-0.9839935302734376,-0.182525634765625
1465,-0.04119873046875,-0.989837646484375,-0.1770477294921875
1466,-0.043701171875,-0.997528076171875,-0.1777191162109375
1467,-0.0426025390625,-0.9952392578125,-0.188629150390625
1468,-0.0426025390625,-0.9952392578125,-0.188629150390625
1469,-0.0589141845703125,-0.9936065673828124,-0.1904754638671875
1470,-0.069976806640625,-0.985137939453125,-0.1935272216796875
1471,-0.0662841796875,-0.9821624755859376,-0.1787872314453125
1472,-0.0662841796875,-0.9821624755859376,-0.1787872314453125
1473,-0.057098388671875,-0.9777374267578124,-0.1727752685546875
1474,-0.04571533203125,-0.9752655029296876,-0.166351318359375
1475,-0.036468505859375,-0.9846343994140624,-0.164398193359375
1476,-0.036468505859375,-0.9846343994140624,-0.164398193359375
1477,-0.027557373046875,-1.0,-0.1643218994140625
1478,-0.0280609130859375,-1.005401611328125,-0.1685028076171875
1479,-0.033721923828125,-1.009689331054688,-0.1692962646484375
1480,-0.033721923828125,-1.009689331054688,-0.1692962646484375
1481,-0.0166168212890625,-1.007232666015625,-0.166351318359375
1482,-0.010162353515625,-1.005569458007812,-0.1715545654296875
1483,-0.001861572265625,-1.001953125,-0.1734466552734375
1484,-0.001861572265625,-1.001953125,-0.1734466552734375
1485,-0.002532958984375,-1.000869750976562,-0.171722412109375
1486,-0.0089874267578125,-1.001815795898438,-0.1673431396484375
1487,-0.012664794921875,-1.005294799804688,-0.1664581298828125
1488,-0.0113372802734375,-1.007171630859375,-0.1688385009765625
1489,-0.01171875,-0.997406005859375,-0.1753082275390625
1490,-0.0103302001953125,-0.9892120361328124,-0.176422119140625
1491,-0.0039825439453125,-0.98004150390625,-0.172119140625
1492,0.0041351318359375,-0.9781951904296876,-0.1714324951171875
1493,0.0058135986328125,-0.9810638427734376,-0.1784515380859375
1494,0.0058135986328125,-0.9810638427734376,-0.1784515380859375
1495,-0.00634765625,-0.9831085205078124,-0.1751556396484375
1496,-0.0146636962890625,-0.9897918701171876,-0.182098388671875
1497,-0.018951416015625,-0.9868927001953124,-0.193878173828125
1498,-0.039306640625,-0.9957275390625,-0.1736602783203125
1499,-0.0491790771484375,-0.997222900390625,-0.186553955078125
1500,-0.0491790771484375,-0.997222900390625,-0.186553955078125
1501,-0.0481719970703125,-0.99981689453125,-0.1902313232421875
1502,-0.0541839599609375,-1.003555297851562,-0.1838836669921875
1503,-0.062652587890625,-0.986602783203125,-0.188262939453125
1504,-0.062652587890625,-0.986602783203125,-0.188262939453125
1505,-0.062652587890625,-0.986602783203125,-0.188262939453125
1506,-0.0693206787109375,-0.98291015625,-0.1782379150390625
1507,-0.0787506103515625,-0.971832275390625,-0.1884307861328125
1508,-0.0787506103515625,-0.971832275390625,-0.1884307861328125
1509,-0.0840911865234375,-0.9684906005859376,-0.1890716552734375
1510,-0.0885162353515625,-0.964752197265625,-0.1863861083984375
1511,-0.0842437744140625,-0.982757568359375,-0.1976776123046875
1512,-0.0842437744140625,-0.982757568359375,-0.1976776123046875
1513,-0.0842437744140625,-0.982757568359375,-0.1976776123046875
1514,-0.0835113525390625,-0.987335205078125,-0.1980743408203125
1515,-0.0855865478515625,-0.9876251220703124,-0.2042388916015625
1516,-0.0855865478515625,-0.9876251220703124,-0.2042388916015625
1517,-0.0950469970703125,-0.986114501953125,-0.1944732666015625
1518,-0.0950469970703125,-0.986114501953125,-0.1944732666015625
1519,-0.095916748046875,-0.992523193359375,-0.20001220703125
1520,-0.095916748046875,-0.992523193359375,-0.20001220703125
1521,-0.087005615234375,-0.99407958984375,-0.19921875
1522,-0.09295654296875,-0.9887847900390624,-0.1949615478515625
1523,-0.093292236328125,-0.9903411865234376,-0.20587158203125
1524,-0.093292236328125,-0.9903411865234376,-0.20587158203125
1525,-0.0955352783203125,-0.9886932373046876,-0.196563720703125
1526,-0.0953369140625,-0.977691650390625,-0.2070770263671875
1527,-0.096160888671875,-0.959259033203125,-0.2099456787109375
1528,-0.096160888671875,-0.959259033203125,-0.2099456787109375
1529,-0.0970916748046875,-0.953399658203125,-0.20953369140625
1530,-0.0970916748046875,-0.953399658203125,-0.20953369140625
1531,-0.1001129150390625,-0.9417724609375,-0.213897705078125
1532,-0.1001129150390625,-0.9417724609375,-0.213897705078125
1533,-0.0915374755859375,-0.948272705078125,-0.217437744140625
1534,-0.0837554931640625,-0.9611053466796876,-0.210693359375
1535,-0.07122802734375,-0.9846343994140624,-0.2242279052734375
1536,-0.07122802734375,-0.9846343994140624,-0.2242279052734375
1537,-0.0666961669921875,-0.9869537353515624,-0.2234649658203125
1538,-0.0575714111328125,-0.9848480224609376,-0.23944091796875
1539,-0.0734405517578125,-0.9882965087890624,-0.228729248046875
1540,-0.0734405517578125,-0.9882965087890624,-0.228729248046875
1541,-0.0841522216796875,-0.9860992431640624,-0.2061614990234375
1542,-0.0939178466796875,-0.9885406494140624,-0.188751220703125
1543,-0.0963592529296875,-0.984466552734375,-0.19287109375
1544,-0.095611572265625,-0.980010986328125,-0.20977783203125
1545,-0.091552734375,-0.9774169921875,-0.225616455078125
1546,-0.0869293212890625,-0.9711151123046876,-0.247161865234375
1547,-0.09405517578125,-0.993896484375,-0.2316436767578125
1548,-0.09405517578125,-0.993896484375,-0.2316436767578125
1549,-0.1126708984375,-0.9989013671875,-0.1949462890625
1550,-0.1106109619140625,-0.985015869140625,-0.2020416259765625
1551,-0.104034423828125,-0.9853057861328124,-0.2256622314453125
1552,-0.104034423828125,-0.9853057861328124,-0.2256622314453125
1553,-0.11029052734375,-0.9831695556640624,-0.237335205078125
1554,-0.1181182861328125,-0.981292724609375,-0.2440032958984375
1555,-0.12127685546875,-0.9812469482421876,-0.24566650390625
1556,-0.12127685546875,-0.9812469482421876,-0.24566650390625
1557,-0.1139984130859375,-0.976409912109375,-0.2445220947265625
1558,-0.1139984130859375,-0.976409912109375,-0.2445220947265625
1559,-0.1006317138671875,-0.9716949462890624,-0.2372894287109375
1560,-0.1006317138671875,-0.9716949462890624,-0.2372894287109375
1561,-0.094970703125,-0.969482421875,-0.24334716796875
1562,-0.0933837890625,-0.9678955078125,-0.2506256103515625
1563,-0.0970916748046875,-0.9647216796875,-0.2546539306640625
1564,-0.0970916748046875,-0.9647216796875,-0.2546539306640625
1565,-0.09417724609375,-0.961029052734375,-0.2556915283203125
1566,-0.085052490234375,-0.9618988037109376,-0.2641448974609375
1567,-0.0867156982421875,-0.9634552001953124,-0.2595062255859375
1568,-0.0867156982421875,-0.9634552001953124,-0.2595062255859375
1569,-0.0893707275390625,-0.9716796875,-0.241668701171875
1570,-0.082489013671875,-0.969451904296875,-0.24505615234375
1571,-0.0744781494140625,-0.9668121337890624,-0.2610626220703125
1572,-0.0744781494140625,-0.9668121337890624,-0.2610626220703125
1573,-0.0708465576171875,-0.9637298583984376,-0.262451171875
1574,-0.0664520263671875,-0.961761474609375,-0.2518157958984375
1575,-0.061431884765625,-0.9680023193359376,-0.2520599365234375
1576,-0.061431884765625,-0.9680023193359376,-0.2520599365234375
1577,-0.060394287109375,-0.971435546875,-0.2494049072265625
1578,-0.063568115234375,-0.974273681640625,-0.24859619140625
1579,-0.0644989013671875,-0.9706268310546876,-0.254150390625
1580,-0.0644989013671875,-0.9706268310546876,-0.254150390625
1581,-0.0635833740234375,-0.9747772216796876,-0.2590484619140625
1582,-0.0635833740234375,-0.9747772216796876,-0.2590484619140625
1583,-0.06524658203125,-0.9733123779296876,-0.2535400390625
1584,-0.06524658203125,-0.9733123779296876,-0.2535400390625
1585,-0.0692596435546875,-0.9693450927734376,-0.247833251953125
1586,-0.0717926025390625,-0.966522216796875,-0.246673583984375
1587,-0.0725250244140625,-0.9633026123046876,-0.2483062744140625
1588,-0.0725250244140625,-0.9633026123046876,-0.2483062744140625
1589,-0.07135009765625,-0.9640350341796876,-0.2545928955078125
1590,-0.0714874267578125,-0.9678802490234376,-0.2646026611328125
1591,-0.0705108642578125,-0.969635009765625,-0.2620391845703125
1592,-0.0695343017578125,-0.972137451171875,-0.260162353515625
1593,-0.069427490234375,-0.9728851318359376,-0.26123046875
1594,-0.0708465576171875,-0.975860595703125,-0.2612457275390625
1595,-0.0718536376953125,-0.9804534912109376,-0.2664642333984375
1596,-0.0718536376953125,-0.9804534912109376,-0.2664642333984375
1597,-0.0731964111328125,-0.978668212890625,-0.2654266357421875
1598,-0.0731964111328125,-0.978668212890625,-0.2654266357421875
1599,-0.0709686279296875,-0.97198486328125,-0.259521484375
1600,-0.07421875,-0.9681549072265624,-0.255859375
1601,-0.075714111328125,-0.96771240234375,-0.254547119140625
1602,-0.0770416259765625,-0.9677734375,-0.254730224609375
1603,-0.077911376953125,-0.96844482421875,-0.2592926025390625
1604,-0.077911376953125,-0.96844482421875,-0.2592926025390625
1605,-0.081085205078125,-0.9678192138671876,-0.2656097412109375
1606,-0.084075927734375,-0.9668426513671876,-0.26556396484375
1607,-0.0898895263671875,-0.9650421142578124,-0.2585601806640625
1608,-0.0898895263671875,-0.9650421142578124,-0.2585601806640625
1609,-0.0896148681640625,-0.9655914306640624,-0.256378173828125
1610,-0.0907745361328125,-0.966644287109375,-0.2582855224609375
1611,-0.093353271484375,-0.9651947021484376,-0.258758544921875
1612,-0.093353271484375,-0.9651947021484376,-0.258758544921875
1613,-0.093902587890625,-0.9669036865234376,-0.2593994140625
1614,-0.093505859375,-0.97027587890625,-0.254669189453125
1615,-0.09417724609375,-0.9741058349609376,-0.24554443359375
1616,-0.09417724609375,-0.9741058349609376,-0.24554443359375
1617,-0.0946807861328125,-0.9763031005859376,-0.242401123046875
1618,-0.09619140625,-0.980987548828125,-0.242095947265625
1619,-0.0977630615234375,-0.9854583740234376,-0.2378082275390625
1620,-0.0977630615234375,-0.9854583740234376,-0.2378082275390625
1621,-0.102020263671875,-0.98651123046875,-0.2330780029296875
1622,-0.1024322509765625,-0.98809814453125,-0.22943115234375
1623,-0.105438232421875,-0.99041748046875,-0.221160888671875
1624,-0.105438232421875,-0.99041748046875,-0.221160888671875
1625,-0.09906005859375,-0.9959564208984376,-0.215423583984375
1626,-0.09906005859375,-0.9959564208984376,-0.215423583984375
1627,-0.0937347412109375,-1.015655517578125,-0.209442138671875
1628,-0.097320556640625,-1.02508544921875,-0.2166748046875
1629,-0.1023406982421875,-1.032821655273438,-0.227142333984375
1630,-0.10528564453125,-1.03289794921875,-0.219757080078125
1631,-0.10772705078125,-1.016281127929688,-0.2001800537109375
1632,-0.10772705078125,-1.016281127929688,-0.2001800537109375
1633,-0.104156494140625,-1.018753051757812,-0.194915771484375
1634,-0.0892181396484375,-1.008544921875,-0.196533203125
1635,-0.0773162841796875,-1.0087890625,-0.1760406494140625
1636,-0.0773162841796875,-1.0087890625,-0.1760406494140625
1637,-0.0773162841796875,-1.0087890625,-0.1760406494140625
1638,-0.0861968994140625,-1.022323608398438,-0.175994873046875
1639,-0.0993194580078125,-1.027053833007812,-0.1706695556640625
1640,-0.0993194580078125,-1.027053833007812,-0.1706695556640625
1641,-0.0948028564453125,-1.032669067382812,-0.1702728271484375
1642,-0.0892333984375,-1.035171508789062,-0.1736297607421875
1643,-0.091766357421875,-1.024429321289062,-0.188629150390625
1644,-0.091766357421875,-1.024429321289062,-0.188629150390625
1645,-0.091766357421875,-1.024429321289062,-0.188629150390625
1646,-0.0945281982421875,-1.000701904296875,-0.1956024169921875
1647,-0.0951385498046875,-0.977508544921875,-0.197998046875
1648,-0.0951385498046875,-0.977508544921875,-0.197998046875
1649,-0.0977020263671875,-0.9619293212890624,-0.183013916015625
1650,-0.0977020263671875,-0.9619293212890624,-0.183013916015625
1651,-0.0820159912109375,-0.94293212890625,-0.1820831298828125
1652,-0.0474853515625,-0.8906402587890625,-0.1826019287109375
1653,-0.05633544921875,-0.855682373046875,-0.195465087890625
1654,-0.05633544921875,-0.855682373046875,-0.195465087890625
1655,-0.0458526611328125,-0.931549072265625,-0.1693115234375
1656,-0.0458526611328125,-0.931549072265625,-0.1693115234375
1657,-0.04974365234375,-0.94921875,-0.1647186279296875
1658,-0.0463104248046875,-0.966094970703125,-0.1610107421875
1659,-0.03533935546875,-0.9730224609375,-0.149261474609375
1660,-0.03533935546875,-0.9730224609375,-0.149261474609375
1661,-0.041656494140625,-0.975738525390625,-0.1442108154296875
1662,-0.051727294921875,-0.981109619140625,-0.1463775634765625
1663,-0.0494384765625,-0.9771575927734376,-0.15362548828125
1664,-0.0522918701171875,-0.9679718017578124,-0.156219482421875
1665,-0.0520477294921875,-0.9552459716796876,-0.1455078125
1666,-0.0445404052734375,-0.9577484130859376,-0.1416168212890625
1667,-0.0452117919921875,-0.9629058837890624,-0.138275146484375
1668,-0.0452117919921875,-0.9629058837890624,-0.138275146484375
1669,-0.0500946044921875,-0.9689483642578124,-0.1174774169921875
1670,-0.0500946044921875,-0.9689483642578124,-0.1174774169921875
1671,-0.0653076171875,-0.998138427734375,-0.1240997314453125
1672,-0.0653076171875,-0.998138427734375,-0.1240997314453125
1673,-0.0733184814453125,-1.00640869140625,-0.1249237060546875
1674,-0.080474853515625,-1.005386352539062,-0.127838134765625
1675,-0.0789794921875,-1.005325317382812,-0.1156005859375
1676,-0.0789794921875,-1.005325317382812,-0.1156005859375
1677,-0.0883941650390625,-1.000473022460938,-0.096588134765625
1678,-0.089447021484375,-0.98907470703125,-0.10150146484375
1679,-0.0977020263671875,-0.9921722412109376,-0.1056671142578125
1680,-0.0977020263671875,-0.9921722412109376,-0.1056671142578125
1681,-0.1035003662109375,-0.9953765869140624,-0.09710693359375
1682,-0.1026458740234375,-1.006607055664062,-0.1021881103515625
1683,-0.0998382568359375,-1.005996704101562,-0.1064605712890625
1684,-0.0998382568359375,-1.005996704101562,-0.1064605712890625
1685,-0.0879364013671875,-0.9923553466796876,-0.0980072021484375
1686,-0.0824737548828125,-0.9878692626953124,-0.0911865234375
1687,-0.0765533447265625,-0.9881591796875,-0.0959320068359375
1688,-0.074859619140625,-0.9902496337890624,-0.1001739501953125
1689,-0.073822021484375,-0.9845123291015624,-0.106292724609375
1690,-0.0680389404296875,-0.9841766357421876,-0.1051177978515625
1691,-0.0587158203125,-0.9902191162109376,-0.095001220703125
1692,-0.056640625,-0.9899444580078124,-0.0960540771484375
1693,-0.0558929443359375,-0.985137939453125,-0.103485107421875
1694,-0.04833984375,-0.991607666015625,-0.093170166015625
1695,-0.0440826416015625,-0.9984130859375,-0.0804290771484375
1696,-0.0440826416015625,-0.9984130859375,-0.0804290771484375
1697,-0.0348358154296875,-1.00579833984375,-0.0914306640625
1698,-0.03118896484375,-1.005599975585938,-0.088897705078125
1699,-0.0292205810546875,-1.005401611328125,-0.0929107666015625
1700,-0.0292205810546875,-1.005401611328125,-0.0929107666015625
1701,-0.0237884521484375,-1.009307861328125,-0.0942535400390625
1702,-0.0237884521484375,-1.009307861328125,-0.0942535400390625
1703,-0.0220184326171875,-1.002120971679688,-0.08929443359375
1704,-0.0220184326171875,-1.002120971679688,-0.08929443359375
1705,-0.0284576416015625,-1.008636474609375,-0.08306884765625
1706,-0.0283203125,-1.006011962890625,-0.080352783203125
1707,-0.033050537109375,-0.9955596923828124,-0.0709228515625
1708,-0.033050537109375,-0.9955596923828124,-0.0709228515625
1709,-0.0467681884765625,-0.9868621826171876,-0.092437744140625
1710,-0.046966552734375,-0.9917755126953124,-0.09210205078125
1711,-0.04840087890625,-0.994537353515625,-0.0953216552734375
1712,-0.04840087890625,-0.994537353515625,-0.0953216552734375
1713,-0.0410919189453125,-1.008071899414062,-0.113311767578125
1714,-0.0500030517578125,-1.002182006835938,-0.0511932373046875
1715,-0.0673675537109375,-0.9993896484375,-0.096771240234375
1716,-0.0673675537109375,-0.9993896484375,-0.096771240234375
1717,-0.0806732177734375,-1.033798217773438,-0.0793304443359375
1718,-0.0806732177734375,-1.033798217773438,-0.0793304443359375
1719,-0.08447265625,-1.010009765625,-0.07476806640625
1720,-0.08447265625,-1.010009765625,-0.07476806640625
1721,-0.07781982421875,-1.0103759765625,-0.065155029296875
1722,-0.0740509033203125,-1.016708374023438,-0.0543212890625
1723,-0.0685577392578125,-1.038131713867188,-0.0469818115234375
1724,-0.0685577392578125,-1.038131713867188,-0.0469818115234375
1725,-0.066375732421875,-1.0496826171875,-0.0406341552734375
1726,-0.0633087158203125,-1.069259643554688,-0.026519775390625
1727,-0.0715179443359375,-1.130874633789062,-0.007904052734375
1728,-0.0715179443359375,-1.130874633789062,-0.007904052734375
1729,-0.0751800537109375,-1.167449951171875,-0.01031494140625
1730,-0.0655670166015625,-1.102951049804688,-0.0053558349609375
1731,-0.047515869140625,-1.03424072265625,-0.00360107421875
1732,-0.047515869140625,-1.03424072265625,-0.00360107421875
1733,-0.05999755859375,-0.96990966796875,-0.0406341552734375
1734,-0.05999755859375,-0.96990966796875,-0.0406341552734375
1735,-0.0768280029296875,-0.9961700439453124,-0.02093505859375
1736,-0.0768280029296875,-0.9961700439453124,-0.02093505859375
1737,-0.0859832763671875,-1.000213623046875,0.0026397705078125
1738,-0.08380126953125,-1.001708984375,0.043731689453125
1739,-0.083099365234375,-0.9896392822265624,0.0750732421875
1740,-0.083099365234375,-0.9896392822265624,0.0750732421875
1741,-0.1014862060546875,-1.014923095703125,0.0424346923828125
1742,-0.1014862060546875,-1.014923095703125,0.0424346923828125
1743,-0.07073974609375,-1.008758544921875,-0.0425262451171875
1744,-0.07073974609375,-1.008758544921875,-0.0425262451171875
1745,-0.0718536376953125,-0.99603271484375,-0.04815673828125
1746,-0.08026123046875,-0.9983367919921876,-0.0390625
1747,-0.0915069580078125,-0.9945831298828124,-0.0097198486328125
1748,-0.1048583984375,-0.97515869140625,0.021820068359375
1749,-0.1298370361328125,-0.9650726318359376,0.04644775390625
1750,-0.1529541015625,-0.9605865478515624,0.0534515380859375
1751,-0.19293212890625,-0.9662017822265624,0.046966552734375
1752,-0.19293212890625,-0.9662017822265624,0.046966552734375
1753,-0.19293212890625,-0.9662017822265624,0.046966552734375
1754,-0.1806182861328125,-0.9644622802734376,0.054412841796875
1755,-0.113677978515625,-0.9645233154296876,0.0955810546875
1756,-0.113677978515625,-0.9645233154296876,0.0955810546875
1757,-0.113677978515625,-0.9645233154296876,0.0955810546875
1758,-0.113677978515625,-0.9645233154296876,0.0955810546875
1759,-0.1053619384765625,-0.9661865234375,0.0054779052734375
1760,-0.099884033203125,-0.9384765625,-0.015960693359375
1761,-0.099884033203125,-0.9384765625,-0.015960693359375
1762,-0.091033935546875,-0.9264678955078124,0.0064239501953125
1763,-0.130523681640625,-0.974273681640625,0.0894927978515625
1764,-0.130523681640625,-0.974273681640625,0.0894927978515625
1765,-0.165008544921875,-1.004898071289062,0.10064697265625
1766,-0.169891357421875,-1.022216796875,0.107269287109375
1767,-0.1505279541015625,-0.9983978271484376,0.102630615234375
1768,-0.1505279541015625,-0.9983978271484376,0.102630615234375
1769,-0.1375885009765625,-0.9903411865234376,0.1104736328125
1770,-0.1120147705078125,-0.9727935791015624,0.10601806640625
1771,-0.08905029296875,-0.9525299072265624,0.08184814453125
1772,-0.07525634765625,-0.936737060546875,0.0499420166015625
1773,-0.0609588623046875,-0.9145965576171876,0.029205322265625
1774,-0.061981201171875,-0.9053192138671876,0.0319061279296875
1775,-0.0975799560546875,-0.9177398681640624,0.0604095458984375
1776,-0.0975799560546875,-0.9177398681640624,0.0604095458984375
1777,-0.177825927734375,-0.962249755859375,0.11181640625
1778,-0.177825927734375,-0.962249755859375,0.11181640625
1779,-0.1786956787109375,-1.021575927734375,0.13482666015625
1780,-0.1786956787109375,-1.021575927734375,0.13482666015625
1781,-0.169036865234375,-1.042572021484375,0.1578216552734375
1782,-0.1671142578125,-1.034805297851562,0.17919921875
1783,-0.1660308837890625,-1.024429321289062,0.165985107421875
1784,-0.1660308837890625,-1.024429321289062,0.165985107421875
1785,-0.158050537109375,-0.97979736328125,0.0710601806640625
1786,-0.154815673828125,-0.9522552490234376,0.0352783203125
1787,-0.162567138671875,-0.94366455078125,0.051177978515625
1788,-0.162567138671875,-0.94366455078125,0.051177978515625
1789,-0.1864166259765625,-0.96917724609375,0.0959930419921875
1790,-0.1840667724609375,-0.979705810546875,0.1123199462890625
1791,-0.1841278076171875,-0.980682373046875,0.122711181640625
1792,-0.1841278076171875,-0.980682373046875,0.122711181640625
1793,-0.184600830078125,-0.9891204833984376,0.128509521484375
1794,-0.1871795654296875,-0.98272705078125,0.130523681640625
1795,-0.1850738525390625,-0.9810943603515624,0.15667724609375
1796,-0.1850738525390625,-0.9810943603515624,0.15667724609375
1797,-0.156036376953125,-0.9836273193359376,0.160400390625
1798,-0.156036376953125,-0.9836273193359376,0.160400390625
1799,-0.1402740478515625,-0.9830474853515624,0.061004638671875
1800,-0.1302947998046875,-0.976837158203125,0.0567779541015625
1801,-0.124603271484375,-0.973663330078125,0.0480804443359375
1802,-0.124603271484375,-0.973663330078125,0.0480804443359375
1803,-0.1490478515625,-0.9769744873046876,0.0862579345703125
1804,-0.1646575927734375,-0.9774017333984376,0.1013946533203125
1805,-0.17742919921875,-0.971435546875,0.107879638671875
1806,-0.17742919921875,-0.971435546875,0.107879638671875
1807,-0.183349609375,-0.9682159423828124,0.1123504638671875
1808,-0.18603515625,-0.9708099365234376,0.1157989501953125
1809,-0.186431884765625,-0.9886016845703124,0.1381683349609375
1810,-0.186431884765625,-0.9886016845703124,0.1381683349609375
1811,-0.143035888671875,-1.007919311523438,0.1121368408203125
1812,-0.143035888671875,-1.007919311523438,0.1121368408203125
1813,-0.118804931640625,-1.00909423828125,0.0873260498046875
1814,-0.118804931640625,-1.00909423828125,0.0873260498046875
1815,-0.08172607421875,-0.995758056640625,0.0623626708984375
1816,-0.08172607421875,-0.995758056640625,0.0623626708984375
1817,-0.1208038330078125,-0.9848175048828124,0.063507080078125
1818,-0.14300537109375,-0.9846343994140624,0.0792236328125
1819,-0.1571807861328125,-0.99029541015625,0.093170166015625
1820,-0.1571807861328125,-0.99029541015625,0.093170166015625
1821,-0.1678314208984375,-0.992401123046875,0.1054840087890625
1822,-0.1678314208984375,-0.992401123046875,0.1054840087890625
1823,-0.1663055419921875,-0.997772216796875,0.1051025390625
1824,-0.16302490234375,-1.002182006835938,0.11163330078125
1825,-0.163421630859375,-0.9984283447265624,0.1236114501953125
1826,-0.163421630859375,-0.9984283447265624,0.1236114501953125
1827,-0.1284637451171875,-0.994537353515625,0.0446624755859375
1828,-0.1284637451171875,-0.994537353515625,0.0446624755859375
1829,-0.1124267578125,-0.9799652099609376,0.048980712890625
1830,-0.1124267578125,-0.9799652099609376,0.048980712890625
1831,-0.116485595703125,-0.9618988037109376,0.045257568359375
1832,-0.127899169921875,-0.9592437744140624,0.04339599609375
1833,-0.13934326171875,-0.9614410400390624,0.051727294921875
1834,-0.13934326171875,-0.9614410400390624,0.051727294921875
1835,-0.1485748291015625,-0.9881439208984376,0.068603515625
1836,-0.1417236328125,-0.99945068359375,0.0709686279296875
1837,-0.13494873046875,-1.007125854492188,0.0831298828125
1838,-0.1286468505859375,-1.013076782226562,0.079498291015625
1839,-0.1263427734375,-1.012893676757812,0.07763671875
1840,-0.1259307861328125,-1.016220092773438,0.064178466796875
1841,-0.1334228515625,-1.024993896484375,0.049346923828125
1842,-0.1334228515625,-1.024993896484375,0.049346923828125
1843,-0.1319427490234375,-1.008041381835938,0.010955810546875
1844,-0.1278839111328125,-1.003463745117188,-0.00579833984375
1845,-0.1202392578125,-0.98980712890625,0.001220703125
1846,-0.1202392578125,-0.98980712890625,0.001220703125
1847,-0.1136322021484375,-0.979461669921875,0.0117034912109375
1848,-0.1157379150390625,-0.9722747802734376,0.018707275390625
1849,-0.1371307373046875,-0.972564697265625,0.018218994140625
1850,-0.1371307373046875,-0.972564697265625,0.018218994140625
1851,-0.1423492431640625,-0.9952392578125,0.0234375
1852,-0.1329345703125,-1.00677490234375,0.0374298095703125
1853,-0.1224517822265625,-1.0093994140625,0.0596160888671875
1854,-0.1224517822265625,-1.0093994140625,0.0596160888671875
1855,-0.136566162109375,-0.998046875,0.0377197265625
1856,-0.136566162109375,-0.998046875,0.0377197265625
1857,-0.1111907958984375,-1.033248901367188,0.012786865234375
1858,-0.1111907958984375,-1.033248901367188,0.012786865234375
1859,-0.093231201171875,-0.996307373046875,0.0019683837890625
1860,-0.093231201171875,-0.996307373046875,0.0019683837890625
1861,-0.0746307373046875,-1.0006103515625,-0.0180206298828125
1862,-0.0746307373046875,-1.0006103515625,-0.0180206298828125
1863,-0.0709381103515625,-0.9912109375,-0.0028076171875
1864,-0.0709381103515625,-0.9912109375,-0.0028076171875
1865,-0.073638916015625,-0.9979095458984376,0.0002288818359375
1866,-0.1039581298828125,-1.0069580078125,-0.015472412109375
1867,-0.1137542724609375,-1.02667236328125,-0.0193634033203125
1868,-0.111785888671875,-1.030136108398438,-0.021484375
1869,-0.1041412353515625,-1.028961181640625,-0.020111083984375
1870,-0.1041412353515625,-1.028961181640625,-0.020111083984375
1871,-0.097381591796875,-1.0284423828125,0.00347900390625
1872,-0.1052398681640625,-1.034561157226562,0.007293701171875
1873,-0.11041259765625,-1.028854370117188,-0.000335693359375
1874,-0.11041259765625,-1.028854370117188,-0.000335693359375
1875,-0.10687255859375,-1.0162353515625,-0.00921630859375
1876,-0.1026458740234375,-1.021652221679688,-0.02001953125
1877,-0.1026458740234375,-1.021652221679688,-0.02001953125
1878,-0.0973358154296875,-1.020111083984375,-0.03106689453125
1879,-0.09515380859375,-0.9856719970703124,-0.036865234375
1880,-0.09515380859375,-0.9856719970703124,-0.036865234375
1881,-0.10626220703125,-0.966217041015625,-0.043853759765625
1882,-0.121246337890625,-0.96478271484375,-0.0505828857421875
1883,-0.1399078369140625,-0.9860992431640624,-0.044342041015625
1884,-0.1399078369140625,-0.9860992431640624,-0.044342041015625
1885,-0.1399078369140625,-0.9860992431640624,-0.044342041015625
1886,-0.138275146484375,-0.9947509765625,-0.041656494140625
1887,-0.1160125732421875,-0.994598388671875,-0.0469512939453125
1888,-0.1160125732421875,-0.994598388671875,-0.0469512939453125
1889,-0.1160125732421875,-0.994598388671875,-0.0469512939453125
1890,-0.125244140625,-0.993438720703125,-0.04266357421875
1891,-0.132537841796875,-0.9989471435546876,-0.03607177734375
1892,-0.1347198486328125,-0.997833251953125,-0.0384674072265625
1893,-0.1347198486328125,-0.997833251953125,-0.0384674072265625
1894,-0.133758544921875,-0.98455810546875,-0.0381622314453125
1895,-0.13616943359375,-0.959136962890625,-0.051177978515625
1896,-0.1336822509765625,-0.9473419189453124,-0.0550537109375
1897,-0.1336822509765625,-0.9473419189453124,-0.0550537109375
1898,-0.131805419921875,-0.9333648681640624,-0.0706024169921875
1899,-0.1254730224609375,-0.9324951171875,-0.093841552734375
1900,-0.113189697265625,-0.9409332275390624,-0.0931549072265625
1901,-0.1031646728515625,-0.95953369140625,-0.082061767578125
1902,-0.09765625,-0.965362548828125,-0.060211181640625
1903,-0.1061859130859375,-0.975860595703125,-0.0379791259765625
1904,-0.1138763427734375,-0.9677581787109376,-0.0357513427734375
1905,-0.1230316162109375,-0.959442138671875,-0.041351318359375
1906,-0.1230316162109375,-0.959442138671875,-0.041351318359375
1907,-0.1410980224609375,-0.97052001953125,-0.0560760498046875
1908,-0.1572418212890625,-0.97314453125,-0.059722900390625
1909,-0.1783447265625,-1.018951416015625,-0.0599517822265625
1910,-0.1783447265625,-1.018951416015625,-0.0599517822265625
1911,-0.167999267578125,-1.030990600585938,-0.01373291015625
1912,-0.1598052978515625,-1.031509399414062,-0.0153656005859375
1913,-0.150665283203125,-1.028396606445312,-0.0084381103515625
1914,-0.150665283203125,-1.028396606445312,-0.0084381103515625
1915,-0.1317596435546875,-1.006362915039062,-0.048309326171875
1916,-0.1317596435546875,-1.006362915039062,-0.048309326171875
1917,-0.1321563720703125,-1.01190185546875,-0.04559326171875
1918,-0.1321563720703125,-1.01190185546875,-0.04559326171875
1919,-0.13641357421875,-1.024307250976562,-0.0511322021484375
1920,-0.13641357421875,-1.024307250976562,-0.0511322021484375
1921,-0.1196441650390625,-1.017990112304688,-0.0790557861328125
1922,-0.1196441650390625,-1.017990112304688,-0.0790557861328125
1923,-0.1054534912109375,-1.01123046875,-0.0967864990234375
1924,-0.1073455810546875,-1.014694213867188,-0.0802154541015625
1925,-0.1210479736328125,-1.016693115234375,-0.07159423828125
1926,-0.1210479736328125,-1.016693115234375,-0.07159423828125
1927,-0.1399383544921875,-0.978424072265625,-0.072662353515625
1928,-0.1399383544921875,-0.978424072265625,-0.072662353515625
1929,-0.1439056396484375,-0.9771270751953124,-0.0736236572265625
1930,-0.1439056396484375,-0.9771270751953124,-0.0736236572265625
1931,-0.1450958251953125,-1.004165649414062,-0.07904052734375
1932,-0.1351318359375,-1.007156372070312,-0.074371337890625
1933,-0.1224365234375,-1.011871337890625,-0.0637359619140625
1934,-0.1224365234375,-1.011871337890625,-0.0637359619140625
1935,-0.106781005859375,-1.008590698242188,-0.0529632568359375
1936,-0.1027069091796875,-1.004165649414062,-0.0554962158203125
1937,-0.0978851318359375,-0.999725341796875,-0.074798583984375
1938,-0.0978851318359375,-0.999725341796875,-0.074798583984375
1939,-0.0956878662109375,-1.013519287109375,-0.085906982421875
1940,-0.0998687744140625,-1.020462036132812,-0.0698089599609375
1941,-0.094940185546875,-1.007980346679688,-0.0730438232421875
1942,-0.094940185546875,-1.007980346679688,-0.0730438232421875
1943,-0.0886383056640625,-0.9639739990234376,-0.1084136962890625
1944,-0.0886383056640625,-0.9639739990234376,-0.1084136962890625
1945,-0.1134490966796875,-1.002899169921875,-0.1153717041015625
1946,-0.1134490966796875,-1.002899169921875,-0.1153717041015625
1947,-0.132232666015625,-1.030624389648438,-0.0965118408203125
1948,-0.1411895751953125,-1.047409057617188,-0.074981689453125
1949,-0.114959716796875,-0.995452880859375,-0.0470733642578125
1950,-0.114959716796875,-0.995452880859375,-0.0470733642578125
1951,-0.0720672607421875,-0.965179443359375,-0.0951385498046875
1952,-0.0720062255859375,-0.9787445068359376,-0.10986328125
1953,-0.074371337890625,-0.9849090576171876,-0.099639892578125
1954,-0.074371337890625,-0.9849090576171876,-0.099639892578125
1955,-0.0761260986328125,-0.968017578125,-0.04437255859375
1956,-0.0761260986328125,-0.968017578125,-0.04437255859375
1957,-0.076263427734375,-0.944366455078125,-0.0640411376953125
1958,-0.076263427734375,-0.944366455078125,-0.0640411376953125
1959,-0.060821533203125,-0.9209442138671876,-0.1536407470703125
1960,-0.060821533203125,-0.9209442138671876,-0.1536407470703125
1961,-0.0449676513671875,-0.9232177734375,-0.221221923828125
1962,-0.0449676513671875,-0.9232177734375,-0.221221923828125
1963,-0.0452880859375,-0.926025390625,-0.2201080322265625
1964,-0.04949951171875,-0.9188232421875,-0.21258544921875
1965,-0.0444183349609375,-0.9234466552734376,-0.1606292724609375
1966,-0.0444183349609375,-0.9234466552734376,-0.1606292724609375
1967,-0.0796966552734375,-0.9450225830078124,-0.12640380859375
1968,-0.099517822265625,-0.9537200927734376,-0.1267242431640625
1969,-0.1271820068359375,-0.984039306640625,-0.1373291015625
1970,-0.1271820068359375,-0.984039306640625,-0.1373291015625
1971,-0.179412841796875,-1.070220947265625,-0.160491943359375
1972,-0.113861083984375,-1.097381591796875,-0.0801544189453125
1973,-0.113861083984375,-1.097381591796875,-0.0801544189453125
1974,-0.113861083984375,-1.097381591796875,-0.0801544189453125
1975,-0.0579376220703125,-1.073883056640625,-0.1630096435546875
1976,-0.04681396484375,-1.051849365234375,-0.1875457763671875
1977,-0.0400543212890625,-1.029571533203125,-0.177947998046875
1978,-0.0400543212890625,-1.029571533203125,-0.177947998046875
1979,-0.0301666259765625,-0.9884033203125,-0.1885986328125
1980,-0.0301666259765625,-0.9884033203125,-0.1885986328125
1981,-0.03594970703125,-0.9816436767578124,-0.1828460693359375
1982,-0.03594970703125,-0.9816436767578124,-0.1828460693359375
1983,-0.0554351806640625,-0.9663238525390624,-0.1812591552734375
1984,-0.0746612548828125,-0.9444122314453124,-0.2047576904296875
1985,-0.08404541015625,-0.9273529052734376,-0.2079620361328125
1986,-0.0872955322265625,-0.928314208984375,-0.197235107421875
1987,-0.083160400390625,-0.9609222412109376,-0.1717987060546875
1988,-0.083160400390625,-0.9609222412109376,-0.1717987060546875
1989,-0.0760955810546875,-0.982452392578125,-0.169586181640625
1990,-0.0727386474609375,-1.010528564453125,-0.16937255859375
1991,-0.0677642822265625,-1.054046630859375,-0.15374755859375
1992,-0.06292724609375,-1.050872802734375,-0.1512451171875
1993,-0.052490234375,-1.048431396484375,-0.1684417724609375
1994,-0.052490234375,-1.048431396484375,-0.1684417724609375
1995,-0.00311279296875,-1.02850341796875,-0.1978302001953125
1996,-0.00311279296875,-1.02850341796875,-0.1978302001953125
1997,0.00469970703125,-1.013763427734375,-0.2093353271484375
1998,0.00469970703125,-1.013763427734375,-0.2093353271484375
1999,-0.00042724609375,-0.941253662109375,-0.2121124267578125
2000,-0.00042724609375,-0.941253662109375,-0.2121124267578125
2001,-0.00927734375,-0.918731689453125,-0.2137451171875
2002,-0.025604248046875,-0.9123992919921876,-0.2224884033203125
2003,-0.046051025390625,-0.93646240234375,-0.2216033935546875
2004,-0.046051025390625,-0.93646240234375,-0.2216033935546875
2005,-0.0503997802734375,-0.9639739990234376,-0.2113189697265625
2006,-0.045196533203125,-0.9846343994140624,-0.1928253173828125
2007,-0.030029296875,-1.012863159179688,-0.18341064453125
2008,-0.030029296875,-1.012863159179688,-0.18341064453125
2009,-0.0152740478515625,-1.020477294921875,-0.181915283203125
2010,0.0300750732421875,-1.030868530273438,-0.1766815185546875
2011,0.0300750732421875,-1.030868530273438,-0.1766815185546875
2012,0.0360107421875,-0.9948883056640624,-0.1885833740234375
2013,0.0360107421875,-0.9948883056640624,-0.1885833740234375
2014,0.0261993408203125,-0.966400146484375,-0.1964569091796875
2015,-0.020294189453125,-0.9436798095703124,-0.2218475341796875
2016,-0.020294189453125,-0.9436798095703124,-0.2218475341796875
2017,-0.037811279296875,-0.95098876953125,-0.225067138671875
2018,-0.046722412109375,-0.961273193359375,-0.2207794189453125
2019,-0.0518341064453125,-0.9828338623046876,-0.1926727294921875
2020,-0.0518341064453125,-0.9828338623046876,-0.1926727294921875
2021,-0.0506591796875,-1.001251220703125,-0.1814422607421875
2022,-0.040496826171875,-1.010101318359375,-0.1748809814453125
2023,-0.01300048828125,-1.028778076171875,-0.1730194091796875
2024,-0.01300048828125,-1.028778076171875,-0.1730194091796875
2025,-0.00323486328125,-1.0306396484375,-0.1704559326171875
2026,0.0077056884765625,-1.024856567382812,-0.1767578125
2027,0.0133056640625,-1.01385498046875,-0.1847991943359375
2028,0.0106353759765625,-1.00616455078125,-0.1893768310546875
2029,0.0106353759765625,-1.00616455078125,-0.1893768310546875
2030,0.013641357421875,-0.991241455078125,-0.20050048828125
2031,-0.005645751953125,-0.9706878662109376,-0.2021026611328125
2032,-0.005645751953125,-0.9706878662109376,-0.2021026611328125
2033,-0.01177978515625,-0.9687347412109376,-0.199981689453125
2034,-0.0114288330078125,-0.9734039306640624,-0.201324462890625
2035,-0.019775390625,-1.000030517578125,-0.178955078125
2036,-0.019775390625,-1.000030517578125,-0.178955078125
2037,-0.02911376953125,-1.000839233398438,-0.169342041015625
2038,-0.033935546875,-1.001174926757812,-0.1597137451171875
2039,-0.0182952880859375,-1.029937744140625,-0.1616973876953125
2040,-0.0182952880859375,-1.029937744140625,-0.1616973876953125
2041,0.0040130615234375,-1.038894653320312,-0.1673431396484375
2042,0.0230712890625,-1.044113159179688,-0.17364501953125
2043,0.0286865234375,-1.047653198242188,-0.19940185546875
2044,0.0286865234375,-1.047653198242188,-0.19940185546875
2045,0.0137481689453125,-1.045394897460938,-0.1991729736328125
2046,-0.01324462890625,-1.032958984375,-0.1923675537109375
2047,-0.062408447265625,-0.9924163818359376,-0.194366455078125
2048,-0.062408447265625,-0.9924163818359376,-0.194366455078125
2049,-0.0760955810546875,-0.977294921875,-0.1965789794921875
2050,-0.0846405029296875,-0.969818115234375,-0.2072601318359375
2051,-0.0767669677734375,-0.9636077880859376,-0.20703125
2052,-0.06640625,-0.9638824462890624,-0.1948089599609375
2053,-0.06640625,-0.9638824462890624,-0.1948089599609375
2054,-0.0564727783203125,-0.9517059326171876,-0.1856231689453125
2055,-0.0480804443359375,-0.9384765625,-0.1917877197265625
2056,-0.0516815185546875,-0.921966552734375,-0.2048492431640625
2057,-0.07281494140625,-0.934600830078125,-0.2373199462890625
2058,-0.07281494140625,-0.934600830078125,-0.2373199462890625
2059,-0.04754638671875,-1.044921875,-0.2471160888671875
2060,-0.0413665771484375,-1.044708251953125,-0.24212646484375
2061,-0.0413665771484375,-1.044708251953125,-0.24212646484375
2062,-0.0286407470703125,-1.027908325195312,-0.2348175048828125
2063,-0.02581787109375,-0.9576416015625,-0.219451904296875
2064,-0.02581787109375,-0.9576416015625,-0.219451904296875
2065,-0.050018310546875,-0.9298248291015624,-0.2152099609375
2066,-0.079010009765625,-0.9163970947265624,-0.2190704345703125
2067,-0.1054534912109375,-0.943359375,-0.2281646728515625
2068,-0.0987396240234375,-0.970703125,-0.22637939453125
2069,-0.0987396240234375,-0.970703125,-0.22637939453125
2070,-0.07476806640625,-0.99688720703125,-0.2106781005859375
2071,-0.0370330810546875,-1.016708374023438,-0.1730499267578125
2072,-0.0416717529296875,-1.010406494140625,-0.174407958984375
2073,-0.0568695068359375,-1.000244140625,-0.1854400634765625
2074,-0.0568695068359375,-1.000244140625,-0.1854400634765625
2075,-0.0632781982421875,-0.9886932373046876,-0.244842529296875
2076,-0.04840087890625,-1.000030517578125,-0.2211761474609375
2077,-0.029296875,-0.9861602783203124,-0.21075439453125
2078,-0.029296875,-0.9861602783203124,-0.21075439453125
2079,-0.008941650390625,-0.9455413818359376,-0.220123291015625
2080,-0.009246826171875,-0.94122314453125,-0.2126617431640625
2081,-0.0184478759765625,-0.943878173828125,-0.2046051025390625
2082,-0.0299835205078125,-0.9560699462890624,-0.2083892822265625
2083,-0.0299835205078125,-0.9560699462890624,-0.2083892822265625
2084,-0.0400390625,-0.97479248046875,-0.20892333984375
2085,-0.06048583984375,-0.9886322021484376,-0.18939208984375
2086,-0.06048583984375,-0.9886322021484376,-0.18939208984375
2087,-0.0229949951171875,-0.9974822998046876,-0.1677398681640625
2088,-0.0229949951171875,-0.9974822998046876,-0.1677398681640625
2089,-0.0101318359375,-1.002182006835938,-0.181610107421875
2090,-0.0101318359375,-1.002182006835938,-0.181610107421875
2091,-0.001068115234375,-0.9985809326171876,-0.1785736083984375
2092,0.0074462890625,-0.99688720703125,-0.18182373046875
2093,0.0075836181640625,-0.998504638671875,-0.210784912109375
2094,0.0075836181640625,-0.998504638671875,-0.210784912109375
2095,0.015625,-1.000030517578125,-0.2115478515625
2096,0.01806640625,-0.973541259765625,-0.2147369384765625
2097,0.0001678466796875,-0.949066162109375,-0.219573974609375
2098,0.0001678466796875,-0.949066162109375,-0.219573974609375
2099,-0.013153076171875,-0.94012451171875,-0.2127838134765625
2100,-0.0342864990234375,-0.939697265625,-0.2183380126953125
2101,-0.0674896240234375,-0.9730987548828124,-0.2227020263671875
2102,-0.0674896240234375,-0.9730987548828124,-0.2227020263671875
2103,-0.0708770751953125,-1.017776489257812,-0.1973419189453125
2104,-0.0708770751953125,-1.017776489257812,-0.1973419189453125
2105,-0.0579833984375,-1.016250610351562,-0.1629486083984375
2106,-0.0579833984375,-1.016250610351562,-0.1629486083984375
2107,-0.05078125,-1.00360107421875,-0.1683502197265625
2108,-0.0507965087890625,-1.009109497070312,-0.19073486328125
2109,-0.0513916015625,-1.013519287109375,-0.218048095703125
2110,-0.034820556640625,-0.9910736083984376,-0.22589111328125
2111,-0.034820556640625,-0.9910736083984376,-0.22589111328125
2112,-0.031005859375,-0.972503662109375,-0.2282867431640625
2113,-0.029296875,-0.9588470458984376,-0.22100830078125
2114,-0.029296875,-0.9588470458984376,-0.22100830078125
2115,-0.038543701171875,-0.9620361328125,-0.194488525390625
2116,-0.038543701171875,-0.9620361328125,-0.194488525390625
2117,-0.0570068359375,-0.9691619873046876,-0.2115478515625
2118,-0.0680999755859375,-0.9730377197265624,-0.2131805419921875
2119,-0.07110595703125,-0.9808349609375,-0.2027587890625
2120,-0.0716552734375,-0.9897613525390624,-0.1920318603515625
2121,-0.063751220703125,-0.9989166259765624,-0.1739654541015625
2122,-0.055938720703125,-0.9992523193359376,-0.1786346435546875
2123,-0.0299530029296875,-1.00201416015625,-0.176361083984375
2124,-0.0299530029296875,-1.00201416015625,-0.176361083984375
2125,-0.008087158203125,-1.003829956054688,-0.19921875
2126,0.00189208984375,-0.99951171875,-0.21002197265625
2127,-0.0052337646484375,-0.9625244140625,-0.213897705078125
2128,-0.0052337646484375,-0.9625244140625,-0.213897705078125
2129,-0.0154571533203125,-0.945709228515625,-0.204742431640625
2130,-0.0470428466796875,-0.967987060546875,-0.2234344482421875
2131,-0.0470428466796875,-0.967987060546875,-0.2234344482421875
2132,-0.0470428466796875,-0.967987060546875,-0.2234344482421875
2133,-0.0529327392578125,-0.9902496337890624,-0.21295166015625
2134,-0.052886962890625,-1.0047607421875,-0.2118377685546875
2135,-0.059051513671875,-0.981353759765625,-0.158477783203125
2136,-0.059051513671875,-0.981353759765625,-0.158477783203125
