time_idx,accelerometerAccelerationX(G),accelerometerAccelerationY(G),accelerometerAccelerationZ(G)
20000,-0.26214599609375,-0.8043975830078125,0.1213531494140625
20001,-0.1988372802734375,-0.7703857421875,0.0247039794921875
20002,-0.1851043701171875,-0.6626434326171875,-0.04791259765625
20003,-0.21533203125,-0.59637451171875,-0.00872802734375
20004,-0.267120361328125,-0.5587310791015625,0.0126495361328125
20005,-0.2620697021484375,-0.528900146484375,0.0135040283203125
20006,-0.2165069580078125,-0.495635986328125,0.035003662109375
20007,-0.2165069580078125,-0.495635986328125,0.035003662109375
20008,-0.0434417724609375,-0.48968505859375,0.002227783203125
20009,0.0129547119140625,-0.481201171875,-0.0822906494140625
20010,0.0871429443359375,-0.531463623046875,-0.1705780029296875
20011,0.0871429443359375,-0.531463623046875,-0.1705780029296875
20012,0.0946044921875,-0.6208038330078125,-0.133514404296875
20013,0.126983642578125,-0.776153564453125,-0.0717926025390625
20014,0.1326446533203125,-0.9175567626953124,-0.0125274658203125
20015,0.1122283935546875,-1.01611328125,0.037567138671875
20016,0.094970703125,-1.062301635742188,0.1089324951171875
20017,0.100067138671875,-1.089126586914062,0.1251220703125
20018,0.106658935546875,-1.13690185546875,0.0659637451171875
20019,0.106658935546875,-1.13690185546875,0.0659637451171875
20020,0.1206512451171875,-1.26910400390625,3.0517578125e-05
20021,0.136474609375,-1.320648193359375,0.03814697265625
20022,0.1383056640625,-1.386032104492188,0.08843994140625
20023,0.1383056640625,-1.386032104492188,0.08843994140625
20024,0.0624847412109375,-1.487960815429688,0.3289794921875
20025,0.0947265625,-1.604278564453125,0.2713623046875
20026,0.177764892578125,-1.627838134765625,-0.1839752197265625
20027,0.177764892578125,-1.627838134765625,-0.1839752197265625
20028,0.48211669921875,-1.756195068359375,-0.71990966796875
20029,0.5470428466796875,-1.847427368164062,-0.696197509765625
20030,0.50396728515625,-1.714462280273438,-0.82965087890625
20031,0.50396728515625,-1.714462280273438,-0.82965087890625
20032,0.533416748046875,-1.131057739257812,-0.9797515869140624
20033,0.4344024658203125,-0.8868255615234375,-0.77032470703125
20034,0.3224639892578125,-0.6898651123046875,-0.5746002197265625
20035,0.3224639892578125,-0.6898651123046875,-0.5746002197265625
20036,0.0547943115234375,-0.5495452880859375,-0.4225616455078125
20037,-0.0565032958984375,-0.5927276611328125,-0.46795654296875
20038,-0.055572509765625,-0.8666534423828125,-0.4078521728515625
20039,-0.055572509765625,-0.8666534423828125,-0.4078521728515625
20040,0.0411529541015625,-1.041946411132812,-0.3831787109375
20041,-0.0359649658203125,-1.37091064453125,-0.6266937255859375
20042,-0.329986572265625,-1.561187744140625,-0.745574951171875
20043,-0.4982452392578125,-1.441619873046875,-0.281005859375
20044,-0.5534820556640625,-1.199661254882812,0.1181640625
20045,-0.470855712890625,-0.981964111328125,0.19024658203125
20046,-0.2641754150390625,-0.8671417236328125,0.15447998046875
20047,-0.2641754150390625,-0.8671417236328125,0.15447998046875
20048,-0.038116455078125,-0.718017578125,-0.2021331787109375
20049,0.070037841796875,-0.752593994140625,-0.14984130859375
20050,0.28778076171875,-0.7927398681640625,-0.0136871337890625
20051,0.543426513671875,-0.8861846923828125,-0.002685546875
20052,0.5474090576171875,-0.7792510986328125,0.13427734375
20053,0.2512054443359375,-0.5862579345703125,0.492950439453125
20054,0.1265716552734375,-0.6520233154296875,0.46624755859375
20055,0.095245361328125,-0.7235107421875,0.1409759521484375
20056,0.0632781982421875,-0.73406982421875,0.017425537109375
20057,0.114288330078125,-0.7261505126953125,0.12164306640625
20058,0.0523223876953125,-0.731292724609375,0.0546722412109375
20059,0.0523223876953125,-0.731292724609375,0.0546722412109375
20060,-0.0030364990234375,-0.6982269287109375,-0.231964111328125
20061,-0.02691650390625,-0.7038726806640625,-0.130157470703125
20062,-0.0551605224609375,-0.7291259765625,0.002838134765625
20063,-0.0537567138671875,-0.7457427978515625,-0.0334930419921875
20064,-0.050537109375,-0.7984771728515625,0.03900146484375
20065,-0.0689849853515625,-0.9027862548828124,0.124237060546875
20066,-0.0813140869140625,-0.96563720703125,0.0972137451171875
20067,-0.0813140869140625,-0.96563720703125,0.0972137451171875
20068,-0.084686279296875,-1.028961181640625,-0.0784149169921875
20069,-0.071075439453125,-1.056732177734375,-0.1416473388671875
20070,-0.047088623046875,-1.084609985351562,-0.1894378662109375
20071,-0.047088623046875,-1.084609985351562,-0.1894378662109375
20072,0.0247344970703125,-1.140182495117188,-0.27947998046875
20073,-0.0073394775390625,-1.189773559570312,-0.1987457275390625
20074,-0.0467071533203125,-1.273788452148438,-0.055908203125
20075,-0.0467071533203125,-1.273788452148438,-0.055908203125
20076,-0.10546875,-1.416366577148438,0.1818389892578125
20077,-0.1513519287109375,-1.465057373046875,0.1648406982421875
20078,-0.17669677734375,-1.513198852539062,-0.0190887451171875
20079,-0.17669677734375,-1.513198852539062,-0.0190887451171875
20080,-0.1350555419921875,-1.516281127929688,-0.2525482177734375
20081,-0.1012115478515625,-1.446502685546875,-0.34454345703125
20082,-0.046875,-1.3692626953125,-0.4029083251953125
20083,0.0130462646484375,-1.2647705078125,-0.4526824951171875
20084,0.094482421875,-1.16436767578125,-0.477783203125
20085,0.1949920654296875,-1.040740966796875,-0.5537109375
20086,0.3312530517578125,-0.91094970703125,-0.6497039794921875
20087,0.3312530517578125,-0.91094970703125,-0.6497039794921875
20088,0.590423583984375,-0.7353973388671875,-0.6958770751953125
20089,0.6866912841796875,-0.7025299072265625,-0.6604461669921875
20090,0.7665863037109375,-0.722198486328125,-0.6063385009765625
20091,0.7665863037109375,-0.722198486328125,-0.6063385009765625
20092,0.8745880126953125,-0.925079345703125,-0.587005615234375
20093,0.775115966796875,-1.06890869140625,-0.36602783203125
20094,0.550079345703125,-1.165756225585938,0.3618011474609375
20095,0.3433685302734375,-1.218002319335938,0.7486114501953125
20096,0.2167510986328125,-1.154205322265625,0.04010009765625
20097,0.178497314453125,-1.124252319335938,-0.1083526611328125
20098,0.1416778564453125,-1.132064819335938,0.0027313232421875
20099,0.1416778564453125,-1.132064819335938,0.0027313232421875
20100,0.0522918701171875,-0.9672088623046876,-0.0804290771484375
20101,-0.010955810546875,-0.9246063232421876,-0.2024383544921875
20102,-0.131744384765625,-0.8707122802734375,-0.2234954833984375
20103,-0.247222900390625,-0.807586669921875,-0.10174560546875
20104,-0.29974365234375,-0.7706298828125,0.0018768310546875
20105,-0.2960205078125,-0.7495574951171875,0.0505523681640625
20106,-0.253570556640625,-0.72613525390625,0.0777587890625
20107,-0.1992340087890625,-0.7000885009765625,0.081756591796875
20108,-0.1315765380859375,-0.6792449951171875,0.0724639892578125
20109,-0.070556640625,-0.66949462890625,0.04400634765625
20110,-0.02410888671875,-0.66143798828125,-0.013397216796875
20111,-0.02410888671875,-0.66143798828125,-0.013397216796875
20112,0.0552978515625,-0.6611175537109375,-0.081146240234375
20113,0.0806732177734375,-0.689453125,-0.060089111328125
20114,0.092041015625,-0.7318878173828125,-0.0116119384765625
20115,0.092041015625,-0.7318878173828125,-0.0116119384765625
20116,0.1804962158203125,-0.7763214111328125,0.00299072265625
20117,0.205230712890625,-0.8419647216796875,0.0379791259765625
20118,0.1662445068359375,-0.861297607421875,0.0482635498046875
20119,0.1662445068359375,-0.861297607421875,0.0482635498046875
20120,0.1379852294921875,-0.9053955078125,0.14984130859375
20121,0.09368896484375,-0.932769775390625,0.111541748046875
20122,0.08819580078125,-0.977294921875,0.0570526123046875
20123,0.08819580078125,-0.977294921875,0.0570526123046875
20124,0.075653076171875,-1.047134399414062,0.071014404296875
20125,0.0576324462890625,-1.083602905273438,0.0811004638671875
20126,0.0564422607421875,-1.104217529296875,0.09490966796875
20127,0.0564422607421875,-1.104217529296875,0.09490966796875
20128,0.0764007568359375,-1.144927978515625,0.0341796875
20129,0.08856201171875,-1.162139892578125,0.0001678466796875
20130,0.1014404296875,-1.179336547851562,0.0239410400390625
20131,0.1014404296875,-1.179336547851562,0.0239410400390625
20132,0.1288299560546875,-1.24578857421875,0.1291656494140625
20133,0.14019775390625,-1.251129150390625,0.184906005859375
20134,0.1195831298828125,-1.273681640625,0.2655792236328125
20135,0.1195831298828125,-1.273681640625,0.2655792236328125
20136,0.121063232421875,-1.482391357421875,0.1746673583984375
20137,0.26800537109375,-1.611175537109375,-0.26324462890625
20138,0.424407958984375,-1.653411865234375,-0.4962310791015625
20139,0.424407958984375,-1.653411865234375,-0.4962310791015625
20140,0.527862548828125,-1.427444458007812,-0.4704437255859375
20141,0.537322998046875,-1.168731689453125,-0.5864410400390625
20142,0.5613250732421875,-0.9576873779296876,-0.640380859375
20143,0.5613250732421875,-0.9576873779296876,-0.640380859375
20144,0.4526519775390625,-0.7142486572265625,-0.5594635009765625
20145,0.3273162841796875,-0.64959716796875,-0.41729736328125
20146,0.2208251953125,-0.6491241455078125,-0.3509063720703125
20147,0.2208251953125,-0.6491241455078125,-0.3509063720703125
20148,0.1111297607421875,-0.79254150390625,-0.3804473876953125
20149,0.07293701171875,-0.8952484130859375,-0.4201507568359375
20150,0.06201171875,-1.007217407226562,-0.4740142822265625
20151,0.06201171875,-1.007217407226562,-0.4740142822265625
20152,0.0565643310546875,-1.262130737304688,-0.596405029296875
20153,0.0031280517578125,-1.360122680664062,-0.5565948486328125
20154,-0.067840576171875,-1.390945434570312,-0.41265869140625
20155,-0.0812530517578125,-1.352584838867188,-0.2171478271484375
20156,-0.01641845703125,-1.248687744140625,-0.029632568359375
20157,0.0456695556640625,-1.149887084960938,0.1456298828125
20158,0.08740234375,-1.086990356445312,0.197265625
20159,0.1650848388671875,-1.049270629882812,0.153839111328125
20160,0.2158355712890625,-0.9962310791015624,0.090789794921875
20161,0.24713134765625,-0.96240234375,0.0102996826171875
20162,0.277923583984375,-0.940643310546875,0.0095367431640625
20163,0.277923583984375,-0.940643310546875,0.0095367431640625
20164,0.27044677734375,-0.8546295166015625,-0.0265045166015625
20165,0.22821044921875,-0.816558837890625,-0.066986083984375
20166,0.179962158203125,-0.78985595703125,-0.101593017578125
20167,0.1430511474609375,-0.7703704833984375,-0.1338043212890625
20168,0.11932373046875,-0.7604217529296875,-0.1677093505859375
20169,0.10888671875,-0.7635650634765625,-0.1771392822265625
20170,0.103485107421875,-0.765106201171875,-0.1848297119140625
20171,0.1175384521484375,-0.7728118896484375,-0.196258544921875
20172,0.1385345458984375,-0.780120849609375,-0.222412109375
20173,0.089630126953125,-0.77142333984375,-0.1966705322265625
20174,0.059600830078125,-0.8303680419921875,-0.0272064208984375
20175,0.059600830078125,-0.8303680419921875,-0.0272064208984375
20176,0.06829833984375,-0.84930419921875,-0.089752197265625
20177,0.0442962646484375,-0.8429107666015625,-0.0934295654296875
20178,0.0291900634765625,-0.8322601318359375,-0.0396270751953125
20179,0.055419921875,-0.8170928955078125,-0.143157958984375
20180,0.0185699462890625,-0.7996826171875,-0.054290771484375
20181,-0.0238800048828125,-0.8985595703125,0.2755889892578125
20182,-0.0062713623046875,-0.917449951171875,-0.01068115234375
20183,-0.04852294921875,-0.8932342529296875,0.008758544921875
20184,-0.0324859619140625,-0.9102783203125,0.09906005859375
20185,-0.0001678466796875,-0.9294281005859376,0.044647216796875
20186,0.035675048828125,-0.897064208984375,-0.068450927734375
20187,-0.0378265380859375,-0.9866790771484376,0.184783935546875
20188,-0.0198516845703125,-1.001907348632812,0.060394287109375
20189,0.0201263427734375,-0.9761199951171876,-0.11016845703125
20190,0.0103912353515625,-0.9991912841796876,-0.0011138916015625
20191,0.01904296875,-1.030776977539062,0.017730712890625
20192,-0.0016021728515625,-1.03289794921875,-0.0071868896484375
20193,-0.025848388671875,-1.031478881835938,0.0135955810546875
20194,-0.0521087646484375,-1.05316162109375,0.14361572265625
20195,-0.0521087646484375,-1.05316162109375,0.14361572265625
20196,-0.0992584228515625,-1.095001220703125,0.0988616943359375
20197,-0.1202239990234375,-1.090423583984375,0.1551361083984375
20198,-0.1364288330078125,-1.161529541015625,0.2710113525390625
20199,-0.1364288330078125,-1.161529541015625,0.2710113525390625
20200,-0.123504638671875,-1.401519775390625,-0.054779052734375
20201,-0.095367431640625,-1.4776611328125,-0.2156829833984375
20202,-0.03448486328125,-1.44439697265625,-0.255279541015625
20203,-0.0252838134765625,-1.328704833984375,-0.2744903564453125
20204,0.001312255859375,-1.240798950195312,-0.267578125
20205,0.07904052734375,-1.184921264648438,-0.2441864013671875
20206,0.1650848388671875,-1.131393432617188,-0.287017822265625
20207,0.1650848388671875,-1.131393432617188,-0.287017822265625
20208,0.2928466796875,-0.95428466796875,-0.4378814697265625
20209,0.333892822265625,-0.8999481201171875,-0.4503173828125
20210,0.3742523193359375,-0.91668701171875,-0.4482269287109375
20211,0.4229278564453125,-0.955780029296875,-0.4361572265625
20212,0.4881439208984375,-0.976715087890625,-0.3894500732421875
20213,0.5788116455078125,-0.9964141845703124,-0.1976318359375
20214,0.62872314453125,-1.061981201171875,0.222869873046875
20215,0.62872314453125,-1.061981201171875,0.222869873046875
20216,0.5330657958984375,-1.063583374023438,0.11859130859375
20217,0.452301025390625,-1.061965942382812,-0.0079193115234375
20218,0.4126739501953125,-1.0625,-0.0074310302734375
20219,0.3732757568359375,-1.043289184570312,-0.0997161865234375
20220,0.2830657958984375,-0.995391845703125,-0.196563720703125
20221,0.2239837646484375,-0.9530029296875,-0.164520263671875
20222,0.18829345703125,-0.96649169921875,-0.160888671875
20223,0.1461029052734375,-0.987884521484375,-0.198394775390625
20224,0.1049652099609375,-0.9949493408203124,-0.207061767578125
20225,0.065338134765625,-0.984710693359375,-0.175750732421875
20226,0.0201416015625,-0.9281463623046876,-0.1263885498046875
20227,0.0201416015625,-0.9281463623046876,-0.1263885498046875
20228,0.039886474609375,-0.897705078125,-0.101165771484375
20229,0.1410980224609375,-0.8981170654296875,-0.0920867919921875
20230,0.229248046875,-0.9090728759765624,-0.0413970947265625
20231,0.229248046875,-0.9090728759765624,-0.0413970947265625
20232,0.278228759765625,-0.892303466796875,-0.02813720703125
20233,0.2809295654296875,-0.8896942138671875,-0.019805908203125
20234,0.2745819091796875,-0.89019775390625,-0.0245819091796875
20235,0.252349853515625,-0.8932342529296875,-0.0373382568359375
20236,0.2044525146484375,-0.8943939208984375,-0.04864501953125
20237,0.1694183349609375,-0.903289794921875,-0.07037353515625
20238,0.1514739990234375,-0.9168548583984376,-0.082427978515625
20239,0.140960693359375,-0.9276885986328124,-0.0764923095703125
20240,0.1355133056640625,-0.9375152587890624,-0.0733795166015625
20241,0.13604736328125,-0.942352294921875,-0.06878662109375
20242,0.1485137939453125,-0.9482574462890624,-0.06341552734375
20243,0.17083740234375,-0.958770751953125,-0.0714874267578125
20244,0.1993255615234375,-0.9661407470703124,-0.0875244140625
20245,0.2323455810546875,-0.9712066650390624,-0.108428955078125
20246,0.2595672607421875,-0.97052001953125,-0.110565185546875
20247,0.2595672607421875,-0.97052001953125,-0.110565185546875
20248,0.2791748046875,-0.9686126708984376,-0.1031036376953125
20249,0.2624359130859375,-0.96441650390625,-0.078704833984375
20250,0.2312469482421875,-0.960601806640625,-0.03253173828125
20251,0.2312469482421875,-0.960601806640625,-0.03253173828125
20252,0.15338134765625,-0.9811248779296876,-0.012359619140625
20253,0.1265411376953125,-0.9897918701171876,-0.0279693603515625
20254,0.1006011962890625,-0.9986114501953124,-0.03289794921875
20255,0.1006011962890625,-0.9986114501953124,-0.03289794921875
20256,0.1029815673828125,-0.99456787109375,-0.0562286376953125
20257,0.1370697021484375,-0.9831695556640624,-0.0760040283203125
20258,0.157958984375,-0.975860595703125,-0.0599365234375
20259,0.1768951416015625,-0.9721221923828124,-0.05303955078125
20260,0.1988983154296875,-0.970489501953125,-0.048187255859375
20261,0.1988983154296875,-0.970489501953125,-0.048187255859375
20262,0.22821044921875,-0.970977783203125,-0.0294952392578125
20263,0.22821044921875,-0.970977783203125,-0.0294952392578125
20264,0.2230987548828125,-0.975860595703125,-0.016326904296875
20265,0.217132568359375,-0.978851318359375,-0.0028533935546875
20266,0.2110595703125,-0.9789276123046876,0.00299072265625
20267,0.2056121826171875,-0.9783172607421876,0.0019378662109375
20268,0.2024993896484375,-0.9766082763671876,0.0005340576171875
20269,0.1981964111328125,-0.9764404296875,-0.002349853515625
20270,0.193878173828125,-0.977264404296875,-0.0094451904296875
20271,0.193878173828125,-0.977264404296875,-0.0094451904296875
20272,0.17431640625,-0.9828033447265624,-0.0273895263671875
20273,0.1601715087890625,-0.9884796142578124,-0.0306243896484375
20274,0.1490478515625,-0.9916839599609376,-0.0243988037109375
20275,0.1490478515625,-0.9916839599609376,-0.0243988037109375
20276,0.1350555419921875,-0.997039794921875,-0.0130767822265625
20277,0.1321258544921875,-0.9954681396484376,-0.0084075927734375
20278,0.129486083984375,-0.9953460693359376,-0.005218505859375
20279,0.129486083984375,-0.9953460693359376,-0.005218505859375
20280,0.119842529296875,-0.995269775390625,0.005462646484375
20281,0.1205902099609375,-0.9969329833984376,0.010467529296875
20282,0.1235504150390625,-1.000274658203125,0.0137176513671875
20283,0.1294403076171875,-0.999847412109375,0.0181121826171875
20284,0.1334075927734375,-1.001235961914062,0.0221099853515625
20285,0.1371002197265625,-1.008926391601562,0.024871826171875
20286,0.139923095703125,-1.013198852539062,0.0225830078125
20287,0.139923095703125,-1.013198852539062,0.0225830078125
20288,0.1394805908203125,-1.006103515625,0.0192108154296875
20289,0.1364288330078125,-1.003433227539062,0.01959228515625
20290,0.1303863525390625,-0.998382568359375,0.0166015625
20291,0.12628173828125,-0.9944915771484376,0.0150604248046875
20292,0.122222900390625,-0.9933319091796876,0.0113525390625
20293,0.1143798828125,-0.9908905029296876,0.011016845703125
20294,0.1107025146484375,-0.989990234375,0.0164794921875
20295,0.1107025146484375,-0.989990234375,0.0164794921875
20296,0.1064300537109375,-0.9962310791015624,0.01904296875
20297,0.10296630859375,-0.998931884765625,0.022857666015625
20298,0.1029510498046875,-0.994873046875,0.0176544189453125
20299,0.1029510498046875,-0.994873046875,0.0176544189453125
20300,0.1082611083984375,-0.988677978515625,0.0109100341796875
20301,0.112152099609375,-0.9926300048828124,0.0143585205078125
20302,0.1147003173828125,-0.9954833984375,0.01580810546875
20303,0.115447998046875,-1.00042724609375,0.016571044921875
20304,0.11590576171875,-1.004852294921875,0.0180511474609375
20305,0.116302490234375,-1.005996704101562,0.020294189453125
20306,0.1145172119140625,-1.008010864257812,0.026275634765625
20307,0.1145172119140625,-1.008010864257812,0.026275634765625
20308,0.1147918701171875,-1.008987426757812,0.030731201171875
20309,0.1147918701171875,-1.008987426757812,0.030731201171875
20310,0.1195068359375,-1.001693725585938,0.0287322998046875
20311,0.118865966796875,-1.003662109375,0.0234375
20312,0.11920166015625,-1.002365112304688,0.0226898193359375
20313,0.1190185546875,-1.000015258789062,0.01776123046875
20314,0.11773681640625,-1.00335693359375,0.0165863037109375
20315,0.11773681640625,-1.00335693359375,0.0165863037109375
20316,0.1182861328125,-1.00384521484375,0.016510009765625
20317,0.119049072265625,-1.003662109375,0.0167083740234375
20318,0.1218414306640625,-1.003646850585938,0.0200347900390625
20319,0.1218414306640625,-1.003646850585938,0.0200347900390625
20320,0.12567138671875,-1.004623413085938,0.0268402099609375
20321,0.1274566650390625,-1.00518798828125,0.0257415771484375
20322,0.129608154296875,-1.004364013671875,0.0255126953125
20323,0.1289520263671875,-1.004684448242188,0.0254974365234375
20324,0.12908935546875,-1.005401611328125,0.0229644775390625
20325,0.1290130615234375,-1.00665283203125,0.0220947265625
20326,0.126800537109375,-1.006698608398438,0.020111083984375
20327,0.126800537109375,-1.006698608398438,0.020111083984375
20328,0.1198883056640625,-1.007308959960938,0.0137786865234375
20329,0.117950439453125,-1.009124755859375,0.014251708984375
20330,0.1162872314453125,-1.009185791015625,0.0146331787109375
20331,0.1162872314453125,-1.009185791015625,0.0146331787109375
20332,0.1163482666015625,-1.008224487304688,0.0201568603515625
20333,0.1155242919921875,-1.003326416015625,0.0222930908203125
20334,0.1153106689453125,-1.0008544921875,0.020233154296875
20335,0.1153106689453125,-1.0008544921875,0.020233154296875
20336,0.115020751953125,-1.000503540039062,0.0209197998046875
20337,0.1142730712890625,-1.003433227539062,0.0198974609375
20338,0.1140289306640625,-1.003921508789062,0.0209503173828125
20339,0.1136932373046875,-0.99932861328125,0.0213623046875
20340,0.1114044189453125,-0.995025634765625,0.019622802734375
20341,0.1102752685546875,-0.9923553466796876,0.0183563232421875
20342,0.108642578125,-0.992218017578125,0.021514892578125
20343,0.108245849609375,-0.993621826171875,0.022369384765625
20344,0.1097564697265625,-0.9923553466796876,0.0256805419921875
20345,0.11083984375,-0.9936676025390624,0.02545166015625
20346,0.1130828857421875,-0.9936981201171876,0.0281829833984375
20347,0.11456298828125,-0.9906158447265624,0.0305023193359375
20348,0.1182861328125,-0.9912261962890624,0.0309295654296875
20349,0.12359619140625,-0.9984893798828124,0.02996826171875
20350,0.12738037109375,-1.000961303710938,0.03143310546875
20351,0.1276397705078125,-0.9978179931640624,0.0296783447265625
20352,0.1254425048828125,-0.99530029296875,0.02911376953125
20353,0.1229705810546875,-0.9936065673828124,0.027069091796875
20354,0.1184844970703125,-0.990875244140625,0.02630615234375
20355,0.1184844970703125,-0.990875244140625,0.02630615234375
20356,0.1150360107421875,-0.9904327392578124,0.02398681640625
20357,0.1159210205078125,-0.9928131103515624,0.024658203125
20358,0.118194580078125,-0.9915771484375,0.024261474609375
20359,0.1216583251953125,-0.9928131103515624,0.023590087890625
20360,0.1235504150390625,-0.993438720703125,0.02447509765625
20361,0.1248626708984375,-0.9947967529296876,0.0263519287109375
20362,0.1240692138671875,-0.9950714111328124,0.0277557373046875
20363,0.1240692138671875,-0.9950714111328124,0.0277557373046875
20364,0.1225128173828125,-0.9929656982421876,0.027008056640625
20365,0.1218719482421875,-0.996490478515625,0.0251617431640625
20366,0.12200927734375,-0.9969940185546876,0.0258331298828125
20367,0.12200927734375,-0.9969940185546876,0.0258331298828125
20368,0.1227264404296875,-0.997314453125,0.0262298583984375
20369,0.123504638671875,-0.999908447265625,0.027008056640625
20370,0.124053955078125,-1.004623413085938,0.028411865234375
20371,0.124053955078125,-1.004623413085938,0.028411865234375
20372,0.1239166259765625,-1.004837036132812,0.0254974365234375
20373,0.1239166259765625,-1.004837036132812,0.0254974365234375
20374,0.126861572265625,-1.002151489257812,0.0223541259765625
20375,0.1283111572265625,-0.9986419677734376,0.0211181640625
20376,0.1302490234375,-0.99462890625,0.02154541015625
20377,0.1318359375,-0.9913330078125,0.0218658447265625
20378,0.13232421875,-0.9904022216796876,0.0234222412109375
20379,0.13232421875,-0.9904022216796876,0.0234222412109375
20380,0.1311187744140625,-0.9940032958984376,0.0264892578125
20381,0.130126953125,-0.9939727783203124,0.0262298583984375
20382,0.129608154296875,-0.995819091796875,0.0253448486328125
20383,0.12908935546875,-0.9954986572265624,0.023590087890625
20384,0.12945556640625,-0.9959259033203124,0.0252532958984375
20385,0.1309356689453125,-0.9959716796875,0.0261993408203125
20386,0.130859375,-0.9959259033203124,0.025726318359375
20387,0.1312713623046875,-0.99713134765625,0.024932861328125
20388,0.1308135986328125,-0.998382568359375,0.023956298828125
20389,0.1316680908203125,-1.00189208984375,0.0247802734375
20390,0.1319427490234375,-1.003616333007812,0.0231781005859375
20391,0.1319427490234375,-1.003616333007812,0.0231781005859375
20392,0.13525390625,-1.002777099609375,0.0239410400390625
20393,0.1373443603515625,-1.003494262695312,0.0233154296875
20394,0.1386566162109375,-1.001007080078125,0.0227203369140625
20395,0.1408233642578125,-0.999908447265625,0.023223876953125
20396,0.1407470703125,-0.99700927734375,0.0225067138671875
20397,0.141082763671875,-0.995330810546875,0.021759033203125
20398,0.14080810546875,-0.9945068359375,0.0228118896484375
20399,0.14080810546875,-0.9945068359375,0.0228118896484375
20400,0.1400146484375,-0.9937896728515624,0.02691650390625
20401,0.1396026611328125,-0.9947662353515624,0.027130126953125
20402,0.136749267578125,-0.9976348876953124,0.02520751953125
20403,0.135345458984375,-0.99884033203125,0.02392578125
20404,0.1339874267578125,-0.99969482421875,0.0211639404296875
20405,0.1329193115234375,-0.9995880126953124,0.020355224609375
20406,0.131927490234375,-0.99871826171875,0.019500732421875
20407,0.131927490234375,-0.99871826171875,0.019500732421875
20408,0.1340789794921875,-0.9985809326171876,0.02056884765625
20409,0.1340789794921875,-0.9985809326171876,0.02056884765625
20410,0.134033203125,-0.9976806640625,0.022369384765625
20411,0.1351165771484375,-0.9969635009765624,0.019561767578125
20412,0.1347503662109375,-0.9959716796875,0.0199737548828125
20413,0.1347503662109375,-0.9959716796875,0.0199737548828125
20414,0.1344757080078125,-0.9954833984375,0.0205535888671875
20415,0.1352691650390625,-0.9951629638671876,0.021392822265625
20416,0.1353912353515625,-0.9956817626953124,0.0238189697265625
20417,0.1353607177734375,-0.9952850341796876,0.024261474609375
20418,0.1348114013671875,-0.99615478515625,0.0216217041015625
20419,0.1341094970703125,-0.998321533203125,0.0205841064453125
20420,0.1336212158203125,-0.99639892578125,0.018951416015625
20421,0.1324920654296875,-0.994293212890625,0.0224761962890625
20422,0.1308441162109375,-0.9922027587890624,0.0240631103515625
20423,0.1308441162109375,-0.9922027587890624,0.0240631103515625
20424,0.1295928955078125,-0.9963836669921876,0.025177001953125
20425,0.13006591796875,-0.99749755859375,0.0243682861328125
20426,0.129180908203125,-0.9997100830078124,0.02508544921875
20427,0.126495361328125,-1.00042724609375,0.02484130859375
20428,0.12567138671875,-0.999786376953125,0.0264434814453125
20429,0.12481689453125,-0.9969940185546876,0.0268096923828125
20430,0.12457275390625,-0.9954986572265624,0.02642822265625
20431,0.12469482421875,-0.99560546875,0.0249176025390625
20432,0.12451171875,-0.99383544921875,0.0224761962890625
20433,0.1240386962890625,-0.9950103759765624,0.0210113525390625
20434,0.1236572265625,-0.9944915771484376,0.021026611328125
20435,0.1241607666015625,-0.994842529296875,0.0216827392578125
20436,0.1251678466796875,-0.99420166015625,0.021331787109375
20437,0.1273040771484375,-0.9940032958984376,0.0214996337890625
20438,0.1307830810546875,-0.9937591552734376,0.02337646484375
20439,0.13555908203125,-0.9938201904296876,0.0241241455078125
20440,0.1372528076171875,-0.9939422607421876,0.024566650390625
20441,0.1371612548828125,-0.9933013916015624,0.025421142578125
20442,0.1367950439453125,-0.994140625,0.0249786376953125
20443,0.13641357421875,-0.994964599609375,0.022705078125
20444,0.1362152099609375,-0.9955596923828124,0.023773193359375
20445,0.1370849609375,-0.995941162109375,0.0246124267578125
20446,0.1363983154296875,-0.9942474365234376,0.0257720947265625
20447,0.1363983154296875,-0.9942474365234376,0.0257720947265625
20448,0.1357421875,-0.9947357177734376,0.0246734619140625
20449,0.1356201171875,-0.9953460693359376,0.0230255126953125
20450,0.1330718994140625,-0.9964447021484376,0.0230560302734375
20451,0.1330718994140625,-0.9964447021484376,0.0230560302734375
20452,0.1307373046875,-0.997894287109375,0.018951416015625
20453,0.1302490234375,-0.9983062744140624,0.0180511474609375
20454,0.129608154296875,-0.9955291748046876,0.0157470703125
20455,0.129608154296875,-0.9955291748046876,0.0157470703125
20456,0.1296234130859375,-0.99200439453125,0.0179901123046875
20457,0.1302947998046875,-0.9908447265625,0.017120361328125
20458,0.1306304931640625,-0.9918060302734376,0.01666259765625
20459,0.1306304931640625,-0.9918060302734376,0.01666259765625
20460,0.1334228515625,-0.994354248046875,0.0162506103515625
20461,0.1334228515625,-0.994354248046875,0.0162506103515625
20462,0.13360595703125,-0.99969482421875,0.0148162841796875
20463,0.1319427490234375,-1.000946044921875,0.020263671875
20464,0.1302490234375,-1.00262451171875,0.0212860107421875
20465,0.1282196044921875,-1.002105712890625,0.02056884765625
20466,0.1258544921875,-1.0013427734375,0.018341064453125
20467,0.1252899169921875,-1.001754760742188,0.0159454345703125
20468,0.125762939453125,-1.000762939453125,0.0166778564453125
20469,0.1269073486328125,-0.9983367919921876,0.016571044921875
20470,0.131317138671875,-0.9975128173828124,0.0144500732421875
20471,0.131317138671875,-0.9975128173828124,0.0144500732421875
20472,0.132568359375,-0.99664306640625,0.0135498046875
20473,0.133941650390625,-0.996978759765625,0.014923095703125
20474,0.13525390625,-0.996612548828125,0.0150604248046875
20475,0.136932373046875,-0.99664306640625,0.014678955078125
20476,0.13763427734375,-0.99566650390625,0.01617431640625
20477,0.138214111328125,-0.9959869384765624,0.013946533203125
20478,0.1375579833984375,-0.9972991943359376,0.012054443359375
20479,0.136505126953125,-0.99603271484375,0.011138916015625
20480,0.136505126953125,-0.9951019287109376,0.0117950439453125
20481,0.135711669921875,-0.9957733154296876,0.0137786865234375
20482,0.1343994140625,-0.99652099609375,0.01702880859375
20483,0.1343994140625,-0.99652099609375,0.01702880859375
20484,0.1298370361328125,-0.997589111328125,0.0201873779296875
20485,0.1290283203125,-0.9986572265625,0.0179595947265625
20486,0.12841796875,-0.9995269775390624,0.0156402587890625
20487,0.1277618408203125,-0.9994354248046876,0.013763427734375
20488,0.1278228759765625,-0.9986572265625,0.01446533203125
20489,0.1289825439453125,-0.9962158203125,0.01434326171875
20490,0.1314544677734375,-0.99542236328125,0.01513671875
20491,0.1318817138671875,-0.994476318359375,0.0171966552734375
20492,0.1322479248046875,-0.993316650390625,0.018646240234375
20493,0.1332855224609375,-0.99462890625,0.0173187255859375
20494,0.1336212158203125,-0.99493408203125,0.0173492431640625
20495,0.1339263916015625,-0.996734619140625,0.017852783203125
20496,0.13507080078125,-0.997314453125,0.0181732177734375
20497,0.135223388671875,-0.9984893798828124,0.018310546875
20498,0.13604736328125,-0.9975128173828124,0.0179290771484375
20499,0.1365966796875,-0.9954071044921876,0.0168914794921875
20500,0.132354736328125,-0.995330810546875,0.019927978515625
20501,0.132354736328125,-0.995330810546875,0.019927978515625
20502,0.1177825927734375,-0.993743896484375,0.02569580078125
20503,0.1094512939453125,-0.9931182861328124,0.026611328125
20504,0.1009979248046875,-0.9924468994140624,0.0225830078125
20505,0.0941162109375,-0.9933013916015624,0.0181427001953125
20506,0.088958740234375,-0.9917755126953124,0.0146942138671875
20507,0.088958740234375,-0.9917755126953124,0.0146942138671875
20508,0.082672119140625,-0.9859771728515624,0.01483154296875
20509,0.082672119140625,-0.9859771728515624,0.01483154296875
20510,0.0818328857421875,-0.9829254150390624,0.0160369873046875
20511,0.0824432373046875,-0.982421875,0.015167236328125
20512,0.0856781005859375,-0.9969940185546876,0.0198516845703125
20513,0.0840606689453125,-0.9990692138671876,0.02239990234375
20514,0.084381103515625,-1.00103759765625,0.0255279541015625
20515,0.087493896484375,-1.002456665039062,0.02685546875
20516,0.0944366455078125,-1.003799438476562,0.0291748046875
20517,0.10455322265625,-1.00677490234375,0.027679443359375
20518,0.1154327392578125,-1.011154174804688,0.02734375
20519,0.1272430419921875,-1.013946533203125,0.0268707275390625
20520,0.13848876953125,-1.012939453125,0.0203857421875
20521,0.146026611328125,-1.009262084960938,0.0139007568359375
20522,0.1491851806640625,-1.007049560546875,0.0090789794921875
20523,0.1498260498046875,-1.004638671875,0.006744384765625
20524,0.1485137939453125,-1.00213623046875,0.002838134765625
20525,0.1493682861328125,-1.001876831054688,0.0
20526,0.1556396484375,-1.007431030273438,-0.0014801025390625
20527,0.1642913818359375,-1.020904541015625,-0.0063018798828125
20528,0.1727294921875,-1.03289794921875,-0.0034332275390625
20529,0.1794586181640625,-1.03369140625,-0.000274658203125
20530,0.1846923828125,-1.025100708007812,-0.0011749267578125
20531,0.188385009765625,-1.0166015625,-0.000640869140625
20532,0.1871490478515625,-1.003494262695312,-0.0035247802734375
20533,0.1877593994140625,-0.9944610595703124,-0.00518798828125
20534,0.19378662109375,-0.986968994140625,-0.0124664306640625
20535,0.199676513671875,-0.9749603271484376,-0.0180511474609375
20536,0.20477294921875,-0.9653778076171876,-0.0157623291015625
20537,0.20880126953125,-0.96142578125,-0.0146636962890625
20538,0.2115325927734375,-0.96551513671875,-0.0099639892578125
20539,0.2062835693359375,-0.972808837890625,-0.0050201416015625
20540,0.2003936767578125,-0.9865264892578124,0.00079345703125
20541,0.189300537109375,-0.996826171875,0.004730224609375
20542,0.174163818359375,-1.011703491210938,0.0141754150390625
20543,0.1513214111328125,-1.011398315429688,0.021881103515625
20544,0.1234130859375,-1.006103515625,0.0282745361328125
20545,0.09423828125,-1.00823974609375,0.0307769775390625
20546,0.0704803466796875,-1.0203857421875,0.0274505615234375
20547,0.0559539794921875,-1.025848388671875,0.0133819580078125
20548,0.0449676513671875,-1.026214599609375,0.00775146484375
20549,0.0334014892578125,-1.022613525390625,0.008544921875
20550,0.0252227783203125,-1.0177001953125,0.0099639892578125
20551,0.0252227783203125,-1.0177001953125,0.0099639892578125
20552,0.0304718017578125,-1.013702392578125,0.0150604248046875
20553,0.0369720458984375,-1.016128540039062,0.022552490234375
20554,0.04437255859375,-1.010696411132812,0.0294189453125
20555,0.05340576171875,-0.9997100830078124,0.0294342041015625
20556,0.077117919921875,-0.9869537353515624,0.0240631103515625
20557,0.1056060791015625,-0.9842529296875,0.017181396484375
20558,0.1185760498046875,-0.9825286865234376,0.01910400390625
20559,0.124298095703125,-0.9785614013671876,0.01934814453125
20560,0.130035400390625,-0.975860595703125,0.025177001953125
20561,0.129180908203125,-0.97088623046875,0.0274505615234375
20562,0.1194305419921875,-0.9679412841796876,0.0261993408203125
20563,0.10491943359375,-0.9700927734375,0.028564453125
20564,0.0956268310546875,-0.9787445068359376,0.026824951171875
20565,0.094268798828125,-0.99395751953125,0.0251007080078125
20566,0.0975799560546875,-1.009307861328125,0.0279693603515625
20567,0.103912353515625,-1.023193359375,0.0295257568359375
20568,0.1107025146484375,-1.0263671875,0.0332489013671875
20569,0.1171875,-1.017929077148438,0.03338623046875
20570,0.12078857421875,-1.003448486328125,0.0327301025390625
20571,0.1269989013671875,-0.991180419921875,0.037506103515625
20572,0.1354217529296875,-0.98651123046875,0.0400238037109375
20573,0.1387786865234375,-0.985076904296875,0.0447235107421875
20574,0.1376800537109375,-0.980072021484375,0.048614501953125
20575,0.1268768310546875,-0.9769134521484376,0.05615234375
20576,0.114288330078125,-0.9798126220703124,0.0584564208984375
20577,0.100341796875,-0.9815826416015624,0.057830810546875
20578,0.0896453857421875,-0.98358154296875,0.0560760498046875
20579,0.0822296142578125,-0.985565185546875,0.04693603515625
20580,0.07513427734375,-0.98846435546875,0.038604736328125
20581,0.0664215087890625,-0.9943695068359376,0.0316314697265625
20582,0.05792236328125,-0.9991302490234376,0.0256805419921875
20583,0.048492431640625,-1.001998901367188,0.023345947265625
20584,0.0407257080078125,-1.00299072265625,0.027618408203125
20585,0.0317535400390625,-1.00201416015625,0.036346435546875
20586,0.022247314453125,-1.0037841796875,0.0444793701171875
20587,0.022247314453125,-1.0037841796875,0.0444793701171875
20588,0.0033111572265625,-1.014617919921875,0.047607421875
20589,0.0002593994140625,-1.027511596679688,0.05108642578125
20590,0.001678466796875,-1.019912719726562,0.051910400390625
20591,0.001739501953125,-1.042312622070312,0.0107574462890625
20592,-0.0013427734375,-1.040008544921875,0.0498199462890625
20593,0.0147247314453125,-1.038330078125,0.052093505859375
20594,0.035858154296875,-1.019210815429688,0.0562896728515625
20595,0.048553466796875,-1.001876831054688,0.035797119140625
20596,0.0594329833984375,-0.9932403564453124,0.0357666015625
20597,0.0689697265625,-0.9931793212890624,0.0554046630859375
20598,0.0757904052734375,-0.9871826171875,0.0484619140625
20599,0.07818603515625,-0.9855499267578124,0.0504302978515625
20600,0.0798187255859375,-0.98651123046875,0.0530548095703125
20601,0.0798187255859375,-0.98651123046875,0.0530548095703125
20602,0.084442138671875,-0.993896484375,0.040496826171875
20603,0.087188720703125,-0.9967803955078124,0.0305328369140625
20604,0.0874481201171875,-0.9936981201171876,0.0344696044921875
20605,0.0927886962890625,-0.9925079345703124,0.0321807861328125
20606,0.1007232666015625,-0.9922943115234376,0.02838134765625
20607,0.1067047119140625,-0.9973907470703124,0.027069091796875
20608,0.1103973388671875,-1.004409790039062,0.031097412109375
20609,0.1103973388671875,-1.004409790039062,0.031097412109375
20610,0.1118621826171875,-1.01947021484375,0.034423828125
20611,0.1111602783203125,-1.016876220703125,0.0387115478515625
20612,0.1107025146484375,-1.014129638671875,0.03759765625
20613,0.11187744140625,-1.010330200195312,0.03179931640625
20614,0.110382080078125,-1.006454467773438,0.0320587158203125
20615,0.1082000732421875,-1.006759643554688,0.03179931640625
20616,0.106536865234375,-1.004837036132812,0.0353546142578125
20617,0.1084136962890625,-0.99774169921875,0.04351806640625
20618,0.107452392578125,-0.990814208984375,0.0401458740234375
20619,0.1045074462890625,-0.9838409423828124,0.024505615234375
20620,0.096923828125,-0.984222412109375,0.0218353271484375
20621,0.0839996337890625,-0.9881744384765624,0.0377197265625
20622,0.0760040283203125,-0.9889068603515624,0.0416259765625
20623,0.07208251953125,-0.997711181640625,0.0293121337890625
20624,0.07379150390625,-1.009429931640625,0.03387451171875
20625,0.0694427490234375,-1.017532348632812,0.0412750244140625
20626,0.0672454833984375,-1.026596069335938,0.0237274169921875
20627,0.067962646484375,-1.024765014648438,0.0299835205078125
20628,0.068023681640625,-1.022735595703125,0.032806396484375
20629,0.068023681640625,-1.022735595703125,0.032806396484375
20630,0.0843505859375,-1.021026611328125,0.04083251953125
20631,0.0843505859375,-1.021026611328125,0.04083251953125
20632,0.0954437255859375,-1.0225830078125,0.047454833984375
20633,0.0992431640625,-1.021270751953125,0.0388031005859375
20634,0.0973358154296875,-1.01361083984375,0.041015625
20635,0.099334716796875,-1.007858276367188,0.0453643798828125
20636,0.1035308837890625,-1.001617431640625,0.0374755859375
20637,0.1060791015625,-1.001861572265625,0.0316162109375
20638,0.108428955078125,-1.002670288085938,0.034271240234375
20639,0.11053466796875,-1.002761840820312,0.0347442626953125
20640,0.11102294921875,-1.008468627929688,0.03692626953125
20641,0.1095733642578125,-1.012176513671875,0.0417022705078125
20642,0.1057281494140625,-1.009170532226562,0.047882080078125
20643,0.1030120849609375,-1.011688232421875,0.043975830078125
20644,0.0987091064453125,-1.010696411132812,0.046356201171875
20645,0.093597412109375,-1.013748168945312,0.044189453125
20646,0.07940673828125,-1.019058227539062,0.0416412353515625
20647,0.07940673828125,-1.019058227539062,0.0416412353515625
20648,0.0733642578125,-1.014480590820312,0.046905517578125
20649,0.0733642578125,-1.014480590820312,0.046905517578125
20650,0.0576171875,-1.008544921875,0.048492431640625
20651,0.0508880615234375,-1.007781982421875,0.049224853515625
20652,0.04638671875,-1.006362915039062,0.0457000732421875
20653,0.0397491455078125,-1.004409790039062,0.03900146484375
20654,0.0377197265625,-1.008102416992188,0.034942626953125
20655,0.037445068359375,-1.013534545898438,0.0338134765625
20656,0.034210205078125,-1.012710571289062,0.033721923828125
20657,0.0311126708984375,-1.007568359375,0.036163330078125
20658,0.027984619140625,-0.9999847412109376,0.0426025390625
20659,0.0263671875,-0.99505615234375,0.0447235107421875
20660,0.0189361572265625,-0.985931396484375,0.0449676513671875
20661,0.0155487060546875,-0.982879638671875,0.054779052734375
20662,0.0155487060546875,-0.982879638671875,0.054779052734375
20663,0.013427734375,-0.9797515869140624,0.0577239990234375
20664,0.0141143798828125,-0.9775390625,0.0527496337890625
20665,0.0190887451171875,-0.9759674072265624,0.0506591796875
20666,0.0264434814453125,-0.978179931640625,0.0547027587890625
20667,0.037445068359375,-0.9839324951171876,0.0604400634765625
20668,0.0439605712890625,-0.987457275390625,0.0636138916015625
20669,0.0487823486328125,-0.9922943115234376,0.068145751953125
20670,0.0518646240234375,-0.997100830078125,0.0694580078125
20671,0.05462646484375,-0.9990386962890624,0.065673828125
20672,0.054412841796875,-0.9958953857421876,0.06317138671875
20673,0.054412841796875,-0.9958953857421876,0.06317138671875
20674,0.0503387451171875,-0.993316650390625,0.061676025390625
20675,0.0478363037109375,-0.9943695068359376,0.06103515625
20676,0.047332763671875,-0.9981689453125,0.059722900390625
20677,0.046234130859375,-1.001617431640625,0.061553955078125
20678,0.04364013671875,-1.003509521484375,0.0651397705078125
20679,0.0411376953125,-1.003692626953125,0.0698089599609375
20680,0.0370635986328125,-1.000686645507812,0.072967529296875
20681,0.034027099609375,-0.9951324462890624,0.0739288330078125
20682,0.030303955078125,-0.9916534423828124,0.0711517333984375
20683,0.0307769775390625,-0.9901275634765624,0.066314697265625
20684,0.0335235595703125,-0.991058349609375,0.0625
20685,0.0335235595703125,-0.991058349609375,0.0625
20686,0.040069580078125,-0.9952239990234376,0.06170654296875
20687,0.042877197265625,-0.9956817626953124,0.0653839111328125
20688,0.043670654296875,-0.9962310791015624,0.0683746337890625
20689,0.0429229736328125,-0.996917724609375,0.0708770751953125
20690,0.0425262451171875,-0.998443603515625,0.0712432861328125
20691,0.0419464111328125,-0.9993438720703124,0.069580078125
20692,0.04095458984375,-0.9980010986328124,0.06915283203125
20693,0.04095458984375,-0.9980010986328124,0.06915283203125
20694,0.040863037109375,-0.99725341796875,0.0694732666015625
20695,0.0396728515625,-0.997283935546875,0.069580078125
20696,0.038848876953125,-0.99713134765625,0.070831298828125
20697,0.0370330810546875,-0.9968109130859376,0.071929931640625
20698,0.0352630615234375,-0.9988250732421876,0.0723724365234375
20699,0.0344390869140625,-1.003280639648438,0.0704803466796875
20700,0.0339202880859375,-1.00555419921875,0.0660552978515625
20701,0.0339202880859375,-1.00555419921875,0.0660552978515625
20702,0.035400390625,-1.008468627929688,0.0657806396484375
20703,0.035400390625,-1.009002685546875,0.0702972412109375
20704,0.0358428955078125,-1.00567626953125,0.0735321044921875
20705,0.0358428955078125,-1.00567626953125,0.0735321044921875
20706,0.035980224609375,-1.00213623046875,0.0745697021484375
20707,0.0364532470703125,-1.000030517578125,0.0739593505859375
20708,0.0345916748046875,-0.9965667724609376,0.071258544921875
20709,0.0356903076171875,-0.9930877685546876,0.0702972412109375
20710,0.0356903076171875,-0.9930877685546876,0.0702972412109375
20711,0.0356903076171875,-0.9930877685546876,0.0702972412109375
20712,0.0418853759765625,-0.9922637939453124,0.072540283203125
20713,0.0443878173828125,-0.994049072265625,0.0734405517578125
20714,0.045501708984375,-0.995086669921875,0.07342529296875
20715,0.045501708984375,-0.995086669921875,0.07342529296875
20716,0.048248291015625,-0.995697021484375,0.0693817138671875
20717,0.0488433837890625,-0.9966888427734376,0.0686492919921875
20718,0.048980712890625,-1.000701904296875,0.0712890625
20719,0.0484619140625,-1.001541137695312,0.070770263671875
20720,0.048583984375,-1.002487182617188,0.070953369140625
20721,0.049407958984375,-1.003616333007812,0.070556640625
20722,0.05010986328125,-1.006393432617188,0.07354736328125
20723,0.0494842529296875,-1.008743286132812,0.0758514404296875
20724,0.049468994140625,-1.009658813476562,0.0778350830078125
20725,0.049468994140625,-1.009658813476562,0.0778350830078125
20726,0.05023193359375,-1.010101318359375,0.0767974853515625
20727,0.0506591796875,-1.009796142578125,0.07489013671875
20728,0.0487060546875,-1.011383056640625,0.07220458984375
20729,0.0469970703125,-1.009017944335938,0.0691070556640625
20730,0.045166015625,-1.009246826171875,0.06793212890625
20731,0.044342041015625,-1.01043701171875,0.067779541015625
20732,0.044677734375,-1.011688232421875,0.072509765625
20733,0.0452423095703125,-1.012527465820312,0.0753631591796875
20734,0.0457763671875,-1.01324462890625,0.074249267578125
20735,0.0461273193359375,-1.0126953125,0.073577880859375
20736,0.0483245849609375,-1.008865356445312,0.0737152099609375
20737,0.0503692626953125,-1.005844116210938,0.071044921875
20738,0.0510406494140625,-1.002426147460938,0.0711669921875
20739,0.0498809814453125,-0.999603271484375,0.071044921875
20740,0.04931640625,-0.9980010986328124,0.0667724609375
20741,0.04888916015625,-0.9983367919921876,0.0607147216796875
20742,0.0478363037109375,-1.000778198242188,0.05560302734375
20743,0.0477447509765625,-1.002288818359375,0.055389404296875
20744,0.049041748046875,-1.003311157226562,0.05755615234375
20745,0.049041748046875,-1.003311157226562,0.05755615234375
20746,0.050872802734375,-1.00445556640625,0.0586700439453125
20747,0.0523834228515625,-1.004074096679688,0.05926513671875
20748,0.0533447265625,-0.9991912841796876,0.0601806640625
20749,0.0535888671875,-0.998077392578125,0.063446044921875
20750,0.05438232421875,-0.997711181640625,0.065521240234375
20751,0.05438232421875,-0.997711181640625,0.065521240234375
20752,0.05401611328125,-1.000106811523438,0.061553955078125
20753,0.05401611328125,-1.000106811523438,0.061553955078125
20754,0.0540008544921875,-1.001022338867188,0.0626373291015625
20755,0.052764892578125,-1.00189208984375,0.06488037109375
20756,0.0472564697265625,-0.9954986572265624,0.0656585693359375
20757,0.0472564697265625,-0.9954986572265624,0.0656585693359375
20758,0.0416259765625,-0.992706298828125,0.069854736328125
20759,0.04052734375,-0.9882965087890624,0.07061767578125
20760,0.041534423828125,-0.985748291015625,0.0663909912109375
20761,0.041534423828125,-0.985748291015625,0.0663909912109375
20762,0.04376220703125,-0.9992828369140624,0.03265380859375
20763,0.0451202392578125,-1.007781982421875,0.0320587158203125
20764,0.0469512939453125,-1.012649536132812,0.03424072265625
20765,0.0469512939453125,-1.012649536132812,0.03424072265625
20766,0.048309326171875,-1.0146484375,0.0588531494140625
20767,0.050567626953125,-1.009185791015625,0.0689239501953125
20768,0.053192138671875,-1.003936767578125,0.070098876953125
20769,0.0578460693359375,-0.997802734375,0.060455322265625
20770,0.0618743896484375,-0.9926300048828124,0.0554656982421875
20771,0.068603515625,-0.989593505859375,0.0543365478515625
20772,0.074737548828125,-0.9893035888671876,0.0538330078125
20773,0.070953369140625,-0.989715576171875,0.06268310546875
20774,0.077667236328125,-0.9920196533203124,0.064239501953125
20775,0.0844879150390625,-0.9895782470703124,0.0599517822265625
20776,0.0910186767578125,-0.9905853271484376,0.0561676025390625
20777,0.0941009521484375,-0.9917144775390624,0.0523529052734375
20778,0.096527099609375,-0.9907684326171876,0.0450439453125
20779,0.0965728759765625,-0.989501953125,0.041107177734375
20780,0.0967254638671875,-0.9922332763671876,0.0409088134765625
20781,0.0956268310546875,-0.9987030029296876,0.0381622314453125
20782,0.0881805419921875,-1.002899169921875,0.0368499755859375
20783,0.0850677490234375,-1.004776000976562,0.0403594970703125
20784,0.07958984375,-1.009048461914062,0.0377197265625
20785,0.083648681640625,-1.010223388671875,0.036041259765625
20786,0.0918731689453125,-1.009109497070312,0.033843994140625
20787,0.0936279296875,-1.01226806640625,0.0338287353515625
20788,0.1009674072265625,-1.011734008789062,0.0365142822265625
20789,0.1013946533203125,-1.006454467773438,0.0412750244140625
20790,0.10693359375,-1.007110595703125,0.042724609375
20791,0.1095428466796875,-1.007369995117188,0.037384033203125
20792,0.107208251953125,-1.005142211914062,0.02978515625
20793,0.107208251953125,-1.005142211914062,0.02978515625
20794,0.1058349609375,-0.9918060302734376,0.0230560302734375
20795,0.0912322998046875,-0.9779815673828124,0.0138092041015625
20796,0.0799560546875,-0.9758453369140624,0.0128631591796875
20797,0.0740814208984375,-0.977508544921875,0.015777587890625
20798,0.06610107421875,-0.985687255859375,0.0139312744140625
20799,0.0622711181640625,-0.99725341796875,0.0189971923828125
20800,0.0583343505859375,-0.9995880126953124,0.0327301025390625
20801,0.0510711669921875,-1.000167846679688,0.0424346923828125
20802,0.0510711669921875,-1.000167846679688,0.0424346923828125
20803,0.050323486328125,-0.9930877685546876,0.0501708984375
20804,0.0402374267578125,-0.9918975830078124,0.0547027587890625
20805,0.0316925048828125,-0.9977569580078124,0.055633544921875
20806,0.016510009765625,-1.008041381835938,0.042083740234375
20807,0.016510009765625,-1.008041381835938,0.042083740234375
20808,-0.0044403076171875,-1.015396118164062,0.0107574462890625
20809,-0.030029296875,-1.02960205078125,0.002899169921875
20810,-0.0537567138671875,-1.032913208007812,0.0110015869140625
20811,-0.0537567138671875,-1.032913208007812,0.0110015869140625
20812,-0.0924072265625,-1.056915283203125,0.0260009765625
20813,-0.0999603271484375,-1.065750122070312,0.035888671875
20814,-0.0999603271484375,-1.065750122070312,0.035888671875
20815,-0.094818115234375,-1.060516357421875,0.0489654541015625
20816,-0.0476837158203125,-1.027984619140625,0.0520782470703125
20817,-0.0055694580078125,-0.998931884765625,0.06109619140625
20818,0.0137939453125,-0.985443115234375,0.0658111572265625
20819,0.0193939208984375,-0.982147216796875,0.0577545166015625
20820,0.023956298828125,-0.982818603515625,0.0572509765625
20821,0.03033447265625,-0.9849700927734376,0.0567169189453125
20822,0.034759521484375,-0.9882659912109376,0.05181884765625
20823,0.03729248046875,-0.9921875,0.0456085205078125
20824,0.036712646484375,-0.9951171875,0.031768798828125
20825,0.036712646484375,-0.9951171875,0.031768798828125
20826,0.0371246337890625,-1.003890991210938,0.024993896484375
20827,0.0379638671875,-1.00555419921875,0.030426025390625
20828,0.03955078125,-1.005752563476562,0.0366058349609375
20829,0.03955078125,-1.005752563476562,0.0366058349609375
20830,0.0483856201171875,-0.999267578125,0.0360107421875
20831,0.053985595703125,-0.9975738525390624,0.02813720703125
20832,0.059600830078125,-0.994476318359375,0.0173492431640625
20833,0.0597381591796875,-0.9906158447265624,0.006744384765625
20834,0.0575714111328125,-0.988433837890625,0.000518798828125
20835,0.05078125,-0.9875030517578124,-6.103515625e-05
20836,0.0436248779296875,-0.995697021484375,-0.00140380859375
20837,0.038238525390625,-1.008453369140625,-0.0080108642578125
20838,0.032958984375,-1.024871826171875,-0.0156402587890625
20839,0.0294189453125,-1.03369140625,-0.019073486328125
20840,0.0269927978515625,-1.035751342773438,-0.016265869140625
20841,0.02386474609375,-1.035232543945312,-0.0135040283203125
20842,0.018218994140625,-1.035995483398438,-0.0076141357421875
20843,0.018218994140625,-1.035995483398438,-0.0076141357421875
20844,0.0050811767578125,-1.031845092773438,-0.0138702392578125
20845,0.0005950927734375,-1.025970458984375,-0.021942138671875
20846,0.0015869140625,-1.018936157226562,-0.027374267578125
20847,0.004180908203125,-1.011932373046875,-0.02996826171875
20848,0.01116943359375,-1.00518798828125,-0.029144287109375
20849,0.01116943359375,-1.00518798828125,-0.029144287109375
20850,0.0256805419921875,-0.993133544921875,-0.0249176025390625
20851,0.0336456298828125,-0.984832763671875,-0.0258636474609375
20852,0.0367431640625,-0.9789581298828124,-0.0336761474609375
20853,0.034515380859375,-0.974822998046875,-0.03497314453125
20854,0.0240936279296875,-0.97100830078125,-0.0369720458984375
20855,0.0079498291015625,-0.96630859375,-0.0364532470703125
20856,-0.0052947998046875,-0.9593048095703124,-0.03741455078125
20857,-0.0163421630859375,-0.9549407958984376,-0.04315185546875
20858,-0.02276611328125,-0.9632110595703124,-0.0539703369140625
20859,-0.02276611328125,-0.9632110595703124,-0.0539703369140625
20860,-0.028961181640625,-0.973968505859375,-0.063385009765625
20861,-0.035491943359375,-0.980621337890625,-0.06317138671875
20862,-0.0400543212890625,-0.9861907958984376,-0.0527496337890625
20863,-0.04998779296875,-1.00836181640625,-0.0355377197265625
20864,-0.056243896484375,-1.015106201171875,-0.039337158203125
20865,-0.056243896484375,-1.015106201171875,-0.039337158203125
20866,-0.051513671875,-1.005477905273438,-0.0439300537109375
20867,-0.04449462890625,-1.003524780273438,-0.060211181640625
20868,-0.0462646484375,-1.010574340820312,-0.065826416015625
20869,-0.0535430908203125,-1.0185546875,-0.0679779052734375
20870,-0.056854248046875,-1.016143798828125,-0.0600433349609375
20871,-0.05938720703125,-1.014144897460938,-0.052642822265625
20872,-0.0635528564453125,-1.015274047851562,-0.0519561767578125
20873,-0.0635528564453125,-1.015274047851562,-0.0519561767578125
20874,-0.0646820068359375,-1.012466430664062,-0.05267333984375
20875,-0.060211181640625,-1.002548217773438,-0.0577392578125
20876,-0.05682373046875,-0.997528076171875,-0.064300537109375
20877,-0.052978515625,-0.99395751953125,-0.0703125
20878,-0.0503082275390625,-0.99566650390625,-0.076873779296875
20879,-0.0511627197265625,-1.000991821289062,-0.0802154541015625
20880,-0.0529022216796875,-1.004440307617188,-0.08111572265625
20881,-0.0529022216796875,-1.004440307617188,-0.08111572265625
20882,-0.0546112060546875,-1.002639770507812,-0.079559326171875
20883,-0.0567626953125,-1.002105712890625,-0.0787811279296875
20884,-0.0565338134765625,-0.9989776611328124,-0.079864501953125
20885,-0.0565338134765625,-0.9989776611328124,-0.079864501953125
20886,-0.05950927734375,-0.998291015625,-0.0851593017578125
20887,-0.0688018798828125,-1.005828857421875,-0.091766357421875
20888,-0.0919036865234375,-1.022308349609375,-0.1013641357421875
20889,-0.0919036865234375,-1.022308349609375,-0.1013641357421875
20890,-0.11798095703125,-1.023513793945312,-0.11138916015625
20891,-0.1271209716796875,-1.009414672851562,-0.1195068359375
20892,-0.132232666015625,-0.9950103759765624,-0.117431640625
20893,-0.132232666015625,-0.9950103759765624,-0.117431640625
20894,-0.1338653564453125,-0.9903717041015624,-0.1276397705078125
20895,-0.1399688720703125,-0.9914398193359376,-0.1294708251953125
20896,-0.1373748779296875,-0.9871673583984376,-0.1366729736328125
20897,-0.1373748779296875,-0.9871673583984376,-0.1366729736328125
20898,-0.1164093017578125,-0.97235107421875,-0.122314453125
20899,-0.10235595703125,-0.9814910888671876,-0.114898681640625
20900,-0.0844879150390625,-0.990966796875,-0.101806640625
20901,-0.0684967041015625,-1.00238037109375,-0.0889434814453125
20902,-0.0684967041015625,-1.00238037109375,-0.0889434814453125
20903,-0.0529022216796875,-1.024673461914062,-0.087005615234375
20904,-0.0543670654296875,-1.026718139648438,-0.099761962890625
20905,-0.0543670654296875,-1.026718139648438,-0.099761962890625
20906,-0.06585693359375,-1.019790649414062,-0.109832763671875
20907,-0.0733795166015625,-1.008590698242188,-0.108001708984375
20908,-0.078033447265625,-0.9984130859375,-0.1013946533203125
20909,-0.0784759521484375,-0.9946441650390624,-0.0973968505859375
20910,-0.0784759521484375,-0.9946441650390624,-0.0973968505859375
20911,-0.08251953125,-0.9976806640625,-0.0966339111328125
20912,-0.0889434814453125,-0.9986419677734376,-0.09954833984375
20913,-0.0889434814453125,-0.9986419677734376,-0.09954833984375
20914,-0.110626220703125,-0.9945526123046876,-0.091217041015625
20915,-0.1190643310546875,-0.9837646484375,-0.089874267578125
20916,-0.1236724853515625,-0.977691650390625,-0.09075927734375
20917,-0.1236724853515625,-0.977691650390625,-0.09075927734375
20918,-0.1260223388671875,-0.972076416015625,-0.094940185546875
20919,-0.1239471435546875,-0.971038818359375,-0.108367919921875
20920,-0.1204071044921875,-0.978424072265625,-0.1128082275390625
20921,-0.1204071044921875,-0.978424072265625,-0.1128082275390625
20922,-0.1164398193359375,-0.98443603515625,-0.119537353515625
20923,-0.11285400390625,-0.9969024658203124,-0.1153564453125
20924,-0.11590576171875,-1.005615234375,-0.119598388671875
20925,-0.11590576171875,-1.005615234375,-0.119598388671875
20926,-0.12548828125,-1.020614624023438,-0.1282958984375
20927,-0.132965087890625,-1.022445678710938,-0.12786865234375
20928,-0.1400299072265625,-1.021316528320312,-0.1308746337890625
20929,-0.1400299072265625,-1.021316528320312,-0.1308746337890625
20930,-0.14422607421875,-1.016952514648438,-0.139007568359375
20931,-0.1427459716796875,-0.9987030029296876,-0.1468048095703125
20932,-0.1370849609375,-0.990325927734375,-0.149932861328125
20933,-0.1370849609375,-0.990325927734375,-0.149932861328125
20934,-0.1316680908203125,-0.9900665283203124,-0.14300537109375
20935,-0.1290283203125,-0.98663330078125,-0.1335906982421875
20936,-0.1283721923828125,-0.9854278564453124,-0.133148193359375
20937,-0.1283721923828125,-0.9854278564453124,-0.133148193359375
20938,-0.1290740966796875,-0.984588623046875,-0.13629150390625
20939,-0.1325225830078125,-0.983184814453125,-0.1428985595703125
20940,-0.1344451904296875,-0.9835662841796876,-0.1424407958984375
20941,-0.1344451904296875,-0.9835662841796876,-0.1424407958984375
20942,-0.136871337890625,-0.983673095703125,-0.141754150390625
20943,-0.143157958984375,-0.987274169921875,-0.1435546875
20944,-0.143585205078125,-0.9890594482421876,-0.1431121826171875
20945,-0.143585205078125,-0.9890594482421876,-0.1431121826171875
20946,-0.144866943359375,-0.990814208984375,-0.1407012939453125
20947,-0.1460723876953125,-0.9891815185546876,-0.1349639892578125
20948,-0.147125244140625,-0.9821014404296876,-0.127899169921875
20949,-0.147125244140625,-0.9821014404296876,-0.127899169921875
20950,-0.140167236328125,-0.9788970947265624,-0.1376495361328125
20951,-0.1349334716796875,-0.9754180908203124,-0.1420440673828125
20952,-0.1317138671875,-0.973175048828125,-0.14263916015625
20953,-0.1317138671875,-0.973175048828125,-0.14263916015625
20954,-0.1317596435546875,-0.97076416015625,-0.14337158203125
20955,-0.1378021240234375,-0.9716339111328124,-0.15032958984375
20956,-0.144317626953125,-0.976837158203125,-0.1507568359375
20957,-0.144317626953125,-0.976837158203125,-0.1507568359375
20958,-0.155731201171875,-0.9971771240234376,-0.144927978515625
20959,-0.1609954833984375,-1.005752563476562,-0.1336517333984375
20960,-0.1513671875,-0.9972381591796876,-0.128936767578125
20961,-0.1513671875,-0.9972381591796876,-0.128936767578125
20962,-0.138702392578125,-0.987091064453125,-0.12677001953125
20963,-0.1350860595703125,-0.9846649169921876,-0.1447296142578125
20964,-0.1323089599609375,-0.9843597412109376,-0.1502838134765625
20965,-0.1323089599609375,-0.9843597412109376,-0.1502838134765625
20966,-0.131805419921875,-0.985687255859375,-0.1455535888671875
20967,-0.1312408447265625,-0.98883056640625,-0.123809814453125
20968,-0.1313934326171875,-0.988922119140625,-0.1189117431640625
20969,-0.1313934326171875,-0.988922119140625,-0.1189117431640625
20970,-0.1307373046875,-0.9892425537109376,-0.11810302734375
20971,-0.1282958984375,-0.9874420166015624,-0.1241607666015625
20972,-0.1274871826171875,-0.985626220703125,-0.1281280517578125
20973,-0.1274871826171875,-0.985626220703125,-0.1281280517578125
20974,-0.1279296875,-0.985931396484375,-0.1298370361328125
20975,-0.128387451171875,-0.9870147705078124,-0.1313018798828125
20976,-0.1326904296875,-0.9905242919921876,-0.129180908203125
20977,-0.1326904296875,-0.9905242919921876,-0.129180908203125
20978,-0.1324615478515625,-0.9904327392578124,-0.12957763671875
20979,-0.131500244140625,-0.985748291015625,-0.1291046142578125
20980,-0.1310882568359375,-0.98516845703125,-0.1287994384765625
20981,-0.1310882568359375,-0.98516845703125,-0.1287994384765625
20982,-0.1304473876953125,-0.9835357666015624,-0.133453369140625
20983,-0.13250732421875,-0.9817047119140624,-0.1358795166015625
20984,-0.13323974609375,-0.98126220703125,-0.1327362060546875
20985,-0.13323974609375,-0.98126220703125,-0.1327362060546875
20986,-0.1280364990234375,-0.9831085205078124,-0.1306610107421875
20987,-0.124603271484375,-0.985321044921875,-0.1282958984375
20988,-0.1227264404296875,-0.98883056640625,-0.127288818359375
20989,-0.1227264404296875,-0.98883056640625,-0.127288818359375
20990,-0.121185302734375,-0.992279052734375,-0.126007080078125
20991,-0.1149139404296875,-0.999847412109375,-0.1303558349609375
20992,-0.110595703125,-0.9993438720703124,-0.13177490234375
20993,-0.110595703125,-0.9993438720703124,-0.13177490234375
20994,-0.1118621826171875,-0.99346923828125,-0.1320343017578125
20995,-0.1146392822265625,-0.9921722412109376,-0.134124755859375
20996,-0.1160736083984375,-0.987823486328125,-0.1364288330078125
20997,-0.1160736083984375,-0.987823486328125,-0.1364288330078125
20998,-0.11651611328125,-0.982421875,-0.1397705078125
20999,-0.1211090087890625,-0.975738525390625,-0.146697998046875
21000,-0.121917724609375,-0.9768829345703124,-0.1493072509765625
21001,-0.123046875,-0.9807281494140624,-0.1491851806640625
21002,-0.123046875,-0.9807281494140624,-0.1491851806640625
21003,-0.1231842041015625,-0.9888153076171876,-0.1448974609375
21004,-0.121551513671875,-0.9922943115234376,-0.1383056640625
21005,-0.121551513671875,-0.9922943115234376,-0.1383056640625
21006,-0.1208343505859375,-0.992919921875,-0.1315460205078125
21007,-0.1153564453125,-0.993377685546875,-0.1230010986328125
21008,-0.1146392822265625,-0.994232177734375,-0.122039794921875
21009,-0.115203857421875,-0.9928741455078124,-0.12469482421875
21010,-0.115203857421875,-0.9928741455078124,-0.12469482421875
21011,-0.11895751953125,-0.987823486328125,-0.128448486328125
21012,-0.118408203125,-0.9849395751953124,-0.1288604736328125
21013,-0.118408203125,-0.9849395751953124,-0.1288604736328125
21014,-0.122039794921875,-0.982635498046875,-0.122161865234375
21015,-0.119873046875,-0.98443603515625,-0.12420654296875
21016,-0.11529541015625,-0.9865875244140624,-0.1285247802734375
21017,-0.11529541015625,-0.9865875244140624,-0.1285247802734375
21018,-0.11431884765625,-0.9877166748046876,-0.1324615478515625
21019,-0.1109466552734375,-0.9881134033203124,-0.1384735107421875
21020,-0.1093292236328125,-0.9892120361328124,-0.1427459716796875
21021,-0.1093292236328125,-0.9892120361328124,-0.1427459716796875
21022,-0.1083221435546875,-0.98785400390625,-0.1444091796875
21023,-0.10504150390625,-0.98638916015625,-0.1387176513671875
21024,-0.10162353515625,-0.98797607421875,-0.1363067626953125
21025,-0.10162353515625,-0.98797607421875,-0.1363067626953125
21026,-0.0996856689453125,-0.9891815185546876,-0.134429931640625
21027,-0.0963592529296875,-0.9891510009765624,-0.1282196044921875
21028,-0.092864990234375,-0.9906463623046876,-0.1284637451171875
21029,-0.0891265869140625,-0.990814208984375,-0.1295013427734375
21030,-0.0891265869140625,-0.990814208984375,-0.1295013427734375
21031,-0.084381103515625,-0.9928436279296876,-0.128143310546875
21032,-0.0818023681640625,-0.9927825927734376,-0.128326416015625
21033,-0.0818023681640625,-0.9927825927734376,-0.128326416015625
21034,-0.081787109375,-0.993560791015625,-0.129302978515625
21035,-0.087860107421875,-0.9959716796875,-0.1314697265625
21036,-0.0909271240234375,-0.9979095458984376,-0.1316070556640625
21037,-0.0909271240234375,-0.9979095458984376,-0.1316070556640625
21038,-0.094879150390625,-1.003631591796875,-0.134796142578125
21039,-0.096038818359375,-1.005126953125,-0.13128662109375
21040,-0.09588623046875,-1.005203247070312,-0.123016357421875
21041,-0.09588623046875,-1.005203247070312,-0.123016357421875
21042,-0.08917236328125,-1.00421142578125,-0.1213836669921875
21043,-0.0872039794921875,-1.000030517578125,-0.1237335205078125
21044,-0.0874481201171875,-0.9979705810546876,-0.124847412109375
21045,-0.0874481201171875,-0.9979705810546876,-0.124847412109375
21046,-0.0868072509765625,-0.9987335205078124,-0.1199951171875
21047,-0.082427978515625,-1.003982543945312,-0.1234283447265625
21048,-0.0766448974609375,-1.00567626953125,-0.1253204345703125
21049,-0.071990966796875,-1.006912231445312,-0.1221160888671875
21050,-0.0667877197265625,-1.007049560546875,-0.1218109130859375
21051,-0.062347412109375,-1.005325317382812,-0.1217193603515625
21052,-0.0587921142578125,-1.001632690429688,-0.1138458251953125
21053,-0.0587921142578125,-1.001632690429688,-0.1138458251953125
21054,-0.05902099609375,-0.99609375,-0.1056060791015625
21055,-0.0679779052734375,-0.9877777099609376,-0.0987091064453125
21056,-0.069976806640625,-0.9823455810546876,-0.1063079833984375
21057,-0.069976806640625,-0.9823455810546876,-0.1063079833984375
21058,-0.0740203857421875,-0.9750518798828124,-0.1115875244140625
21059,-0.0742034912109375,-0.9695281982421876,-0.126251220703125
21060,-0.0737152099609375,-0.9718170166015624,-0.1218109130859375
21061,-0.0737152099609375,-0.9718170166015624,-0.1218109130859375
21062,-0.066162109375,-0.9805450439453124,-0.1009979248046875
21063,-0.059234619140625,-0.9891357421875,-0.0881195068359375
21064,-0.053131103515625,-0.9966583251953124,-0.0800933837890625
21065,-0.053131103515625,-0.9966583251953124,-0.0800933837890625
21066,-0.04144287109375,-1.011947631835938,-0.0724639892578125
21067,-0.0371856689453125,-1.018173217773438,-0.0757904052734375
21068,-0.030792236328125,-1.021270751953125,-0.082061767578125
21069,-0.030792236328125,-1.021270751953125,-0.082061767578125
21070,-0.0250396728515625,-1.02301025390625,-0.0798492431640625
21071,-0.0142822265625,-1.009780883789062,-0.0746917724609375
21072,-0.0114288330078125,-1.001541137695312,-0.0726470947265625
21073,-0.011932373046875,-0.9972076416015624,-0.0762481689453125
21074,-0.011932373046875,-0.9972076416015624,-0.0762481689453125
21075,-0.026336669921875,-1.002456665039062,-0.088623046875
21076,-0.0380401611328125,-1.003005981445312,-0.08221435546875
21077,-0.0380401611328125,-1.003005981445312,-0.08221435546875
21078,-0.045684814453125,-1.002838134765625,-0.0859375
21079,-0.056732177734375,-1.000030517578125,-0.0949859619140625
21080,-0.061767578125,-0.9994964599609376,-0.0989227294921875
21081,-0.061767578125,-0.9994964599609376,-0.0989227294921875
21082,-0.0652923583984375,-0.998779296875,-0.1077423095703125
21083,-0.0740509033203125,-0.9935455322265624,-0.124114990234375
21084,-0.0844573974609375,-0.9951324462890624,-0.124908447265625
21085,-0.0972442626953125,-0.9979095458984376,-0.1265411376953125
21086,-0.0972442626953125,-0.9979095458984376,-0.1265411376953125
21087,-0.1186676025390625,-0.998779296875,-0.1310577392578125
21088,-0.1297454833984375,-1.000045776367188,-0.125946044921875
21089,-0.1297454833984375,-1.000045776367188,-0.125946044921875
21090,-0.13787841796875,-0.997467041015625,-0.124267578125
21091,-0.1536407470703125,-0.9803924560546876,-0.1221160888671875
21092,-0.1572723388671875,-0.9654693603515624,-0.123260498046875
21093,-0.156646728515625,-0.9521942138671876,-0.130462646484375
21094,-0.156646728515625,-0.9521942138671876,-0.130462646484375
21095,-0.143402099609375,-0.9361572265625,-0.1251678466796875
21096,-0.132598876953125,-0.93756103515625,-0.1217498779296875
21097,-0.132598876953125,-0.93756103515625,-0.1217498779296875
21098,-0.118499755859375,-0.945526123046875,-0.114593505859375
21099,-0.093292236328125,-0.975555419921875,-0.10577392578125
21100,-0.0853271484375,-0.995758056640625,-0.101837158203125
21101,-0.0773773193359375,-1.014114379882812,-0.105010986328125
21102,-0.0773773193359375,-1.014114379882812,-0.105010986328125
21103,-0.061614990234375,-1.044921875,-0.1301116943359375
21104,-0.0596771240234375,-1.055145263671875,-0.1385498046875
21105,-0.0579986572265625,-1.055877685546875,-0.131744384765625
21106,-0.0579986572265625,-1.055877685546875,-0.131744384765625
21107,-0.0596923828125,-1.050460815429688,-0.1166534423828125
21108,-0.0715484619140625,-1.019149780273438,-0.0770721435546875
21109,-0.0817108154296875,-1.005645751953125,-0.0897979736328125
21110,-0.0817108154296875,-1.005645751953125,-0.0897979736328125
21111,-0.087554931640625,-0.9948272705078124,-0.11077880859375
21112,-0.09539794921875,-0.98486328125,-0.1245574951171875
21113,-0.09539794921875,-0.98486328125,-0.1245574951171875
21114,-0.09979248046875,-0.9739227294921876,-0.1333465576171875
21115,-0.1029052734375,-0.9678802490234376,-0.133148193359375
21116,-0.100006103515625,-0.968963623046875,-0.139678955078125
21117,-0.100006103515625,-0.968963623046875,-0.139678955078125
21118,-0.0882720947265625,-0.9822998046875,-0.1412506103515625
21119,-0.0804443359375,-0.9889373779296876,-0.137481689453125
21120,-0.0689544677734375,-0.994659423828125,-0.131988525390625
21121,-0.0689544677734375,-0.994659423828125,-0.131988525390625
21122,-0.05902099609375,-0.99560546875,-0.1303558349609375
21123,-0.04364013671875,-0.98883056640625,-0.1172637939453125
21124,-0.0403594970703125,-0.9891510009765624,-0.1090240478515625
21125,-0.0307769775390625,-0.98736572265625,-0.1003570556640625
21126,-0.0307769775390625,-0.98736572265625,-0.1003570556640625
21127,0.024444580078125,-0.89459228515625,-0.4461212158203125
21128,0.3081207275390625,-0.4737091064453125,-1.394989013671875
21129,0.3081207275390625,-0.4737091064453125,-1.394989013671875
21130,-0.2698974609375,-1.639389038085938,2.662078857421875
21131,-0.105712890625,-0.859649658203125,-0.834320068359375
21132,-0.0937347412109375,-0.9144439697265624,-0.306488037109375
21133,-0.0937347412109375,-0.9144439697265624,-0.306488037109375
21134,-0.0092010498046875,-1.018051147460938,-0.0932464599609375
21135,-0.010589599609375,-1.004653930664062,-0.1481475830078125
21136,-0.0014190673828125,-1.00146484375,-0.131805419921875
21137,-0.0014190673828125,-1.00146484375,-0.131805419921875
21138,0.0176849365234375,-1.018234252929688,-0.1388092041015625
21139,0.036224365234375,-1.02197265625,-0.1190643310546875
21140,0.032470703125,-1.025802612304688,-0.108978271484375
21141,0.032470703125,-1.025802612304688,-0.108978271484375
21142,0.0321807861328125,-1.027603149414062,-0.117889404296875
21143,0.030548095703125,-1.0244140625,-0.1540374755859375
21144,0.0326690673828125,-1.019729614257812,-0.1620635986328125
21145,0.0298614501953125,-1.010269165039062,-0.17681884765625
21146,0.0298614501953125,-1.010269165039062,-0.17681884765625
21147,0.0450286865234375,-1.0076904296875,-0.2299346923828125
21148,0.028106689453125,-0.9961700439453124,-0.1176605224609375
21149,0.028106689453125,-0.9961700439453124,-0.1176605224609375
21150,-0.0184173583984375,-0.998687744140625,-0.1339263916015625
21151,0.0091705322265625,-1.00921630859375,-0.118499755859375
21152,0.0498199462890625,-1.019546508789062,-0.20928955078125
21153,0.020904541015625,-0.99932861328125,-0.181732177734375
21154,0.0078887939453125,-0.97967529296875,-0.1871795654296875
21155,0.0060272216796875,-0.975372314453125,-0.2216339111328125
21156,0.01641845703125,-0.9732818603515624,-0.1828155517578125
21157,0.003448486328125,-0.970062255859375,-0.1726837158203125
21158,0.003448486328125,-0.970062255859375,-0.1726837158203125
21159,-0.024627685546875,-0.95733642578125,-0.1508941650390625
21160,-0.0132598876953125,-0.9580841064453124,-0.15936279296875
21161,0.00457763671875,-0.96307373046875,-0.1953582763671875
21162,0.00457763671875,-0.96307373046875,-0.1953582763671875
21163,0.0240936279296875,-0.96612548828125,-0.194915771484375
21164,0.012664794921875,-0.9672088623046876,-0.1842498779296875
21165,0.000152587890625,-0.9635467529296876,-0.1786041259765625
21166,-0.007171630859375,-0.964508056640625,-0.1861572265625
21167,-0.010894775390625,-0.97186279296875,-0.1855316162109375
21168,-0.0042266845703125,-0.97833251953125,-0.1865692138671875
21169,-0.0042266845703125,-0.97833251953125,-0.1865692138671875
21170,0.014068603515625,-0.9833526611328124,-0.19256591796875
21171,0.040496826171875,-0.985443115234375,-0.185089111328125
21172,0.0469512939453125,-0.980926513671875,-0.1838836669921875
21173,0.0469512939453125,-0.980926513671875,-0.1838836669921875
21174,0.0473480224609375,-0.9827728271484376,-0.169281005859375
21175,0.04766845703125,-0.985382080078125,-0.1757659912109375
21176,0.0452728271484375,-0.988372802734375,-0.179656982421875
21177,0.0452728271484375,-0.988372802734375,-0.179656982421875
21178,0.04107666015625,-0.994781494140625,-0.1667633056640625
21179,0.0419921875,-0.9916534423828124,-0.1710205078125
21180,0.04119873046875,-0.9862518310546876,-0.171905517578125
21181,0.04119873046875,-0.9862518310546876,-0.171905517578125
21182,0.0407867431640625,-0.980712890625,-0.1672210693359375
21183,0.031341552734375,-0.9791259765625,-0.161895751953125
21184,0.027130126953125,-0.9777984619140624,-0.1657867431640625
21185,0.027130126953125,-0.9777984619140624,-0.1657867431640625
21186,0.0279693603515625,-0.9747314453125,-0.1588592529296875
21187,0.0254974365234375,-0.982757568359375,-0.152008056640625
21188,0.022308349609375,-0.9923095703125,-0.1354522705078125
21189,0.022308349609375,-0.9923095703125,-0.1354522705078125
21190,0.0351409912109375,-0.9929351806640624,-0.140594482421875
21191,-0.0252532958984375,-1.051742553710938,-0.059600830078125
21192,-0.03570556640625,-1.0382080078125,-0.057952880859375
21193,-0.0287322998046875,-1.02947998046875,-0.1621856689453125
21194,-0.0287322998046875,-1.02947998046875,-0.1621856689453125
21195,-0.0301666259765625,-1.023574829101562,-0.12744140625
21196,-0.0345611572265625,-1.01812744140625,-0.1269378662109375
21197,-0.0345611572265625,-1.01812744140625,-0.1269378662109375
21198,-0.0297393798828125,-1.012344360351562,-0.1179656982421875
21199,-0.009307861328125,-1.009796142578125,-0.083984375
21200,0.0099334716796875,-1.012359619140625,-0.0832366943359375
21201,0.0099334716796875,-1.012359619140625,-0.0832366943359375
21202,0.0445556640625,-1.011734008789062,-0.0746917724609375
21203,0.0485992431640625,-1.009841918945312,-0.08428955078125
21204,0.0567169189453125,-1.009994506835938,-0.0931549072265625
21205,0.0567169189453125,-1.009994506835938,-0.0931549072265625
21206,0.0701446533203125,-1.0032958984375,-0.102325439453125
21207,0.0729827880859375,-0.9969940185546876,-0.1123046875
21208,0.0805206298828125,-0.994171142578125,-0.1214141845703125
21209,0.0805206298828125,-0.994171142578125,-0.1214141845703125
21210,0.0990753173828125,-0.98834228515625,-0.1483001708984375
21211,0.11669921875,-0.983062744140625,-0.1634368896484375
21212,0.134185791015625,-0.9770050048828124,-0.1730194091796875
21213,0.134185791015625,-0.9770050048828124,-0.1730194091796875
21214,0.1700592041015625,-0.954864501953125,-0.1916961669921875
21215,0.19171142578125,-0.9410400390625,-0.1879425048828125
21216,0.2031707763671875,-0.9361114501953124,-0.178955078125
21217,0.2031707763671875,-0.9361114501953124,-0.178955078125
21218,0.20880126953125,-0.9570159912109376,-0.161102294921875
21219,0.2101898193359375,-0.973907470703125,-0.162872314453125
21220,0.201446533203125,-0.9851531982421876,-0.1589813232421875
21221,0.201446533203125,-0.9851531982421876,-0.1589813232421875
21222,0.1528778076171875,-0.9914398193359376,-0.086090087890625
21223,0.1162109375,-1.002792358398438,-0.0419921875
21224,0.090972900390625,-1.016525268554688,-0.0055694580078125
21225,0.07550048828125,-1.035125732421875,0.012908935546875
21226,0.07550048828125,-1.035125732421875,0.012908935546875
21227,0.0564727783203125,-1.07305908203125,-0.017822265625
21228,0.0530853271484375,-1.07958984375,-0.0446319580078125
21229,0.045501708984375,-1.078521728515625,-0.066619873046875
21230,0.038177490234375,-1.068710327148438,-0.058685302734375
21231,0.033233642578125,-1.060638427734375,-0.0721435546875
21232,0.0289764404296875,-1.052627563476562,-0.0680389404296875
21233,0.0289764404296875,-1.052627563476562,-0.0680389404296875
21234,0.029937744140625,-1.013153076171875,-0.053924560546875
21235,0.0385589599609375,-0.985931396484375,-0.049530029296875
21236,0.0561981201171875,-0.965545654296875,-0.0459442138671875
21237,0.0561981201171875,-0.965545654296875,-0.0459442138671875
21238,0.0675811767578125,-0.9533538818359376,-0.0245361328125
21239,0.105224609375,-0.9528350830078124,-0.0432586669921875
21240,0.1121673583984375,-0.947052001953125,-0.0426177978515625
21241,0.1121673583984375,-0.947052001953125,-0.0426177978515625
21242,0.1147613525390625,-0.9373626708984376,-0.0418701171875
21243,0.1051025390625,-0.9407196044921876,-0.03472900390625
21244,0.0975494384765625,-0.949432373046875,-0.0326995849609375
21245,0.08544921875,-0.9596099853515624,-0.03204345703125
21246,0.08544921875,-0.9596099853515624,-0.03204345703125
21247,0.078521728515625,-0.9576568603515624,-0.0269317626953125
21248,0.0821075439453125,-0.95147705078125,-0.02459716796875
21249,0.095184326171875,-0.947601318359375,-0.021209716796875
21250,0.095184326171875,-0.947601318359375,-0.021209716796875
21251,0.1191864013671875,-0.948272705078125,0.0113067626953125
21252,0.1336517333984375,-0.9537353515625,0.029541015625
21253,0.1336517333984375,-0.9537353515625,0.029541015625
21254,0.1465606689453125,-0.9611968994140624,0.0323486328125
21255,0.1473846435546875,-0.963134765625,0.0316925048828125
21256,0.1450958251953125,-0.96051025390625,0.0333251953125
21257,0.1450958251953125,-0.96051025390625,0.0333251953125
21258,0.1244964599609375,-0.9516754150390624,0.0280914306640625
21259,0.1134033203125,-0.95269775390625,0.0267333984375
21260,0.1036224365234375,-0.9513092041015624,0.0203399658203125
21261,0.0938873291015625,-0.949737548828125,0.0124053955078125
21262,0.0938873291015625,-0.949737548828125,0.0124053955078125
21263,0.0734405517578125,-0.943695068359375,0.0207061767578125
21264,0.064483642578125,-0.9378204345703124,0.023529052734375
21265,0.0609130859375,-0.9347076416015624,0.015655517578125
21266,0.0609130859375,-0.9347076416015624,0.015655517578125
21267,0.0789947509765625,-0.9365234375,-0.0092926025390625
21268,0.0904083251953125,-0.9354705810546876,-0.0153045654296875
21269,0.0904083251953125,-0.9354705810546876,-0.0153045654296875
21270,0.122955322265625,-0.9293212890625,-0.025970458984375
21271,0.135223388671875,-0.9214630126953124,-0.0284271240234375
21272,0.1461639404296875,-0.91802978515625,-0.0145263671875
21273,0.1547088623046875,-0.920928955078125,0.00408935546875
21274,0.1547088623046875,-0.920928955078125,0.00408935546875
21275,0.1443634033203125,-0.9440765380859376,0.045196533203125
21276,0.125396728515625,-0.95538330078125,0.0536346435546875
21277,0.125396728515625,-0.95538330078125,0.0536346435546875
21278,0.0968475341796875,-0.995849609375,0.0446319580078125
21279,0.0967864990234375,-1.016494750976562,0.0420074462890625
21280,0.1070404052734375,-1.041610717773438,0.0413970947265625
21281,0.119049072265625,-1.065567016601562,0.046966552734375
21282,0.119049072265625,-1.065567016601562,0.046966552734375
21283,0.176239013671875,-1.112411499023438,0.047027587890625
21284,0.20526123046875,-1.136184692382812,0.0359344482421875
21285,0.2852783203125,-1.208572387695312,-0.096435546875
21286,0.2852783203125,-1.208572387695312,-0.096435546875
21287,0.320587158203125,-1.234634399414062,-0.1685638427734375
21288,0.3446197509765625,-1.216461181640625,-0.1836395263671875
21289,0.3243408203125,-1.17340087890625,-0.1565093994140625
21290,0.2524871826171875,-1.1807861328125,-0.1281585693359375
21291,0.2039031982421875,-1.239715576171875,-0.135284423828125
21292,0.1675262451171875,-1.302398681640625,-0.1671600341796875
21293,0.161468505859375,-1.314453125,-0.164825439453125
21294,0.161468505859375,-1.314453125,-0.164825439453125
21295,0.14544677734375,-1.294921875,-0.2331085205078125
21296,0.119232177734375,-1.246795654296875,-0.3032684326171875
21297,0.10125732421875,-1.170669555664062,-0.3513336181640625
21298,0.10125732421875,-1.170669555664062,-0.3513336181640625
21299,0.1456146240234375,-0.9652252197265624,-0.4268951416015625
21300,0.1382293701171875,-0.8709716796875,-0.472320556640625
21301,0.1247711181640625,-0.7972564697265625,-0.5116424560546875
21302,0.1334228515625,-0.7487640380859375,-0.5360107421875
21303,0.13995361328125,-0.7284393310546875,-0.5966949462890625
21304,0.130096435546875,-0.7259979248046875,-0.652862548828125
21305,0.1050872802734375,-0.7397918701171875,-0.6913299560546875
21306,0.1050872802734375,-0.7397918701171875,-0.6913299560546875
21307,0.038330078125,-0.8198089599609375,-0.6956634521484375
21308,-0.0067901611328125,-0.88006591796875,-0.66357421875
21309,-0.1084442138671875,-0.986083984375,-0.5233154296875
21310,-0.1084442138671875,-0.986083984375,-0.5233154296875
21311,-0.09844970703125,-1.019683837890625,-0.4485931396484375
21312,-0.0524444580078125,-1.041427612304688,-0.4166412353515625
21313,-0.020965576171875,-1.041107177734375,-0.3815155029296875
21314,-0.020965576171875,-1.041107177734375,-0.3815155029296875
21315,0.0249481201171875,-1.059951782226562,-0.195098876953125
21316,0.0348052978515625,-1.066329956054688,-0.1093597412109375
21317,0.0236663818359375,-1.059967041015625,-0.0768890380859375
21318,0.011322021484375,-1.040695190429688,-0.083282470703125
21319,0.0014801025390625,-1.020111083984375,-0.1204681396484375
21320,-0.0027313232421875,-0.997711181640625,-0.2074432373046875
21321,0.006591796875,-0.9814453125,-0.294891357421875
21322,0.0269622802734375,-0.965484619140625,-0.3430938720703125
21323,0.061370849609375,-0.9451751708984376,-0.389923095703125
21324,0.0956573486328125,-0.9392852783203124,-0.38763427734375
21325,0.1398468017578125,-0.947052001953125,-0.3400726318359375
21326,0.1398468017578125,-0.947052001953125,-0.3400726318359375
21327,0.174346923828125,-0.965972900390625,-0.2810516357421875
21328,0.1768646240234375,-0.9833984375,-0.2206878662109375
21329,0.162628173828125,-1.00262451171875,-0.1733245849609375
21330,0.1313323974609375,-1.009811401367188,-0.159515380859375
21331,0.1011962890625,-1.0218505859375,-0.1670379638671875
21332,0.0673828125,-1.013931274414062,-0.1872711181640625
21333,0.017608642578125,-0.9954681396484376,-0.1781005859375
21334,-0.023101806640625,-0.976287841796875,-0.1766204833984375
21335,-0.01580810546875,-0.9406585693359376,-0.201385498046875
21336,0.0035400390625,-0.9086456298828124,-0.2422332763671875
21337,0.0146331787109375,-0.8724822998046875,-0.2798004150390625
21338,0.0146331787109375,-0.8724822998046875,-0.2798004150390625
21339,0.0101165771484375,-0.804595947265625,-0.3070068359375
21340,0.00714111328125,-0.79119873046875,-0.2956085205078125
21341,0.01739501953125,-0.8132476806640625,-0.269866943359375
21342,0.01739501953125,-0.8132476806640625,-0.269866943359375
21343,0.0515899658203125,-0.887725830078125,-0.198089599609375
21344,0.069976806640625,-0.9021759033203124,-0.159942626953125
21345,0.0907135009765625,-0.8707427978515625,-0.1306304931640625
21346,0.0907135009765625,-0.8707427978515625,-0.1306304931640625
21347,0.0695953369140625,-0.7804412841796875,-0.3085174560546875
21348,-0.0088043212890625,-0.619384765625,-0.4229888916015625
21349,0.010986328125,-1.0660400390625,0.347625732421875
21350,0.078948974609375,-1.016067504882812,0.2779693603515625
21351,0.01983642578125,-0.9267730712890624,-0.1833343505859375
21352,-0.0648651123046875,-0.874298095703125,-0.248748779296875
21353,-0.098358154296875,-0.8520355224609375,-0.135040283203125
21354,-0.098358154296875,-0.8520355224609375,-0.135040283203125
21355,-0.0415191650390625,-0.989501953125,-0.080841064453125
21356,-0.01690673828125,-0.9887542724609376,-0.126220703125
21357,0.0002288818359375,-0.960479736328125,-0.1261444091796875
21358,0.0159912109375,-0.95001220703125,-0.106414794921875
21359,0.01611328125,-0.954132080078125,-0.08270263671875
21360,0.0174102783203125,-0.952362060546875,-0.0485076904296875
21361,0.0245513916015625,-0.959259033203125,-0.0268096923828125
21362,0.0245513916015625,-0.959259033203125,-0.0268096923828125
21363,0.012420654296875,-0.9962310791015624,-0.0327606201171875
21364,-0.0158843994140625,-1.007843017578125,-0.032073974609375
21365,-0.0444488525390625,-1.016128540039062,-0.049774169921875
21366,-0.072265625,-1.010604858398438,-0.1017913818359375
21367,-0.0764617919921875,-0.999481201171875,-0.1356964111328125
21368,-0.07562255859375,-0.985687255859375,-0.1637420654296875
21369,-0.0642242431640625,-0.9801025390625,-0.1881866455078125
21370,-0.0642242431640625,-0.9801025390625,-0.1881866455078125
21371,-0.0375518798828125,-1.020462036132812,-0.134002685546875
21372,-0.008270263671875,-1.050827026367188,-0.0720977783203125
21373,0.0462188720703125,-1.13824462890625,-0.0137939453125
21374,0.0462188720703125,-1.13824462890625,-0.0137939453125
21375,0.047943115234375,-1.176559448242188,-0.051361083984375
21376,0.0427093505859375,-1.201568603515625,-0.1217803955078125
21377,0.046539306640625,-1.198379516601562,-0.178009033203125
21378,0.050201416015625,-1.162124633789062,-0.1956939697265625
21379,0.035003662109375,-1.1207275390625,-0.196868896484375
21380,0.0050048828125,-1.09295654296875,-0.189697265625
21381,-0.0364990234375,-1.079315185546875,-0.165679931640625
21382,-0.0681610107421875,-1.083541870117188,-0.1329498291015625
21383,-0.0821380615234375,-1.090866088867188,-0.0970306396484375
21384,-0.081024169921875,-1.098892211914062,-0.065582275390625
21385,-0.0650787353515625,-1.12548828125,-0.0272674560546875
21386,-0.0362396240234375,-1.153549194335938,-0.0214691162109375
21387,-0.006072998046875,-1.173828125,-0.059967041015625
21388,0.0288848876953125,-1.157546997070312,-0.1161041259765625
21389,0.0570526123046875,-1.114486694335938,-0.1728515625
21390,0.0570526123046875,-1.114486694335938,-0.1728515625
21391,0.102142333984375,-0.9997711181640624,-0.3459320068359375
21392,0.1160125732421875,-0.94757080078125,-0.4198150634765625
21393,0.1281890869140625,-0.90374755859375,-0.4635467529296875
21394,0.1457672119140625,-0.8637237548828125,-0.476898193359375
21395,0.17950439453125,-0.8343963623046875,-0.46929931640625
21396,0.214141845703125,-0.8090972900390625,-0.441497802734375
21397,0.2398223876953125,-0.8185577392578125,-0.3848114013671875
21398,0.2389373779296875,-0.8604278564453125,-0.28863525390625
21399,0.2288055419921875,-0.89605712890625,-0.2100830078125
21400,0.2137603759765625,-0.91802978515625,-0.1661529541015625
21401,0.2050323486328125,-0.9400634765625,-0.141143798828125
21402,0.2009124755859375,-0.9717254638671876,-0.1324615478515625
21403,0.193145751953125,-1.006866455078125,-0.1409912109375
21404,0.1708984375,-1.02642822265625,-0.15228271484375
21405,0.134124755859375,-1.032577514648438,-0.157501220703125
21406,0.107452392578125,-1.054779052734375,-0.2258758544921875
21407,0.07171630859375,-1.070755004882812,-0.2010498046875
21408,0.051177978515625,-1.054153442382812,-0.111968994140625
21409,0.0416412353515625,-1.051589965820312,-0.1897125244140625
21410,0.0416412353515625,-1.051589965820312,-0.1897125244140625
21411,0.0557708740234375,-1.016220092773438,-0.171630859375
21412,0.0437774658203125,-0.996307373046875,-0.142578125
21413,0.023590087890625,-0.982147216796875,-0.119842529296875
21414,0.023590087890625,-0.982147216796875,-0.119842529296875
21415,0.01397705078125,-0.968719482421875,-0.0820465087890625
21416,0.024688720703125,-0.9793243408203124,-0.0815887451171875
21417,0.0340576171875,-0.986083984375,-0.0806427001953125
21418,0.04437255859375,-0.983184814453125,-0.084869384765625
21419,0.06829833984375,-0.981536865234375,-0.089599609375
21420,0.08526611328125,-0.972259521484375,-0.0907745361328125
21421,0.0906524658203125,-0.962493896484375,-0.083892822265625
21422,0.095489501953125,-0.9556732177734376,-0.082763671875
21423,0.097137451171875,-0.9527435302734376,-0.1017608642578125
21424,0.1253204345703125,-0.9416351318359376,-0.0892181396484375
21425,0.1191253662109375,-0.9168243408203124,-0.0544586181640625
21426,0.1191253662109375,-0.9168243408203124,-0.0544586181640625
21427,0.0952911376953125,-0.8710174560546875,0.0342864990234375
21428,0.11688232421875,-0.9442901611328124,0.1007843017578125
21429,0.0981292724609375,-0.96429443359375,0.0283966064453125
21430,0.0981292724609375,-0.96429443359375,0.0283966064453125
21431,0.075408935546875,-0.9734039306640624,-0.001861572265625
21432,0.04498291015625,-0.96319580078125,-0.005859375
21433,0.0230560302734375,-0.9709625244140624,-0.0074462890625
21434,0.0230560302734375,-0.9709625244140624,-0.0074462890625
21435,0.0123138427734375,-0.9675140380859376,-0.078399658203125
21436,-0.04254150390625,-0.9807586669921876,0.0398406982421875
21437,-0.00030517578125,-0.99603271484375,-0.0406341552734375
21438,0.02239990234375,-0.999298095703125,-0.0972900390625
21439,0.011871337890625,-0.9937591552734376,-0.0960845947265625
21440,0.019287109375,-1.013900756835938,-0.128631591796875
21441,0.047454833984375,-1.052139282226562,-0.1961517333984375
21442,0.0943450927734375,-1.0804443359375,-0.2116851806640625
21443,0.1369171142578125,-1.094772338867188,-0.2375335693359375
21444,0.169097900390625,-1.088211059570312,-0.2745513916015625
21445,0.182403564453125,-1.078704833984375,-0.3113555908203125
21446,0.182403564453125,-1.078704833984375,-0.3113555908203125
21447,0.11761474609375,-1.026504516601562,-0.2206268310546875
21448,0.0365447998046875,-0.979583740234375,-0.0914459228515625
21449,-0.0439910888671875,-0.9747467041015624,0.023529052734375
21450,-0.0439910888671875,-0.9747467041015624,0.023529052734375
21451,-0.04949951171875,-1.0533447265625,-0.1687774658203125
21452,-6.103515625e-05,-1.061111450195312,-0.2605743408203125
21453,0.0285797119140625,-1.060760498046875,-0.281524658203125
21454,0.05987548828125,-1.0721435546875,-0.291717529296875
21455,0.0776824951171875,-1.083572387695312,-0.3051605224609375
21456,0.0886688232421875,-1.071868896484375,-0.334564208984375
21457,0.0792236328125,-1.030975341796875,-0.397705078125
21458,0.0792236328125,-1.030975341796875,-0.397705078125
21459,0.00030517578125,-0.9501953125,-0.4202423095703125
21460,-0.0346221923828125,-0.925384521484375,-0.4002685546875
21461,-0.0637664794921875,-0.9165191650390624,-0.35589599609375
21462,-0.0637664794921875,-0.9165191650390624,-0.35589599609375
21463,-0.107025146484375,-0.925628662109375,-0.222320556640625
21464,-0.114898681640625,-0.934600830078125,-0.1569671630859375
21465,-0.11279296875,-0.95086669921875,-0.1302032470703125
21466,-0.11279296875,-0.95086669921875,-0.1302032470703125
21467,-0.0568084716796875,-0.9783935546875,-0.1700897216796875
21468,-0.0420379638671875,-0.984771728515625,-0.1781005859375
21469,-0.0179901123046875,-1.00067138671875,-0.2056427001953125
21470,0.0031280517578125,-1.018081665039062,-0.2115936279296875
21471,0.0231475830078125,-1.022964477539062,-0.1984100341796875
21472,0.02618408203125,-1.009552001953125,-0.18035888671875
21473,0.02947998046875,-0.99566650390625,-0.166168212890625
21474,0.022613525390625,-0.98834228515625,-0.156585693359375
21475,0.0198516845703125,-0.9850006103515624,-0.145172119140625
21476,0.0070037841796875,-0.978607177734375,-0.1350860595703125
21477,-0.035369873046875,-0.9535980224609376,-0.1110076904296875
21478,-0.035369873046875,-0.9535980224609376,-0.1110076904296875
21479,-0.0497283935546875,-0.936431884765625,-0.10943603515625
21480,-0.055023193359375,-0.928955078125,-0.1173553466796875
21481,-0.0561676025390625,-0.9282073974609376,-0.1226654052734375
21482,-0.0561676025390625,-0.9282073974609376,-0.1226654052734375
21483,-0.0500946044921875,-0.9413909912109376,-0.1425323486328125
21484,-0.0472412109375,-0.945831298828125,-0.152374267578125
21485,-0.0411834716796875,-0.95245361328125,-0.14703369140625
21486,-0.0411834716796875,-0.95245361328125,-0.14703369140625
21487,-0.04144287109375,-0.972991943359375,-0.1108551025390625
21488,-0.044830322265625,-0.9740753173828124,-0.100982666015625
21489,-0.048675537109375,-0.971923828125,-0.098907470703125
21490,-0.048675537109375,-0.971923828125,-0.098907470703125
21491,-0.056732177734375,-0.973358154296875,-0.07537841796875
21492,-0.0593719482421875,-0.973846435546875,-0.069061279296875
21493,-0.0605621337890625,-0.9716339111328124,-0.068939208984375
21494,-0.0623779296875,-0.9699554443359376,-0.06781005859375
21495,-0.06890869140625,-0.971588134765625,-0.05792236328125
21496,-0.0802154541015625,-0.971710205078125,-0.050445556640625
21497,-0.09014892578125,-0.97052001953125,-0.0458221435546875
21498,-0.09014892578125,-0.97052001953125,-0.0458221435546875
21499,-0.1179046630859375,-0.966766357421875,-0.0259857177734375
21500,-0.1367034912109375,-0.9700775146484376,-0.0180511474609375
21501,-0.151611328125,-0.972503662109375,-0.01763916015625
21502,-0.161865234375,-0.976531982421875,-0.02618408203125
21503,-0.1622467041015625,-0.9860992431640624,-0.037994384765625
21504,-0.1524810791015625,-0.9994354248046876,-0.0553741455078125
21505,-0.1079254150390625,-1.013229370117188,-0.0864410400390625
21506,-0.1079254150390625,-1.013229370117188,-0.0864410400390625
21507,-0.0875244140625,-1.02288818359375,-0.0928802490234375
21508,-0.0732421875,-1.035293579101562,-0.092193603515625
21509,-0.0576934814453125,-1.04400634765625,-0.0865325927734375
21510,-0.0387420654296875,-1.054611206054688,-0.0786285400390625
21511,-0.0263519287109375,-1.07373046875,-0.0648040771484375
21512,-0.0250091552734375,-1.105850219726562,-0.06365966796875
21513,-0.0307159423828125,-1.1375732421875,-0.084625244140625
21514,-0.0307159423828125,-1.1375732421875,-0.084625244140625
21515,-0.03521728515625,-1.10943603515625,-0.14471435546875
21516,-0.0402984619140625,-1.071533203125,-0.17108154296875
21517,-0.0430755615234375,-1.036087036132812,-0.2012176513671875
21518,-0.0430755615234375,-1.036087036132812,-0.2012176513671875
21519,-0.013336181640625,-1.0048828125,-0.2155609130859375
21520,0.00311279296875,-0.99566650390625,-0.20428466796875
21521,0.0055694580078125,-1.014114379882812,-0.1727752685546875
21522,0.0055694580078125,-1.014114379882812,-0.1727752685546875
21523,-0.0173187255859375,-1.140213012695312,-0.1030426025390625
21524,-0.0158843994140625,-1.153839111328125,-0.1059417724609375
21525,-0.00604248046875,-1.1334228515625,-0.142791748046875
21526,-0.00604248046875,-1.1334228515625,-0.142791748046875
21527,0.0712890625,-1.109954833984375,-0.2418060302734375
21528,0.1130523681640625,-1.0865478515625,-0.2789154052734375
21529,0.146697998046875,-1.047164916992188,-0.2955780029296875
21530,0.1683197021484375,-0.9990692138671876,-0.290496826171875
21531,0.1903228759765625,-0.9388580322265624,-0.268402099609375
21532,0.2039947509765625,-0.88037109375,-0.2318115234375
21533,0.2049560546875,-0.8586273193359375,-0.1994171142578125
21534,0.2014007568359375,-0.865875244140625,-0.1721343994140625
21535,0.194366455078125,-0.8723907470703125,-0.149871826171875
21536,0.1883697509765625,-0.887115478515625,-0.1347808837890625
21537,0.175506591796875,-0.91265869140625,-0.118804931640625
21538,0.163787841796875,-0.947845458984375,-0.1181793212890625
21539,0.149383544921875,-0.9830322265625,-0.1307373046875
21540,0.1320037841796875,-1.008529663085938,-0.145538330078125
21541,0.10931396484375,-1.033340454101562,-0.15899658203125
21542,0.10931396484375,-1.033340454101562,-0.15899658203125
21543,0.0636749267578125,-1.070419311523438,-0.157623291015625
21544,0.05303955078125,-1.088912963867188,-0.1526031494140625
21545,0.0412445068359375,-1.103805541992188,-0.145050048828125
21546,0.0412445068359375,-1.103805541992188,-0.145050048828125
21547,0.0452117919921875,-1.065048217773438,-0.083648681640625
21548,0.051361083984375,-1.023361206054688,-0.08843994140625
21549,0.0837249755859375,-0.9735107421875,-0.0966033935546875
21550,0.0837249755859375,-0.9735107421875,-0.0966033935546875
21551,0.121673583984375,-0.919891357421875,-0.0697479248046875
21552,0.1296844482421875,-0.9197845458984376,-0.074676513671875
21553,0.1241607666015625,-0.909423828125,-0.0712738037109375
21554,0.1241607666015625,-0.909423828125,-0.0712738037109375
21555,0.1163177490234375,-0.9483795166015624,-0.1015472412109375
21556,0.1107940673828125,-0.95953369140625,-0.08294677734375
21557,0.1005706787109375,-0.9685821533203124,-0.0507049560546875
21558,0.1005706787109375,-0.9685821533203124,-0.0507049560546875
21559,0.0817718505859375,-0.964141845703125,-0.087921142578125
21560,0.06378173828125,-0.951507568359375,-0.0699005126953125
21561,0.04595947265625,-0.970703125,-0.0322418212890625
21562,0.0510711669921875,-0.984954833984375,-0.043914794921875
21563,0.0569305419921875,-0.977996826171875,-0.055511474609375
21564,0.055572509765625,-0.9697723388671876,-0.0410919189453125
21565,0.058013916015625,-0.966888427734375,-0.027496337890625
21566,0.058013916015625,-0.966888427734375,-0.027496337890625
21567,0.05706787109375,-0.9571380615234376,-0.0373687744140625
21568,0.044525146484375,-0.96124267578125,-0.023101806640625
21569,0.0419769287109375,-0.9644012451171876,-0.0200042724609375
21570,0.0371551513671875,-0.9693450927734376,-0.032073974609375
21571,0.0352630615234375,-0.9727630615234376,-0.034515380859375
21572,0.0302276611328125,-0.97149658203125,-0.03265380859375
21573,0.0244598388671875,-0.96685791015625,-0.0298309326171875
21574,0.0244598388671875,-0.96685791015625,-0.0298309326171875
21575,0.0162811279296875,-0.9674835205078124,-0.013824462890625
21576,0.020050048828125,-0.9691925048828124,-0.0050201416015625
21577,0.0241241455078125,-0.9697265625,0.00164794921875
21578,0.0241241455078125,-0.9697265625,0.00164794921875
21579,0.0357818603515625,-0.977569580078125,0.014617919921875
21580,0.0335540771484375,-0.9825286865234376,0.022216796875
21581,0.0325164794921875,-0.991363525390625,0.023834228515625
21582,0.034637451171875,-1.001434326171875,0.022064208984375
21583,0.033050537109375,-1.01470947265625,0.01849365234375
21584,0.0350189208984375,-1.029953002929688,0.021209716796875
21585,0.0557403564453125,-1.037460327148438,0.0039520263671875
21586,0.0557403564453125,-1.037460327148438,0.0039520263671875
21587,0.0634765625,-1.037979125976562,0.0112762451171875
21588,0.0789947509765625,-1.039230346679688,0.016204833984375
21589,0.09613037109375,-1.040267944335938,0.0163116455078125
21590,0.09613037109375,-1.040267944335938,0.0163116455078125
21591,0.0962066650390625,-1.026107788085938,0.0266571044921875
21592,0.0840606689453125,-1.021636962890625,0.038665771484375
21593,0.0689849853515625,-1.016891479492188,0.0532073974609375
21594,0.0689849853515625,-1.016891479492188,0.0532073974609375
21595,0.0410614013671875,-1.0284423828125,0.0803070068359375
21596,0.03741455078125,-1.056304931640625,0.076690673828125
21597,0.110137939453125,-1.165908813476562,-0.048187255859375
21598,0.110137939453125,-1.165908813476562,-0.048187255859375
21599,0.1706390380859375,-1.203842163085938,-0.135589599609375
21600,0.2165985107421875,-1.187026977539062,-0.172821044921875
21601,0.230072021484375,-1.1212158203125,-0.1444244384765625
21602,0.218475341796875,-1.07080078125,-0.0925140380859375
21603,0.212554931640625,-1.048934936523438,-0.030242919921875
21604,0.2101287841796875,-1.050704956054688,-0.001312255859375
21605,0.195068359375,-1.068862915039062,0.003814697265625
21606,0.153411865234375,-1.084869384765625,0.019012451171875
21607,0.1042633056640625,-1.110137939453125,0.032958984375
21608,0.0637054443359375,-1.129257202148438,0.02227783203125
21609,0.0231475830078125,-1.136550903320312,0.003997802734375
21610,0.0231475830078125,-1.136550903320312,0.003997802734375
21611,-0.00408935546875,-1.128067016601562,-0.057586669921875
21612,0.00994873046875,-1.101608276367188,-0.124237060546875
21613,0.0272216796875,-1.0662841796875,-0.1991119384765625
21614,0.038818359375,-1.029022216796875,-0.2420654296875
21615,0.0335845947265625,-0.986907958984375,-0.261993408203125
21616,0.02880859375,-0.9467926025390624,-0.2777862548828125
21617,0.0205230712890625,-0.9092864990234376,-0.28619384765625
21618,0.0205230712890625,-0.9092864990234376,-0.28619384765625
21619,-0.003753662109375,-0.86602783203125,-0.323211669921875
21620,-0.014556884765625,-0.85650634765625,-0.337677001953125
21621,-0.0312957763671875,-0.8520660400390625,-0.3379058837890625
21622,-0.0312957763671875,-0.8520660400390625,-0.3379058837890625
21623,-0.07464599609375,-0.8687286376953125,-0.3033447265625
21624,-0.0858154296875,-0.885101318359375,-0.2777252197265625
21625,-0.050079345703125,-0.9292449951171876,-0.2332763671875
21626,-0.050079345703125,-0.9292449951171876,-0.2332763671875
21627,-0.0203399658203125,-0.9531402587890624,-0.2308502197265625
21628,0.002655029296875,-0.978912353515625,-0.2024078369140625
21629,0.01702880859375,-0.9908599853515624,-0.1783599853515625
21630,0.01702880859375,-0.9908599853515624,-0.1783599853515625
21631,0.0340118408203125,-1.025619506835938,-0.1724395751953125
21632,0.0367279052734375,-1.040374755859375,-0.1768035888671875
21633,0.032501220703125,-1.047897338867188,-0.1723480224609375
21634,0.032501220703125,-1.047897338867188,-0.1723480224609375
21635,0.0109405517578125,-1.034133911132812,-0.1641845703125
21636,-0.0018310546875,-1.020584106445312,-0.1523895263671875
21637,-0.02197265625,-0.9933929443359376,-0.1331939697265625
21638,-0.02197265625,-0.9933929443359376,-0.1331939697265625
21639,-0.0555267333984375,-0.948638916015625,-0.124237060546875
21640,-0.0655975341796875,-0.9384613037109376,-0.1305999755859375
21641,-0.0801544189453125,-0.9257659912109376,-0.126708984375
21642,-0.089996337890625,-0.920654296875,-0.108642578125
21643,-0.093780517578125,-0.9261932373046876,-0.1025390625
21644,-0.0878448486328125,-0.940704345703125,-0.0955963134765625
21645,-0.0728759765625,-0.953125,-0.0909576416015625
21646,-0.0728759765625,-0.953125,-0.0909576416015625
21647,-0.034912109375,-0.987640380859375,-0.0838470458984375
21648,-0.0165252685546875,-0.9948272705078124,-0.07427978515625
21649,-0.014739990234375,-1.006423950195312,-0.0011749267578125
21650,-0.014739990234375,-1.006423950195312,-0.0011749267578125
21651,0.00177001953125,-0.9931793212890624,-0.029144287109375
21652,0.0169830322265625,-0.9775543212890624,-0.030853271484375
21653,0.0239715576171875,-0.9705963134765624,-0.013763427734375
21654,0.0239715576171875,-0.9705963134765624,-0.013763427734375
21655,0.009368896484375,-0.9523468017578124,-0.0206451416015625
21656,-0.0032806396484375,-0.956634521484375,-0.018402099609375
21657,0.000823974609375,-0.961669921875,-0.021820068359375
21658,0.000823974609375,-0.961669921875,-0.021820068359375
21659,0.0142822265625,-0.981170654296875,-0.0104522705078125
21660,0.0281829833984375,-0.9933013916015624,-0.007781982421875
21661,0.04180908203125,-1.010665893554688,-0.01397705078125
21662,0.04180908203125,-1.010665893554688,-0.01397705078125
21663,0.0446929931640625,-1.008621215820312,-0.0130462646484375
21664,0.03973388671875,-1.003692626953125,-0.015228271484375
21665,0.0214996337890625,-1.011993408203125,-0.0192718505859375
21666,0.0214996337890625,-1.011993408203125,-0.0192718505859375
21667,-0.0431060791015625,-1.043304443359375,-0.0030670166015625
21668,-0.083251953125,-1.046707153320312,-0.021331787109375
21669,-0.1151885986328125,-1.042526245117188,-0.0316162109375
21670,-0.1151885986328125,-1.042526245117188,-0.0316162109375
21671,-0.1551055908203125,-1.023651123046875,-0.007110595703125
21672,-0.1791229248046875,-1.010269165039062,-0.0031585693359375
21673,-0.201263427734375,-0.9933319091796876,-0.00341796875
21674,-0.226165771484375,-0.9802093505859376,0.001922607421875
21675,-0.252471923828125,-0.9571990966796876,0.0159454345703125
21676,-0.267852783203125,-0.937408447265625,0.02197265625
21677,-0.27020263671875,-0.9374237060546876,0.0118255615234375
21678,-0.27020263671875,-0.9374237060546876,0.0118255615234375
21679,-0.2752227783203125,-0.997222900390625,-0.023345947265625
21680,-0.2876434326171875,-1.051559448242188,-0.0586395263671875
21681,-0.2965240478515625,-1.094680786132812,-0.12115478515625
21682,-0.28607177734375,-1.115737915039062,-0.18988037109375
21683,-0.2667694091796875,-1.130722045898438,-0.2623291015625
21684,-0.2326507568359375,-1.146331787109375,-0.32244873046875
21685,-0.1746063232421875,-1.161087036132812,-0.349517822265625
21686,-0.1746063232421875,-1.161087036132812,-0.349517822265625
21687,-0.0699462890625,-1.147445678710938,-0.2946319580078125
21688,-0.042236328125,-1.127517700195312,-0.24029541015625
21689,-0.028228759765625,-1.123001098632812,-0.1726531982421875
21690,-0.028228759765625,-1.123001098632812,-0.1726531982421875
21691,-0.019073486328125,-1.116943359375,-0.0532684326171875
21692,0.000579833984375,-1.107574462890625,-0.0494537353515625
21693,0.0225372314453125,-1.076675415039062,-0.1128082275390625
21694,0.0505828857421875,-1.051345825195312,-0.17047119140625
21695,0.0626678466796875,-1.016326904296875,-0.1959381103515625
21696,0.069976806640625,-0.964202880859375,-0.233184814453125
21697,0.0819854736328125,-0.90997314453125,-0.275543212890625
21698,0.0819854736328125,-0.90997314453125,-0.275543212890625
21699,0.1300201416015625,-0.849700927734375,-0.310882568359375
21700,0.18096923828125,-0.8407135009765625,-0.309234619140625
21701,0.2329864501953125,-0.83795166015625,-0.320098876953125
21702,0.2738037109375,-0.834442138671875,-0.3342437744140625
21703,0.3017120361328125,-0.83673095703125,-0.3267669677734375
21704,0.31695556640625,-0.849395751953125,-0.298248291015625
21705,0.32061767578125,-0.874176025390625,-0.2711639404296875
21706,0.2858123779296875,-0.920684814453125,-0.2315673828125
21707,0.2383880615234375,-0.9606781005859376,-0.1670989990234375
21708,0.180938720703125,-0.9941253662109376,-0.128021240234375
21709,0.134124755859375,-1.029708862304688,-0.11236572265625
21710,0.134124755859375,-1.029708862304688,-0.11236572265625
21711,0.0775299072265625,-1.094924926757812,-0.1416015625
21712,0.064483642578125,-1.106613159179688,-0.152923583984375
21713,0.064666748046875,-1.110824584960938,-0.1529541015625
21714,0.064666748046875,-1.110824584960938,-0.1529541015625
21715,0.09600830078125,-1.077362060546875,-0.1367950439453125
21716,0.09600830078125,-1.077362060546875,-0.1367950439453125
21717,0.16314697265625,-0.996337890625,-0.095367431640625
21718,0.1964111328125,-0.9664154052734376,-0.0673980712890625
21719,0.203125,-0.95013427734375,-0.0417938232421875
21720,0.2148895263671875,-0.9504241943359376,-0.057464599609375
21721,0.22418212890625,-0.959136962890625,-0.0863800048828125
21722,0.22418212890625,-0.959136962890625,-0.0863800048828125
21723,0.215362548828125,-0.95745849609375,-0.092987060546875
21724,0.2046356201171875,-0.95849609375,-0.093475341796875
21725,0.1915740966796875,-0.958343505859375,-0.0815887451171875
21726,0.1915740966796875,-0.958343505859375,-0.0815887451171875
21727,0.1764373779296875,-0.97296142578125,-0.055328369140625
21728,0.1883087158203125,-0.9789581298828124,-0.03460693359375
21729,0.2100982666015625,-0.98822021484375,-0.0179290771484375
21730,0.2100982666015625,-0.98822021484375,-0.0179290771484375
21731,0.21923828125,-0.9994964599609376,-0.0145721435546875
21732,0.225555419921875,-1.01177978515625,-0.0051727294921875
21733,0.2258148193359375,-1.0262451171875,-0.00115966796875
21734,0.2258148193359375,-1.0262451171875,-0.00115966796875
21735,0.2116851806640625,-1.045867919921875,-0.0121917724609375
21736,0.2010498046875,-1.042999267578125,-0.011474609375
21737,0.190948486328125,-1.04376220703125,-0.0148162841796875
21738,0.1834259033203125,-1.0423583984375,-0.0290679931640625
21739,0.1864471435546875,-1.031661987304688,-0.0575103759765625
21740,0.1967010498046875,-1.021759033203125,-0.065765380859375
21741,0.213134765625,-1.024871826171875,-0.0747528076171875
21742,0.213134765625,-1.024871826171875,-0.0747528076171875
21743,0.1972198486328125,-1.028335571289062,0.0063629150390625
21744,0.1690826416015625,-1.06207275390625,0.048675537109375
21745,0.1402740478515625,-1.103256225585938,0.0216827392578125
21746,0.1120758056640625,-1.11309814453125,-0.0499725341796875
21747,0.1136932373046875,-1.082168579101562,-0.1494140625
21748,0.119720458984375,-1.029830932617188,-0.246734619140625
21749,0.1380615234375,-0.9737548828125,-0.2950439453125
21750,0.1380615234375,-0.9737548828125,-0.2950439453125
21751,0.1428680419921875,-0.8897857666015625,-0.3505096435546875
21752,0.103424072265625,-0.8579559326171875,-0.19183349609375
21753,0.0788116455078125,-0.841522216796875,-0.099700927734375
21754,0.0670013427734375,-0.8345184326171875,-0.1356201171875
21755,0.0569610595703125,-0.83380126953125,-0.1832275390625
21756,0.0372314453125,-0.836151123046875,-0.1948394775390625
21757,0.0026702880859375,-0.8555450439453125,-0.22515869140625
21758,0.0026702880859375,-0.8555450439453125,-0.22515869140625
21759,-0.0672454833984375,-0.904449462890625,-0.2963104248046875
21760,-0.0672454833984375,-0.904449462890625,-0.2963104248046875
21761,-0.1114349365234375,-0.951629638671875,-0.2821197509765625
21762,-0.136505126953125,-0.9698638916015624,-0.27337646484375
21763,-0.1643218994140625,-0.986083984375,-0.2603759765625
21764,-0.1912078857421875,-1.002853393554688,-0.23046875
21765,-0.2042694091796875,-1.014572143554688,-0.202545166015625
21766,-0.2042694091796875,-1.014572143554688,-0.202545166015625
21767,-0.1756591796875,-1.0072021484375,-0.2002716064453125
21768,-0.1526947021484375,-0.994476318359375,-0.2022705078125
21769,-0.1429901123046875,-0.9857330322265624,-0.196807861328125
21770,-0.1334686279296875,-0.9759368896484376,-0.1964111328125
21771,-0.1215057373046875,-0.9695587158203124,-0.1950531005859375
21772,-0.1082611083984375,-0.9814300537109376,-0.1960601806640625
21773,-0.0989227294921875,-0.9983673095703124,-0.200347900390625
21774,-0.0989227294921875,-0.9983673095703124,-0.200347900390625
21775,-0.083526611328125,-1.018508911132812,-0.1805877685546875
21776,-0.08074951171875,-1.02325439453125,-0.186004638671875
21777,-0.086456298828125,-1.022705078125,-0.194580078125
21778,-0.086456298828125,-1.022705078125,-0.194580078125
21779,-0.104736328125,-0.995269775390625,-0.1961669921875
21780,-0.10272216796875,-0.99591064453125,-0.207672119140625
21781,-0.097869873046875,-1.00164794921875,-0.2062530517578125
21782,-0.097869873046875,-1.00164794921875,-0.2062530517578125
21783,-0.083526611328125,-1.022506713867188,-0.2082061767578125
21784,-0.0878448486328125,-1.013397216796875,-0.1991424560546875
21785,-0.0921630859375,-1.025558471679688,-0.19775390625
21786,-0.1083831787109375,-1.029861450195312,-0.2001800537109375
21787,-0.1239166259765625,-1.017288208007812,-0.1914520263671875
21788,-0.1313323974609375,-1.003341674804688,-0.195159912109375
21789,-0.134490966796875,-0.99517822265625,-0.204559326171875
21790,-0.134490966796875,-0.99517822265625,-0.204559326171875
21791,-0.1290130615234375,-0.988250732421875,-0.21173095703125
21792,-0.1290130615234375,-0.988250732421875,-0.21173095703125
21793,-0.131683349609375,-0.9925079345703124,-0.2180633544921875
21794,-0.128448486328125,-0.9893035888671876,-0.2470703125
21795,-0.1193084716796875,-0.98211669921875,-0.2735137939453125
21796,-0.1106719970703125,-0.9730072021484376,-0.2855072021484375
21797,-0.09912109375,-0.96563720703125,-0.30377197265625
21798,-0.09100341796875,-0.9584197998046876,-0.3097991943359375
21799,-0.089324951171875,-0.9532318115234376,-0.3042755126953125
21800,-0.0911407470703125,-0.9467010498046876,-0.2883148193359375
21801,-0.0941009521484375,-0.941375732421875,-0.276275634765625
21802,-0.096649169921875,-0.940338134765625,-0.26116943359375
21803,-0.1003265380859375,-0.9397125244140624,-0.2481536865234375
21804,-0.11334228515625,-0.9443817138671876,-0.2280426025390625
21805,-0.1316375732421875,-0.952545166015625,-0.2066192626953125
21806,-0.1562652587890625,-0.9543914794921876,-0.2048797607421875
21807,-0.17803955078125,-0.9590301513671876,-0.2001495361328125
21808,-0.2016754150390625,-0.9803009033203124,-0.194671630859375
21809,-0.23675537109375,-1.000823974609375,-0.1888275146484375
21810,-0.23675537109375,-1.000823974609375,-0.1888275146484375
21811,-0.3047943115234375,-1.031723022460938,-0.14501953125
21812,-0.3300933837890625,-1.035919189453125,-0.1345062255859375
21813,-0.3410491943359375,-1.027618408203125,-0.136199951171875
21814,-0.3641510009765625,-1.040939331054688,-0.13427734375
21815,-0.3632354736328125,-1.084274291992188,-0.0926971435546875
21816,-0.287872314453125,-0.99822998046875,-0.16455078125
21817,-0.2110748291015625,-0.9818115234375,-0.2452392578125
21818,-0.2110748291015625,-0.9818115234375,-0.2452392578125
21819,-0.1343536376953125,-0.995269775390625,-0.233612060546875
21820,-0.1343536376953125,-0.995269775390625,-0.233612060546875
21821,-0.1085968017578125,-1.04193115234375,-0.2637176513671875
21822,-0.082672119140625,-1.041915893554688,-0.22857666015625
21823,-0.05780029296875,-1.03118896484375,-0.216064453125
21824,-0.0281219482421875,-1.042007446289062,-0.200439453125
21825,0.0066070556640625,-1.124664306640625,-0.243927001953125
21826,0.0066070556640625,-1.124664306640625,-0.243927001953125
21827,0.0154571533203125,-1.139236450195312,-0.309356689453125
21828,0.0194549560546875,-1.140289306640625,-0.359283447265625
21829,0.016357421875,-1.103759765625,-0.3975677490234375
21830,0.016357421875,-1.103759765625,-0.3975677490234375
21831,0.0007171630859375,-0.985260009765625,-0.4647216796875
21832,0.0007171630859375,-0.985260009765625,-0.4647216796875
21833,-0.0646209716796875,-0.88800048828125,-0.407135009765625
21834,-0.102691650390625,-0.844940185546875,-0.3978271484375
21835,-0.133941650390625,-0.798126220703125,-0.3727874755859375
21836,-0.1463165283203125,-0.7562713623046875,-0.338134765625
21837,-0.1352996826171875,-0.721282958984375,-0.3207244873046875
21838,-0.1352996826171875,-0.721282958984375,-0.3207244873046875
21839,-0.07562255859375,-0.7297515869140625,-0.3505706787109375
21840,-0.032745361328125,-0.7794952392578125,-0.371490478515625
21841,-0.001434326171875,-0.864288330078125,-0.375946044921875
21842,0.020172119140625,-0.9195556640625,-0.3719940185546875
21843,0.057281494140625,-0.962738037109375,-0.37591552734375
21844,0.1016387939453125,-1.014389038085938,-0.3766326904296875
21845,0.1490325927734375,-1.055496215820312,-0.3856048583984375
21846,0.184539794921875,-1.08502197265625,-0.396453857421875
21847,0.2106475830078125,-1.09130859375,-0.3904876708984375
21848,0.2030181884765625,-1.083206176757812,-0.3784332275390625
21849,0.1700286865234375,-1.0380859375,-0.347412109375
21850,0.1700286865234375,-1.0380859375,-0.347412109375
21851,0.0942535400390625,-0.944427490234375,-0.275238037109375
21852,0.0877532958984375,-0.92291259765625,-0.2626190185546875
21853,0.07940673828125,-0.92486572265625,-0.2499237060546875
21854,0.070556640625,-0.93658447265625,-0.2247314453125
21855,0.058624267578125,-0.9473114013671876,-0.187347412109375
21856,0.0589752197265625,-0.9572906494140624,-0.170562744140625
21857,0.0518035888671875,-0.957855224609375,-0.1689605712890625
21858,0.0500030517578125,-0.9553375244140624,-0.1768341064453125
21859,0.05438232421875,-0.942840576171875,-0.2022552490234375
21860,0.0547027587890625,-0.93438720703125,-0.23046875
21861,0.0565643310546875,-0.9256439208984376,-0.25830078125
21862,0.04376220703125,-0.936004638671875,-0.268768310546875
21863,0.021575927734375,-0.9464874267578124,-0.267303466796875
21864,-0.00146484375,-0.9828643798828124,-0.2708587646484375
21865,-0.0706787109375,-1.042007446289062,-0.23236083984375
21866,-0.0706787109375,-1.042007446289062,-0.23236083984375
21867,0.0464630126953125,-0.98333740234375,-0.3638458251953125
21868,0.1170654296875,-0.9918365478515624,-0.2166900634765625
21869,0.1715850830078125,-0.985015869140625,-0.071746826171875
21870,0.1715850830078125,-0.985015869140625,-0.071746826171875
21871,0.239471435546875,-0.96405029296875,0.0058135986328125
21872,0.2284698486328125,-0.96307373046875,-0.0262603759765625
21873,0.210601806640625,-0.9698028564453124,-0.0681915283203125
21874,0.1892852783203125,-0.975006103515625,-0.088623046875
21875,0.170196533203125,-0.967498779296875,-0.063873291015625
21876,0.148468017578125,-0.9468994140625,-0.0392608642578125
21877,0.1203155517578125,-0.92071533203125,-0.02691650390625
21878,0.1020660400390625,-0.9024505615234376,-0.0328216552734375
21879,0.082550048828125,-0.9026641845703124,-0.028228759765625
21880,0.052581787109375,-0.9392852783203124,-0.0032806396484375
21881,0.0261383056640625,-0.9983062744140624,0.01263427734375
21882,-0.0029449462890625,-1.037200927734375,0.023834228515625
21883,-0.0384063720703125,-1.067901611328125,0.0294342041015625
21884,-0.0384063720703125,-1.067901611328125,0.0294342041015625
21885,-0.111785888671875,-1.117034912109375,0.0470428466796875
21886,-0.149383544921875,-1.136032104492188,0.0499114990234375
21887,-0.1827239990234375,-1.152328491210938,0.0515594482421875
21888,-0.2067718505859375,-1.163040161132812,0.0494232177734375
21889,-0.2219696044921875,-1.18145751953125,0.027374267578125
21890,-0.2043914794921875,-1.207748413085938,-0.0199432373046875
21891,-0.176971435546875,-1.270233154296875,-0.0977325439453125
21892,-0.1539154052734375,-1.31829833984375,-0.160430908203125
21893,-0.123443603515625,-1.345901489257812,-0.1927337646484375
21894,-0.123443603515625,-1.345901489257812,-0.1927337646484375
21895,-0.0366058349609375,-1.447021484375,-0.3633880615234375
21896,-0.0366058349609375,-1.447021484375,-0.3633880615234375
21897,0.3123016357421875,-0.940582275390625,-1.219802856445312
21898,0.3123016357421875,-0.940582275390625,-1.219802856445312
21899,0.166595458984375,-0.72808837890625,-0.721282958984375
21900,0.166595458984375,-0.72808837890625,-0.721282958984375
21901,0.139495849609375,-0.6646728515625,-0.316802978515625
21902,0.15643310546875,-0.7617034912109375,-0.5071868896484375
21903,0.170196533203125,-0.863372802734375,-0.5597381591796875
21904,0.1798553466796875,-0.93896484375,-0.5632171630859375
21905,0.1870269775390625,-0.9598846435546876,-0.6096038818359375
21906,0.1642608642578125,-1.004302978515625,-0.63330078125
21907,0.086456298828125,-1.079925537109375,-0.6041259765625
21908,-0.0616455078125,-1.1400146484375,-0.4062957763671875
21909,-0.1699676513671875,-1.216751098632812,-0.194305419921875
21910,-0.19952392578125,-1.225204467773438,-0.12103271484375
21911,-0.2034149169921875,-1.101242065429688,-0.103271484375
21912,-0.1801910400390625,-0.9102020263671876,-0.0608978271484375
21913,-0.1161651611328125,-0.775604248046875,-0.026336669921875
21914,-0.1161651611328125,-0.775604248046875,-0.026336669921875
21915,0.016571044921875,-0.6991424560546875,-0.096282958984375
21916,0.0733795166015625,-0.7089080810546875,-0.123046875
21917,0.1298675537109375,-0.718048095703125,-0.101470947265625
21918,0.1298675537109375,-0.718048095703125,-0.101470947265625
21919,0.22882080078125,-0.7127532958984375,-0.056976318359375
21920,0.23992919921875,-0.69305419921875,-0.079315185546875
21921,0.20257568359375,-0.68475341796875,-0.008209228515625
21922,0.20257568359375,-0.68475341796875,-0.008209228515625
21923,0.09332275390625,-0.71759033203125,0.1854248046875
21924,0.09332275390625,-0.71759033203125,0.1854248046875
21925,0.089508056640625,-0.8067474365234375,-0.00457763671875
21926,0.0832366943359375,-0.83551025390625,-0.0363616943359375
21927,0.0759124755859375,-0.8513031005859375,-0.0771942138671875
21928,0.0498199462890625,-0.8620452880859375,-0.1666717529296875
21929,-0.0129241943359375,-0.86566162109375,-0.1597137451171875
21930,-0.064117431640625,-0.886505126953125,-0.1282806396484375
21931,-0.108642578125,-0.917327880859375,-0.1280517578125
21932,-0.1513824462890625,-0.9519805908203124,-0.124359130859375
21933,-0.1766815185546875,-0.992462158203125,-0.1061859130859375
21934,-0.1780853271484375,-1.017333984375,-0.067047119140625
21935,-0.1641845703125,-1.02880859375,-0.06585693359375
21936,-0.1296234130859375,-1.097671508789062,-0.1506500244140625
21937,-0.0783233642578125,-1.199722290039062,-0.1650238037109375
21938,-0.061065673828125,-1.234329223632812,-0.154052734375
