time_idx,accelerometerAccelerationX(G),accelerometerAccelerationY(G),accelerometerAccelerationZ(G)
220000,0.5018157958984375,-0.8789215087890625,-0.124969482421875
220001,0.48529052734375,-0.88348388671875,-0.1257476806640625
220002,0.47247314453125,-0.8825225830078125,-0.1224212646484375
220003,0.47247314453125,-0.8825225830078125,-0.1224212646484375
220004,0.4622650146484375,-0.8737945556640625,-0.1302337646484375
220005,0.4636077880859375,-0.8675537109375,-0.1305389404296875
220006,0.4701385498046875,-0.8540802001953125,-0.1248779296875
220007,0.4701385498046875,-0.8540802001953125,-0.1248779296875
220008,0.483856201171875,-0.835205078125,-0.1273956298828125
220009,0.489593505859375,-0.8330078125,-0.1302490234375
220010,0.489593505859375,-0.8330078125,-0.1302490234375
220011,0.49151611328125,-0.8359375,-0.135162353515625
220012,0.4848480224609375,-0.8379974365234375,-0.140960693359375
220013,0.47833251953125,-0.84173583984375,-0.1468353271484375
220014,0.474456787109375,-0.845733642578125,-0.154693603515625
220015,0.474456787109375,-0.845733642578125,-0.154693603515625
220016,0.477508544921875,-0.858428955078125,-0.1670379638671875
220017,0.47564697265625,-0.86279296875,-0.168243408203125
220018,0.47564697265625,-0.86279296875,-0.168243408203125
220019,0.46697998046875,-0.8699188232421875,-0.172210693359375
220020,0.46868896484375,-0.8675994873046875,-0.16998291015625
220021,0.4693145751953125,-0.8625946044921875,-0.1690521240234375
220022,0.4693145751953125,-0.8625946044921875,-0.1690521240234375
220023,0.489166259765625,-0.857574462890625,-0.1541290283203125
220024,0.495880126953125,-0.8567047119140625,-0.1483001708984375
220025,0.5104827880859375,-0.85198974609375,-0.1405487060546875
220026,0.5084991455078125,-0.8627471923828125,-0.133758544921875
220027,0.50360107421875,-0.859283447265625,-0.1229095458984375
220028,0.4961700439453125,-0.8588104248046875,-0.1251068115234375
220029,0.482330322265625,-0.8607940673828125,-0.1206817626953125
220030,0.4770965576171875,-0.85845947265625,-0.1182403564453125
220031,0.4770965576171875,-0.85845947265625,-0.1182403564453125
220032,0.476806640625,-0.856689453125,-0.1158294677734375
220033,0.482391357421875,-0.863800048828125,-0.1185150146484375
220034,0.482391357421875,-0.863800048828125,-0.1185150146484375
220035,0.48736572265625,-0.8728179931640625,-0.136077880859375
220036,0.4826507568359375,-0.8688201904296875,-0.1455841064453125
220037,0.4855499267578125,-0.8690185546875,-0.148712158203125
220038,0.4855499267578125,-0.8690185546875,-0.148712158203125
220039,0.485260009765625,-0.8790283203125,-0.15509033203125
220040,0.4740142822265625,-0.8843994140625,-0.159698486328125
220041,0.4686126708984375,-0.8837890625,-0.1597137451171875
220042,0.478607177734375,-0.8762054443359375,-0.1603851318359375
220043,0.478607177734375,-0.8762054443359375,-0.1603851318359375
220044,0.48968505859375,-0.8763275146484375,-0.1575775146484375
220045,0.4863739013671875,-0.87579345703125,-0.1573028564453125
220046,0.4863739013671875,-0.87579345703125,-0.1573028564453125
220047,0.4727325439453125,-0.8689117431640625,-0.1652374267578125
220048,0.4729156494140625,-0.87188720703125,-0.1702880859375
220049,0.4770660400390625,-0.872161865234375,-0.1721038818359375
220050,0.4880218505859375,-0.870086669921875,-0.16802978515625
220051,0.4880218505859375,-0.870086669921875,-0.16802978515625
220052,0.4872589111328125,-0.8669281005859375,-0.1622161865234375
220053,0.48394775390625,-0.8621978759765625,-0.15594482421875
220054,0.48394775390625,-0.8621978759765625,-0.15594482421875
220055,0.4860382080078125,-0.8564605712890625,-0.14923095703125
220056,0.4881591796875,-0.8553009033203125,-0.148651123046875
220057,0.490753173828125,-0.8560791015625,-0.145294189453125
220058,0.490753173828125,-0.8560791015625,-0.145294189453125
220059,0.490814208984375,-0.854583740234375,-0.140472412109375
220060,0.4958343505859375,-0.8485107421875,-0.135101318359375
220061,0.4997711181640625,-0.844635009765625,-0.13958740234375
220062,0.4876251220703125,-0.860992431640625,-0.1163482666015625
220063,0.4876251220703125,-0.860992431640625,-0.1163482666015625
220064,0.484375,-0.8559722900390625,-0.1259307861328125
220065,0.484375,-0.8559722900390625,-0.1259307861328125
220066,0.48162841796875,-0.8671112060546875,-0.130767822265625
220067,0.48162841796875,-0.8671112060546875,-0.130767822265625
220068,0.4871673583984375,-0.868255615234375,-0.1314849853515625
220069,0.4908905029296875,-0.8682403564453125,-0.1320648193359375
220070,0.4908905029296875,-0.8682403564453125,-0.1320648193359375
220071,0.4922332763671875,-0.87158203125,-0.1342010498046875
220072,0.49835205078125,-0.8699951171875,-0.1263427734375
220073,0.499359130859375,-0.8691864013671875,-0.1274566650390625
220074,0.4972991943359375,-0.8695220947265625,-0.1286468505859375
220075,0.4972991943359375,-0.8695220947265625,-0.1286468505859375
220076,0.5027923583984375,-0.8737945556640625,-0.132354736328125
220077,0.5047607421875,-0.8744659423828125,-0.13043212890625
220078,0.50750732421875,-0.872955322265625,-0.1253509521484375
220079,0.50750732421875,-0.872955322265625,-0.1253509521484375
220080,0.5044708251953125,-0.8683624267578125,-0.12225341796875
220081,0.5017242431640625,-0.863189697265625,-0.122314453125
220082,0.5013885498046875,-0.8642578125,-0.1226959228515625
220083,0.5013885498046875,-0.8642578125,-0.1226959228515625
220084,0.5047454833984375,-0.8686981201171875,-0.1223907470703125
220085,0.5068817138671875,-0.8714447021484375,-0.1212005615234375
220086,0.508941650390625,-0.8706817626953125,-0.1218414306640625
220087,0.508941650390625,-0.8706817626953125,-0.1218414306640625
220088,0.5001678466796875,-0.86859130859375,-0.1291961669921875
220089,0.4977569580078125,-0.8690032958984375,-0.1308441162109375
220090,0.5000457763671875,-0.861846923828125,-0.1298065185546875
220091,0.5000457763671875,-0.861846923828125,-0.1298065185546875
220092,0.4984893798828125,-0.86187744140625,-0.1280364990234375
220093,0.4945068359375,-0.8592681884765625,-0.1300506591796875
220094,0.4976043701171875,-0.86029052734375,-0.1262969970703125
220095,0.4976043701171875,-0.86029052734375,-0.1262969970703125
220096,0.4994049072265625,-0.8607177734375,-0.1292266845703125
220097,0.4994659423828125,-0.859893798828125,-0.1294097900390625
220098,0.498046875,-0.8598785400390625,-0.129058837890625
220099,0.498046875,-0.8598785400390625,-0.129058837890625
220100,0.4918975830078125,-0.8527374267578125,-0.1284027099609375
220101,0.491485595703125,-0.85540771484375,-0.1196746826171875
220102,0.4954681396484375,-0.8602447509765625,-0.1214599609375
220103,0.4954681396484375,-0.8602447509765625,-0.1214599609375
220104,0.498260498046875,-0.863250732421875,-0.1235504150390625
220105,0.496185302734375,-0.86041259765625,-0.12786865234375
220106,0.493560791015625,-0.858489990234375,-0.123779296875
220107,0.493560791015625,-0.858489990234375,-0.123779296875
220108,0.5003204345703125,-0.862060546875,-0.1147918701171875
220109,0.5042724609375,-0.864471435546875,-0.1101531982421875
220110,0.5077056884765625,-0.8667144775390625,-0.1078033447265625
220111,0.5077056884765625,-0.8667144775390625,-0.1078033447265625
220112,0.513336181640625,-0.867095947265625,-0.1078338623046875
220113,0.512939453125,-0.8634033203125,-0.109039306640625
220114,0.50408935546875,-0.8630523681640625,-0.110015869140625
220115,0.50408935546875,-0.8630523681640625,-0.110015869140625
220116,0.4913177490234375,-0.8633575439453125,-0.101104736328125
220117,0.4965362548828125,-0.8685302734375,-0.10552978515625
220118,0.503326416015625,-0.872314453125,-0.1107330322265625
220119,0.503326416015625,-0.872314453125,-0.1107330322265625
220120,0.508209228515625,-0.8833465576171875,-0.133056640625
220121,0.5009765625,-0.88165283203125,-0.1300048828125
220122,0.4841156005859375,-0.855224609375,-0.1320343017578125
220123,0.4841156005859375,-0.855224609375,-0.1320343017578125
220124,0.4808807373046875,-0.84820556640625,-0.1229095458984375
220125,0.4786834716796875,-0.8562774658203125,-0.1177520751953125
220126,0.4759521484375,-0.8834991455078125,-0.1323394775390625
220127,0.4759521484375,-0.8834991455078125,-0.1323394775390625
220128,0.4810943603515625,-0.892608642578125,-0.1366424560546875
220129,0.4948883056640625,-0.88983154296875,-0.13714599609375
220130,0.5073089599609375,-0.8729095458984375,-0.1366729736328125
220131,0.5073089599609375,-0.8729095458984375,-0.1366729736328125
220132,0.5175933837890625,-0.84130859375,-0.1423492431640625
220133,0.5244598388671875,-0.8395843505859375,-0.133148193359375
220134,0.537567138671875,-0.83880615234375,-0.1082763671875
220135,0.537567138671875,-0.83880615234375,-0.1082763671875
220136,0.54254150390625,-0.837127685546875,-0.099395751953125
220137,0.5413665771484375,-0.8371124267578125,-0.09539794921875
220138,0.5375518798828125,-0.8384246826171875,-0.094085693359375
220139,0.5375518798828125,-0.8384246826171875,-0.094085693359375
220140,0.52978515625,-0.8473358154296875,-0.101531982421875
220141,0.526336669921875,-0.843353271484375,-0.1031036376953125
220142,0.523406982421875,-0.8385467529296875,-0.1058197021484375
220143,0.51971435546875,-0.839691162109375,-0.1042022705078125
220144,0.51434326171875,-0.8453369140625,-0.104095458984375
220145,0.50628662109375,-0.84771728515625,-0.1135711669921875
220146,0.504791259765625,-0.8554229736328125,-0.119140625
220147,0.50335693359375,-0.8691253662109375,-0.1276702880859375
220148,0.50274658203125,-0.8793792724609375,-0.1316070556640625
220149,0.501617431640625,-0.8702545166015625,-0.1464996337890625
220150,0.499420166015625,-0.8544769287109375,-0.14947509765625
220151,0.499420166015625,-0.8544769287109375,-0.14947509765625
220152,0.500091552734375,-0.861724853515625,-0.1562042236328125
220153,0.4931640625,-0.8594207763671875,-0.1604156494140625
220154,0.4857330322265625,-0.8601837158203125,-0.1593170166015625
220155,0.4857330322265625,-0.8601837158203125,-0.1593170166015625
220156,0.4818267822265625,-0.86456298828125,-0.156982421875
220157,0.4801483154296875,-0.86663818359375,-0.15814208984375
220158,0.4835968017578125,-0.865753173828125,-0.157073974609375
220159,0.4835968017578125,-0.865753173828125,-0.157073974609375
220160,0.4852752685546875,-0.86285400390625,-0.1551361083984375
220161,0.4886932373046875,-0.8553009033203125,-0.1514892578125
220162,0.49041748046875,-0.8512420654296875,-0.1506195068359375
220163,0.49041748046875,-0.8512420654296875,-0.1506195068359375
220164,0.4947509765625,-0.8485107421875,-0.1474609375
220165,0.5200958251953125,-0.86529541015625,-0.14605712890625
220166,0.5191497802734375,-0.861785888671875,-0.146820068359375
220167,0.5149688720703125,-0.859710693359375,-0.1499786376953125
220168,0.5131988525390625,-0.8571319580078125,-0.14569091796875
220169,0.51171875,-0.855224609375,-0.1402130126953125
220170,0.51104736328125,-0.85821533203125,-0.133636474609375
220171,0.5091552734375,-0.857025146484375,-0.1276092529296875
220172,0.5075531005859375,-0.8578948974609375,-0.126007080078125
220173,0.5048980712890625,-0.8634796142578125,-0.12921142578125
220174,0.4985198974609375,-0.868560791015625,-0.1339263916015625
220175,0.4985198974609375,-0.868560791015625,-0.1339263916015625
220176,0.4912109375,-0.8717498779296875,-0.146728515625
220177,0.48968505859375,-0.87237548828125,-0.14801025390625
220178,0.4851837158203125,-0.870147705078125,-0.1469268798828125
220179,0.485870361328125,-0.8649444580078125,-0.145721435546875
220180,0.4901275634765625,-0.863433837890625,-0.140625
220181,0.48345947265625,-0.8574371337890625,-0.1382293701171875
220182,0.4726409912109375,-0.851776123046875,-0.1381378173828125
220183,0.4726409912109375,-0.851776123046875,-0.1381378173828125
220184,0.494659423828125,-0.85888671875,-0.1417388916015625
220185,0.49749755859375,-0.863311767578125,-0.1478271484375
220186,0.493804931640625,-0.8714447021484375,-0.14764404296875
220187,0.485626220703125,-0.87176513671875,-0.1568603515625
220188,0.4953460693359375,-0.875732421875,-0.1630401611328125
220189,0.4781036376953125,-0.8640289306640625,-0.16278076171875
220190,0.470245361328125,-0.8627166748046875,-0.1645965576171875
220191,0.470245361328125,-0.8627166748046875,-0.1645965576171875
220192,0.4792633056640625,-0.8666839599609375,-0.161529541015625
220193,0.484283447265625,-0.8660430908203125,-0.1611328125
220194,0.48583984375,-0.8692474365234375,-0.17352294921875
220195,0.48583984375,-0.8692474365234375,-0.17352294921875
220196,0.489166259765625,-0.8740081787109375,-0.1824951171875
220197,0.4917755126953125,-0.871490478515625,-0.176971435546875
220198,0.4900360107421875,-0.8655548095703125,-0.17144775390625
220199,0.4900360107421875,-0.8655548095703125,-0.17144775390625
220200,0.4810791015625,-0.8577423095703125,-0.1787872314453125
220201,0.4791717529296875,-0.8566131591796875,-0.1775970458984375
220202,0.480865478515625,-0.86077880859375,-0.1774139404296875
220203,0.480865478515625,-0.86077880859375,-0.1774139404296875
220204,0.482025146484375,-0.8600616455078125,-0.1790008544921875
220205,0.48431396484375,-0.8689422607421875,-0.188720703125
220206,0.4880218505859375,-0.8710479736328125,-0.1849822998046875
220207,0.4880218505859375,-0.8710479736328125,-0.1849822998046875
220208,0.499908447265625,-0.867218017578125,-0.2037353515625
220209,0.49420166015625,-0.85614013671875,-0.20733642578125
220210,0.4961395263671875,-0.855804443359375,-0.208709716796875
220211,0.4961395263671875,-0.855804443359375,-0.208709716796875
220212,0.498809814453125,-0.8538665771484375,-0.1981201171875
220213,0.5025177001953125,-0.8548583984375,-0.197235107421875
220214,0.48870849609375,-0.851654052734375,-0.2057037353515625
220215,0.48870849609375,-0.851654052734375,-0.2057037353515625
220216,0.47601318359375,-0.8475341796875,-0.2110748291015625
220217,0.46710205078125,-0.843292236328125,-0.214935302734375
220218,0.470611572265625,-0.849639892578125,-0.2183990478515625
220219,0.470611572265625,-0.849639892578125,-0.2183990478515625
220220,0.4921875,-0.8759918212890625,-0.2464447021484375
220221,0.4808197021484375,-0.864044189453125,-0.27630615234375
220222,0.44256591796875,-0.8329925537109375,-0.28338623046875
220223,0.44256591796875,-0.8329925537109375,-0.28338623046875
220224,0.410125732421875,-0.842864990234375,-0.2837982177734375
220225,0.4148712158203125,-0.8515625,-0.2811279296875
220226,0.419097900390625,-0.8309783935546875,-0.248809814453125
220227,0.430389404296875,-0.833343505859375,-0.2632904052734375
220228,0.4620208740234375,-0.854095458984375,-0.2847442626953125
220229,0.4894561767578125,-0.861846923828125,-0.2968597412109375
220230,0.499267578125,-0.859954833984375,-0.30548095703125
220231,0.4983367919921875,-0.8589935302734375,-0.2989501953125
220232,0.4869537353515625,-0.8525238037109375,-0.28668212890625
220233,0.47308349609375,-0.8466796875,-0.284698486328125
220234,0.4666595458984375,-0.84539794921875,-0.2831573486328125
220235,0.460723876953125,-0.843963623046875,-0.280609130859375
220236,0.4477996826171875,-0.843658447265625,-0.28460693359375
220237,0.4425048828125,-0.842315673828125,-0.279937744140625
220238,0.44232177734375,-0.840362548828125,-0.277984619140625
220239,0.44232177734375,-0.840362548828125,-0.277984619140625
220240,0.448089599609375,-0.83697509765625,-0.283935546875
220241,0.4467620849609375,-0.835845947265625,-0.2830047607421875
220242,0.44903564453125,-0.83160400390625,-0.2811431884765625
220243,0.44903564453125,-0.83160400390625,-0.2811431884765625
220244,0.463348388671875,-0.83343505859375,-0.2867584228515625
220245,0.4708709716796875,-0.83563232421875,-0.2868804931640625
220246,0.4779205322265625,-0.83416748046875,-0.284271240234375
220247,0.4779205322265625,-0.83416748046875,-0.284271240234375
220248,0.48358154296875,-0.8359375,-0.2776641845703125
220249,0.487152099609375,-0.836090087890625,-0.272369384765625
220250,0.48809814453125,-0.8394775390625,-0.2628173828125
220251,0.485748291015625,-0.8425750732421875,-0.2578277587890625
220252,0.4810943603515625,-0.8444976806640625,-0.2681121826171875
220253,0.475921630859375,-0.8461761474609375,-0.2737579345703125
220254,0.4748687744140625,-0.8524322509765625,-0.2717742919921875
220255,0.4748687744140625,-0.8524322509765625,-0.2717742919921875
220256,0.488616943359375,-0.864410400390625,-0.2591094970703125
220257,0.4825439453125,-0.8609771728515625,-0.272064208984375
220258,0.4703369140625,-0.8535308837890625,-0.2912750244140625
220259,0.4614410400390625,-0.8474884033203125,-0.2969818115234375
220260,0.4606781005859375,-0.8401947021484375,-0.2826690673828125
220261,0.4605865478515625,-0.83892822265625,-0.2586517333984375
220262,0.4636688232421875,-0.825958251953125,-0.2447662353515625
220263,0.4636688232421875,-0.825958251953125,-0.2447662353515625
220264,0.4708709716796875,-0.834625244140625,-0.229278564453125
220265,0.477874755859375,-0.8658447265625,-0.2355194091796875
220266,0.4657745361328125,-0.8703155517578125,-0.24774169921875
220267,0.4489593505859375,-0.863616943359375,-0.2578887939453125
220268,0.429718017578125,-0.86370849609375,-0.264495849609375
220269,0.416748046875,-0.8677825927734375,-0.2721099853515625
220270,0.4210052490234375,-0.867950439453125,-0.289031982421875
220271,0.4210052490234375,-0.867950439453125,-0.289031982421875
220272,0.4400177001953125,-0.858367919921875,-0.28765869140625
220273,0.4668426513671875,-0.86322021484375,-0.2791900634765625
220274,0.4820098876953125,-0.8680419921875,-0.2712860107421875
220275,0.4820098876953125,-0.8680419921875,-0.2712860107421875
220276,0.48150634765625,-0.8593292236328125,-0.2659759521484375
220277,0.504150390625,-0.862274169921875,-0.2645111083984375
220278,0.5159454345703125,-0.8668060302734375,-0.2721710205078125
220279,0.482879638671875,-0.824554443359375,-0.2286834716796875
220280,0.5065460205078125,-0.783935546875,-0.2560577392578125
220281,0.5429229736328125,-0.837554931640625,-0.26300048828125
220282,0.5983734130859375,-0.8775787353515625,-0.2460174560546875
220283,0.644805908203125,-0.876739501953125,-0.254608154296875
220284,0.6931610107421875,-0.8719329833984375,-0.2751312255859375
220285,0.7833709716796875,-0.8264312744140625,-0.35546875
220286,0.803955078125,-0.914154052734375,-0.6184539794921875
220287,0.803955078125,-0.914154052734375,-0.6184539794921875
220288,0.1756591796875,-0.9183502197265624,-0.232421875
220289,0.01605224609375,-0.7945556640625,0.0349578857421875
220290,-0.0585784912109375,-0.7611541748046875,0.1186981201171875
220291,-0.0585784912109375,-0.7611541748046875,0.1186981201171875
220292,0.093658447265625,-0.84136962890625,-0.0597076416015625
220293,0.239166259765625,-0.8424530029296875,-0.1175079345703125
220294,0.48748779296875,-0.8899078369140625,-0.2846221923828125
220295,0.48748779296875,-0.8899078369140625,-0.2846221923828125
220296,0.5449066162109375,-0.8889617919921875,-0.3709564208984375
220297,0.5619049072265625,-0.8906707763671875,-0.4201507568359375
220298,0.562164306640625,-0.8863677978515625,-0.398101806640625
220299,0.5518646240234375,-0.8857421875,-0.3219757080078125
220300,0.52752685546875,-0.8951568603515625,-0.254791259765625
220301,0.4835052490234375,-0.89007568359375,-0.2450714111328125
220302,0.439849853515625,-0.8761444091796875,-0.246673583984375
220303,0.4098358154296875,-0.8702545166015625,-0.2631378173828125
220304,0.39697265625,-0.866241455078125,-0.2962646484375
220305,0.394134521484375,-0.8643035888671875,-0.3037109375
220306,0.399627685546875,-0.865753173828125,-0.2960052490234375
220307,0.399627685546875,-0.865753173828125,-0.2960052490234375
220308,0.43157958984375,-0.881439208984375,-0.2848968505859375
220309,0.44293212890625,-0.883453369140625,-0.292205810546875
220310,0.4430389404296875,-0.882232666015625,-0.294219970703125
220311,0.4430389404296875,-0.882232666015625,-0.294219970703125
220312,0.3982696533203125,-0.8687896728515625,-0.27191162109375
220313,0.38275146484375,-0.8658599853515625,-0.252532958984375
220314,0.3830718994140625,-0.865447998046875,-0.23675537109375
220315,0.3830718994140625,-0.865447998046875,-0.23675537109375
220316,0.43310546875,-0.8709869384765625,-0.2312774658203125
220317,0.4825592041015625,-0.88037109375,-0.26702880859375
220318,0.4796905517578125,-0.881134033203125,-0.2908172607421875
220319,0.4796905517578125,-0.881134033203125,-0.2908172607421875
220320,0.30615234375,-0.8276519775390625,-0.278106689453125
220321,0.267822265625,-0.8024444580078125,-0.270294189453125
220322,0.374755859375,-0.8448333740234375,-0.28948974609375
220323,0.374755859375,-0.8448333740234375,-0.28948974609375
220324,0.542633056640625,-0.8704681396484375,-0.3030853271484375
220325,0.5426025390625,-0.875518798828125,-0.3098297119140625
220326,0.5038299560546875,-0.868133544921875,-0.304595947265625
220327,0.4417877197265625,-0.848388671875,-0.3063507080078125
220328,0.397369384765625,-0.8420257568359375,-0.3116912841796875
220329,0.3979644775390625,-0.8455810546875,-0.309722900390625
220330,0.415130615234375,-0.8573455810546875,-0.3063201904296875
220331,0.417724609375,-0.8636932373046875,-0.3006134033203125
220332,0.4082794189453125,-0.8687744140625,-0.297149658203125
220333,0.3939666748046875,-0.8722686767578125,-0.297454833984375
220334,0.39361572265625,-0.873992919921875,-0.307769775390625
220335,0.39361572265625,-0.873992919921875,-0.307769775390625
220336,0.395904541015625,-0.8778076171875,-0.31219482421875
220337,0.3850860595703125,-0.87237548828125,-0.29498291015625
220338,0.37811279296875,-0.86810302734375,-0.2833251953125
220339,0.37811279296875,-0.86810302734375,-0.2833251953125
220340,0.393585205078125,-0.86102294921875,-0.2754058837890625
220341,0.41015625,-0.859771728515625,-0.283538818359375
220342,0.4233245849609375,-0.85516357421875,-0.300048828125
220343,0.4233245849609375,-0.85516357421875,-0.300048828125
220344,0.4515838623046875,-0.8407745361328125,-0.3495025634765625
220345,0.431304931640625,-0.8221893310546875,-0.3387603759765625
220346,0.4329071044921875,-0.818115234375,-0.305389404296875
220347,0.4329071044921875,-0.818115234375,-0.305389404296875
220348,0.486114501953125,-0.84075927734375,-0.2941741943359375
220349,0.4855804443359375,-0.8532867431640625,-0.31646728515625
220350,0.47869873046875,-0.854034423828125,-0.321746826171875
220351,0.47869873046875,-0.854034423828125,-0.321746826171875
220352,0.414031982421875,-0.8429718017578125,-0.3342742919921875
220353,0.4016876220703125,-0.84124755859375,-0.3378753662109375
220354,0.4124298095703125,-0.8538055419921875,-0.3285980224609375
220355,0.4124298095703125,-0.8538055419921875,-0.3285980224609375
220356,0.4219818115234375,-0.8656768798828125,-0.3217926025390625
220357,0.4171142578125,-0.868377685546875,-0.3261871337890625
220358,0.412353515625,-0.8658447265625,-0.3205718994140625
220359,0.412353515625,-0.8658447265625,-0.3205718994140625
220360,0.404510498046875,-0.8648223876953125,-0.3105010986328125
220361,0.399383544921875,-0.8632354736328125,-0.297088623046875
220362,0.3973541259765625,-0.8615570068359375,-0.296142578125
220363,0.3973541259765625,-0.8615570068359375,-0.296142578125
220364,0.4000091552734375,-0.85772705078125,-0.30206298828125
220365,0.411285400390625,-0.86224365234375,-0.308746337890625
220366,0.4393768310546875,-0.8612213134765625,-0.33154296875
220367,0.4234161376953125,-0.849853515625,-0.3406982421875
220368,0.388580322265625,-0.8213348388671875,-0.3372039794921875
220369,0.4237518310546875,-0.83355712890625,-0.318511962890625
220370,0.4702301025390625,-0.8473358154296875,-0.307861328125
220371,0.4702301025390625,-0.8473358154296875,-0.307861328125
220372,0.48211669921875,-0.8521881103515625,-0.3045806884765625
220373,0.470611572265625,-0.8528594970703125,-0.3158721923828125
220374,0.4391021728515625,-0.8402099609375,-0.31695556640625
220375,0.4391021728515625,-0.8402099609375,-0.31695556640625
220376,0.4407958984375,-0.8626708984375,-0.30108642578125
220377,0.43768310546875,-0.8699798583984375,-0.3094482421875
220378,0.4197540283203125,-0.8689422607421875,-0.32275390625
220379,0.4197540283203125,-0.8689422607421875,-0.32275390625
220380,0.3970794677734375,-0.866851806640625,-0.3400726318359375
220381,0.3953399658203125,-0.86376953125,-0.32916259765625
220382,0.3946685791015625,-0.8632965087890625,-0.30841064453125
220383,0.4005584716796875,-0.864532470703125,-0.300079345703125
220384,0.406829833984375,-0.863677978515625,-0.3050384521484375
220385,0.4105377197265625,-0.859588623046875,-0.3061370849609375
220386,0.4126129150390625,-0.8564300537109375,-0.3134918212890625
220387,0.4126129150390625,-0.8564300537109375,-0.3134918212890625
220388,0.406097412109375,-0.8382568359375,-0.3404998779296875
220389,0.4110870361328125,-0.829559326171875,-0.3388671875
220390,0.428466796875,-0.8318634033203125,-0.3321075439453125
220391,0.428466796875,-0.8318634033203125,-0.3321075439453125
220392,0.4772491455078125,-0.8595428466796875,-0.3130035400390625
220393,0.4624176025390625,-0.8549957275390625,-0.319091796875
220394,0.4432220458984375,-0.844512939453125,-0.3134765625
220395,0.4432220458984375,-0.844512939453125,-0.3134765625
220396,0.43231201171875,-0.8446044921875,-0.31036376953125
220397,0.43115234375,-0.851409912109375,-0.302001953125
220398,0.435302734375,-0.8637237548828125,-0.3044891357421875
220399,0.435302734375,-0.8637237548828125,-0.3044891357421875
220400,0.409515380859375,-0.8633575439453125,-0.3239898681640625
220401,0.3930816650390625,-0.8632049560546875,-0.3319549560546875
220402,0.3847198486328125,-0.862762451171875,-0.3294525146484375
220403,0.3847198486328125,-0.862762451171875,-0.3294525146484375
220404,0.3986968994140625,-0.8590545654296875,-0.3017425537109375
220405,0.40771484375,-0.859222412109375,-0.2982940673828125
220406,0.4146881103515625,-0.86053466796875,-0.3012237548828125
220407,0.4207000732421875,-0.8608856201171875,-0.305755615234375
220408,0.438995361328125,-0.860382080078125,-0.323638916015625
220409,0.4716644287109375,-0.8711395263671875,-0.344970703125
220410,0.391326904296875,-0.82965087890625,-0.3236846923828125
220411,0.391326904296875,-0.82965087890625,-0.3236846923828125
220412,0.386383056640625,-0.8215484619140625,-0.3389434814453125
220413,0.4123077392578125,-0.822357177734375,-0.3307037353515625
220414,0.4641265869140625,-0.84307861328125,-0.3349151611328125
220415,0.4641265869140625,-0.84307861328125,-0.3349151611328125
220416,0.4488983154296875,-0.8465728759765625,-0.333740234375
220417,0.4363555908203125,-0.841552734375,-0.311737060546875
220418,0.436248779296875,-0.848541259765625,-0.3154296875
220419,0.4304351806640625,-0.854156494140625,-0.331329345703125
220420,0.4192657470703125,-0.852813720703125,-0.3462371826171875
220421,0.4139404296875,-0.8514556884765625,-0.3530426025390625
220422,0.4086456298828125,-0.8497314453125,-0.35418701171875
220423,0.4086456298828125,-0.8497314453125,-0.35418701171875
220424,0.4015045166015625,-0.8433380126953125,-0.3490753173828125
220425,0.4049072265625,-0.8435516357421875,-0.351318359375
220426,0.406005859375,-0.838958740234375,-0.3487701416015625
220427,0.406005859375,-0.838958740234375,-0.3487701416015625
220428,0.408538818359375,-0.8397216796875,-0.3344268798828125
220429,0.40924072265625,-0.8421173095703125,-0.3307647705078125
220430,0.41131591796875,-0.8381195068359375,-0.3351287841796875
220431,0.416748046875,-0.8335723876953125,-0.3364715576171875
220432,0.4278106689453125,-0.8334808349609375,-0.3293304443359375
220433,0.436676025390625,-0.8319244384765625,-0.322113037109375
220434,0.4436798095703125,-0.8268890380859375,-0.3172454833984375
220435,0.448089599609375,-0.82391357421875,-0.3135528564453125
220436,0.4555511474609375,-0.8242340087890625,-0.3097686767578125
220437,0.469024658203125,-0.8288726806640625,-0.311126708984375
220438,0.4750823974609375,-0.836334228515625,-0.322265625
220439,0.4750823974609375,-0.836334228515625,-0.322265625
220440,0.4552001953125,-0.835662841796875,-0.3678741455078125
220441,0.443145751953125,-0.8297882080078125,-0.3809356689453125
220442,0.44097900390625,-0.828887939453125,-0.3751678466796875
220443,0.44512939453125,-0.8293609619140625,-0.3632049560546875
220444,0.445587158203125,-0.826385498046875,-0.3647308349609375
220445,0.436920166015625,-0.8227081298828125,-0.37060546875
220446,0.4253082275390625,-0.8204345703125,-0.370635986328125
220447,0.4253082275390625,-0.8204345703125,-0.370635986328125
220448,0.4223480224609375,-0.824066162109375,-0.3760223388671875
220449,0.425750732421875,-0.826904296875,-0.3734893798828125
220450,0.4347381591796875,-0.8301544189453125,-0.3640594482421875
220451,0.4347381591796875,-0.8301544189453125,-0.3640594482421875
220452,0.42724609375,-0.832763671875,-0.3554840087890625
220453,0.4246368408203125,-0.835418701171875,-0.3589935302734375
220454,0.429290771484375,-0.8339385986328125,-0.354766845703125
220455,0.429290771484375,-0.8339385986328125,-0.354766845703125
220456,0.444427490234375,-0.835052490234375,-0.343170166015625
220457,0.458343505859375,-0.835113525390625,-0.33599853515625
220458,0.47381591796875,-0.8351287841796875,-0.3399505615234375
220459,0.4824066162109375,-0.8296966552734375,-0.35003662109375
220460,0.4814910888671875,-0.825469970703125,-0.37030029296875
220461,0.471099853515625,-0.81878662109375,-0.3838958740234375
220462,0.4779510498046875,-0.8214263916015625,-0.3583984375
220463,0.4779510498046875,-0.8214263916015625,-0.3583984375
220464,0.4919586181640625,-0.8275909423828125,-0.34490966796875
220465,0.483489990234375,-0.824798583984375,-0.353790283203125
220466,0.4600982666015625,-0.8175811767578125,-0.364471435546875
220467,0.4479217529296875,-0.81707763671875,-0.363983154296875
220468,0.440155029296875,-0.821624755859375,-0.3570098876953125
220469,0.435943603515625,-0.82781982421875,-0.3577880859375
220470,0.431427001953125,-0.8299560546875,-0.359130859375
220471,0.431427001953125,-0.8299560546875,-0.359130859375
220472,0.3993072509765625,-0.826446533203125,-0.3691558837890625
220473,0.399322509765625,-0.832000732421875,-0.3613433837890625
220474,0.4010772705078125,-0.8347015380859375,-0.362060546875
220475,0.4130706787109375,-0.8380584716796875,-0.349945068359375
220476,0.4243011474609375,-0.8404998779296875,-0.3427734375
220477,0.4241485595703125,-0.8360595703125,-0.342071533203125
220478,0.4238128662109375,-0.832305908203125,-0.340118408203125
220479,0.4238128662109375,-0.832305908203125,-0.340118408203125
220480,0.445159912109375,-0.834228515625,-0.34344482421875
220481,0.4630584716796875,-0.83489990234375,-0.344207763671875
220482,0.4750823974609375,-0.8338165283203125,-0.3460540771484375
220483,0.4750823974609375,-0.8338165283203125,-0.3460540771484375
220484,0.4751434326171875,-0.820953369140625,-0.367950439453125
220485,0.463531494140625,-0.81646728515625,-0.376739501953125
220486,0.4653472900390625,-0.8153076171875,-0.359619140625
220487,0.4653472900390625,-0.8153076171875,-0.359619140625
220488,0.47308349609375,-0.82476806640625,-0.340972900390625
220489,0.4760589599609375,-0.8275604248046875,-0.3461151123046875
220490,0.4693145751953125,-0.8288116455078125,-0.3473968505859375
220491,0.4680328369140625,-0.8291778564453125,-0.354278564453125
220492,0.4677581787109375,-0.83099365234375,-0.3639678955078125
220493,0.458160400390625,-0.8303985595703125,-0.3723602294921875
220494,0.4395599365234375,-0.8275604248046875,-0.3743438720703125
220495,0.4395599365234375,-0.8275604248046875,-0.3743438720703125
220496,0.424713134765625,-0.8223114013671875,-0.3657684326171875
220497,0.432037353515625,-0.826690673828125,-0.3624725341796875
220498,0.4456939697265625,-0.8341827392578125,-0.356414794921875
220499,0.45635986328125,-0.841094970703125,-0.3572235107421875
220500,0.4328765869140625,-0.831878662109375,-0.3696746826171875
220501,0.407318115234375,-0.82183837890625,-0.361572265625
220502,0.4167022705078125,-0.8262786865234375,-0.3549652099609375
220503,0.4167022705078125,-0.8262786865234375,-0.3549652099609375
220504,0.4549560546875,-0.838409423828125,-0.338348388671875
220505,0.46026611328125,-0.8384552001953125,-0.3359222412109375
220506,0.4557647705078125,-0.834991455078125,-0.3335113525390625
220507,0.4557647705078125,-0.834991455078125,-0.3335113525390625
220508,0.4608154296875,-0.8372802734375,-0.3336639404296875
220509,0.4596405029296875,-0.8400115966796875,-0.3352203369140625
220510,0.447052001953125,-0.84100341796875,-0.3452911376953125
220511,0.447052001953125,-0.84100341796875,-0.3452911376953125
220512,0.441131591796875,-0.8388824462890625,-0.349853515625
220513,0.4301300048828125,-0.8383636474609375,-0.3584747314453125
220514,0.41986083984375,-0.836151123046875,-0.36126708984375
220515,0.41986083984375,-0.836151123046875,-0.36126708984375
220516,0.4071044921875,-0.8262939453125,-0.3473663330078125
220517,0.4091644287109375,-0.82489013671875,-0.341339111328125
220518,0.4091796875,-0.827545166015625,-0.3357086181640625
220519,0.4091796875,-0.827545166015625,-0.3357086181640625
220520,0.4156341552734375,-0.8277740478515625,-0.344024658203125
220521,0.4191741943359375,-0.8246612548828125,-0.352874755859375
220522,0.423675537109375,-0.8222198486328125,-0.3639068603515625
220523,0.4271697998046875,-0.82025146484375,-0.373931884765625
220524,0.4254608154296875,-0.818084716796875,-0.3820648193359375
220525,0.4259796142578125,-0.8216705322265625,-0.3872833251953125
220526,0.431396484375,-0.8222198486328125,-0.3983612060546875
220527,0.431396484375,-0.8222198486328125,-0.3983612060546875
220528,0.4346923828125,-0.82305908203125,-0.3945465087890625
220529,0.4394073486328125,-0.8275146484375,-0.3810272216796875
220530,0.4484405517578125,-0.8316497802734375,-0.36700439453125
220531,0.45965576171875,-0.8348388671875,-0.3575592041015625
220532,0.463897705078125,-0.8366851806640625,-0.3529815673828125
220533,0.462249755859375,-0.829345703125,-0.3514251708984375
220534,0.4528045654296875,-0.83343505859375,-0.3499298095703125
220535,0.4528045654296875,-0.83343505859375,-0.3499298095703125
220536,0.439849853515625,-0.8367462158203125,-0.3453826904296875
220537,0.439849853515625,-0.8367462158203125,-0.3453826904296875
220538,0.4445648193359375,-0.8399200439453125,-0.344390869140625
220539,0.4445648193359375,-0.8399200439453125,-0.344390869140625
220540,0.4553375244140625,-0.8367462158203125,-0.3455963134765625
220541,0.4619903564453125,-0.841796875,-0.3452301025390625
220542,0.4664306640625,-0.8452911376953125,-0.3462677001953125
220543,0.4664306640625,-0.8452911376953125,-0.3462677001953125
220544,0.4606781005859375,-0.8388671875,-0.3787994384765625
220545,0.44647216796875,-0.8324737548828125,-0.3843841552734375
220546,0.4365081787109375,-0.8277435302734375,-0.380767822265625
220547,0.4365081787109375,-0.8277435302734375,-0.380767822265625
220548,0.40771484375,-0.8196563720703125,-0.3948974609375
220549,0.3945159912109375,-0.81298828125,-0.4092864990234375
220550,0.3862762451171875,-0.8097076416015625,-0.414306640625
220551,0.3857574462890625,-0.8066864013671875,-0.4115447998046875
220552,0.392486572265625,-0.8173065185546875,-0.3946075439453125
220553,0.4040374755859375,-0.82330322265625,-0.3807220458984375
220554,0.4082183837890625,-0.8281097412109375,-0.36468505859375
220555,0.4082183837890625,-0.8281097412109375,-0.36468505859375
220556,0.410400390625,-0.8277587890625,-0.36566162109375
220557,0.4166412353515625,-0.829437255859375,-0.36944580078125
220558,0.422607421875,-0.8317108154296875,-0.36785888671875
220559,0.422607421875,-0.8317108154296875,-0.36785888671875
220560,0.4318695068359375,-0.833587646484375,-0.354766845703125
220561,0.4379119873046875,-0.834808349609375,-0.3471221923828125
220562,0.441680908203125,-0.8352508544921875,-0.338592529296875
220563,0.441680908203125,-0.8352508544921875,-0.338592529296875
220564,0.4421234130859375,-0.83331298828125,-0.334136962890625
220565,0.4393157958984375,-0.83111572265625,-0.3267822265625
220566,0.4438629150390625,-0.8329315185546875,-0.3258209228515625
220567,0.44305419921875,-0.8361968994140625,-0.324310302734375
220568,0.4445037841796875,-0.8328094482421875,-0.3278961181640625
220569,0.4429931640625,-0.830902099609375,-0.3340606689453125
220570,0.445831298828125,-0.830291748046875,-0.3672637939453125
220571,0.445831298828125,-0.830291748046875,-0.3672637939453125
220572,0.4531707763671875,-0.831329345703125,-0.389312744140625
220573,0.432769775390625,-0.8230133056640625,-0.391998291015625
220574,0.411956787109375,-0.8084259033203125,-0.3824005126953125
220575,0.411956787109375,-0.8084259033203125,-0.3824005126953125
220576,0.4798583984375,-0.8282623291015625,-0.344970703125
220577,0.4851837158203125,-0.82989501953125,-0.316436767578125
220578,0.4797210693359375,-0.8102264404296875,-0.3296966552734375
220579,0.4797210693359375,-0.8102264404296875,-0.3296966552734375
220580,0.43023681640625,-0.7998809814453125,-0.383819580078125
220581,0.430999755859375,-0.8111114501953125,-0.373199462890625
220582,0.4428558349609375,-0.82513427734375,-0.3636627197265625
220583,0.4428558349609375,-0.82513427734375,-0.3636627197265625
220584,0.44354248046875,-0.8367919921875,-0.3368072509765625
220585,0.446563720703125,-0.8460235595703125,-0.348175048828125
220586,0.433837890625,-0.8443756103515625,-0.3683929443359375
220587,0.41314697265625,-0.840911865234375,-0.38690185546875
220588,0.4042510986328125,-0.8409423828125,-0.4009857177734375
220589,0.4050445556640625,-0.8413543701171875,-0.39544677734375
220590,0.4014739990234375,-0.8422393798828125,-0.370269775390625
220591,0.3972930908203125,-0.840545654296875,-0.3489990234375
220592,0.400146484375,-0.83697509765625,-0.332000732421875
220593,0.411376953125,-0.83697509765625,-0.3284149169921875
220594,0.4320068359375,-0.838226318359375,-0.32733154296875
220595,0.4320068359375,-0.838226318359375,-0.32733154296875
220596,0.4669647216796875,-0.8419952392578125,-0.319091796875
220597,0.4669647216796875,-0.8419952392578125,-0.319091796875
220598,0.4477996826171875,-0.8219757080078125,-0.319183349609375
220599,0.4477996826171875,-0.8219757080078125,-0.319183349609375
220600,0.4630126953125,-0.8238067626953125,-0.3330230712890625
220601,0.4882354736328125,-0.8342742919921875,-0.362060546875
220602,0.4760894775390625,-0.8346099853515625,-0.3703155517578125
220603,0.4760894775390625,-0.8346099853515625,-0.3703155517578125
220604,0.3985748291015625,-0.792083740234375,-0.4146575927734375
220605,0.3985748291015625,-0.792083740234375,-0.4146575927734375
220606,0.4512176513671875,-0.8069000244140625,-0.382904052734375
220607,0.457366943359375,-0.8088531494140625,-0.3619842529296875
220608,0.483856201171875,-0.82208251953125,-0.3491973876953125
220609,0.512176513671875,-0.818267822265625,-0.349853515625
220610,0.46728515625,-0.810455322265625,-0.376953125
220611,0.46728515625,-0.810455322265625,-0.376953125
220612,0.4481964111328125,-0.8131561279296875,-0.3860321044921875
220613,0.439422607421875,-0.819000244140625,-0.379119873046875
220614,0.4415130615234375,-0.8277740478515625,-0.3744964599609375
220615,0.4415130615234375,-0.8277740478515625,-0.3744964599609375
220616,0.449859619140625,-0.8412933349609375,-0.3680877685546875
220617,0.449859619140625,-0.8412933349609375,-0.3680877685546875
220618,0.452545166015625,-0.8424835205078125,-0.370330810546875
220619,0.4415130615234375,-0.8387603759765625,-0.371124267578125
220620,0.420623779296875,-0.8314971923828125,-0.3714599609375
220621,0.4117279052734375,-0.82879638671875,-0.3678436279296875
220622,0.4142913818359375,-0.8323516845703125,-0.3517913818359375
220623,0.4173736572265625,-0.82769775390625,-0.3386077880859375
220624,0.4183349609375,-0.8268585205078125,-0.34051513671875
220625,0.4183349609375,-0.8268585205078125,-0.34051513671875
220626,0.438018798828125,-0.8238372802734375,-0.3670501708984375
220627,0.4398040771484375,-0.81866455078125,-0.36962890625
220628,0.4405364990234375,-0.8119659423828125,-0.3607025146484375
220629,0.4586181640625,-0.81573486328125,-0.35833740234375
220630,0.4874114990234375,-0.8273773193359375,-0.3634033203125
220631,0.4719085693359375,-0.8230743408203125,-0.3756103515625
220632,0.4364013671875,-0.802093505859375,-0.3968048095703125
220633,0.4318695068359375,-0.7951202392578125,-0.4093170166015625
220634,0.4334716796875,-0.796966552734375,-0.410186767578125
220635,0.4073486328125,-0.7894134521484375,-0.389892578125
220636,0.4299163818359375,-0.80230712890625,-0.3680877685546875
220637,0.478179931640625,-0.821136474609375,-0.360931396484375
220638,0.509765625,-0.8314208984375,-0.3561859130859375
220639,0.509765625,-0.8314208984375,-0.3561859130859375
220640,0.46685791015625,-0.8288116455078125,-0.386383056640625
220641,0.442413330078125,-0.817413330078125,-0.3837738037109375
220642,0.4202423095703125,-0.81463623046875,-0.376373291015625
220643,0.4233245849609375,-0.8221282958984375,-0.368927001953125
220644,0.439605712890625,-0.831329345703125,-0.3626251220703125
220645,0.453399658203125,-0.8392486572265625,-0.35986328125
220646,0.4544219970703125,-0.84173583984375,-0.3638458251953125
220647,0.4544219970703125,-0.84173583984375,-0.3638458251953125
220648,0.453765869140625,-0.8409271240234375,-0.3711090087890625
220649,0.4495849609375,-0.8383026123046875,-0.3697967529296875
220650,0.4284820556640625,-0.8314208984375,-0.3553314208984375
220651,0.40740966796875,-0.8265838623046875,-0.3429412841796875
220652,0.400054931640625,-0.82769775390625,-0.328369140625
220653,0.402374267578125,-0.8316650390625,-0.3253021240234375
220654,0.4093475341796875,-0.8343048095703125,-0.332061767578125
220655,0.4226226806640625,-0.8343658447265625,-0.345916748046875
220656,0.432708740234375,-0.833953857421875,-0.3576507568359375
220657,0.434295654296875,-0.8269195556640625,-0.3563995361328125
220658,0.4346771240234375,-0.82318115234375,-0.3513641357421875
220659,0.45751953125,-0.8256683349609375,-0.360107421875
220660,0.47467041015625,-0.8300323486328125,-0.372467041015625
220661,0.4391021728515625,-0.80743408203125,-0.37603759765625
220662,0.44140625,-0.80474853515625,-0.3754730224609375
220663,0.44140625,-0.80474853515625,-0.3754730224609375
220664,0.4868621826171875,-0.8211517333984375,-0.355499267578125
220665,0.4973297119140625,-0.8235931396484375,-0.3289947509765625
220666,0.513641357421875,-0.8242340087890625,-0.32421875
220667,0.504302978515625,-0.82916259765625,-0.3406829833984375
220668,0.4629364013671875,-0.8204345703125,-0.3719940185546875
220669,0.428314208984375,-0.807861328125,-0.393890380859375
220670,0.4302978515625,-0.8130645751953125,-0.3885498046875
220671,0.4302978515625,-0.8130645751953125,-0.3885498046875
220672,0.449310302734375,-0.8282928466796875,-0.3704986572265625
220673,0.4510345458984375,-0.8338165283203125,-0.3644256591796875
220674,0.4508056640625,-0.8371429443359375,-0.3665008544921875
220675,0.4508056640625,-0.8371429443359375,-0.3665008544921875
220676,0.4459686279296875,-0.8331146240234375,-0.39227294921875
220677,0.437591552734375,-0.829010009765625,-0.3938446044921875
220678,0.4229736328125,-0.822906494140625,-0.37750244140625
220679,0.409332275390625,-0.8193206787109375,-0.3551025390625
220680,0.4058990478515625,-0.8201751708984375,-0.338592529296875
220681,0.4128570556640625,-0.825714111328125,-0.33831787109375
220682,0.42547607421875,-0.82806396484375,-0.3399200439453125
220683,0.4399566650390625,-0.82965087890625,-0.34210205078125
220684,0.445953369140625,-0.82861328125,-0.3445587158203125
220685,0.442474365234375,-0.82318115234375,-0.3438262939453125
220686,0.4476470947265625,-0.81964111328125,-0.3412628173828125
220687,0.4476470947265625,-0.81964111328125,-0.3412628173828125
220688,0.4821014404296875,-0.830902099609375,-0.353271484375
220689,0.4453125,-0.809112548828125,-0.3704681396484375
220690,0.412567138671875,-0.7919158935546875,-0.383758544921875
220691,0.4161224365234375,-0.79339599609375,-0.3939971923828125
220692,0.4656982421875,-0.815765380859375,-0.3622283935546875
220693,0.498382568359375,-0.831695556640625,-0.3318939208984375
220694,0.514434814453125,-0.838134765625,-0.328521728515625
220695,0.514434814453125,-0.838134765625,-0.328521728515625
220696,0.4264678955078125,-0.8117523193359375,-0.377471923828125
220697,0.4120330810546875,-0.8022308349609375,-0.39093017578125
220698,0.42694091796875,-0.8136749267578125,-0.3760986328125
220699,0.42694091796875,-0.8136749267578125,-0.3760986328125
220700,0.44415283203125,-0.8230743408203125,-0.3678741455078125
220701,0.4493255615234375,-0.8286285400390625,-0.37286376953125
220702,0.4561309814453125,-0.8336334228515625,-0.3795013427734375
220703,0.4578704833984375,-0.832763671875,-0.379791259765625
220704,0.4581451416015625,-0.832000732421875,-0.3766937255859375
220705,0.4561614990234375,-0.8288116455078125,-0.3761444091796875
220706,0.4512481689453125,-0.82318115234375,-0.380615234375
220707,0.4512481689453125,-0.82318115234375,-0.380615234375
220708,0.4227752685546875,-0.81170654296875,-0.3736419677734375
220709,0.4138031005859375,-0.811065673828125,-0.3613128662109375
220710,0.4139862060546875,-0.808258056640625,-0.3556365966796875
220711,0.4259185791015625,-0.808746337890625,-0.3533782958984375
220712,0.44219970703125,-0.8136749267578125,-0.35162353515625
220713,0.45477294921875,-0.815521240234375,-0.3506927490234375
220714,0.459686279296875,-0.816253662109375,-0.354522705078125
220715,0.459686279296875,-0.816253662109375,-0.354522705078125
220716,0.4589385986328125,-0.814849853515625,-0.356536865234375
220717,0.4676513671875,-0.8185882568359375,-0.3545379638671875
220718,0.482421875,-0.828704833984375,-0.3647308349609375
220719,0.482421875,-0.828704833984375,-0.3647308349609375
220720,0.4845733642578125,-0.821441650390625,-0.379119873046875
220721,0.4951019287109375,-0.825836181640625,-0.38006591796875
220722,0.508697509765625,-0.8093719482421875,-0.3855743408203125
220723,0.508697509765625,-0.8093719482421875,-0.3855743408203125
220724,0.4977264404296875,-0.8027801513671875,-0.39044189453125
220725,0.474609375,-0.7986297607421875,-0.403076171875
220726,0.4535675048828125,-0.7913360595703125,-0.4058074951171875
220727,0.4535675048828125,-0.7913360595703125,-0.4058074951171875
220728,0.4514617919921875,-0.794525146484375,-0.360931396484375
220729,0.440155029296875,-0.7959136962890625,-0.336883544921875
220730,0.4269561767578125,-0.79498291015625,-0.3244171142578125
220731,0.418548583984375,-0.8006134033203125,-0.3202972412109375
220732,0.42657470703125,-0.810302734375,-0.3111724853515625
220733,0.440948486328125,-0.82098388671875,-0.3056182861328125
220734,0.4570159912109375,-0.835662841796875,-0.30853271484375
220735,0.468994140625,-0.8441314697265625,-0.317230224609375
220736,0.4728546142578125,-0.84918212890625,-0.3321990966796875
220737,0.4727783203125,-0.8462982177734375,-0.34954833984375
220738,0.4713592529296875,-0.8481292724609375,-0.36517333984375
220739,0.470245361328125,-0.84423828125,-0.3756866455078125
220740,0.4722442626953125,-0.8375701904296875,-0.3906402587890625
220741,0.4716644287109375,-0.827667236328125,-0.400970458984375
220742,0.46826171875,-0.8230438232421875,-0.4143218994140625
220743,0.46826171875,-0.8230438232421875,-0.4143218994140625
220744,0.464111328125,-0.8091888427734375,-0.413482666015625
220745,0.459869384765625,-0.802978515625,-0.4062652587890625
220746,0.45635986328125,-0.79644775390625,-0.3906707763671875
220747,0.459197998046875,-0.7921905517578125,-0.3701171875
220748,0.4691162109375,-0.794281005859375,-0.3507537841796875
220749,0.4742889404296875,-0.7997894287109375,-0.33349609375
220750,0.4759979248046875,-0.8016510009765625,-0.3177032470703125
220751,0.475799560546875,-0.8029632568359375,-0.311248779296875
220752,0.4755096435546875,-0.8077392578125,-0.3049468994140625
220753,0.4813079833984375,-0.814453125,-0.310089111328125
220754,0.4828948974609375,-0.8222808837890625,-0.3220367431640625
220755,0.4828948974609375,-0.8222808837890625,-0.3220367431640625
220756,0.479766845703125,-0.821014404296875,-0.33306884765625
220757,0.479766845703125,-0.821014404296875,-0.33306884765625
220758,0.47393798828125,-0.82354736328125,-0.3427276611328125
220759,0.4694061279296875,-0.817779541015625,-0.3508148193359375
220760,0.4644622802734375,-0.81640625,-0.359222412109375
220761,0.470245361328125,-0.8144378662109375,-0.365936279296875
220762,0.4721221923828125,-0.8115234375,-0.3763580322265625
220763,0.4721221923828125,-0.8115234375,-0.3763580322265625
220764,0.4779510498046875,-0.8149261474609375,-0.3949737548828125
220765,0.47747802734375,-0.8137359619140625,-0.4006805419921875
220766,0.4777069091796875,-0.80792236328125,-0.4017181396484375
220767,0.484893798828125,-0.8073577880859375,-0.4017486572265625
220768,0.496002197265625,-0.809661865234375,-0.3954620361328125
220769,0.50604248046875,-0.8038787841796875,-0.3892669677734375
220770,0.5183258056640625,-0.807098388671875,-0.38525390625
220771,0.52685546875,-0.7998199462890625,-0.381683349609375
220772,0.530517578125,-0.7962188720703125,-0.3846435546875
220773,0.526580810546875,-0.7905120849609375,-0.3878936767578125
220774,0.5170745849609375,-0.7812652587890625,-0.385406494140625
220775,0.507965087890625,-0.7765960693359375,-0.380096435546875
220776,0.502227783203125,-0.7732086181640625,-0.3684844970703125
220777,0.4986419677734375,-0.768310546875,-0.3589935302734375
220778,0.497039794921875,-0.7655181884765625,-0.3503265380859375
220779,0.5003204345703125,-0.7650604248046875,-0.344573974609375
220780,0.50982666015625,-0.7550811767578125,-0.336273193359375
220781,0.515045166015625,-0.75201416015625,-0.3303985595703125
220782,0.521728515625,-0.7502288818359375,-0.323944091796875
220783,0.5258636474609375,-0.7574005126953125,-0.3204345703125
220784,0.52923583984375,-0.76361083984375,-0.3200225830078125
220785,0.5324249267578125,-0.7745819091796875,-0.32281494140625
220786,0.5302886962890625,-0.774566650390625,-0.327056884765625
220787,0.5249481201171875,-0.7738037109375,-0.32977294921875
220788,0.518341064453125,-0.77825927734375,-0.329010009765625
220789,0.5129547119140625,-0.7759246826171875,-0.32525634765625
220790,0.51177978515625,-0.7753143310546875,-0.3208770751953125
220791,0.51177978515625,-0.7753143310546875,-0.3208770751953125
220792,0.518951416015625,-0.774261474609375,-0.321197509765625
220793,0.528076171875,-0.7679443359375,-0.3149566650390625
220794,0.5409698486328125,-0.7713623046875,-0.3102264404296875
220795,0.5547332763671875,-0.7782135009765625,-0.3054962158203125
220796,0.5625457763671875,-0.7888946533203125,-0.3037109375
220797,0.564544677734375,-0.7987518310546875,-0.31170654296875
220798,0.560516357421875,-0.8086090087890625,-0.3168182373046875
220799,0.55584716796875,-0.8098297119140625,-0.32244873046875
220800,0.55438232421875,-0.8137664794921875,-0.3233184814453125
220801,0.5503997802734375,-0.8198089599609375,-0.3173828125
220802,0.5480194091796875,-0.8196868896484375,-0.3123779296875
220803,0.5480194091796875,-0.8196868896484375,-0.3123779296875
220804,0.54803466796875,-0.81561279296875,-0.30767822265625
220805,0.5483551025390625,-0.816864013671875,-0.305694580078125
220806,0.54864501953125,-0.8147125244140625,-0.3096160888671875
220807,0.542816162109375,-0.8123626708984375,-0.3140869140625
220808,0.5319366455078125,-0.8134918212890625,-0.310028076171875
220809,0.5319366455078125,-0.8134918212890625,-0.310028076171875
220810,0.510650634765625,-0.809906005859375,-0.295440673828125
220811,0.50506591796875,-0.8058624267578125,-0.2916259765625
220812,0.5024871826171875,-0.8028411865234375,-0.2985687255859375
220813,0.5066070556640625,-0.795196533203125,-0.2935791015625
220814,0.5162506103515625,-0.78411865234375,-0.27789306640625
220815,0.5313873291015625,-0.7790069580078125,-0.260955810546875
220816,0.5598602294921875,-0.773529052734375,-0.25311279296875
220817,0.5598602294921875,-0.773529052734375,-0.25311279296875
220818,0.5953369140625,-0.765625,-0.2542266845703125
220819,0.6548614501953125,-0.762664794921875,-0.2511749267578125
220820,0.6673431396484375,-0.777374267578125,-0.2521514892578125
220821,0.649810791015625,-0.8056640625,-0.253173828125
220822,0.61627197265625,-0.8226318359375,-0.2588043212890625
220823,0.587860107421875,-0.8191986083984375,-0.27099609375
220824,0.5648345947265625,-0.808807373046875,-0.2851409912109375
220825,0.5400390625,-0.8039703369140625,-0.3038330078125
220826,0.5155029296875,-0.8052978515625,-0.3197784423828125
220827,0.5155029296875,-0.8052978515625,-0.3197784423828125
220828,0.485321044921875,-0.79107666015625,-0.3212432861328125
220829,0.485321044921875,-0.79107666015625,-0.3212432861328125
220830,0.4689178466796875,-0.78411865234375,-0.2872314453125
220831,0.465362548828125,-0.7865447998046875,-0.2610626220703125
220832,0.471649169921875,-0.7967681884765625,-0.24517822265625
220833,0.4874725341796875,-0.8065338134765625,-0.251495361328125
220834,0.503265380859375,-0.819580078125,-0.263153076171875
220835,0.518951416015625,-0.8364410400390625,-0.2789306640625
220836,0.53143310546875,-0.856536865234375,-0.281829833984375
220837,0.537841796875,-0.8679046630859375,-0.2644805908203125
220838,0.540771484375,-0.862701416015625,-0.253631591796875
220839,0.543548583984375,-0.85064697265625,-0.2489471435546875
220840,0.53955078125,-0.847625732421875,-0.2425384521484375
220841,0.5314483642578125,-0.84283447265625,-0.2397003173828125
220842,0.5132293701171875,-0.8403167724609375,-0.2319183349609375
220843,0.4893951416015625,-0.8386077880859375,-0.2171630859375
220844,0.45977783203125,-0.8347625732421875,-0.2096405029296875
220845,0.426300048828125,-0.829803466796875,-0.1974334716796875
220846,0.3877410888671875,-0.8192291259765625,-0.1815032958984375
220847,0.345123291015625,-0.8116302490234375,-0.172149658203125
220848,0.303955078125,-0.814453125,-0.1668853759765625
220849,0.266082763671875,-0.8245391845703125,-0.1640777587890625
220850,0.23040771484375,-0.83038330078125,-0.173370361328125
220851,0.202911376953125,-0.82977294921875,-0.186370849609375
220852,0.1923980712890625,-0.8338775634765625,-0.194580078125
220853,0.196990966796875,-0.8478851318359375,-0.1908111572265625
220854,0.2212066650390625,-0.878997802734375,-0.204681396484375
220855,0.2727203369140625,-0.90643310546875,-0.265228271484375
220856,0.33477783203125,-0.9121856689453124,-0.3392486572265625
220857,0.4044189453125,-0.913970947265625,-0.3930511474609375
220858,0.483795166015625,-0.9175262451171876,-0.4508209228515625
220859,0.483795166015625,-0.9175262451171876,-0.4508209228515625
220860,0.5875244140625,-0.9005279541015625,-0.470123291015625
220861,0.5897979736328125,-0.8834075927734375,-0.4597320556640625
220862,0.5897979736328125,-0.8834075927734375,-0.4597320556640625
220863,0.5807342529296875,-0.8755035400390625,-0.4691925048828125
220864,0.53369140625,-0.8601226806640625,-0.4839935302734375
220865,0.53369140625,-0.8601226806640625,-0.4839935302734375
220866,0.49530029296875,-0.8497772216796875,-0.4929351806640625
220867,0.3971710205078125,-0.8210601806640625,-0.521270751953125
220868,0.355682373046875,-0.8205413818359375,-0.513397216796875
220869,0.355682373046875,-0.8205413818359375,-0.513397216796875
220870,0.327423095703125,-0.8372955322265625,-0.3760833740234375
220871,0.327423095703125,-0.8372955322265625,-0.3760833740234375
220872,0.3350067138671875,-0.8238067626953125,-0.3401336669921875
220873,0.349029541015625,-0.814361572265625,-0.3163909912109375
220874,0.3716583251953125,-0.8294525146484375,-0.2914581298828125
220875,0.3716583251953125,-0.8294525146484375,-0.2914581298828125
220876,0.4208831787109375,-0.8853302001953125,-0.267059326171875
220877,0.422760009765625,-0.8930206298828125,-0.27081298828125
220878,0.4069061279296875,-0.8733367919921875,-0.2659454345703125
220879,0.3961029052734375,-0.8791046142578125,-0.2655181884765625
220880,0.3932037353515625,-0.90045166015625,-0.28778076171875
220881,0.3950653076171875,-0.8921661376953125,-0.318206787109375
220882,0.3997344970703125,-0.88262939453125,-0.3497314453125
220883,0.3997344970703125,-0.88262939453125,-0.3497314453125
220884,0.436920166015625,-0.8690948486328125,-0.4058837890625
220885,0.4434661865234375,-0.8757781982421875,-0.4055633544921875
220886,0.434844970703125,-0.8708953857421875,-0.3965301513671875
220887,0.42333984375,-0.876678466796875,-0.3947601318359375
220888,0.42034912109375,-0.876312255859375,-0.3927764892578125
220889,0.42510986328125,-0.869171142578125,-0.40521240234375
220890,0.43157958984375,-0.8632354736328125,-0.40936279296875
220891,0.432769775390625,-0.8556976318359375,-0.4024810791015625
220892,0.4283294677734375,-0.846221923828125,-0.3903350830078125
220893,0.4264678955078125,-0.8434600830078125,-0.37274169921875
220894,0.424072265625,-0.8307342529296875,-0.362060546875
220895,0.424072265625,-0.8307342529296875,-0.362060546875
220896,0.429290771484375,-0.823944091796875,-0.3491363525390625
220897,0.4412689208984375,-0.8238983154296875,-0.33282470703125
220898,0.4528350830078125,-0.8293304443359375,-0.3089752197265625
220899,0.460723876953125,-0.835418701171875,-0.2861480712890625
220900,0.461273193359375,-0.8365631103515625,-0.2666015625
220901,0.4716796875,-0.8420257568359375,-0.244476318359375
220902,0.4799957275390625,-0.8419647216796875,-0.2283935546875
220903,0.48968505859375,-0.844512939453125,-0.2237548828125
220904,0.5078582763671875,-0.8388214111328125,-0.2361907958984375
220905,0.52166748046875,-0.831329345703125,-0.2539520263671875
220906,0.522857666015625,-0.83154296875,-0.26849365234375
220907,0.521209716796875,-0.827239990234375,-0.26239013671875
220908,0.528350830078125,-0.815765380859375,-0.25799560546875
220909,0.5373077392578125,-0.80511474609375,-0.2640838623046875
220910,0.5287017822265625,-0.800506591796875,-0.274688720703125
220911,0.5287017822265625,-0.800506591796875,-0.274688720703125
220912,0.5152740478515625,-0.7685394287109375,-0.277862548828125
220913,0.513397216796875,-0.7593536376953125,-0.2841949462890625
220914,0.5211944580078125,-0.753692626953125,-0.30267333984375
220915,0.5211944580078125,-0.753692626953125,-0.30267333984375
220916,0.5244293212890625,-0.7584991455078125,-0.331756591796875
220917,0.50860595703125,-0.7627410888671875,-0.3372802734375
220918,0.4857330322265625,-0.7676849365234375,-0.3410491943359375
220919,0.4857330322265625,-0.7676849365234375,-0.3410491943359375
220920,0.4745941162109375,-0.8165740966796875,-0.323944091796875
220921,0.479644775390625,-0.847015380859375,-0.3213043212890625
220922,0.4898681640625,-0.8792724609375,-0.31781005859375
220923,0.4898681640625,-0.8792724609375,-0.31781005859375
220924,0.501983642578125,-0.9181671142578124,-0.3297119140625
220925,0.5108489990234375,-0.90728759765625,-0.3179473876953125
220926,0.529296875,-0.8704986572265625,-0.344512939453125
220927,0.5125579833984375,-0.9124603271484376,-0.3391876220703125
220928,0.4874725341796875,-0.9310760498046876,-0.30316162109375
220929,0.4696044921875,-0.894805908203125,-0.29864501953125
220930,0.45526123046875,-0.870025634765625,-0.315582275390625
220931,0.44549560546875,-0.8542022705078125,-0.3134613037109375
220932,0.4344482421875,-0.8451385498046875,-0.293487548828125
220933,0.4170684814453125,-0.831390380859375,-0.2783355712890625
220934,0.4071807861328125,-0.801116943359375,-0.2576446533203125
220935,0.4113922119140625,-0.768646240234375,-0.2452392578125
220936,0.4276275634765625,-0.7523193359375,-0.2295989990234375
220937,0.449371337890625,-0.72247314453125,-0.2198028564453125
220938,0.449371337890625,-0.72247314453125,-0.2198028564453125
220939,0.461761474609375,-0.7195587158203125,-0.2329559326171875
220940,0.463714599609375,-0.7190093994140625,-0.22686767578125
220941,0.4483642578125,-0.7152862548828125,-0.2231903076171875
220942,0.4267120361328125,-0.700439453125,-0.223541259765625
220943,0.4156646728515625,-0.69659423828125,-0.226409912109375
220944,0.4291229248046875,-0.6934661865234375,-0.217529296875
220945,0.443817138671875,-0.69677734375,-0.2000732421875
220946,0.461639404296875,-0.712860107421875,-0.2028045654296875
220947,0.4788360595703125,-0.72552490234375,-0.20556640625
220948,0.4946136474609375,-0.7506866455078125,-0.2097625732421875
220949,0.506195068359375,-0.7967071533203125,-0.230194091796875
220950,0.5072174072265625,-0.8443756103515625,-0.2724761962890625
220951,0.4987030029296875,-0.8789215087890625,-0.32916259765625
220952,0.4891815185546875,-0.88958740234375,-0.3767242431640625
220953,0.4891815185546875,-0.88958740234375,-0.3767242431640625
220954,0.4985504150390625,-0.895294189453125,-0.4297027587890625
220955,0.5161895751953125,-0.8907928466796875,-0.4473419189453125
220956,0.52783203125,-0.8863067626953125,-0.43975830078125
220957,0.511260986328125,-0.8746490478515625,-0.4080963134765625
220958,0.4816741943359375,-0.8715972900390625,-0.372650146484375
220959,0.471649169921875,-0.86749267578125,-0.35003662109375
220960,0.486602783203125,-0.843292236328125,-0.3351898193359375
220961,0.5085906982421875,-0.839447021484375,-0.324005126953125
220962,0.5955047607421875,-0.853668212890625,-0.3314666748046875
220963,0.5955047607421875,-0.853668212890625,-0.3314666748046875
220964,0.6355743408203125,-0.830291748046875,-0.327239990234375
220965,0.6355743408203125,-0.830291748046875,-0.327239990234375
220966,0.6621856689453125,-0.806304931640625,-0.3404083251953125
220967,0.6787109375,-0.774749755859375,-0.369781494140625
220968,0.6790008544921875,-0.7708587646484375,-0.361175537109375
220969,0.6790008544921875,-0.7708587646484375,-0.361175537109375
220970,0.6814727783203125,-0.778411865234375,-0.3082122802734375
220971,0.684417724609375,-0.7669830322265625,-0.28057861328125
220972,0.67877197265625,-0.7398681640625,-0.2728424072265625
220973,0.660675048828125,-0.7162628173828125,-0.27264404296875
220974,0.633819580078125,-0.698883056640625,-0.2683868408203125
220975,0.633819580078125,-0.698883056640625,-0.2683868408203125
220976,0.5999755859375,-0.6712799072265625,-0.23455810546875
220977,0.5999755859375,-0.6712799072265625,-0.23455810546875
220978,0.6180572509765625,-0.6582489013671875,-0.240142822265625
220979,0.637420654296875,-0.6627197265625,-0.2341766357421875
220980,0.653228759765625,-0.670318603515625,-0.2337493896484375
220981,0.653228759765625,-0.670318603515625,-0.2337493896484375
220982,0.6712646484375,-0.6905517578125,-0.23895263671875
220983,0.671661376953125,-0.7041168212890625,-0.2340850830078125
220984,0.6723785400390625,-0.716339111328125,-0.2275238037109375
220985,0.6723785400390625,-0.716339111328125,-0.2275238037109375
220986,0.680389404296875,-0.724334716796875,-0.217437744140625
220987,0.7157440185546875,-0.73638916015625,-0.2110748291015625
220988,0.71783447265625,-0.74908447265625,-0.2129974365234375
220989,0.712646484375,-0.7518463134765625,-0.2341461181640625
220990,0.7081756591796875,-0.7550811767578125,-0.2576904296875
220991,0.6960296630859375,-0.7726898193359375,-0.27081298828125
220992,0.6565704345703125,-0.8195953369140625,-0.2604827880859375
220993,0.6565704345703125,-0.8195953369140625,-0.2604827880859375
220994,0.6300048828125,-0.753936767578125,-0.4543914794921875
220995,0.6121826171875,-0.768280029296875,-0.395599365234375
220996,0.611572265625,-0.772125244140625,-0.36962890625
220997,0.596160888671875,-0.7796173095703125,-0.366424560546875
220998,0.596160888671875,-0.7796173095703125,-0.366424560546875
220999,0.5712738037109375,-0.7671966552734375,-0.338287353515625
221000,0.5709686279296875,-0.7690277099609375,-0.3088531494140625
221001,0.5812530517578125,-0.776336669921875,-0.2969512939453125
221002,0.5969390869140625,-0.7797698974609375,-0.2921905517578125
221003,0.6130523681640625,-0.7751922607421875,-0.28118896484375
221004,0.61822509765625,-0.765167236328125,-0.263946533203125
221005,0.614898681640625,-0.7463226318359375,-0.2334442138671875
221006,0.6121063232421875,-0.7252655029296875,-0.2002410888671875
221007,0.6141510009765625,-0.709625244140625,-0.1837158203125
221008,0.620361328125,-0.7046966552734375,-0.1831817626953125
221009,0.620361328125,-0.7046966552734375,-0.1831817626953125
221010,0.6249542236328125,-0.7123565673828125,-0.174835205078125
221011,0.6152496337890625,-0.72003173828125,-0.1704864501953125
221012,0.5971832275390625,-0.7202301025390625,-0.170623779296875
221013,0.5822296142578125,-0.72015380859375,-0.1795654296875
221014,0.5737457275390625,-0.7414703369140625,-0.188323974609375
221015,0.561279296875,-0.7860260009765625,-0.1917266845703125
221016,0.5299530029296875,-0.8207855224609375,-0.20123291015625
221017,0.499786376953125,-0.8160247802734375,-0.2325286865234375
221018,0.469085693359375,-0.8122100830078125,-0.2472076416015625
221019,0.4374847412109375,-0.828155517578125,-0.2426910400390625
221020,0.4125823974609375,-0.847747802734375,-0.2520599365234375
221021,0.38507080078125,-0.8697662353515625,-0.2725067138671875
221022,0.360870361328125,-0.9025421142578124,-0.300872802734375
221023,0.3469085693359375,-0.927947998046875,-0.3432464599609375
221024,0.3437347412109375,-0.9405975341796876,-0.3795166015625
221025,0.3810882568359375,-0.9366912841796876,-0.393585205078125
221026,0.3810882568359375,-0.9366912841796876,-0.393585205078125
221027,0.4299774169921875,-0.9221649169921876,-0.378204345703125
221028,0.4867401123046875,-0.9149627685546876,-0.324432373046875
221029,0.5452728271484375,-0.9255218505859376,-0.2918853759765625
221030,0.598541259765625,-0.9389801025390624,-0.2714080810546875
221031,0.640594482421875,-0.9527130126953124,-0.2452392578125
221032,0.686553955078125,-0.9496002197265624,-0.2409820556640625
221033,0.7208099365234375,-0.965118408203125,-0.2216033935546875
221034,0.7415771484375,-0.961212158203125,-0.1790771484375
221035,0.76300048828125,-0.922576904296875,-0.155303955078125
221036,0.782073974609375,-0.9034271240234376,-0.1109619140625
221037,0.8051605224609375,-0.8747100830078125,-0.0829925537109375
221038,0.8032073974609375,-0.85821533203125,-0.0954437255859375
221039,0.7732696533203125,-0.8356170654296875,-0.1094512939453125
221040,0.7355194091796875,-0.81597900390625,-0.1275177001953125
221041,0.7355194091796875,-0.81597900390625,-0.1275177001953125
221042,0.699615478515625,-0.7994537353515625,-0.161651611328125
221043,0.6479644775390625,-0.77508544921875,-0.2137451171875
221044,0.623992919921875,-0.7795867919921875,-0.2119140625
221045,0.6055755615234375,-0.7742767333984375,-0.20098876953125
221046,0.5899810791015625,-0.7662506103515625,-0.1898345947265625
221047,0.5800323486328125,-0.755889892578125,-0.1746063232421875
221048,0.5712432861328125,-0.7437896728515625,-0.163238525390625
221049,0.5712432861328125,-0.7437896728515625,-0.163238525390625
221050,0.5297088623046875,-0.7180938720703125,-0.141387939453125
221051,0.4961700439453125,-0.709014892578125,-0.132293701171875
221052,0.457794189453125,-0.698455810546875,-0.1335906982421875
221053,0.418121337890625,-0.6963653564453125,-0.1414337158203125
221054,0.3862762451171875,-0.706787109375,-0.1441192626953125
221055,0.35040283203125,-0.7616424560546875,-0.14093017578125
221056,0.318450927734375,-0.8162841796875,-0.1393585205078125
221057,0.318450927734375,-0.8162841796875,-0.1393585205078125
221058,0.3089141845703125,-0.781768798828125,-0.2126922607421875
221059,0.293121337890625,-0.7847747802734375,-0.2784576416015625
221060,0.2940826416015625,-0.7844390869140625,-0.2904052734375
221061,0.2940826416015625,-0.7844390869140625,-0.2904052734375
221062,0.2954254150390625,-0.8025054931640625,-0.3697357177734375
221063,0.3188323974609375,-0.816131591796875,-0.343902587890625
221064,0.3697357177734375,-0.8274383544921875,-0.29901123046875
221065,0.426483154296875,-0.8206329345703125,-0.269775390625
221066,0.4491424560546875,-0.8126983642578125,-0.27227783203125
221067,0.441192626953125,-0.8086395263671875,-0.2540435791015625
221068,0.4255828857421875,-0.8202667236328125,-0.2059173583984375
221069,0.4255828857421875,-0.8202667236328125,-0.2059173583984375
221070,0.407745361328125,-0.838623046875,-0.1543426513671875
221071,0.3974456787109375,-0.8634185791015625,-0.1255340576171875
221072,0.408416748046875,-0.944580078125,-0.05633544921875
221073,0.408416748046875,-0.944580078125,-0.05633544921875
221074,0.41485595703125,-1.089584350585938,-0.017822265625
221075,0.388763427734375,-1.12896728515625,-0.0426177978515625
221076,0.35205078125,-1.097381591796875,-0.0811614990234375
221077,0.35205078125,-1.097381591796875,-0.0811614990234375
221078,0.335540771484375,-1.0416259765625,-0.12921142578125
221079,0.4332275390625,-0.9691925048828124,-0.183013916015625
221080,0.5014801025390625,-0.9784698486328124,-0.1905670166015625
221081,0.5213470458984375,-0.98162841796875,-0.1885986328125
221082,0.5106353759765625,-0.960357666015625,-0.1970062255859375
221083,0.483917236328125,-0.94488525390625,-0.213958740234375
221084,0.445343017578125,-0.937042236328125,-0.2169189453125
221085,0.4035186767578125,-0.9148101806640624,-0.2365875244140625
221086,0.3747100830078125,-0.8767547607421875,-0.2658233642578125
221087,0.36199951171875,-0.8223419189453125,-0.2857208251953125
221088,0.359375,-0.7664947509765625,-0.2905426025390625
221089,0.367279052734375,-0.7040252685546875,-0.2781524658203125
221090,0.378265380859375,-0.691131591796875,-0.2523956298828125
221091,0.3983306884765625,-0.6969757080078125,-0.2373199462890625
221092,0.431304931640625,-0.6996307373046875,-0.24884033203125
221093,0.4263916015625,-0.6878509521484375,-0.2231903076171875
221094,0.3924713134765625,-0.7009124755859375,-0.2493896484375
221095,0.37255859375,-0.7285308837890625,-0.24407958984375
221096,0.357757568359375,-0.7608795166015625,-0.222320556640625
221097,0.357757568359375,-0.7608795166015625,-0.222320556640625
221098,0.346527099609375,-0.8958892822265625,-0.1968841552734375
221099,0.3577880859375,-0.9889373779296876,-0.268218994140625
221100,0.38818359375,-1.054656982421875,-0.343475341796875
221101,0.42889404296875,-1.050521850585938,-0.3898468017578125
221102,0.4634857177734375,-1.00982666015625,-0.394012451171875
221103,0.48602294921875,-0.985931396484375,-0.3962554931640625
221104,0.5015411376953125,-0.9498138427734376,-0.400482177734375
221105,0.50433349609375,-0.91448974609375,-0.37066650390625
221106,0.49560546875,-0.8939208984375,-0.3216400146484375
221107,0.4857025146484375,-0.86553955078125,-0.2886199951171875
221108,0.476409912109375,-0.84576416015625,-0.258514404296875
221109,0.476409912109375,-0.84576416015625,-0.258514404296875
221110,0.4359588623046875,-0.7181396484375,-0.201690673828125
221111,0.4152374267578125,-0.684173583984375,-0.1602325439453125
221112,0.4327545166015625,-0.7581329345703125,-0.0832977294921875
221113,0.4327545166015625,-0.7581329345703125,-0.0832977294921875
221114,0.5507965087890625,-1.084976196289062,0.0802459716796875
221115,0.616302490234375,-1.212295532226562,0.0875701904296875
221116,0.6568756103515625,-1.242462158203125,0.0579681396484375
221117,0.6572113037109375,-1.173568725585938,0.01470947265625
221118,0.6300201416015625,-1.048599243164062,-0.0306243896484375
221119,0.588958740234375,-0.95831298828125,-0.0454559326171875
221120,0.5392913818359375,-0.9095306396484376,-0.0365753173828125
221121,0.4852752685546875,-0.8775634765625,-0.042022705078125
221122,0.43487548828125,-0.8430023193359375,-0.0689697265625
221123,0.43487548828125,-0.8430023193359375,-0.0689697265625
221124,0.341217041015625,-0.777801513671875,-0.1482086181640625
221125,0.341217041015625,-0.777801513671875,-0.1482086181640625
221126,0.3130645751953125,-0.7173309326171875,-0.1913299560546875
221127,0.3395843505859375,-0.7141571044921875,-0.195953369140625
221128,0.3824462890625,-0.73529052734375,-0.20050048828125
221129,0.3824462890625,-0.73529052734375,-0.20050048828125
221130,0.424407958984375,-0.7624359130859375,-0.2049407958984375
221131,0.4593505859375,-0.785888671875,-0.2115936279296875
221132,0.49462890625,-0.8132781982421875,-0.21160888671875
221133,0.49462890625,-0.8132781982421875,-0.21160888671875
221134,0.4708404541015625,-0.8286285400390625,-0.1905364990234375
221135,0.4490966796875,-0.834442138671875,-0.171173095703125
221136,0.431793212890625,-0.8370361328125,-0.1460723876953125
221137,0.421783447265625,-0.85955810546875,-0.13946533203125
221138,0.420074462890625,-0.888763427734375,-0.1068267822265625
221139,0.42584228515625,-0.901611328125,-0.07586669921875
221140,0.430999755859375,-0.9005279541015625,-0.058074951171875
221141,0.430999755859375,-0.9005279541015625,-0.058074951171875
221142,0.4271087646484375,-0.88275146484375,-0.033111572265625
221143,0.424224853515625,-0.8829345703125,-0.0422515869140625
221144,0.4306182861328125,-0.8938140869140625,-0.06005859375
221145,0.4306182861328125,-0.8938140869140625,-0.06005859375
221146,0.469757080078125,-0.9470672607421876,-0.08477783203125
221147,0.4683990478515625,-0.967926025390625,-0.13812255859375
221148,0.442230224609375,-0.9634857177734376,-0.191192626953125
221149,0.442230224609375,-0.9634857177734376,-0.191192626953125
221150,0.3937225341796875,-0.975799560546875,-0.206512451171875
221151,0.2322998046875,-1.1744384765625,-0.0803985595703125
221152,0.2933197021484375,-0.9242706298828124,-0.430877685546875
221153,0.2933197021484375,-0.9242706298828124,-0.430877685546875
221154,0.445159912109375,-1.013168334960938,-0.31842041015625
221155,0.4998321533203125,-1.012237548828125,-0.238677978515625
221156,0.50738525390625,-0.955963134765625,-0.29449462890625
221157,0.465118408203125,-0.8973388671875,-0.363983154296875
221158,0.465118408203125,-0.8973388671875,-0.363983154296875
221159,0.31671142578125,-0.8743438720703125,-0.3810882568359375
221160,0.3213043212890625,-0.90338134765625,-0.3891754150390625
221161,0.3268585205078125,-0.9306793212890624,-0.4073486328125
221162,0.373443603515625,-0.9640655517578124,-0.3717498779296875
221163,0.4412384033203125,-0.9938507080078124,-0.38214111328125
221164,0.483001708984375,-0.991729736328125,-0.4056243896484375
221165,0.5240631103515625,-0.9481353759765624,-0.3919830322265625
221166,0.55145263671875,-0.9208526611328124,-0.3673553466796875
221167,0.555206298828125,-0.90606689453125,-0.3140869140625
221168,0.5475311279296875,-0.8968963623046875,-0.279693603515625
221169,0.5475311279296875,-0.8968963623046875,-0.279693603515625
221170,0.53619384765625,-0.9092559814453124,-0.2486419677734375
221171,0.50927734375,-0.9123077392578124,-0.17449951171875
221172,0.48883056640625,-0.8784942626953125,-0.153839111328125
221173,0.48883056640625,-0.8784942626953125,-0.153839111328125
221174,0.4189300537109375,-0.746246337890625,-0.1056671142578125
221175,0.3993988037109375,-0.69915771484375,-0.1022796630859375
221176,0.39093017578125,-0.6815338134765625,-0.0924072265625
221177,0.39093017578125,-0.6815338134765625,-0.0924072265625
221178,0.3773193359375,-0.639892578125,-0.053131103515625
221179,0.3726959228515625,-0.6380157470703125,-0.047332763671875
221180,0.376434326171875,-0.656494140625,-0.0379486083984375
221181,0.376434326171875,-0.656494140625,-0.0379486083984375
221182,0.403106689453125,-0.78363037109375,0.00164794921875
221183,0.430145263671875,-0.899688720703125,0.0235443115234375
221184,0.4665374755859375,-1.017425537109375,0.02301025390625
221185,0.4665374755859375,-1.017425537109375,0.02301025390625
221186,0.4978485107421875,-1.08953857421875,-0.0095672607421875
221187,0.5144805908203125,-1.092453002929688,-0.0603485107421875
221188,0.580322265625,-0.9838104248046876,-0.1569671630859375
221189,0.580322265625,-0.9838104248046876,-0.1569671630859375
221190,0.602325439453125,-0.9181365966796876,-0.2152862548828125
221191,0.6117706298828125,-0.794586181640625,-0.32794189453125
221192,0.605316162109375,-0.7802734375,-0.3852996826171875
221193,0.605316162109375,-0.7802734375,-0.3852996826171875
221194,0.5872955322265625,-0.8796844482421875,-0.410369873046875
221195,0.5640106201171875,-0.9015960693359376,-0.445404052734375
221196,0.5323028564453125,-0.90936279296875,-0.4145660400390625
221197,0.4937744140625,-0.8757171630859375,-0.37451171875
221198,0.4530487060546875,-0.8184814453125,-0.3506622314453125
221199,0.412933349609375,-0.7719268798828125,-0.32843017578125
221200,0.3793792724609375,-0.735260009765625,-0.3153228759765625
221201,0.3793792724609375,-0.735260009765625,-0.3153228759765625
221202,0.348663330078125,-0.7194061279296875,-0.2024078369140625
221203,0.3437042236328125,-0.7427520751953125,-0.1272430419921875
221204,0.352874755859375,-0.798736572265625,-0.105712890625
221205,0.352874755859375,-0.798736572265625,-0.105712890625
221206,0.388275146484375,-0.8268585205078125,-0.1373443603515625
221207,0.4177093505859375,-0.8433685302734375,-0.152679443359375
221208,0.43389892578125,-0.8678741455078125,-0.1707763671875
221209,0.468902587890625,-0.8675994873046875,-0.1712188720703125
221210,0.468902587890625,-0.8675994873046875,-0.1712188720703125
221211,0.5467071533203125,-0.8836212158203125,-0.2326202392578125
221212,0.563568115234375,-0.909423828125,-0.2231292724609375
221213,0.563568115234375,-0.909423828125,-0.2231292724609375
221214,0.579803466796875,-0.87542724609375,-0.2813262939453125
221215,0.6221923828125,-0.9092254638671876,-0.324127197265625
221216,0.616912841796875,-0.911041259765625,-0.3349456787109375
221217,0.5819244384765625,-0.89605712890625,-0.339508056640625
221218,0.5819244384765625,-0.89605712890625,-0.339508056640625
221219,0.48748779296875,-0.8126220703125,-0.305419921875
221220,0.4484100341796875,-0.7645721435546875,-0.28399658203125
221221,0.4484100341796875,-0.7645721435546875,-0.28399658203125
221222,0.4145660400390625,-0.6809234619140625,-0.2677154541015625
221223,0.420318603515625,-0.6751861572265625,-0.26898193359375
221224,0.430694580078125,-0.7178802490234375,-0.260040283203125
221225,0.430694580078125,-0.7178802490234375,-0.260040283203125
221226,0.3817596435546875,-0.842315673828125,-0.2135467529296875
221227,0.3311920166015625,-0.9373016357421876,-0.226409912109375
221228,0.32940673828125,-1.043899536132812,-0.503662109375
221229,0.3536529541015625,-1.069122314453125,-0.566802978515625
221230,0.3536529541015625,-1.069122314453125,-0.566802978515625
221231,0.46697998046875,-1.05645751953125,-0.5888671875
221232,0.5157623291015625,-1.002853393554688,-0.5098114013671875
221233,0.5157623291015625,-1.002853393554688,-0.5098114013671875
221234,0.55029296875,-0.944732666015625,-0.410491943359375
221235,0.58563232421875,-0.84130859375,-0.2741851806640625
221236,0.607452392578125,-0.757080078125,-0.25634765625
221237,0.607452392578125,-0.757080078125,-0.25634765625
221238,0.6255035400390625,-0.655731201171875,-0.218780517578125
221239,0.623779296875,-0.65106201171875,-0.1892242431640625
221240,0.6083526611328125,-0.6676483154296875,-0.1307220458984375
221241,0.6083526611328125,-0.6676483154296875,-0.1307220458984375
221242,0.5909423828125,-0.670440673828125,-0.0374603271484375
221243,0.5836639404296875,-0.679443359375,-0.0216064453125
221244,0.574462890625,-0.7051239013671875,-0.0065460205078125
221245,0.574462890625,-0.7051239013671875,-0.0065460205078125
221246,0.5677642822265625,-0.825775146484375,0.09417724609375
221247,0.57769775390625,-0.9210357666015624,0.13470458984375
221248,0.5860137939453125,-1.002731323242188,0.118621826171875
221249,0.5860137939453125,-1.002731323242188,0.118621826171875
221250,0.5894622802734375,-1.00396728515625,0.0540618896484375
221251,0.5677032470703125,-0.9526214599609376,0.028350830078125
221252,0.52923583984375,-0.8986663818359375,0.0029144287109375
221253,0.52923583984375,-0.8986663818359375,0.0029144287109375
221254,0.450164794921875,-0.8065643310546875,-0.0282745361328125
221255,0.4306488037109375,-0.7584991455078125,-0.055389404296875
221256,0.4157562255859375,-0.7210845947265625,-0.10308837890625
221257,0.4157562255859375,-0.7210845947265625,-0.10308837890625
221258,0.384857177734375,-0.6731719970703125,-0.1224365234375
221259,0.4019927978515625,-0.66217041015625,-0.290008544921875
221260,0.4167327880859375,-0.713592529296875,-0.4039154052734375
221261,0.4167327880859375,-0.713592529296875,-0.4039154052734375
221262,0.44091796875,-0.82904052734375,-0.363800048828125
221263,0.44091796875,-0.82904052734375,-0.363800048828125
221264,0.439208984375,-0.816986083984375,-0.3629608154296875
221265,0.4420166015625,-0.803985595703125,-0.365631103515625
221266,0.4420166015625,-0.803985595703125,-0.365631103515625
221267,0.4508819580078125,-0.814544677734375,-0.320831298828125
221268,0.44879150390625,-0.8240203857421875,-0.2763519287109375
221269,0.4476318359375,-0.844512939453125,-0.22674560546875
221270,0.4476318359375,-0.844512939453125,-0.22674560546875
221271,0.470794677734375,-0.9253692626953124,-0.1437225341796875
221272,0.511810302734375,-0.980926513671875,-0.12939453125
221273,0.511810302734375,-0.980926513671875,-0.12939453125
221274,0.5955963134765625,-1.039901733398438,-0.14447021484375
221275,0.60662841796875,-1.058395385742188,-0.1489105224609375
221276,0.5892181396484375,-1.051712036132812,-0.1240386962890625
221277,0.5892181396484375,-1.051712036132812,-0.1240386962890625
221278,0.5678863525390625,-0.99835205078125,-0.125701904296875
221279,0.5450286865234375,-0.9791107177734376,-0.15997314453125
221280,0.44390869140625,-0.9478912353515624,-0.145965576171875
221281,0.44390869140625,-0.9478912353515624,-0.145965576171875
221282,0.291168212890625,-0.9094696044921876,-0.214141845703125
221283,0.2165679931640625,-0.9195404052734376,-0.244598388671875
221284,0.1529693603515625,-0.942596435546875,-0.255218505859375
221285,0.1529693603515625,-0.942596435546875,-0.255218505859375
221286,0.0894317626953125,-1.008834838867188,-0.3444061279296875
221287,0.1301727294921875,-1.002548217773438,-0.3448638916015625
221288,0.2163848876953125,-0.9572296142578124,-0.4014739990234375
221289,0.2163848876953125,-0.9572296142578124,-0.4014739990234375
221290,0.328765869140625,-0.9586639404296876,-0.4317474365234375
221291,0.5095672607421875,-0.9542236328125,-0.4244232177734375
221292,0.584228515625,-0.966583251953125,-0.4034271240234375
221293,0.584228515625,-0.966583251953125,-0.4034271240234375
221294,0.601287841796875,-0.940673828125,-0.344451904296875
221295,0.558258056640625,-0.9323272705078124,-0.3761138916015625
221296,0.46978759765625,-0.88897705078125,-0.4264984130859375
221297,0.46978759765625,-0.88897705078125,-0.4264984130859375
221298,0.3804931640625,-0.8302154541015625,-0.44873046875
221299,0.407073974609375,-0.8489532470703125,-0.5259552001953125
221300,0.42767333984375,-0.859405517578125,-0.433197021484375
221301,0.42767333984375,-0.859405517578125,-0.433197021484375
221302,0.44110107421875,-0.8688507080078125,-0.3056182861328125
221303,0.5056610107421875,-0.886962890625,-0.1666717529296875
221304,0.5427703857421875,-0.876007080078125,-0.1368255615234375
221305,0.5427703857421875,-0.876007080078125,-0.1368255615234375
221306,0.5691375732421875,-0.861175537109375,-0.1168975830078125
221307,0.5418853759765625,-0.767364501953125,-0.09625244140625
221308,0.4815216064453125,-0.705230712890625,-0.1098175048828125
221309,0.4233551025390625,-0.6693267822265625,-0.0853271484375
221310,0.3839569091796875,-0.653167724609375,-0.0434112548828125
221311,0.363983154296875,-0.68017578125,-0.004486083984375
221312,0.36773681640625,-0.7301025390625,0.0473785400390625
221313,0.36773681640625,-0.7301025390625,0.0473785400390625
221314,0.437164306640625,-0.9244232177734376,0.1425628662109375
221315,0.4965667724609375,-1.041290283203125,0.21185302734375
221316,0.5586395263671875,-1.146682739257812,0.2321929931640625
221317,0.6022491455078125,-1.175750732421875,0.1639862060546875
221318,0.59271240234375,-1.142593383789062,0.100738525390625
221319,0.6085357666015625,-1.025665283203125,0.118682861328125
221320,0.6127471923828125,-0.9131317138671876,0.0601959228515625
221321,0.6127471923828125,-0.9131317138671876,0.0601959228515625
221322,0.5653533935546875,-0.808258056640625,-0.1004791259765625
221323,0.5457305908203125,-0.798431396484375,-0.1247711181640625
221324,0.52166748046875,-0.8358001708984375,-0.1536712646484375
221325,0.52166748046875,-0.8358001708984375,-0.1536712646484375
221326,0.483367919921875,-0.9173736572265624,-0.15032958984375
221327,0.446533203125,-0.8964385986328125,-0.3481292724609375
221328,0.3924102783203125,-0.896087646484375,-0.4335784912109375
221329,0.3924102783203125,-0.896087646484375,-0.4335784912109375
221330,0.276611328125,-0.8558502197265625,-0.2137908935546875
221331,0.2212066650390625,-0.848846435546875,-0.1573486328125
221332,0.1851806640625,-0.8282012939453125,-0.1559600830078125
221333,0.1851806640625,-0.8282012939453125,-0.1559600830078125
221334,0.157012939453125,-0.8361053466796875,-0.1651611328125
221335,0.09698486328125,-0.943939208984375,-0.1985931396484375
221336,0.0740203857421875,-1.013565063476562,-0.207244873046875
221337,0.0740203857421875,-1.013565063476562,-0.207244873046875
221338,0.0628204345703125,-1.066238403320312,-0.1905670166015625
221339,0.122222900390625,-0.9758453369140624,-0.16839599609375
221340,0.2148895263671875,-0.8932037353515625,-0.194549560546875
221341,0.2148895263671875,-0.8932037353515625,-0.194549560546875
221342,0.2810516357421875,-0.8778076171875,-0.21337890625
221343,0.3589324951171875,-0.886474609375,-0.24884033203125
221344,0.392669677734375,-0.8635101318359375,-0.312286376953125
221345,0.392669677734375,-0.8635101318359375,-0.312286376953125
221346,0.4105682373046875,-0.831878662109375,-0.343414306640625
221347,0.352508544921875,-0.8336944580078125,-0.370880126953125
221348,0.2698516845703125,-0.8498992919921875,-0.369842529296875
221349,0.2698516845703125,-0.8498992919921875,-0.369842529296875
221350,0.2002105712890625,-0.8418731689453125,-0.3605804443359375
221351,0.1427001953125,-0.8458099365234375,-0.3933563232421875
221352,0.1428070068359375,-0.8437957763671875,-0.397125244140625
221353,0.154266357421875,-0.8572235107421875,-0.3824005126953125
221354,0.154266357421875,-0.8572235107421875,-0.3824005126953125
221355,0.17718505859375,-0.9410247802734376,-0.3951416015625
221356,0.2290496826171875,-0.9691619873046876,-0.48065185546875
221357,0.2290496826171875,-0.9691619873046876,-0.48065185546875
221358,0.27996826171875,-1.011856079101562,-0.6140289306640625
221359,0.3339691162109375,-1.017303466796875,-0.68157958984375
221360,0.3404693603515625,-1.059585571289062,-0.6610870361328125
221361,0.3404693603515625,-1.059585571289062,-0.6610870361328125
221362,0.34991455078125,-0.9999237060546876,-0.622772216796875
221363,0.36846923828125,-0.957977294921875,-0.5349578857421875
221364,0.385589599609375,-0.9072723388671876,-0.46026611328125
221365,0.37841796875,-0.85614013671875,-0.399322509765625
221366,0.3457794189453125,-0.80255126953125,-0.317596435546875
221367,0.3340301513671875,-0.722381591796875,-0.226165771484375
221368,0.3457794189453125,-0.692047119140625,-0.130401611328125
221369,0.360626220703125,-0.662139892578125,-0.0382843017578125
221370,0.360626220703125,-0.662139892578125,-0.0382843017578125
221371,0.4461669921875,-0.7505950927734375,0.0576171875
221372,0.5098876953125,-0.8560028076171875,0.0877685546875
221373,0.5098876953125,-0.8560028076171875,0.0877685546875
221374,0.682525634765625,-1.079360961914062,0.0629119873046875
221375,0.711456298828125,-1.143646240234375,0.0593719482421875
221376,0.6925506591796875,-1.101486206054688,0.04443359375
221377,0.6319427490234375,-1.02288818359375,-0.021636962890625
221378,0.6319427490234375,-1.02288818359375,-0.021636962890625
221379,0.491485595703125,-0.9605255126953124,-0.04718017578125
221380,0.453369140625,-0.9187469482421876,-0.0996246337890625
221381,0.4278564453125,-0.873565673828125,-0.2144012451171875
221382,0.4278564453125,-0.873565673828125,-0.2144012451171875
221383,0.3985137939453125,-0.8759002685546875,-0.3316497802734375
221384,0.3774261474609375,-0.878570556640625,-0.3363037109375
221385,0.362335205078125,-0.830047607421875,-0.3460235595703125
221386,0.3583831787109375,-0.7665863037109375,-0.3679351806640625
221387,0.3657684326171875,-0.714813232421875,-0.3770904541015625
221388,0.3831939697265625,-0.6828155517578125,-0.3575286865234375
221389,0.3831939697265625,-0.6828155517578125,-0.3575286865234375
221390,0.392852783203125,-0.6830902099609375,-0.3463134765625
221391,0.3748321533203125,-0.7183990478515625,-0.3405303955078125
221392,0.3623504638671875,-0.7308502197265625,-0.3304443359375
221393,0.3455047607421875,-0.745452880859375,-0.32049560546875
221394,0.3455047607421875,-0.745452880859375,-0.32049560546875
221395,0.2981109619140625,-0.802978515625,-0.2738189697265625
221396,0.2802886962890625,-0.8427581787109375,-0.2302093505859375
221397,0.266845703125,-0.8791046142578125,-0.17095947265625
221398,0.266845703125,-0.8791046142578125,-0.17095947265625
221399,0.2620849609375,-0.93450927734375,-0.1264495849609375
221400,0.271026611328125,-0.9566802978515624,-0.15948486328125
221401,0.271026611328125,-0.9566802978515624,-0.15948486328125
221402,0.2842254638671875,-0.9644317626953124,-0.1747589111328125
221403,0.351959228515625,-0.9529266357421876,-0.0946197509765625
221404,0.38507080078125,-0.9762725830078124,-0.055877685546875
221405,0.38507080078125,-0.9762725830078124,-0.055877685546875
221406,0.4254150390625,-0.9716949462890624,-0.2758026123046875
221407,0.471649169921875,-1.109970092773438,-0.441314697265625
221408,0.488800048828125,-1.170089721679688,-0.4006500244140625
221409,0.4796295166015625,-1.131683349609375,-0.365997314453125
221410,0.4796295166015625,-1.131683349609375,-0.365997314453125
221411,0.363983154296875,-0.9768218994140624,-0.3525848388671875
221412,0.2923736572265625,-0.8949737548828125,-0.338287353515625
221413,0.2923736572265625,-0.8949737548828125,-0.338287353515625
221414,0.2362823486328125,-0.824432373046875,-0.306488037109375
221415,0.3138885498046875,-0.794708251953125,-0.2872772216796875
221416,0.3827056884765625,-0.8036346435546875,-0.25567626953125
221417,0.3827056884765625,-0.8036346435546875,-0.25567626953125
221418,0.449127197265625,-0.8352813720703125,-0.2702178955078125
221419,0.47222900390625,-0.89361572265625,-0.28887939453125
221420,0.498626708984375,-0.97265625,-0.3321990966796875
221421,0.498626708984375,-0.97265625,-0.3321990966796875
221422,0.5298919677734375,-1.033355712890625,-0.3981170654296875
221423,0.593963623046875,-0.999603271484375,-0.4865264892578125
221424,0.60528564453125,-0.953277587890625,-0.4767608642578125
221425,0.60528564453125,-0.953277587890625,-0.4767608642578125
221426,0.578582763671875,-0.9607696533203124,-0.4503021240234375
221427,0.4952545166015625,-0.9066009521484376,-0.368621826171875
221428,0.45770263671875,-0.8755340576171875,-0.3415374755859375
221429,0.45770263671875,-0.8755340576171875,-0.3415374755859375
221430,0.4291534423828125,-0.84344482421875,-0.3065643310546875
221431,0.396270751953125,-0.8246917724609375,-0.241668701171875
221432,0.3555908203125,-0.761077880859375,-0.1298065185546875
221433,0.3555908203125,-0.761077880859375,-0.1298065185546875
221434,0.3826751708984375,-0.7202301025390625,-0.0874786376953125
221435,0.411224365234375,-0.7156219482421875,-0.088226318359375
221436,0.43560791015625,-0.73895263671875,-0.0677947998046875
221437,0.43560791015625,-0.73895263671875,-0.0677947998046875
221438,0.449249267578125,-0.8046112060546875,-0.023406982421875
221439,0.4760894775390625,-1.028030395507812,0.0890350341796875
221440,0.479949951171875,-1.1378173828125,0.0878448486328125
221441,0.4683074951171875,-1.181732177734375,0.0424041748046875
221442,0.4683074951171875,-1.181732177734375,0.0424041748046875
221443,0.4566497802734375,-1.129638671875,-0.0056610107421875
221444,0.468963623046875,-1.073318481445312,-0.0140533447265625
221445,0.468963623046875,-1.073318481445312,-0.0140533447265625
221446,0.4799652099609375,-0.90142822265625,-0.0870513916015625
221447,0.48193359375,-0.842132568359375,-0.1081390380859375
221448,0.4737548828125,-0.8091278076171875,-0.1116943359375
221449,0.4641265869140625,-0.8088836669921875,-0.152313232421875
221450,0.4641265869140625,-0.8088836669921875,-0.152313232421875
221451,0.4152374267578125,-0.8655853271484375,-0.2393341064453125
221452,0.37884521484375,-0.8813934326171875,-0.212127685546875
221453,0.37884521484375,-0.8813934326171875,-0.212127685546875
221454,0.3433380126953125,-0.8723602294921875,-0.179412841796875
221455,0.23974609375,-0.8075408935546875,-0.1428375244140625
221456,0.2093963623046875,-0.781829833984375,-0.1696319580078125
221457,0.197113037109375,-0.7624359130859375,-0.1836090087890625
221458,0.197113037109375,-0.7624359130859375,-0.1836090087890625
221459,0.1714935302734375,-0.76739501953125,-0.165435791015625
221460,0.1611328125,-0.77984619140625,-0.2119140625
221461,0.159759521484375,-0.817962646484375,-0.25482177734375
221462,0.159759521484375,-0.817962646484375,-0.25482177734375
221463,0.246490478515625,-1.004302978515625,-0.3374481201171875
221464,0.34625244140625,-1.06719970703125,-0.2626953125
221465,0.3913726806640625,-0.9170074462890624,-0.3298797607421875
221466,0.4451446533203125,-0.8900909423828125,-0.5484161376953125
221467,0.4817657470703125,-0.991302490234375,-0.4949798583984375
221468,0.4991607666015625,-1.020294189453125,-0.3876800537109375
221469,0.5009613037109375,-0.992645263671875,-0.39111328125
221470,0.4859619140625,-0.9589691162109376,-0.441375732421875
221471,0.4564971923828125,-0.921600341796875,-0.4682159423828125
221472,0.4303436279296875,-0.87396240234375,-0.4513702392578125
221473,0.4133758544921875,-0.853240966796875,-0.4163360595703125
221474,0.390655517578125,-0.824615478515625,-0.36529541015625
221475,0.3719940185546875,-0.7923583984375,-0.302642822265625
221476,0.3582916259765625,-0.7676544189453125,-0.2398834228515625
221477,0.35601806640625,-0.7459716796875,-0.186004638671875
221478,0.35601806640625,-0.7459716796875,-0.186004638671875
221479,0.3846282958984375,-0.796966552734375,-0.18115234375
221480,0.403228759765625,-0.90753173828125,-0.1948699951171875
221481,0.403228759765625,-0.90753173828125,-0.1948699951171875
221482,0.36492919921875,-1.1712646484375,-0.2530059814453125
221483,0.328521728515625,-1.176101684570312,-0.3410186767578125
221484,0.3355712890625,-1.080169677734375,-0.3633270263671875
221485,0.3355712890625,-1.080169677734375,-0.3633270263671875
221486,0.4134979248046875,-1.029617309570312,-0.405120849609375
221487,0.4199066162109375,-0.97894287109375,-0.397735595703125
221488,0.4090118408203125,-0.8747711181640625,-0.350311279296875
221489,0.3995208740234375,-0.798431396484375,-0.3246612548828125
221490,0.4003753662109375,-0.767181396484375,-0.2954864501953125
221491,0.3887939453125,-0.7432708740234375,-0.2286224365234375
221492,0.372161865234375,-0.71783447265625,-0.157958984375
221493,0.372161865234375,-0.71783447265625,-0.157958984375
221494,0.3677978515625,-0.701141357421875,-0.053131103515625
221495,0.384124755859375,-0.6923828125,-0.0216217041015625
221496,0.411468505859375,-0.6868133544921875,-0.0056610107421875
221497,0.4451904296875,-0.6964263916015625,0.0179443359375
221498,0.4451904296875,-0.6964263916015625,0.0179443359375
221499,0.5169219970703125,-0.798828125,0.1231536865234375
221500,0.545654296875,-0.8970947265625,0.1553497314453125
221501,0.5463714599609375,-1.017837524414062,0.13848876953125
221502,0.521697998046875,-1.118759155273438,0.1095733642578125
221503,0.46820068359375,-1.160751342773438,0.092376708984375
221504,0.4054107666015625,-1.135833740234375,0.0645294189453125
221505,0.3570404052734375,-1.044097900390625,0.0240936279296875
221506,0.32318115234375,-0.9544525146484376,-0.009033203125
221507,0.3018035888671875,-0.9053192138671876,-0.0421142578125
221508,0.3016204833984375,-0.878570556640625,-0.075958251953125
221509,0.319061279296875,-0.8856201171875,-0.1240386962890625
221510,0.319061279296875,-0.8856201171875,-0.1240386962890625
221511,0.4027099609375,-0.924163818359375,-0.35504150390625
221512,0.4496002197265625,-0.922698974609375,-0.4271087646484375
221513,0.468475341796875,-0.905029296875,-0.4090423583984375
221514,0.468475341796875,-0.905029296875,-0.4090423583984375
221515,0.468994140625,-0.8733062744140625,-0.3542633056640625
221516,0.47027587890625,-0.8674774169921875,-0.3276519775390625
221517,0.47027587890625,-0.8674774169921875,-0.3276519775390625
221518,0.460693359375,-0.8739471435546875,-0.3145751953125
221519,0.42633056640625,-0.890228271484375,-0.285491943359375
221520,0.408599853515625,-0.8971710205078125,-0.264129638671875
221521,0.408599853515625,-0.8971710205078125,-0.264129638671875
221522,0.3603363037109375,-0.936431884765625,-0.2056427001953125
221523,0.3383636474609375,-0.94580078125,-0.17547607421875
221524,0.3222808837890625,-0.945709228515625,-0.1441497802734375
221525,0.313690185546875,-0.921173095703125,-0.117156982421875
221526,0.313690185546875,-0.921173095703125,-0.117156982421875
221527,0.3527679443359375,-0.8505859375,-0.1040496826171875
221528,0.38348388671875,-0.82794189453125,-0.1109771728515625
221529,0.4351654052734375,-0.895599365234375,-0.1612548828125
221530,0.4351654052734375,-0.895599365234375,-0.1612548828125
221531,0.419342041015625,-1.021484375,-0.0930938720703125
221532,0.42999267578125,-1.018218994140625,-0.3178558349609375
221533,0.3878631591796875,-1.018905639648438,-0.52642822265625
221534,0.3534088134765625,-0.96026611328125,-0.4303131103515625
221535,0.3364715576171875,-0.9251556396484376,-0.389007568359375
221536,0.332977294921875,-0.8956146240234375,-0.3720245361328125
221537,0.332977294921875,-0.8956146240234375,-0.3720245361328125
221538,0.317596435546875,-0.8834991455078125,-0.3682861328125
221539,0.3134613037109375,-0.8969268798828125,-0.372772216796875
221540,0.31390380859375,-0.9250640869140624,-0.3711700439453125
221541,0.3422088623046875,-0.994964599609375,-0.3960418701171875
221542,0.3422088623046875,-0.994964599609375,-0.3960418701171875
221543,0.4549407958984375,-1.024734497070312,-0.4075164794921875
221544,0.508941650390625,-0.9911651611328124,-0.4335174560546875
221545,0.5495452880859375,-0.9632568359375,-0.4669342041015625
221546,0.5495452880859375,-0.9632568359375,-0.4669342041015625
221547,0.5434722900390625,-0.9513702392578124,-0.4234466552734375
221548,0.5281829833984375,-0.9244842529296876,-0.39288330078125
221549,0.4915313720703125,-0.862213134765625,-0.3902587890625
221550,0.4915313720703125,-0.862213134765625,-0.3902587890625
221551,0.460662841796875,-0.8457489013671875,-0.3498992919921875
221552,0.4384002685546875,-0.826995849609375,-0.320831298828125
221553,0.4083099365234375,-0.8074188232421875,-0.2818145751953125
221554,0.4083099365234375,-0.8074188232421875,-0.2818145751953125
221555,0.321929931640625,-0.7339019775390625,-0.1627044677734375
221556,0.2920684814453125,-0.6923980712890625,-0.116546630859375
221557,0.2834625244140625,-0.670013427734375,-0.09271240234375
221558,0.2834625244140625,-0.670013427734375,-0.09271240234375
221559,0.309600830078125,-0.6604156494140625,-0.04638671875
221560,0.3254852294921875,-0.71197509765625,-0.02093505859375
221561,0.3516845703125,-0.8147125244140625,-0.02301025390625
221562,0.36737060546875,-0.9655914306640624,0.000701904296875
221563,0.3798065185546875,-1.160781860351562,0.07464599609375
221564,0.4168701171875,-1.320465087890625,0.18060302734375
221565,0.4168701171875,-1.320465087890625,0.18060302734375
221566,0.4604034423828125,-1.350921630859375,0.2192230224609375
221567,0.4433135986328125,-1.172714233398438,-0.0018310546875
221568,0.467529296875,-1.077529907226562,-0.0454864501953125
221569,0.4825897216796875,-1.005569458007812,-0.0540771484375
221570,0.4825897216796875,-1.005569458007812,-0.0540771484375
221571,0.493133544921875,-0.9049072265625,-0.151458740234375
221572,0.4770660400390625,-0.8820037841796875,-0.2041015625
221573,0.4597015380859375,-0.8761444091796875,-0.25543212890625
221574,0.4597015380859375,-0.8761444091796875,-0.25543212890625
221575,0.4163970947265625,-0.8990325927734375,-0.3329010009765625
221576,0.383544921875,-0.88714599609375,-0.3708343505859375
221577,0.3303070068359375,-0.8643951416015625,-0.3890228271484375
221578,0.3303070068359375,-0.8643951416015625,-0.3890228271484375
221579,0.2279205322265625,-0.8073577880859375,-0.429656982421875
221580,0.1793975830078125,-0.8058929443359375,-0.4243621826171875
221581,0.126220703125,-0.80499267578125,-0.4154205322265625
221582,0.126220703125,-0.80499267578125,-0.4154205322265625
221583,0.034820556640625,-0.8443756103515625,-0.436279296875
221584,0.0020294189453125,-0.883087158203125,-0.4316864013671875
221585,0.1378021240234375,-0.7584381103515625,-0.5022430419921875
221586,0.1378021240234375,-0.7584381103515625,-0.5022430419921875
221587,0.2002716064453125,-0.7847442626953125,-0.68560791015625
221588,0.2570343017578125,-0.8348236083984375,-0.7489013671875
221589,0.3272247314453125,-0.8443756103515625,-0.54510498046875
221590,0.3272247314453125,-0.8443756103515625,-0.54510498046875
221591,0.3185272216796875,-0.8482208251953125,-0.5210418701171875
221592,0.2791748046875,-0.8607940673828125,-0.4834442138671875
221593,0.261993408203125,-0.817169189453125,-0.446746826171875
221594,0.261993408203125,-0.817169189453125,-0.446746826171875
221595,0.2366790771484375,-0.727386474609375,-0.4506988525390625
221596,0.2387542724609375,-0.7318267822265625,-0.459808349609375
221597,0.2387542724609375,-0.7318267822265625,-0.459808349609375
221598,0.2490386962890625,-0.82861328125,-0.4397430419921875
221599,0.2694549560546875,-0.9052276611328124,-0.4377899169921875
221600,0.291229248046875,-0.98516845703125,-0.4476165771484375
221601,0.276458740234375,-1.0487060546875,-0.5009918212890625
221602,0.276458740234375,-1.0487060546875,-0.5009918212890625
221603,0.2799072265625,-1.07586669921875,-0.5505828857421875
221604,0.2743988037109375,-1.080474853515625,-0.523834228515625
221605,0.25592041015625,-1.053375244140625,-0.5049285888671875
221606,0.2427215576171875,-1.015945434570312,-0.5189056396484375
221607,0.234588623046875,-0.967987060546875,-0.501708984375
221608,0.2567596435546875,-0.9244232177734376,-0.46295166015625
221609,0.2932586669921875,-0.894256591796875,-0.437957763671875
221610,0.2932586669921875,-0.894256591796875,-0.437957763671875
221611,0.3029327392578125,-0.785430908203125,-0.3691864013671875
221612,0.271331787109375,-0.67413330078125,-0.2928466796875
221613,0.247222900390625,-0.687896728515625,-0.1279296875
221614,0.247222900390625,-0.687896728515625,-0.1279296875
221615,0.269775390625,-0.718780517578125,-0.0797271728515625
221616,0.3016204833984375,-0.7639007568359375,-0.0540771484375
221617,0.4096527099609375,-0.9230804443359376,-0.017730712890625
221618,0.4096527099609375,-0.9230804443359376,-0.017730712890625
221619,0.487762451171875,-1.010818481445312,0.028717041015625
221620,0.557952880859375,-1.099594116210938,0.0831298828125
221621,0.604034423828125,-1.1746826171875,0.0850372314453125
221622,0.604034423828125,-1.1746826171875,0.0850372314453125
221623,0.6326141357421875,-1.156448364257812,-0.04046630859375
221624,0.583251953125,-1.067138671875,-0.13482666015625
221625,0.41912841796875,-0.9393768310546876,-0.1741180419921875
221626,0.41912841796875,-0.9393768310546876,-0.1741180419921875
221627,0.3620758056640625,-0.8831634521484375,-0.2198028564453125
221628,0.3293609619140625,-0.8553924560546875,-0.270599365234375
221629,0.2869720458984375,-0.8634185791015625,-0.37274169921875
221630,0.2869720458984375,-0.8634185791015625,-0.37274169921875
221631,0.2620849609375,-0.8495025634765625,-0.3557891845703125
221632,0.263916015625,-0.8207855224609375,-0.33758544921875
221633,0.2817230224609375,-0.7727203369140625,-0.3437042236328125
221634,0.3112945556640625,-0.721923828125,-0.3308868408203125
221635,0.3362274169921875,-0.6928863525390625,-0.328399658203125
221636,0.3552703857421875,-0.6801910400390625,-0.3300018310546875
221637,0.3691558837890625,-0.690032958984375,-0.31353759765625
221638,0.3691558837890625,-0.690032958984375,-0.31353759765625
221639,0.3775177001953125,-0.772064208984375,-0.233001708984375
221640,0.36676025390625,-0.82855224609375,-0.2319488525390625
221641,0.36456298828125,-0.9373626708984376,-0.1846923828125
221642,0.36456298828125,-0.9373626708984376,-0.1846923828125
221643,0.3650360107421875,-0.9945220947265624,-0.1733856201171875
221644,0.3544769287109375,-1.042633056640625,-0.1858367919921875
221645,0.3430328369140625,-1.064529418945312,-0.214599609375
221646,0.3430328369140625,-1.064529418945312,-0.214599609375
221647,0.27325439453125,-1.069915771484375,-0.1746978759765625
221648,0.2544403076171875,-0.9907073974609376,-0.19317626953125
221649,0.22296142578125,-0.9948577880859376,-0.3558197021484375
221650,0.22296142578125,-0.9948577880859376,-0.3558197021484375
221651,0.147125244140625,-1.024887084960938,-0.4642486572265625
221652,0.10308837890625,-1.031158447265625,-0.5085296630859375
221653,0.073760986328125,-1.00421142578125,-0.518463134765625
221654,0.0599822998046875,-0.9828643798828124,-0.4865875244140625
221655,0.0801239013671875,-0.9864959716796876,-0.4590911865234375
221656,0.126739501953125,-0.98468017578125,-0.4569854736328125
221657,0.1820526123046875,-0.9788360595703124,-0.4808502197265625
221658,0.1820526123046875,-0.9788360595703124,-0.4808502197265625
221659,0.282745361328125,-0.9954681396484376,-0.4808502197265625
221660,0.32037353515625,-0.9994964599609376,-0.4792633056640625
221661,0.347076416015625,-1.001876831054688,-0.490020751953125
221662,0.347076416015625,-1.001876831054688,-0.490020751953125
221663,0.391754150390625,-0.9820556640625,-0.5141754150390625
221664,0.3869476318359375,-0.96307373046875,-0.51806640625
221665,0.3812255859375,-0.95147705078125,-0.511566162109375
221666,0.3723907470703125,-0.9366912841796876,-0.4775390625
221667,0.35125732421875,-0.9345550537109376,-0.443572998046875
221668,0.3342742919921875,-0.911529541015625,-0.40252685546875
221669,0.2979736328125,-0.8804473876953125,-0.32977294921875
221670,0.2979736328125,-0.8804473876953125,-0.32977294921875
221671,0.27056884765625,-0.8631744384765625,-0.282684326171875
221672,0.2475128173828125,-0.8395538330078125,-0.2351837158203125
221673,0.2262725830078125,-0.818511962890625,-0.1851806640625
221674,0.2214508056640625,-0.790252685546875,-0.137908935546875
221675,0.2288360595703125,-0.7761077880859375,-0.1021881103515625
221676,0.2491455078125,-0.778533935546875,-0.0687255859375
221677,0.3198699951171875,-0.8346710205078125,-0.0286865234375
221678,0.3198699951171875,-0.8346710205078125,-0.0286865234375
221679,0.3604888916015625,-0.89404296875,-0.0094451904296875
221680,0.394683837890625,-0.961944580078125,0.0204315185546875
221681,0.4218902587890625,-1.013595581054688,0.0444793701171875
221682,0.4218902587890625,-1.013595581054688,0.0444793701171875
221683,0.4976654052734375,-1.141403198242188,0.062347412109375
221684,0.5069427490234375,-1.101593017578125,0.0113983154296875
221685,0.5006561279296875,-1.038314819335938,0.0045166015625
221686,0.5006561279296875,-1.038314819335938,0.0045166015625
221687,0.5069122314453125,-0.947021484375,-0.0005035400390625
221688,0.4895172119140625,-0.9035186767578124,-0.0300140380859375
221689,0.461822509765625,-0.8619384765625,-0.092620849609375
221690,0.428955078125,-0.8436431884765625,-0.16705322265625
221691,0.388031005859375,-0.8449249267578125,-0.2343597412109375
221692,0.3395233154296875,-0.86224365234375,-0.294403076171875
221693,0.307647705078125,-0.8798065185546875,-0.3385162353515625
221694,0.307647705078125,-0.8798065185546875,-0.3385162353515625
221695,0.258392333984375,-0.8852691650390625,-0.3463592529296875
221696,0.2342681884765625,-0.866729736328125,-0.3170318603515625
221697,0.211181640625,-0.8372802734375,-0.293853759765625
221698,0.191162109375,-0.822052001953125,-0.2667236328125
221699,0.17864990234375,-0.8190155029296875,-0.2526702880859375
221700,0.1731109619140625,-0.836639404296875,-0.2509765625
221701,0.169586181640625,-0.86407470703125,-0.250457763671875
221702,0.169586181640625,-0.86407470703125,-0.250457763671875
221703,0.1602935791015625,-0.9156951904296876,-0.2644195556640625
221704,0.1726531982421875,-0.8917999267578125,-0.3009185791015625
221705,0.1985321044921875,-0.847381591796875,-0.3694000244140625
221706,0.237396240234375,-0.8192901611328125,-0.4465179443359375
221707,0.2938385009765625,-0.8318023681640625,-0.4735565185546875
221708,0.3502960205078125,-0.9044647216796876,-0.4256744384765625
221709,0.3736572265625,-0.9746551513671876,-0.3756103515625
221710,0.3736572265625,-0.9746551513671876,-0.3756103515625
221711,0.42156982421875,-0.8393096923828125,-0.4026947021484375
221712,0.441162109375,-0.8415374755859375,-0.4156646728515625
221713,0.439422607421875,-0.85015869140625,-0.4401397705078125
221714,0.439422607421875,-0.85015869140625,-0.4401397705078125
221715,0.419586181640625,-0.8000335693359375,-0.4368743896484375
221716,0.4031982421875,-0.7635345458984375,-0.4146728515625
221717,0.394500732421875,-0.7356719970703125,-0.3737335205078125
221718,0.394500732421875,-0.7356719970703125,-0.3737335205078125
221719,0.40631103515625,-0.7236480712890625,-0.28607177734375
221720,0.36834716796875,-0.819305419921875,-0.273651123046875
221721,0.314666748046875,-0.9246673583984376,-0.3235626220703125
221722,0.300018310546875,-0.97052001953125,-0.36956787109375
221723,0.3004913330078125,-1.003890991210938,-0.41998291015625
221724,0.3336334228515625,-1.042373657226562,-0.5032196044921875
221725,0.346710205078125,-1.060699462890625,-0.50103759765625
221726,0.346710205078125,-1.060699462890625,-0.50103759765625
221727,0.346710205078125,-1.060699462890625,-0.50103759765625
221728,0.339874267578125,-0.9856414794921876,-0.4760894775390625
221729,0.3638916015625,-0.9228057861328124,-0.473846435546875
221730,0.3772125244140625,-0.8514404296875,-0.4712066650390625
221731,0.3786163330078125,-0.8162994384765625,-0.41278076171875
221732,0.3372650146484375,-0.7376556396484375,-0.3340301513671875
221733,0.294189453125,-0.687225341796875,-0.2234039306640625
221734,0.294189453125,-0.687225341796875,-0.2234039306640625
221735,0.3069915771484375,-0.7624969482421875,-0.0279693603515625
221736,0.360137939453125,-0.8011932373046875,0.0304412841796875
221737,0.4129638671875,-0.8535003662109375,0.080596923828125
221738,0.4129638671875,-0.8535003662109375,0.080596923828125
221739,0.5529632568359375,-0.972991943359375,0.1615447998046875
221740,0.6320953369140625,-1.098114013671875,0.215911865234375
221741,0.7164154052734375,-1.270645141601562,0.10528564453125
221742,0.7164154052734375,-1.270645141601562,0.10528564453125
221743,0.7276763916015625,-1.129989624023438,-0.022369384765625
221744,0.70361328125,-1.030258178710938,-0.07708740234375
221745,0.598785400390625,-0.9956817626953124,-0.073150634765625
221746,0.598785400390625,-0.9956817626953124,-0.073150634765625
221747,0.4436187744140625,-0.8010101318359375,-0.0928192138671875
221748,0.4094696044921875,-0.7593536376953125,-0.1439056396484375
221749,0.3888702392578125,-0.759735107421875,-0.1949310302734375
221750,0.3789215087890625,-0.7717132568359375,-0.251373291015625
221751,0.384368896484375,-0.772979736328125,-0.332672119140625
221752,0.4046173095703125,-0.7611236572265625,-0.397186279296875
221753,0.482513427734375,-0.7787017822265625,-0.3173370361328125
221754,0.482513427734375,-0.7787017822265625,-0.3173370361328125
221755,0.5174102783203125,-0.8021087646484375,-0.2698516845703125
221756,0.5337066650390625,-0.8099517822265625,-0.230255126953125
221757,0.5433197021484375,-0.80584716796875,-0.2014007568359375
221758,0.5433197021484375,-0.80584716796875,-0.2014007568359375
221759,0.56817626953125,-0.7704925537109375,-0.113861083984375
221760,0.57086181640625,-0.758819580078125,-0.1057586669921875
221761,0.5608062744140625,-0.754974365234375,-0.104095458984375
221762,0.5608062744140625,-0.754974365234375,-0.104095458984375
221763,0.5348968505859375,-0.752105712890625,-0.132171630859375
221764,0.452117919921875,-0.7596282958984375,-0.17352294921875
221765,0.4237823486328125,-0.7736968994140625,-0.2038421630859375
221766,0.403778076171875,-0.80950927734375,-0.2558746337890625
221767,0.3840484619140625,-0.8766021728515625,-0.2763824462890625
221768,0.2540283203125,-1.242294311523438,-0.0093536376953125
221769,0.294403076171875,-1.016952514648438,-0.1353302001953125
221770,0.2207794189453125,-0.9525604248046876,-0.9914093017578124
221771,0.138885498046875,-1.066253662109375,-0.690521240234375
221772,0.15643310546875,-1.003936767578125,-0.4074249267578125
221773,0.1755523681640625,-0.9711456298828124,-0.5167083740234375
221774,0.1755523681640625,-0.9711456298828124,-0.5167083740234375
221775,0.2659149169921875,-0.928009033203125,-0.3500518798828125
221776,0.303436279296875,-0.9467010498046876,-0.35052490234375
221777,0.3545989990234375,-0.97119140625,-0.3882293701171875
221778,0.440887451171875,-0.9630279541015624,-0.4639739990234375
221779,0.5322265625,-0.9385833740234376,-0.5498809814453125
221780,0.5920562744140625,-0.9421539306640624,-0.5781707763671875
221781,0.64935302734375,-0.9715423583984376,-0.5883636474609375
221782,0.64935302734375,-0.9715423583984376,-0.5883636474609375
221783,0.665374755859375,-1.002120971679688,-0.499786376953125
221784,0.6353759765625,-0.9763031005859376,-0.47802734375
221785,0.59136962890625,-0.92962646484375,-0.48089599609375
221786,0.59136962890625,-0.92962646484375,-0.48089599609375
221787,0.514068603515625,-0.812957763671875,-0.3787689208984375
221788,0.493194580078125,-0.71429443359375,-0.3097381591796875
221789,0.4837188720703125,-0.6295928955078125,-0.15533447265625
221790,0.4837188720703125,-0.6295928955078125,-0.15533447265625
221791,0.505859375,-0.653717041015625,-0.058013916015625
221792,0.5341644287109375,-0.6805877685546875,0.009063720703125
221793,0.56072998046875,-0.702545166015625,0.0336456298828125
221794,0.56072998046875,-0.702545166015625,0.0336456298828125
221795,0.5890655517578125,-0.7953338623046875,0.0507659912109375
221796,0.6060791015625,-0.8576507568359375,0.09381103515625
221797,0.6326446533203125,-0.9218902587890624,0.13775634765625
221798,0.6326446533203125,-0.9218902587890624,0.13775634765625
221799,0.6644744873046875,-1.02044677734375,0.0675201416015625
221800,0.659820556640625,-1.018630981445312,-0.01397705078125
221801,0.6381378173828125,-0.98931884765625,-0.0957489013671875
221802,0.6381378173828125,-0.98931884765625,-0.0957489013671875
221803,0.562530517578125,-0.8613433837890625,-0.10003662109375
221804,0.5058135986328125,-0.8294219970703125,-0.09185791015625
221805,0.454833984375,-0.8229827880859375,-0.0927276611328125
221806,0.454833984375,-0.8229827880859375,-0.0927276611328125
221807,0.3974761962890625,-0.85345458984375,-0.221466064453125
221808,0.3679046630859375,-0.878875732421875,-0.2821044921875
221809,0.3392333984375,-0.89007568359375,-0.298309326171875
221810,0.3392333984375,-0.89007568359375,-0.298309326171875
221811,0.2937164306640625,-0.8595733642578125,-0.288482666015625
221812,0.27655029296875,-0.8360748291015625,-0.269500732421875
221813,0.2572174072265625,-0.8130035400390625,-0.2197113037109375
221814,0.2572174072265625,-0.8130035400390625,-0.2197113037109375
221815,0.21966552734375,-0.7390594482421875,-0.13079833984375
221816,0.226531982421875,-0.701812744140625,-0.1356048583984375
221817,0.260101318359375,-0.698455810546875,-0.1295928955078125
221818,0.260101318359375,-0.698455810546875,-0.1295928955078125
221819,0.3863372802734375,-0.8118438720703125,-0.1276092529296875
221820,0.451141357421875,-0.837677001953125,-0.158660888671875
221821,0.49395751953125,-0.8488311767578125,-0.2070159912109375
221822,0.52374267578125,-0.8496246337890625,-0.23248291015625
221823,0.5576629638671875,-0.834136962890625,-0.2473297119140625
221824,0.6004180908203125,-0.8230133056640625,-0.275421142578125
221825,0.6421661376953125,-0.81207275390625,-0.3365478515625
221826,0.6421661376953125,-0.81207275390625,-0.3365478515625
221827,0.705810546875,-0.7462921142578125,-0.3754425048828125
221828,0.7035980224609375,-0.7152099609375,-0.380462646484375
221829,0.6474151611328125,-0.7278289794921875,-0.397857666015625
221830,0.6474151611328125,-0.7278289794921875,-0.397857666015625
221831,0.5858917236328125,-0.75390625,-0.3983917236328125
221832,0.52203369140625,-0.7630462646484375,-0.4079132080078125
221833,0.480255126953125,-0.759765625,-0.4168701171875
221834,0.480255126953125,-0.759765625,-0.4168701171875
221835,0.43572998046875,-0.77337646484375,-0.413543701171875
221836,0.4064483642578125,-0.8269500732421875,-0.4077606201171875
221837,0.37188720703125,-0.892852783203125,-0.3982391357421875
221838,0.37188720703125,-0.892852783203125,-0.3982391357421875
221839,0.35430908203125,-1.020919799804688,-0.417327880859375
221840,0.3733062744140625,-1.088165283203125,-0.490234375
221841,0.4220123291015625,-1.131301879882812,-0.5558319091796875
221842,0.4220123291015625,-1.131301879882812,-0.5558319091796875
221843,0.514129638671875,-0.9744720458984376,-0.441436767578125
221844,0.52484130859375,-0.8763427734375,-0.386627197265625
221845,0.5216522216796875,-0.841583251953125,-0.375457763671875
221846,0.5216522216796875,-0.841583251953125,-0.375457763671875
221847,0.48052978515625,-0.800018310546875,-0.3098907470703125
221848,0.447357177734375,-0.7866363525390625,-0.2819671630859375
221849,0.4074249267578125,-0.7729644775390625,-0.2232666015625
221850,0.4074249267578125,-0.7729644775390625,-0.2232666015625
221851,0.3773040771484375,-0.74169921875,-0.0997467041015625
221852,0.3922576904296875,-0.725372314453125,-0.0247650146484375
221853,0.42376708984375,-0.7198333740234375,0.0767822265625
221854,0.42376708984375,-0.7198333740234375,0.0767822265625
221855,0.5670623779296875,-0.8344268798828125,0.243804931640625
221856,0.662628173828125,-0.9635772705078124,0.265167236328125
221857,0.7328643798828125,-1.0880126953125,0.24322509765625
221858,0.7328643798828125,-1.0880126953125,0.24322509765625
221859,0.7628631591796875,-1.124862670898438,0.12445068359375
221860,0.73150634765625,-1.052215576171875,0.0907135009765625
221861,0.6767425537109375,-0.957305908203125,0.067230224609375
221862,0.6767425537109375,-0.957305908203125,0.067230224609375
221863,0.57275390625,-0.79449462890625,-0.0337371826171875
221864,0.5431060791015625,-0.7628173828125,-0.0517730712890625
221865,0.5255584716796875,-0.739227294921875,-0.0773162841796875
221866,0.512847900390625,-0.7215423583984375,-0.12530517578125
221867,0.5038299560546875,-0.7207183837890625,-0.22174072265625
221868,0.4934844970703125,-0.729095458984375,-0.3199462890625
221869,0.49267578125,-0.761993408203125,-0.3408966064453125
221870,0.4918975830078125,-0.784576416015625,-0.3187255859375
221871,0.4872283935546875,-0.7843780517578125,-0.3066253662109375
221872,0.4777374267578125,-0.81109619140625,-0.2940673828125
221873,0.4747467041015625,-0.8261871337890625,-0.2392730712890625
221874,0.4747467041015625,-0.8261871337890625,-0.2392730712890625
221875,0.46856689453125,-0.8300018310546875,-0.1938018798828125
221876,0.463592529296875,-0.8200531005859375,-0.1622772216796875
221877,0.4518890380859375,-0.802001953125,-0.1280059814453125
221878,0.4518890380859375,-0.802001953125,-0.1280059814453125
221879,0.4147186279296875,-0.772125244140625,-0.10491943359375
221880,0.398284912109375,-0.7667999267578125,-0.12451171875
221881,0.3890380859375,-0.776824951171875,-0.173431396484375
221882,0.3890380859375,-0.776824951171875,-0.173431396484375
221883,0.404693603515625,-0.85028076171875,-0.296600341796875
221884,0.403289794921875,-0.9212493896484376,-0.322662353515625
221885,0.317230224609375,-1.2083740234375,-0.1642303466796875
221886,0.317230224609375,-1.2083740234375,-0.1642303466796875
221887,0.203369140625,-0.96661376953125,-0.8148956298828125
221888,0.1352386474609375,-1.031753540039062,-0.783935546875
221889,0.1733856201171875,-0.9659271240234376,-0.3629150390625
221890,0.1733856201171875,-0.9659271240234376,-0.3629150390625
221891,0.3444061279296875,-0.947021484375,-0.4506988525390625
221892,0.3987884521484375,-0.9798126220703124,-0.384765625
221893,0.4245758056640625,-0.975555419921875,-0.3910369873046875
221894,0.4245758056640625,-0.975555419921875,-0.3910369873046875
221895,0.539215087890625,-0.9347686767578124,-0.436004638671875
221896,0.5897674560546875,-0.9270172119140624,-0.401641845703125
221897,0.62164306640625,-0.933929443359375,-0.3895416259765625
221898,0.62164306640625,-0.933929443359375,-0.3895416259765625
221899,0.68536376953125,-0.9342803955078124,-0.474365234375
221900,0.7165374755859375,-0.913909912109375,-0.4479827880859375
221901,0.7221221923828125,-0.927337646484375,-0.3912353515625
221902,0.7115020751953125,-0.9123077392578124,-0.33642578125
221903,0.685791015625,-0.8519287109375,-0.2919158935546875
221904,0.65948486328125,-0.79327392578125,-0.266510009765625
221905,0.6221160888671875,-0.730194091796875,-0.235076904296875
