time_idx,accelerometerAccelerationX(G),accelerometerAccelerationY(G),accelerometerAccelerationZ(G)
260000,0.3433380126953125,-0.202545166015625,0.864654541015625
260001,0.3433380126953125,-0.202545166015625,0.864654541015625
260002,0.2010955810546875,-0.1404266357421875,-0.1773529052734375
260003,0.127716064453125,-0.0231170654296875,-0.4153900146484375
260004,0.0153350830078125,0.1551666259765625,-0.5396728515625
260005,-0.051605224609375,0.274810791015625,-0.653717041015625
260006,-0.0763092041015625,0.2292938232421875,-0.448394775390625
260007,-0.3043212890625,-0.0162200927734375,-0.262481689453125
260008,-0.4302825927734375,-0.134490966796875,-0.2516326904296875
260009,-0.4302825927734375,-0.134490966796875,-0.2516326904296875
260010,-0.2784423828125,0.0420684814453125,-0.141265869140625
260011,-0.273468017578125,0.0496673583984375,-0.0522003173828125
260012,-0.273468017578125,0.0496673583984375,-0.0522003173828125
260013,-0.0474853515625,0.147247314453125,0.0780181884765625
260014,0.055908203125,0.2069244384765625,0.24542236328125
260015,-0.03900146484375,0.2255401611328125,0.0216217041015625
260016,-0.0659942626953125,0.27044677734375,-0.013214111328125
260017,-0.0659942626953125,0.27044677734375,-0.013214111328125
260018,-0.0718994140625,0.2539520263671875,0.090087890625
260019,-0.0373992919921875,0.149566650390625,0.16241455078125
260020,0.00555419921875,0.0092926025390625,0.1743621826171875
260021,0.00555419921875,0.0092926025390625,0.1743621826171875
260022,0.272613525390625,-0.1917724609375,0.44122314453125
260023,0.5455169677734375,-0.424224853515625,0.3080902099609375
260024,0.3686370849609375,-6.6392822265625,1.99298095703125
260025,0.3686370849609375,-6.6392822265625,1.99298095703125
260026,1.868515014648438,-7.140213012695312,2.035385131835938
260027,2.760940551757812,-2.772247314453125,-0.068695068359375
260028,2.760940551757812,-2.772247314453125,-0.068695068359375
260029,1.2686767578125,-2.611663818359375,-1.95660400390625
260030,0.8634796142578125,-1.498550415039062,0.4536590576171875
260031,0.6973114013671875,-1.233840942382812,0.29425048828125
260032,0.4957427978515625,-0.801788330078125,0.36322021484375
260033,0.4957427978515625,-0.801788330078125,0.36322021484375
260034,0.284027099609375,-0.3046112060546875,0.1854400634765625
260035,0.1956329345703125,-0.1409912109375,0.0555877685546875
260036,0.037353515625,0.041259765625,-0.0520782470703125
260037,0.037353515625,0.041259765625,-0.0520782470703125
260038,-0.0246124267578125,0.0426788330078125,0.02203369140625
260039,-0.076263427734375,0.0231475830078125,0.0473480224609375
260040,-0.1038970947265625,0.0254364013671875,0.0146331787109375
260041,-0.1156158447265625,0.0373687744140625,0.0214996337890625
260042,-0.1215362548828125,0.061431884765625,0.026611328125
260043,-0.134552001953125,0.0862274169921875,0.0055389404296875
260044,-0.134552001953125,0.0862274169921875,0.0055389404296875
260045,-0.2439727783203125,0.165374755859375,-0.1211700439453125
260046,-0.3270111083984375,0.1378631591796875,-0.136688232421875
260047,-0.3353424072265625,0.2152862548828125,-0.1664276123046875
260048,-0.3353424072265625,0.2152862548828125,-0.1664276123046875
260049,-0.3237152099609375,0.3065643310546875,-0.160430908203125
260050,-0.384765625,0.449462890625,-0.0378265380859375
260051,-0.3615264892578125,0.43408203125,0.0101470947265625
260052,-0.3248291015625,0.3764495849609375,0.0569000244140625
260053,-0.2637176513671875,0.2169647216796875,0.0630340576171875
260054,-0.1926727294921875,0.0269012451171875,0.0092010498046875
260055,-0.14190673828125,-0.0841827392578125,-0.0023193359375
260056,-0.14190673828125,-0.0841827392578125,-0.0023193359375
260057,-0.018157958984375,-0.178741455078125,0.01434326171875
260058,0.110137939453125,-0.1702728271484375,-0.114898681640625
260059,0.179168701171875,-2.641799926757812,0.79510498046875
260060,0.179168701171875,-2.641799926757812,0.79510498046875
260061,-0.16766357421875,-7.963363647460938,2.1512451171875
260062,3.11541748046875,-5.84490966796875,-0.7395172119140625
260063,2.270843505859375,-4.608657836914062,-2.303543090820312
260064,2.270843505859375,-4.608657836914062,-2.303543090820312
260065,1.490798950195312,-0.7841949462890625,0.1394195556640625
260066,1.075607299804688,-0.551910400390625,0.977447509765625
260067,0.8514556884765625,-0.283599853515625,1.300445556640625
260068,0.8514556884765625,-0.283599853515625,1.300445556640625
260069,0.792633056640625,0.06402587890625,1.353561401367188
260070,0.9045867919921876,-0.2166900634765625,0.39984130859375
260071,0.5216522216796875,-0.171051025390625,-0.0694732666015625
260072,0.270172119140625,-0.1443939208984375,-0.2572021484375
260073,0.0622100830078125,-0.08544921875,-0.3554840087890625
260074,-0.055450439453125,-0.061065673828125,-0.3355865478515625
260075,-0.1205902099609375,-0.0583343505859375,-0.29559326171875
260076,-0.1708984375,-0.0832061767578125,-0.2428741455078125
260077,-0.2430267333984375,-0.1361236572265625,-0.1399688720703125
260078,-0.30712890625,-0.1831512451171875,-0.006927490234375
260079,-0.28009033203125,-0.117828369140625,-0.0201263427734375
260080,-0.2135772705078125,-0.00250244140625,-0.0445098876953125
260081,-0.2135772705078125,-0.00250244140625,-0.0445098876953125
260082,-0.1146240234375,0.2063446044921875,-0.0618438720703125
260083,-0.122344970703125,0.287353515625,-0.098114013671875
260084,-0.1580352783203125,0.4188385009765625,-0.2008514404296875
260085,-0.1580352783203125,0.4188385009765625,-0.2008514404296875
260086,-0.168853759765625,0.515045166015625,-0.1540679931640625
260087,-0.1266326904296875,0.477264404296875,-0.1109771728515625
260088,-0.086883544921875,0.350433349609375,-0.064788818359375
260089,-0.069610595703125,0.2429046630859375,-0.0198822021484375
260090,-0.049346923828125,0.0972137451171875,-0.013427734375
260091,-0.034515380859375,-0.0043792724609375,-0.0116424560546875
260092,0.062530517578125,-0.1479644775390625,-0.1727294921875
260093,0.062530517578125,-0.1479644775390625,-0.1727294921875
260094,-0.1066131591796875,-3.315658569335938,-0.38885498046875
260095,-1.717208862304688,-7.257659912109375,0.34234619140625
260096,-1.717208862304688,-7.257659912109375,0.34234619140625
260097,1.022659301757812,-1.425430297851562,-0.7757720947265625
260098,2.4703369140625,-5.551849365234375,0.7294921875
260099,1.876785278320312,-3.900588989257812,-1.94952392578125
260100,1.492904663085938,-1.692276000976562,-1.000885009765625
260101,0.979339599609375,-0.9543304443359376,0.3334197998046875
260102,0.5380706787109375,-0.7885589599609375,0.9653472900390624
260103,0.394989013671875,-0.615386962890625,1.1304931640625
260104,0.301513671875,-0.528228759765625,1.000579833984375
260105,0.243408203125,-0.50714111328125,0.7342376708984375
260106,0.1820831298828125,-0.471405029296875,0.2691802978515625
260107,0.1379547119140625,-0.3181304931640625,-0.1822662353515625
260108,0.0195159912109375,-0.060516357421875,-0.3801116943359375
260109,0.0195159912109375,-0.060516357421875,-0.3801116943359375
260110,-0.0199432373046875,0.0234832763671875,-0.2783203125
260111,-0.0369110107421875,0.0426025390625,-0.1859130859375
260112,-0.0369110107421875,0.0426025390625,-0.1859130859375
260113,-0.029571533203125,0.0455474853515625,-0.129791259765625
260114,-0.026123046875,0.0667724609375,-0.1116943359375
260115,-0.0414276123046875,0.0872039794921875,-0.08795166015625
260116,-0.0414276123046875,0.0872039794921875,-0.08795166015625
260117,-0.0741424560546875,0.1242523193359375,-0.024017333984375
260118,-0.1487884521484375,0.13995361328125,0.0454559326171875
260119,-0.2298431396484375,0.2213287353515625,0.074371337890625
260120,-0.2832794189453125,0.34869384765625,0.110870361328125
260121,-0.2832794189453125,0.34869384765625,0.110870361328125
260122,-0.3656158447265625,0.5475616455078125,0.208282470703125
260123,-0.361083984375,0.5579071044921875,0.228485107421875
260124,-0.22369384765625,0.1971893310546875,0.0948486328125
260125,-0.22369384765625,0.1971893310546875,0.0948486328125
260126,-0.14923095703125,0.0288543701171875,0.02801513671875
260127,-0.1134796142578125,-0.0631256103515625,-0.017120361328125
260128,-0.068389892578125,-0.0990753173828125,-0.0384521484375
260129,-0.068389892578125,-0.0990753173828125,-0.0384521484375
260130,0.710296630859375,-2.405685424804688,-1.014984130859375
260131,1.075942993164062,-7.76025390625,-0.640472412109375
260132,1.6820068359375,-3.722137451171875,-0.8643341064453125
260133,1.6820068359375,-3.722137451171875,-0.8643341064453125
260134,2.845458984375,-4.568588256835938,-0.831268310546875
260135,1.846725463867188,-2.060623168945312,-1.9808349609375
260136,1.445892333984375,-0.9424285888671876,-0.2976837158203125
260137,1.038436889648438,-0.61981201171875,0.555877685546875
260138,0.7846221923828125,-0.356597900390625,1.152633666992188
260139,0.7986297607421875,-0.1790313720703125,1.524810791015625
260140,0.860260009765625,-0.35101318359375,1.210800170898438
260141,0.9037628173828124,-0.3873291015625,0.408721923828125
260142,0.7962646484375,-0.224456787109375,0.0630950927734375
260143,0.544525146484375,0.035308837890625,-0.033111572265625
260144,0.2011871337890625,0.15057373046875,-0.1546783447265625
260145,0.2011871337890625,0.15057373046875,-0.1546783447265625
260146,0.110260009765625,0.2074432373046875,-0.2819671630859375
260147,0.058685302734375,0.2539825439453125,-0.43463134765625
260148,0.0111083984375,0.312347412109375,-0.430755615234375
260149,0.0111083984375,0.312347412109375,-0.430755615234375
260150,-0.0803375244140625,0.2357940673828125,-0.2652130126953125
260151,-0.1087799072265625,0.103057861328125,-0.153900146484375
260152,-0.1767425537109375,0.01824951171875,0.032318115234375
260153,-0.1767425537109375,0.01824951171875,0.032318115234375
260154,-0.205657958984375,0.1156463623046875,0.102752685546875
260155,-0.2175445556640625,0.1521453857421875,0.095367431640625
260156,-0.241302490234375,0.1752471923828125,0.09881591796875
260157,-0.2390899658203125,0.1831512451171875,0.10736083984375
260158,-0.2145538330078125,0.1917266845703125,0.114410400390625
260159,-0.186676025390625,0.1837921142578125,0.1121826171875
260160,-0.1527862548828125,0.1289215087890625,0.0780181884765625
260161,-0.1527862548828125,0.1289215087890625,0.0780181884765625
260162,-0.0577545166015625,-0.0504150390625,-0.017333984375
260163,-0.0337677001953125,-0.07269287109375,-0.02899169921875
260164,0.0045013427734375,-0.12713623046875,-0.0762939453125
260165,0.0045013427734375,-0.12713623046875,-0.0762939453125
260166,1.211639404296875,-5.334671020507812,-1.653335571289062
260167,0.03192138671875,0.1250152587890625,0.729583740234375
260168,1.762725830078125,-0.465423583984375,-1.565414428710938
260169,1.762725830078125,-0.465423583984375,-1.565414428710938
260170,1.696624755859375,-2.920761108398438,-0.67926025390625
260171,1.853179931640625,-4.58294677734375,-1.259445190429688
260172,1.691268920898438,-4.79681396484375,0.3857269287109375
260173,1.091812133789062,-2.67779541015625,0.270538330078125
260174,0.7596435546875,-0.8615570068359375,0.09735107421875
260175,0.5324249267578125,-0.3560638427734375,0.1902923583984375
260176,0.4693603515625,-0.4401702880859375,0.173095703125
260177,0.4693603515625,-0.4401702880859375,0.173095703125
260178,0.410888671875,-0.388580322265625,0.178863525390625
260179,0.4167022705078125,-0.2264404296875,0.2017059326171875
260180,0.4152069091796875,-0.0477294921875,0.1166839599609375
260181,0.3599395751953125,0.0408782958984375,0.210784912109375
260182,0.28973388671875,0.0606536865234375,0.261749267578125
260183,0.204254150390625,0.0370635986328125,0.171356201171875
260184,0.1070098876953125,0.006805419921875,0.0357513427734375
260185,0.0198822021484375,-0.0211639404296875,-0.113983154296875
260186,-0.0503997802734375,-0.031646728515625,-0.241912841796875
260187,-0.1100006103515625,-0.0215911865234375,-0.3082275390625
260188,-0.1528167724609375,-0.004638671875,-0.2783966064453125
260189,-0.1528167724609375,-0.004638671875,-0.2783966064453125
260190,-0.2294921875,0.046417236328125,-0.1109161376953125
260191,-0.2870635986328125,0.111083984375,-0.0284423828125
260192,-0.3515167236328125,0.2231292724609375,0.0479583740234375
260193,-0.3962860107421875,0.37353515625,0.000732421875
260194,-0.408935546875,0.514312744140625,-0.0956573486328125
260195,-0.311065673828125,0.4846649169921875,-0.01177978515625
260196,-0.2735443115234375,0.470458984375,0.053863525390625
260197,-0.2622222900390625,0.44525146484375,0.058563232421875
260198,-0.2042083740234375,0.299652099609375,0.03851318359375
260199,-0.1179962158203125,0.1013641357421875,-0.002410888671875
260200,-0.044830322265625,-0.0241851806640625,-0.0242462158203125
260201,-0.044830322265625,-0.0241851806640625,-0.0242462158203125
260202,0.316680908203125,-0.285430908203125,-0.7386474609375
260203,2.121292114257812,-3.979904174804688,-3.731658935546875
260204,2.4151611328125,-5.890106201171875,-2.190505981445312
260205,2.4151611328125,-5.890106201171875,-2.190505981445312
260206,1.5899658203125,-1.6767578125,1.837753295898438
260207,1.729232788085938,-2.158843994140625,3.33642578125
260208,1.70269775390625,-3.23980712890625,-1.871307373046875
260209,1.70269775390625,-3.23980712890625,-1.871307373046875
260210,1.486434936523438,-2.717437744140625,-0.9247589111328124
260211,1.155426025390625,-1.403274536132812,-0.0162811279296875
260212,1.01141357421875,-0.7331695556640625,0.876129150390625
260213,1.01141357421875,-0.7331695556640625,0.876129150390625
260214,0.9918670654296876,-0.9466400146484376,0.5328216552734375
260215,0.865692138671875,-0.8421478271484375,0.382171630859375
260216,0.6832733154296875,-0.59698486328125,0.4908294677734375
260217,0.5132293701171875,-0.379425048828125,0.5002593994140625
260218,0.3333282470703125,-0.2093963623046875,0.37799072265625
260219,0.14593505859375,-0.078460693359375,0.2059783935546875
260220,0.004791259765625,0.0067138671875,0.0493011474609375
260221,0.004791259765625,0.0067138671875,0.0493011474609375
260222,-0.0845794677734375,0.116851806640625,-0.215728759765625
260223,-0.0688934326171875,0.11993408203125,-0.2906341552734375
260224,-0.0509796142578125,0.1026611328125,-0.3120880126953125
260225,-0.0509796142578125,0.1026611328125,-0.3120880126953125
260226,-0.0609283447265625,0.1041412353515625,-0.1796112060546875
260227,-0.10284423828125,0.111175537109375,-0.04742431640625
260228,-0.1732635498046875,0.178314208984375,0.0245513916015625
260229,-0.1732635498046875,0.178314208984375,0.0245513916015625
260230,-0.2557373046875,0.35797119140625,0.1374053955078125
260231,-0.260711669921875,0.4322509765625,0.1863250732421875
260232,-0.26104736328125,0.4827117919921875,0.1758575439453125
260233,-0.26104736328125,0.4827117919921875,0.1758575439453125
260234,-0.1883392333984375,0.2122802734375,0.01055908203125
260235,-0.150665283203125,-0.0054168701171875,-0.06646728515625
260236,0.0653533935546875,-0.834930419921875,-1.049545288085938
260237,0.0653533935546875,-0.834930419921875,-1.049545288085938
260238,0.381805419921875,-2.040069580078125,-1.89190673828125
260239,2.71673583984375,-5.876068115234375,-1.02435302734375
260240,2.775726318359375,-4.564315795898438,0.67120361328125
260241,-0.011322021484375,0.5901031494140625,-0.9140777587890624
260242,0.1519012451171875,-0.32147216796875,-0.7162933349609375
260243,0.1589508056640625,-0.3312835693359375,0.07244873046875
260244,0.1877593994140625,-0.450469970703125,1.260452270507812
260245,0.340179443359375,-0.7515106201171875,2.1690673828125
260246,0.618896484375,-1.041366577148438,1.572479248046875
260247,0.657379150390625,-1.446273803710938,0.4192657470703125
260248,0.632598876953125,-2.032867431640625,-0.2599639892578125
260249,0.632598876953125,-2.032867431640625,-0.2599639892578125
260250,0.775543212890625,-1.580459594726562,-1.019317626953125
260251,0.706512451171875,-0.901947021484375,-0.1538848876953125
260252,0.557342529296875,-0.4694061279296875,0.5731201171875
260253,0.4418792724609375,-0.2679290771484375,0.7857513427734375
260254,0.3709259033203125,-0.1832733154296875,0.6484222412109375
260255,0.3099517822265625,-0.1291351318359375,0.404815673828125
260256,0.24188232421875,-0.0810394287109375,0.2753753662109375
260257,0.24188232421875,-0.0810394287109375,0.2753753662109375
260258,0.13800048828125,0.0064544677734375,0.12347412109375
260259,0.09912109375,0.0118560791015625,0.0843353271484375
260260,0.0108489990234375,-0.01922607421875,-0.03839111328125
260261,0.0108489990234375,-0.01922607421875,-0.03839111328125
260262,-0.027313232421875,-0.0312652587890625,-0.10614013671875
260263,-0.05853271484375,-0.0331878662109375,-0.117950439453125
260264,-0.0909423828125,-0.0345458984375,-0.1151275634765625
260265,-0.1119384765625,-0.0343475341796875,-0.1282806396484375
260266,-0.119293212890625,0.0032196044921875,-0.1503448486328125
260267,-0.10565185546875,0.0724945068359375,-0.208892822265625
260268,-0.0525665283203125,0.1789398193359375,-0.3873443603515625
260269,-0.0525665283203125,0.1789398193359375,-0.3873443603515625
260270,0.28131103515625,-0.113677978515625,-0.5904541015625
260271,0.522918701171875,-0.4796295166015625,-0.80242919921875
260272,2.025924682617188,-3.230606079101562,-0.462188720703125
260273,3.759521484375,-5.648635864257812,1.38385009765625
260274,0.30047607421875,1.134521484375,-0.497100830078125
260275,0.4031524658203125,0.3340606689453125,0.35162353515625
260276,0.3096923828125,-0.182281494140625,0.7030792236328125
260277,0.3096923828125,-0.182281494140625,0.7030792236328125
260278,0.664337158203125,-0.4171142578125,1.237075805664062
260279,0.9069976806640624,-0.529541015625,1.333206176757812
260280,1.121261596679688,-0.8107147216796875,0.9249114990234376
260281,1.121261596679688,-0.8107147216796875,0.9249114990234376
260282,1.692672729492188,-2.194686889648438,-0.3494873046875
260283,1.815139770507812,-2.648193359375,0.325408935546875
260284,1.499542236328125,-2.346542358398438,1.51507568359375
260285,1.020889282226562,-1.443008422851562,0.8685150146484375
260286,0.756683349609375,-0.7185821533203125,0.2533721923828125
260287,0.5062408447265625,-0.353118896484375,0.4532470703125
260288,0.303558349609375,-0.227783203125,0.542633056640625
260289,0.303558349609375,-0.227783203125,0.542633056640625
260290,0.033905029296875,-0.1276702880859375,0.1562652587890625
260291,-0.0289154052734375,-0.1323394775390625,0.03802490234375
260292,-0.06195068359375,-0.128570556640625,-0.0018310546875
260293,-0.06195068359375,-0.128570556640625,-0.0018310546875
260294,-0.0728607177734375,-0.0586700439453125,-0.09814453125
260295,-0.0725860595703125,-0.0294036865234375,-0.08599853515625
260296,-0.056976318359375,-0.004302978515625,-0.07720947265625
260297,-0.056976318359375,-0.004302978515625,-0.07720947265625
260298,-0.037200927734375,0.0090789794921875,-0.0357666015625
260299,-0.035308837890625,0.0119171142578125,-0.01934814453125
260300,-0.0472259521484375,0.0221405029296875,0.0075836181640625
260301,-0.0472259521484375,0.0221405029296875,0.0075836181640625
260302,-0.097503662109375,0.0132904052734375,0.08709716796875
260303,-0.1288299560546875,0.0077667236328125,0.113433837890625
260304,-0.1668548583984375,0.0064849853515625,0.11651611328125
260305,-0.2053375244140625,-0.00970458984375,0.0815582275390625
260306,-0.2288818359375,-0.0530548095703125,-0.0090179443359375
260307,-0.2112884521484375,-0.11474609375,-0.1529693603515625
260308,0.234893798828125,-0.756561279296875,-1.095779418945312
260309,0.234893798828125,-0.756561279296875,-1.095779418945312
260310,2.44805908203125,-5.114410400390625,0.700469970703125
260311,1.452682495117188,-3.790740966796875,0.5399627685546875
260312,-0.1189422607421875,1.21484375,-1.18341064453125
260313,-0.1189422607421875,1.21484375,-1.18341064453125
260314,0.2169647216796875,-0.005157470703125,-0.87689208984375
260315,0.1770782470703125,-0.1730499267578125,-0.3512420654296875
260316,0.113037109375,-0.173553466796875,0.0263214111328125
260317,0.113037109375,-0.173553466796875,0.0263214111328125
260318,0.0793609619140625,-0.4439239501953125,0.24310302734375
260319,0.28350830078125,-3.138137817382812,-0.0638885498046875
260320,0.1666259765625,-3.291107177734375,0.2439727783203125
260321,-0.0730438232421875,-0.3998260498046875,0.7127838134765625
260322,0.1214599609375,-1.020523071289062,0.1891021728515625
260323,0.501312255859375,-1.702713012695312,-1.030059814453125
260324,0.83148193359375,-2.806610107421875,-1.445663452148438
260325,0.83148193359375,-2.806610107421875,-1.445663452148438
260326,1.338821411132812,-2.283843994140625,0.6476287841796875
260327,1.267608642578125,-2.173736572265625,0.023101806640625
260328,0.9634552001953124,-1.664520263671875,-0.1649932861328125
260329,0.9634552001953124,-1.664520263671875,-0.1649932861328125
260330,0.63433837890625,-0.6748504638671875,-0.1191558837890625
260331,0.57952880859375,-0.4228363037109375,-0.241546630859375
260332,0.4705963134765625,-0.3647003173828125,-0.091064453125
260333,0.4705963134765625,-0.3647003173828125,-0.091064453125
260334,0.3100128173828125,-0.34918212890625,0.1600189208984375
260335,0.27655029296875,-0.395050048828125,0.1271209716796875
260336,0.2347259521484375,-0.356109619140625,0.0836181640625
260337,0.2347259521484375,-0.356109619140625,0.0836181640625
260338,0.13592529296875,-0.1826629638671875,0.12371826171875
260339,0.099456787109375,-0.14178466796875,0.1656036376953125
260340,0.0953826904296875,-0.10345458984375,0.1756591796875
260341,0.1126861572265625,-0.0664520263671875,0.1355438232421875
260342,0.124847412109375,-0.040802001953125,0.0841522216796875
260343,0.1358184814453125,-0.0260772705078125,0.0424652099609375
260344,0.164825439453125,-0.02606201171875,0.014251708984375
260345,0.164825439453125,-0.02606201171875,0.014251708984375
260346,0.2672576904296875,-0.161346435546875,-0.0533599853515625
260347,0.3060760498046875,-0.2646942138671875,-0.0958251953125
260348,0.3161468505859375,-0.3503875732421875,-0.0987091064453125
260349,0.3161468505859375,-0.3503875732421875,-0.0987091064453125
260350,0.356170654296875,-0.299346923828125,-0.1160125732421875
260351,0.3786773681640625,-0.2980804443359375,-0.132568359375
260352,0.4114837646484375,-0.3498382568359375,-0.147003173828125
260353,0.4697113037109375,-0.4518890380859375,-0.165985107421875
260354,0.5726776123046875,-0.6314849853515625,-0.2056427001953125
260355,0.7221832275390625,-1.015426635742188,-0.3058929443359375
260356,1.139297485351562,-2.441879272460938,-0.9074859619140624
260357,1.139297485351562,-2.441879272460938,-0.9074859619140624
260358,1.049530029296875,-1.123550415039062,0.2345428466796875
260359,1.233917236328125,-2.119293212890625,-0.87921142578125
260360,1.0042724609375,-1.147994995117188,-1.071975708007812
260361,0.944305419921875,-0.924591064453125,-1.2091064453125
260362,0.888031005859375,-1.257217407226562,-0.9501190185546876
260363,0.8451080322265625,-1.119491577148438,-0.6237945556640625
260364,0.8436737060546875,-1.0477294921875,-0.5766143798828125
260365,0.8186187744140625,-1.02142333984375,-0.5151519775390625
260366,0.7305908203125,-0.9898529052734376,-0.4352874755859375
260367,0.6381988525390625,-0.9305877685546876,-0.379119873046875
260368,0.61126708984375,-0.8712310791015625,-0.3466033935546875
260369,0.61126708984375,-0.8712310791015625,-0.3466033935546875
260370,0.640106201171875,-0.836395263671875,-0.2913970947265625
260371,0.6833038330078125,-0.84375,-0.24969482421875
260372,0.74072265625,-0.865447998046875,-0.221649169921875
260373,0.74072265625,-0.865447998046875,-0.221649169921875
260374,0.8154296875,-0.906951904296875,-0.1467437744140625
260375,0.8247222900390625,-0.8949432373046875,-0.1149749755859375
260376,0.8063201904296875,-0.8603515625,-0.086822509765625
260377,0.8063201904296875,-0.8603515625,-0.086822509765625
260378,0.7251739501953125,-0.81463623046875,-0.0329437255859375
260379,0.6839752197265625,-0.7989501953125,0.00848388671875
260380,0.6540679931640625,-0.7734527587890625,0.0582122802734375
260381,0.6540679931640625,-0.7734527587890625,0.0582122802734375
260382,0.6147003173828125,-0.681243896484375,0.1505584716796875
260383,0.595703125,-0.6461944580078125,0.1553955078125
260384,0.578216552734375,-0.6176605224609375,0.139251708984375
260385,0.578216552734375,-0.6176605224609375,0.139251708984375
260386,0.5430450439453125,-0.5924530029296875,0.16058349609375
260387,0.5359954833984375,-0.5911865234375,0.194854736328125
260388,0.5356597900390625,-0.590301513671875,0.229217529296875
260389,0.541748046875,-0.5803680419921875,0.246368408203125
260390,0.54443359375,-0.5616912841796875,0.2469940185546875
260391,0.54656982421875,-0.55828857421875,0.224884033203125
260392,0.555694580078125,-0.5718841552734375,0.18109130859375
260393,0.5646820068359375,-0.587890625,0.12939453125
260394,0.57464599609375,-0.6151885986328125,0.06610107421875
260395,0.590087890625,-0.652557373046875,0.0200653076171875
260396,0.60333251953125,-0.699737548828125,0.00299072265625
260397,0.60333251953125,-0.699737548828125,0.00299072265625
260398,0.612091064453125,-0.798675537109375,-0.041778564453125
260399,0.60601806640625,-0.82421875,-0.078887939453125
260400,0.58905029296875,-0.8213348388671875,-0.097869873046875
260401,0.575897216796875,-0.8149871826171875,-0.1153106689453125
260402,0.5748291015625,-0.811370849609375,-0.1255340576171875
260403,0.5780029296875,-0.8150482177734375,-0.1256561279296875
260404,0.5932464599609375,-0.8159942626953125,-0.1251373291015625
260405,0.6156005859375,-0.8138275146484375,-0.1068115234375
260406,0.623809814453125,-0.802642822265625,-0.077362060546875
260407,0.6222686767578125,-0.784393310546875,-0.0504302978515625
260408,0.6141815185546875,-0.7667236328125,-0.0253448486328125
260409,0.6141815185546875,-0.7667236328125,-0.0253448486328125
260410,0.57501220703125,-0.7378997802734375,0.0196380615234375
260411,0.571319580078125,-0.7437286376953125,0.04443359375
260412,0.5769500732421875,-0.772186279296875,0.0643157958984375
260413,0.5769500732421875,-0.772186279296875,0.0643157958984375
260414,0.5648956298828125,-0.8513031005859375,0.102752685546875
260415,0.540008544921875,-0.8646087646484375,0.10455322265625
260416,0.5097808837890625,-0.8628387451171875,0.0970001220703125
260417,0.5097808837890625,-0.8628387451171875,0.0970001220703125
260418,0.4829864501953125,-0.880340576171875,0.122344970703125
260419,0.4954681396484375,-0.8955535888671875,0.1427154541015625
260420,0.5128936767578125,-0.902618408203125,0.16064453125
260421,0.5128936767578125,-0.902618408203125,0.16064453125
260422,0.532470703125,-0.89947509765625,0.169769287109375
260423,0.53533935546875,-0.8846282958984375,0.1689300537109375
260424,0.5393524169921875,-0.8568572998046875,0.1606903076171875
260425,0.5393524169921875,-0.8568572998046875,0.1606903076171875
260426,0.5365142822265625,-0.814727783203125,0.139434814453125
260427,0.5274505615234375,-0.8024139404296875,0.14141845703125
260428,0.5133514404296875,-0.792449951171875,0.1282806396484375
260429,0.4925079345703125,-0.7971038818359375,0.11077880859375
260430,0.467010498046875,-0.808685302734375,0.0969085693359375
260431,0.44781494140625,-0.817840576171875,0.0764923095703125
260432,0.4364013671875,-0.8260040283203125,0.03802490234375
260433,0.4364013671875,-0.8260040283203125,0.03802490234375
260434,0.43096923828125,-0.8518218994140625,-0.078521728515625
260435,0.438568115234375,-0.8690643310546875,-0.131439208984375
260436,0.483795166015625,-0.886138916015625,-0.1401824951171875
260437,0.483795166015625,-0.886138916015625,-0.1401824951171875
260438,0.555938720703125,-1.043304443359375,-0.1846923828125
260439,0.58856201171875,-1.017852783203125,-0.198028564453125
260440,0.6155853271484375,-0.962127685546875,-0.2020263671875
260441,0.6521759033203125,-0.9296417236328124,-0.2283172607421875
260442,0.6936798095703125,-0.935516357421875,-0.2438201904296875
260443,0.7288055419921875,-0.944915771484375,-0.2037811279296875
260444,0.7463226318359375,-0.9447784423828124,-0.1241302490234375
260445,0.7463226318359375,-0.9447784423828124,-0.1241302490234375
260446,0.7067413330078125,-0.9515380859375,0.0280914306640625
260447,0.6754913330078125,-0.9484405517578124,0.1022491455078125
260448,0.650390625,-0.927154541015625,0.144775390625
260449,0.6346435546875,-0.8963470458984375,0.1587371826171875
260450,0.62847900390625,-0.8629913330078125,0.1636962890625
260451,0.63134765625,-0.8322601318359375,0.1872100830078125
260452,0.6419830322265625,-0.8013153076171875,0.216552734375
260453,0.6581878662109375,-0.7687835693359375,0.2113494873046875
260454,0.672119140625,-0.744964599609375,0.191650390625
260455,0.6827850341796875,-0.7363128662109375,0.19097900390625
260456,0.6838226318359375,-0.7425689697265625,0.17095947265625
260457,0.6838226318359375,-0.7425689697265625,0.17095947265625
260458,0.63287353515625,-0.726837158203125,0.1576385498046875
260459,0.598724365234375,-0.7008514404296875,0.1430206298828125
260460,0.5789794921875,-0.6850433349609375,0.1208648681640625
260461,0.5706024169921875,-0.6926727294921875,0.090362548828125
260462,0.566253662109375,-0.7072906494140625,0.07275390625
260463,0.5772705078125,-0.7271728515625,0.0575408935546875
260464,0.5972442626953125,-0.762969970703125,0.0279083251953125
260465,0.615234375,-0.7918243408203125,0.0081634521484375
260466,0.6280670166015625,-0.8041229248046875,0.0027313232421875
260467,0.645721435546875,-0.806060791015625,-0.0163421630859375
260468,0.6582794189453125,-0.8062591552734375,-0.028564453125
260469,0.6582794189453125,-0.8062591552734375,-0.028564453125
260470,0.6556243896484375,-0.7823944091796875,-0.01898193359375
260471,0.6539459228515625,-0.7780609130859375,-0.024383544921875
260472,0.6453704833984375,-0.7985382080078125,-0.0220794677734375
260473,0.6453704833984375,-0.7985382080078125,-0.0220794677734375
260474,0.6026153564453125,-0.7981109619140625,-0.0233001708984375
260475,0.5776214599609375,-0.7759857177734375,-0.0302276611328125
260476,0.546783447265625,-0.76239013671875,-0.0402679443359375
260477,0.546783447265625,-0.76239013671875,-0.0402679443359375
260478,0.5334320068359375,-0.73175048828125,0.037506103515625
260479,0.5535125732421875,-0.7326507568359375,0.06768798828125
260480,0.5809326171875,-0.7403411865234375,0.0844879150390625
260481,0.5809326171875,-0.7403411865234375,0.0844879150390625
260482,0.6448211669921875,-0.7489166259765625,0.1037750244140625
260483,0.670928955078125,-0.7523193359375,0.1064910888671875
260484,0.688262939453125,-0.75738525390625,0.106292724609375
260485,0.690185546875,-0.7620391845703125,0.1054534912109375
260486,0.6771087646484375,-0.772918701171875,0.1064605712890625
260487,0.6474151611328125,-0.7837677001953125,0.0946807861328125
260488,0.61981201171875,-0.7669677734375,0.067657470703125
260489,0.61981201171875,-0.7669677734375,0.067657470703125
260490,0.58636474609375,-0.8019561767578125,0.06988525390625
260491,0.571868896484375,-0.8208770751953125,0.069000244140625
260492,0.558380126953125,-0.8275299072265625,0.061187744140625
260493,0.5469512939453125,-0.8297882080078125,0.0516204833984375
260494,0.544219970703125,-0.83453369140625,0.0487213134765625
260495,0.554779052734375,-0.8320465087890625,0.0606842041015625
260496,0.5676727294921875,-0.82525634765625,0.0675201416015625
260497,0.5777130126953125,-0.8249664306640625,0.0747833251953125
260498,0.575531005859375,-0.8288726806640625,0.09576416015625
260499,0.58001708984375,-0.8305816650390625,0.09307861328125
260500,0.577484130859375,-0.83349609375,0.0911865234375
260501,0.577484130859375,-0.83349609375,0.0911865234375
260502,0.5809478759765625,-0.8432769775390625,0.123443603515625
260503,0.598052978515625,-0.8416900634765625,0.128570556640625
260504,0.6132354736328125,-0.82928466796875,0.114105224609375
260505,0.603515625,-0.8102264404296875,0.10784912109375
260506,0.58587646484375,-0.795989990234375,0.1109466552734375
260507,0.5749053955078125,-0.79608154296875,0.102325439453125
260508,0.56842041015625,-0.8005523681640625,0.093719482421875
260509,0.56842041015625,-0.8005523681640625,0.093719482421875
260510,0.5461883544921875,-0.8147125244140625,0.074310302734375
260511,0.5409393310546875,-0.817718505859375,0.0639190673828125
260512,0.54876708984375,-0.8197479248046875,0.057586669921875
260513,0.54876708984375,-0.8197479248046875,0.057586669921875
260514,0.568145751953125,-0.806182861328125,0.0589752197265625
260515,0.569061279296875,-0.80291748046875,0.0716705322265625
260516,0.574493408203125,-0.8123016357421875,0.0876922607421875
260517,0.574493408203125,-0.8123016357421875,0.0876922607421875
260518,0.589263916015625,-0.8284149169921875,0.091400146484375
260519,0.5888824462890625,-0.83258056640625,0.0878753662109375
260520,0.58203125,-0.830810546875,0.0777740478515625
260521,0.58203125,-0.830810546875,0.0777740478515625
260522,0.5623321533203125,-0.822723388671875,0.0435638427734375
260523,0.5545806884765625,-0.8201751708984375,0.0414886474609375
260524,0.553131103515625,-0.8184356689453125,0.044403076171875
260525,0.55078125,-0.8108062744140625,0.055816650390625
260526,0.5506439208984375,-0.8065338134765625,0.07135009765625
260527,0.5584564208984375,-0.8065185546875,0.08380126953125
260528,0.59063720703125,-0.8166351318359375,0.1013031005859375
260529,0.59063720703125,-0.8166351318359375,0.1013031005859375
260530,0.602691650390625,-0.8291168212890625,0.0941314697265625
260531,0.6065216064453125,-0.8360595703125,0.0703887939453125
260532,0.59832763671875,-0.8238372802734375,0.051025390625
260533,0.5785675048828125,-0.8188934326171875,0.03778076171875
260534,0.56390380859375,-0.825439453125,0.0189056396484375
260535,0.5616607666015625,-0.8303985595703125,0.0082244873046875
260536,0.5616607666015625,-0.8303985595703125,0.0082244873046875
260537,0.565277099609375,-0.8352813720703125,0.011566162109375
260538,0.56915283203125,-0.833740234375,0.030670166015625
260539,0.5869140625,-0.8167724609375,0.04681396484375
260540,0.5934295654296875,-0.811859130859375,0.0482330322265625
260541,0.6006622314453125,-0.80413818359375,0.0390472412109375
260542,0.6073455810546875,-0.804473876953125,0.04217529296875
260543,0.6116180419921875,-0.8129730224609375,0.052398681640625
260544,0.614959716796875,-0.827606201171875,0.0610198974609375
260545,0.614959716796875,-0.827606201171875,0.0610198974609375
260546,0.618377685546875,-0.844390869140625,0.0602874755859375
260547,0.6175079345703125,-0.8460235595703125,0.066741943359375
260548,0.58892822265625,-0.820068359375,0.05780029296875
260549,0.58892822265625,-0.820068359375,0.05780029296875
260550,0.5826568603515625,-0.813720703125,0.0578765869140625
260551,0.5818634033203125,-0.8096771240234375,0.057220458984375
260552,0.581207275390625,-0.7979888916015625,0.06341552734375
260553,0.581207275390625,-0.7979888916015625,0.06341552734375
260554,0.593505859375,-0.7870025634765625,0.0718536376953125
260555,0.610443115234375,-0.785308837890625,0.087493896484375
260556,0.62872314453125,-0.7840728759765625,0.0959320068359375
260557,0.62872314453125,-0.7840728759765625,0.0959320068359375
260558,0.6204833984375,-0.797027587890625,0.07086181640625
260559,0.602630615234375,-0.7996063232421875,0.055389404296875
260560,0.584197998046875,-0.80438232421875,0.0612030029296875
260561,0.584197998046875,-0.80438232421875,0.0612030029296875
260562,0.5838165283203125,-0.8155517578125,0.0578155517578125
260563,0.5845184326171875,-0.828277587890625,0.0621337890625
260564,0.5928955078125,-0.8359527587890625,0.0655975341796875
260565,0.5928955078125,-0.8359527587890625,0.0655975341796875
260566,0.6218414306640625,-0.845916748046875,0.05767822265625
260567,0.6233978271484375,-0.8491363525390625,0.0482177734375
260568,0.60986328125,-0.846527099609375,0.0377044677734375
260569,0.591400146484375,-0.8426055908203125,0.030059814453125
260570,0.580810546875,-0.8411102294921875,0.0315093994140625
260571,0.578582763671875,-0.84112548828125,0.0397186279296875
260572,0.5741119384765625,-0.836578369140625,0.0522613525390625
260573,0.5741119384765625,-0.836578369140625,0.0522613525390625
260574,0.5630645751953125,-0.8224334716796875,0.0753631591796875
260575,0.5584716796875,-0.831787109375,0.0589599609375
260576,0.55914306640625,-0.8290252685546875,0.0630645751953125
260577,0.5724945068359375,-0.8124237060546875,0.0949554443359375
260578,0.585052490234375,-0.815765380859375,0.081878662109375
260579,0.614227294921875,-0.8243408203125,0.0572357177734375
260580,0.62890625,-0.8154144287109375,0.058502197265625
260581,0.62890625,-0.8154144287109375,0.058502197265625
260582,0.6331024169921875,-0.76446533203125,0.094329833984375
260583,0.60711669921875,-0.70184326171875,0.12469482421875
260584,0.58563232421875,-0.6336212158203125,0.1554412841796875
260585,0.58563232421875,-0.6336212158203125,0.1554412841796875
260586,0.59942626953125,-0.5992279052734375,0.189361572265625
260587,0.628692626953125,-0.6421966552734375,0.22760009765625
260588,0.6510009765625,-0.702850341796875,0.2968597412109375
260589,0.6510009765625,-0.702850341796875,0.2968597412109375
260590,0.6733551025390625,-0.7705535888671875,0.3119049072265625
260591,0.6723175048828125,-0.7682037353515625,0.2354736328125
260592,0.6670379638671875,-0.748626708984375,0.1558074951171875
260593,0.6552581787109375,-0.735015869140625,0.129638671875
260594,0.6458587646484375,-0.737701416015625,0.1287689208984375
260595,0.6374359130859375,-0.7557525634765625,0.1224517822265625
260596,0.6374359130859375,-0.7725677490234375,0.1346435546875
260597,0.6374359130859375,-0.7725677490234375,0.1346435546875
260598,0.6584014892578125,-0.7979278564453125,0.1314239501953125
260599,0.6584014892578125,-0.7979278564453125,0.1314239501953125
260600,0.6412200927734375,-0.77874755859375,0.0540618896484375
260601,0.6412200927734375,-0.77874755859375,0.0540618896484375
260602,0.6270751953125,-0.7701568603515625,0.036041259765625
260603,0.6152191162109375,-0.768280029296875,0.0247955322265625
260604,0.6070709228515625,-0.7623443603515625,0.026611328125
260605,0.6070709228515625,-0.7623443603515625,0.026611328125
260606,0.5781097412109375,-0.7276763916015625,-0.014801025390625
260607,0.5579681396484375,-0.7093048095703125,-0.0326385498046875
260608,0.5393218994140625,-0.69293212890625,-0.034393310546875
260609,0.5393218994140625,-0.69293212890625,-0.034393310546875
260610,0.5212249755859375,-0.6780548095703125,-0.002197265625
260611,0.5283660888671875,-0.68402099609375,0.026763916015625
260612,0.5435638427734375,-0.7084808349609375,0.0546417236328125
260613,0.55718994140625,-0.7442474365234375,0.0939178466796875
260614,0.5601654052734375,-0.769317626953125,0.1234893798828125
260615,0.542877197265625,-0.7895660400390625,0.1272430419921875
260616,0.5100860595703125,-0.8138885498046875,0.1087646484375
260617,0.5100860595703125,-0.8138885498046875,0.1087646484375
260618,0.42742919921875,-0.953948974609375,0.0406494140625
260619,0.409088134765625,-0.9672088623046876,0.038726806640625
260620,0.3899383544921875,-0.959442138671875,0.000213623046875
260621,0.3874053955078125,-0.9232330322265624,-0.046844482421875
260622,0.39813232421875,-0.8795166015625,-0.050323486328125
260623,0.439422607421875,-0.873016357421875,-0.0471649169921875
260624,0.504547119140625,-0.90374755859375,-0.06182861328125
260625,0.504547119140625,-0.90374755859375,-0.06182861328125
260626,0.6362762451171875,-0.9559783935546876,-0.110015869140625
260627,0.6815185546875,-0.9683685302734376,-0.146697998046875
260628,0.7223663330078125,-0.961700439453125,-0.2113800048828125
260629,0.7223663330078125,-0.961700439453125,-0.2113800048828125
260630,0.7629547119140625,-0.938751220703125,-0.2584075927734375
260631,0.75518798828125,-0.9185028076171876,-0.245361328125
260632,0.7302703857421875,-0.8805084228515625,-0.2144317626953125
260633,0.7302703857421875,-0.8805084228515625,-0.2144317626953125
260634,0.655853271484375,-0.817474365234375,-0.09344482421875
260635,0.6517486572265625,-0.825469970703125,-0.0540313720703125
260636,0.64801025390625,-0.848876953125,0.035675048828125
260637,0.64801025390625,-0.848876953125,0.035675048828125
260638,0.6557769775390625,-0.8650054931640625,0.0709381103515625
260639,0.6825714111328125,-0.8699798583984375,0.092742919921875
260640,0.706146240234375,-0.8785400390625,0.0924835205078125
260641,0.73809814453125,-0.8699493408203125,0.0768890380859375
260642,0.77459716796875,-0.860931396484375,0.0326995849609375
260643,0.7913360595703125,-0.8355712890625,-0.0124969482421875
260644,0.7905120849609375,-0.7925872802734375,-0.0206451416015625
260645,0.79986572265625,-0.753204345703125,-0.06964111328125
260646,0.7903289794921875,-0.7281036376953125,-0.1040802001953125
260647,0.7494049072265625,-0.7437286376953125,-0.081817626953125
260648,0.6961822509765625,-0.7311248779296875,-0.029632568359375
260649,0.6961822509765625,-0.7311248779296875,-0.029632568359375
260650,0.6190185546875,-0.6455230712890625,-0.021392822265625
260651,0.6023712158203125,-0.6312408447265625,-0.040985107421875
260652,0.5978546142578125,-0.6433258056640625,-0.0551300048828125
260653,0.5978546142578125,-0.6433258056640625,-0.0551300048828125
260654,0.583984375,-0.6732635498046875,-0.0153656005859375
260655,0.5646209716796875,-0.6579437255859375,-0.0209808349609375
260656,0.559356689453125,-0.6418914794921875,-0.0428009033203125
260657,0.559356689453125,-0.6418914794921875,-0.0428009033203125
260658,0.58770751953125,-0.6410064697265625,-0.0969390869140625
260659,0.6142730712890625,-0.6407470703125,-0.121551513671875
260660,0.6378936767578125,-0.6602020263671875,-0.14501953125
260661,0.6523895263671875,-0.68829345703125,-0.1904144287109375
260662,0.6562957763671875,-0.6967010498046875,-0.2227630615234375
260663,0.6556549072265625,-0.690093994140625,-0.2731475830078125
260664,0.6562042236328125,-0.6887054443359375,-0.339324951171875
260665,0.6562042236328125,-0.6887054443359375,-0.339324951171875
260666,0.6176300048828125,-0.6873626708984375,-0.379180908203125
260667,0.6729736328125,-0.69366455078125,-0.4482574462890625
260668,0.6539764404296875,-0.6372528076171875,-0.4325714111328125
260669,0.6539764404296875,-0.6372528076171875,-0.4325714111328125
260670,0.62713623046875,-0.6237640380859375,-0.36907958984375
260671,0.611175537109375,-0.6159515380859375,-0.3254852294921875
260672,0.6372528076171875,-0.6042022705078125,-0.3326263427734375
260673,0.6778717041015625,-0.5940093994140625,-0.346099853515625
260674,0.689300537109375,-0.58697509765625,-0.318878173828125
260675,0.685089111328125,-0.5810546875,-0.26947021484375
260676,0.666778564453125,-0.5916290283203125,-0.2399444580078125
260677,0.638214111328125,-0.5855865478515625,-0.242401123046875
260678,0.6312103271484375,-0.6011505126953125,-0.2753448486328125
260679,0.6479949951171875,-0.622283935546875,-0.3262481689453125
260680,0.688720703125,-0.64727783203125,-0.390716552734375
260681,0.72955322265625,-0.664154052734375,-0.4317474365234375
260682,0.7530975341796875,-0.679412841796875,-0.465179443359375
260683,0.754913330078125,-0.6959228515625,-0.4836883544921875
260684,0.755950927734375,-0.6978912353515625,-0.4731292724609375
260685,0.7613372802734375,-0.699798583984375,-0.453887939453125
260686,0.7751007080078125,-0.7003936767578125,-0.4474639892578125
260687,0.789031982421875,-0.708984375,-0.4612884521484375
260688,0.781036376953125,-0.69903564453125,-0.483154296875
260689,0.7611236572265625,-0.6728515625,-0.5120849609375
260690,0.741607666015625,-0.6338958740234375,-0.54376220703125
260691,0.71435546875,-0.5948638916015625,-0.566375732421875
260692,0.6815338134765625,-0.555450439453125,-0.58038330078125
260693,0.647705078125,-0.5237884521484375,-0.5685882568359375
260694,0.63922119140625,-0.5200042724609375,-0.535858154296875
260695,0.6624908447265625,-0.535736083984375,-0.49853515625
260696,0.684967041015625,-0.5220947265625,-0.4442291259765625
260697,0.684967041015625,-0.5220947265625,-0.4442291259765625
260698,0.7588653564453125,-0.5601043701171875,-0.3981475830078125
260699,0.758026123046875,-0.58099365234375,-0.438232421875
260700,0.7396697998046875,-0.5687713623046875,-0.45880126953125
260701,0.7099456787109375,-0.55535888671875,-0.4575958251953125
260702,0.66748046875,-0.5421142578125,-0.4384918212890625
260703,0.6287078857421875,-0.5446014404296875,-0.4126739501953125
260704,0.61358642578125,-0.55413818359375,-0.3942108154296875
260705,0.61358642578125,-0.55413818359375,-0.3942108154296875
260706,0.62420654296875,-0.555633544921875,-0.4272613525390625
260707,0.62420654296875,-0.555633544921875,-0.4272613525390625
260708,0.624053955078125,-0.5724029541015625,-0.491790771484375
260709,0.618194580078125,-0.5931854248046875,-0.4815521240234375
260710,0.6203460693359375,-0.6023101806640625,-0.4441986083984375
260711,0.640594482421875,-0.6023101806640625,-0.4130859375
260712,0.663848876953125,-0.5988311767578125,-0.3804779052734375
260713,0.684722900390625,-0.5936279296875,-0.353118896484375
260714,0.69647216796875,-0.5938873291015625,-0.3335113525390625
260715,0.6977996826171875,-0.583587646484375,-0.3210906982421875
260716,0.698974609375,-0.5771026611328125,-0.3033447265625
260717,0.702880859375,-0.586029052734375,-0.297943115234375
260718,0.7081451416015625,-0.6047210693359375,-0.2966156005859375
260719,0.717926025390625,-0.623504638671875,-0.2921905517578125
260720,0.7347869873046875,-0.6411590576171875,-0.3001251220703125
260721,0.7514495849609375,-0.6473236083984375,-0.309539794921875
260722,0.7705078125,-0.65924072265625,-0.3340606689453125
260723,0.7819976806640625,-0.671173095703125,-0.358154296875
260724,0.7770538330078125,-0.67230224609375,-0.38629150390625
260725,0.7770538330078125,-0.67230224609375,-0.38629150390625
260726,0.7529449462890625,-0.68450927734375,-0.450042724609375
260727,0.7339019775390625,-0.719207763671875,-0.4689483642578125
260728,0.7163238525390625,-0.737213134765625,-0.5202789306640625
260729,0.7025146484375,-0.7335968017578125,-0.5487213134765625
260730,0.6533966064453125,-0.702484130859375,-0.538818359375
260731,0.6319580078125,-0.661376953125,-0.5337982177734375
260732,0.6271514892578125,-0.6201934814453125,-0.5062103271484375
260733,0.6271514892578125,-0.6201934814453125,-0.5062103271484375
260734,0.6072235107421875,-0.5838470458984375,-0.4538116455078125
260735,0.573211669921875,-0.5866546630859375,-0.4102783203125
260736,0.5267791748046875,-0.59613037109375,-0.364013671875
260737,0.5267791748046875,-0.59613037109375,-0.364013671875
260738,0.440216064453125,-0.635345458984375,-0.279815673828125
260739,0.4124908447265625,-0.6267852783203125,-0.256072998046875
260740,0.408294677734375,-0.636138916015625,-0.2420501708984375
260741,0.4333343505859375,-0.6498565673828125,-0.2314910888671875
260742,0.4787139892578125,-0.6628875732421875,-0.2187957763671875
260743,0.536407470703125,-0.68499755859375,-0.2310943603515625
260744,0.5880279541015625,-0.69970703125,-0.266937255859375
260745,0.622283935546875,-0.717315673828125,-0.3070526123046875
260746,0.649993896484375,-0.7507171630859375,-0.344482421875
260747,0.6752777099609375,-0.79766845703125,-0.3748779296875
260748,0.703033447265625,-0.8461456298828125,-0.3985443115234375
260749,0.732666015625,-0.8867340087890625,-0.428009033203125
260750,0.756622314453125,-0.923583984375,-0.4615936279296875
260751,0.756622314453125,-0.923583984375,-0.4615936279296875
260752,0.7687835693359375,-0.9306182861328124,-0.489593505859375
260753,0.728546142578125,-0.867523193359375,-0.436004638671875
260754,0.7036285400390625,-0.8274688720703125,-0.3908538818359375
260755,0.701416015625,-0.8119659423828125,-0.3064727783203125
260756,0.7046051025390625,-0.857513427734375,-0.2140960693359375
260757,0.62896728515625,-0.8422698974609375,-0.1678619384765625
260758,0.62115478515625,-0.762908935546875,-0.1121673583984375
260759,0.6968994140625,-0.7532501220703125,-0.0501861572265625
260760,0.7554168701171875,-0.77886962890625,0.007537841796875
260761,0.7554168701171875,-0.77886962890625,0.007537841796875
260762,0.8008880615234375,-0.8445281982421875,0.0430908203125
260763,0.817108154296875,-0.8726806640625,0.0505218505859375
260764,0.809600830078125,-0.8570098876953125,0.040618896484375
260765,0.8082733154296875,-0.844818115234375,0.023773193359375
260766,0.80072021484375,-0.869415283203125,0.0131988525390625
260767,0.7597198486328125,-0.9132537841796876,-0.0059814453125
260768,0.6915740966796875,-0.9557342529296876,-0.0330810546875
260769,0.6915740966796875,-0.9557342529296876,-0.0330810546875
260770,0.537841796875,-0.975677490234375,-0.0673828125
260771,0.4682769775390625,-0.9362945556640624,-0.043609619140625
260772,0.4102630615234375,-0.91162109375,-0.0587005615234375
260773,0.4102630615234375,-0.91162109375,-0.0587005615234375
260774,0.3072662353515625,-0.8645782470703125,-0.0778045654296875
260775,0.3072662353515625,-0.8645782470703125,-0.0778045654296875
260776,0.29486083984375,-0.819488525390625,-0.0443115234375
260777,0.32745361328125,-0.802093505859375,-0.0026702880859375
260778,0.374114990234375,-0.7820281982421875,0.0444793701171875
260779,0.4198455810546875,-0.7627410888671875,0.056243896484375
260780,0.4553375244140625,-0.7231903076171875,0.091827392578125
260781,0.4553375244140625,-0.7231903076171875,0.091827392578125
260782,0.4994659423828125,-0.6285552978515625,0.1494140625
260783,0.4924774169921875,-0.58050537109375,0.1211700439453125
260784,0.46807861328125,-0.537139892578125,0.08819580078125
260785,0.46807861328125,-0.537139892578125,0.08819580078125
260786,0.402130126953125,-0.5237274169921875,-0.02203369140625
260787,0.3673095703125,-0.58697509765625,-0.13330078125
260788,0.3417205810546875,-0.699981689453125,-0.3138580322265625
260789,0.3417205810546875,-0.699981689453125,-0.3138580322265625
260790,0.495391845703125,-1.33734130859375,-0.5719451904296875
260791,0.4054107666015625,-0.8832550048828125,0.1084136962890625
260792,0.414825439453125,-0.860565185546875,-0.23150634765625
260793,0.4278564453125,-0.9136199951171876,-0.4852447509765625
260794,0.42767333984375,-0.7314910888671875,-0.532135009765625
260795,0.45257568359375,-0.684539794921875,-0.7583465576171875
260796,0.482147216796875,-0.6858062744140625,-0.72747802734375
260797,0.482147216796875,-0.6858062744140625,-0.72747802734375
260798,0.52392578125,-0.6757354736328125,-0.716522216796875
260799,0.5458984375,-0.682769775390625,-0.694732666015625
260800,0.567413330078125,-0.7312774658203125,-0.71075439453125
260801,0.567413330078125,-0.7312774658203125,-0.71075439453125
260802,0.576263427734375,-0.772705078125,-0.671966552734375
260803,0.585906982421875,-0.7845916748046875,-0.673431396484375
260804,0.605865478515625,-0.8013458251953125,-0.684417724609375
260805,0.634063720703125,-0.839874267578125,-0.66168212890625
260806,0.6708984375,-0.882110595703125,-0.617706298828125
260807,0.706024169921875,-0.9070281982421876,-0.596588134765625
260808,0.6653900146484375,-0.806671142578125,-0.4329071044921875
260809,0.6653900146484375,-0.806671142578125,-0.4329071044921875
260810,0.60626220703125,-0.72100830078125,-0.3326568603515625
260811,0.54937744140625,-0.677337646484375,-0.2425537109375
260812,0.5003662109375,-0.6866912841796875,-0.1219024658203125
260813,0.5003662109375,-0.6866912841796875,-0.1219024658203125
260814,0.484954833984375,-0.7003173828125,0.1415557861328125
260815,0.4867095947265625,-0.717987060546875,0.1786956787109375
260816,0.4942779541015625,-0.734344482421875,0.184783935546875
260817,0.513519287109375,-0.7400054931640625,0.198486328125
260818,0.547271728515625,-0.7451324462890625,0.2404022216796875
260819,0.5719146728515625,-0.8085479736328125,0.28173828125
260820,0.6139678955078125,-0.938690185546875,0.2745819091796875
260821,0.6607513427734375,-1.031768798828125,0.32635498046875
260822,0.6727447509765625,-1.13153076171875,0.34698486328125
260823,0.6727447509765625,-1.13153076171875,0.34698486328125
260824,0.6456756591796875,-1.002639770507812,0.2152862548828125
260825,0.600921630859375,-0.9729156494140624,0.162322998046875
260826,0.5366973876953125,-0.975860595703125,0.0882110595703125
260827,0.4705963134765625,-0.926605224609375,0.016357421875
260828,0.4415283203125,-0.8532257080078125,-0.0980377197265625
260829,0.45587158203125,-0.8669586181640625,-0.1908111572265625
260830,0.4520721435546875,-0.929962158203125,-0.279754638671875
260831,0.435638427734375,-0.90667724609375,-0.3318634033203125
260832,0.4093017578125,-0.8156890869140625,-0.3484649658203125
260833,0.40350341796875,-0.7187652587890625,-0.414337158203125
260834,0.4015960693359375,-0.66229248046875,-0.4347381591796875
260835,0.409332275390625,-0.665802001953125,-0.43023681640625
260836,0.4268341064453125,-0.68548583984375,-0.4096527099609375
260837,0.4268341064453125,-0.68548583984375,-0.4096527099609375
260838,0.44244384765625,-0.6937408447265625,-0.38409423828125
260839,0.43414306640625,-0.6763458251953125,-0.3822021484375
260840,0.4132537841796875,-0.64739990234375,-0.382537841796875
260841,0.3787841796875,-0.59344482421875,-0.31878662109375
260842,0.355499267578125,-0.51544189453125,-0.2953033447265625
260843,0.3649139404296875,-0.4852752685546875,-0.2904815673828125
260844,0.356536865234375,-0.6763763427734375,-0.345367431640625
260845,0.356536865234375,-0.6763763427734375,-0.345367431640625
260846,0.4173431396484375,-1.092056274414062,-0.5393829345703125
260847,0.4947967529296875,-1.589263916015625,-0.601837158203125
260848,0.3372039794921875,-1.22406005859375,-0.1595916748046875
260849,0.252197265625,-1.037139892578125,-0.536773681640625
260850,0.2201995849609375,-0.969635009765625,-0.6622161865234375
260851,0.2201995849609375,-0.969635009765625,-0.6622161865234375
260852,0.227447509765625,-0.8986968994140625,-0.811553955078125
260853,0.32733154296875,-0.891571044921875,-0.6568450927734375
260854,0.3899078369140625,-0.8135986328125,-0.575347900390625
260855,0.3899078369140625,-0.8135986328125,-0.575347900390625
260856,0.4271087646484375,-0.869873046875,-0.524688720703125
260857,0.4398040771484375,-0.9242706298828124,-0.4362335205078125
260858,0.45562744140625,-0.991485595703125,-0.388275146484375
260859,0.4845123291015625,-0.9883575439453124,-0.4188232421875
260860,0.5045013427734375,-0.803955078125,-0.4489593505859375
260861,0.5147857666015625,-0.64117431640625,-0.44732666015625
260862,0.5946502685546875,-0.686676025390625,-0.437408447265625
260863,0.67779541015625,-0.7023773193359375,-0.3846588134765625
260864,0.75830078125,-0.702606201171875,-0.329193115234375
260865,0.8349456787109375,-0.711639404296875,-0.298858642578125
260866,0.904815673828125,-0.717803955078125,-0.2594757080078125
260867,0.9419097900390624,-0.719512939453125,-0.22222900390625
260868,0.922637939453125,-0.7125091552734375,-0.1876068115234375
260869,0.8343048095703125,-0.681060791015625,-0.186187744140625
260870,0.6961212158203125,-0.6087493896484375,-0.144744873046875
260871,0.643463134765625,-0.5668487548828125,-0.130615234375
260872,0.6199493408203125,-0.5567779541015625,-0.11785888671875
260873,0.5805206298828125,-0.530120849609375,-0.088836669921875
260874,0.5283966064453125,-0.5010986328125,-0.05413818359375
260875,0.5283966064453125,-0.5010986328125,-0.05413818359375
260876,0.5142669677734375,-0.531219482421875,0.0446624755859375
260877,0.55126953125,-0.5547027587890625,0.0461578369140625
260878,0.5998687744140625,-0.6019287109375,0.049957275390625
260879,0.6492462158203125,-0.719879150390625,-0.0013275146484375
260880,0.7201690673828125,-0.8491668701171875,-0.1064605712890625
260881,0.8002777099609375,-0.90399169921875,-0.187713623046875
260882,0.86920166015625,-0.929473876953125,-0.2474365234375
260883,0.893402099609375,-0.95819091796875,-0.3048858642578125
260884,0.8090972900390625,-0.9573974609375,-0.373199462890625
260885,0.7039031982421875,-0.9070587158203124,-0.4115447998046875
260886,0.6214447021484375,-0.8798675537109375,-0.4199676513671875
260887,0.5869598388671875,-0.7992401123046875,-0.4055938720703125
260888,0.6161651611328125,-0.6429901123046875,-0.4316558837890625
260889,0.62957763671875,-0.67822265625,-0.3900146484375
260890,0.6384124755859375,-0.8347015380859375,-0.3361663818359375
260891,0.6383514404296875,-0.919036865234375,-0.2645721435546875
260892,0.616607666015625,-0.95318603515625,-0.2405548095703125
260893,0.5788421630859375,-0.9385528564453124,-0.240570068359375
260894,0.533111572265625,-0.8867340087890625,-0.2420501708984375
260895,0.499664306640625,-0.8021392822265625,-0.236328125
260896,0.478485107421875,-0.7424163818359375,-0.263702392578125
260897,0.478485107421875,-0.7424163818359375,-0.263702392578125
260898,0.5079193115234375,-0.7158050537109375,-0.2969970703125
260899,0.516204833984375,-0.71759033203125,-0.3427276611328125
260900,0.4985809326171875,-0.715484619140625,-0.4050140380859375
260901,0.461395263671875,-0.70050048828125,-0.477386474609375
260902,0.4543609619140625,-0.6533966064453125,-0.5387115478515625
260903,0.43988037109375,-0.6702117919921875,-0.5990142822265625
260904,0.40631103515625,-0.6558990478515625,-0.63543701171875
260905,0.37548828125,-0.586090087890625,-0.6788177490234375
260906,0.3804473876953125,-0.5412750244140625,-0.7849884033203125
260907,0.4257659912109375,-0.5420379638671875,-0.95709228515625
260908,0.4795074462890625,-0.5609283447265625,-1.109375
260909,0.5098724365234375,-0.56134033203125,-1.128616333007812
260910,0.503326416015625,-0.5406951904296875,-1.060012817382812
260911,0.477325439453125,-0.51470947265625,-0.9748382568359376
260912,0.455841064453125,-0.5064239501953125,-0.880950927734375
260913,0.453887939453125,-0.5287628173828125,-0.8143310546875
260914,0.4715576171875,-0.5634002685546875,-0.782501220703125
260915,0.506561279296875,-0.604248046875,-0.8046112060546875
260916,0.5328369140625,-0.6326751708984375,-0.8147430419921875
260917,0.54815673828125,-0.64794921875,-0.700347900390625
260918,0.5753173828125,-0.6715545654296875,-0.6936798095703125
260919,0.5753173828125,-0.6715545654296875,-0.6936798095703125
260920,0.6368408203125,-0.7259521484375,-0.7011566162109375
260921,0.6483154296875,-0.7316436767578125,-0.599639892578125
260922,0.6334228515625,-0.7083282470703125,-0.45001220703125
260923,0.617156982421875,-0.6794586181640625,-0.3520050048828125
260924,0.5930328369140625,-0.6489105224609375,-0.2987060546875
260925,0.5491485595703125,-0.6158294677734375,-0.274566650390625
260926,0.5162811279296875,-0.59295654296875,-0.2754669189453125
260927,0.4957427978515625,-0.5732269287109375,-0.3167572021484375
260928,0.4571380615234375,-0.5438385009765625,-0.32257080078125
260929,0.4154815673828125,-0.525238037109375,-0.29083251953125
260930,0.4103240966796875,-0.5265655517578125,-0.240386962890625
260931,0.4248809814453125,-0.554840087890625,-0.1773834228515625
260932,0.449493408203125,-0.59600830078125,-0.1319732666015625
260933,0.4999237060546875,-0.6309661865234375,-0.1186370849609375
260934,0.570770263671875,-0.6629180908203125,-0.1396484375
260935,0.6454925537109375,-0.6880950927734375,-0.204620361328125
260936,0.6800079345703125,-0.6735687255859375,-0.421295166015625
260937,0.6800079345703125,-0.6735687255859375,-0.421295166015625
260938,0.6357421875,-0.622344970703125,-0.5079345703125
260939,0.6357421875,-0.622344970703125,-0.5079345703125
260940,0.609527587890625,-0.589508056640625,-0.5670166015625
260941,0.6659698486328125,-0.52093505859375,-0.6814422607421875
260942,0.72076416015625,-0.5377349853515625,-0.7357635498046875
260943,0.7529449462890625,-0.5339202880859375,-0.72393798828125
260944,0.7401885986328125,-0.5364227294921875,-0.6709747314453125
260945,0.6781005859375,-0.537384033203125,-0.6607208251953125
260946,0.6332244873046875,-0.6029510498046875,-0.62322998046875
260947,0.6332244873046875,-0.6029510498046875,-0.62322998046875
260948,0.6077728271484375,-0.655120849609375,-0.525848388671875
260949,0.6968231201171875,-0.5762939453125,-0.412322998046875
260950,0.726470947265625,-0.624786376953125,-0.3626556396484375
260951,0.726470947265625,-0.624786376953125,-0.3626556396484375
260952,0.626556396484375,-0.662384033203125,-0.341339111328125
260953,0.583465576171875,-0.6336517333984375,-0.33465576171875
260954,0.6400146484375,-0.55126953125,-0.4060821533203125
260955,0.64361572265625,-0.5040740966796875,-0.424896240234375
260956,0.581695556640625,-0.5044403076171875,-0.4294281005859375
260957,0.581695556640625,-0.5044403076171875,-0.4294281005859375
260958,0.390533447265625,-0.7492828369140625,-0.5350799560546875
260959,0.3337249755859375,-0.8158721923828125,-0.541656494140625
260960,0.2887420654296875,-0.764312744140625,-0.5849151611328125
260961,0.23907470703125,-0.7792510986328125,-0.7110748291015625
260962,0.23895263671875,-0.7913055419921875,-0.8744354248046875
260963,0.25994873046875,-0.7445068359375,-0.90167236328125
260964,0.27215576171875,-0.7025299072265625,-0.770751953125
260965,0.27215576171875,-0.7025299072265625,-0.770751953125
260966,0.3303985595703125,-0.6792755126953125,-0.7814483642578125
260967,0.3800048828125,-0.643310546875,-0.861175537109375
260968,0.44091796875,-0.595550537109375,-0.927978515625
260969,0.5021514892578125,-0.559539794921875,-0.9348602294921876
260970,0.55267333984375,-0.516815185546875,-1.036712646484375
260971,0.63311767578125,-0.53851318359375,-1.110275268554688
260972,0.760589599609375,-0.6424102783203125,-1.00994873046875
260973,0.8770294189453125,-0.721038818359375,-0.9014129638671876
260974,0.880859375,-0.7491455078125,-0.74114990234375
260975,0.791046142578125,-0.7314605712890625,-0.5725250244140625
260976,0.7600860595703125,-0.7326507568359375,-0.4527130126953125
260977,0.735260009765625,-0.738861083984375,-0.3391571044921875
260978,0.731597900390625,-0.740966796875,-0.26513671875
260979,0.73895263671875,-0.7329864501953125,-0.2522125244140625
260980,0.7109222412109375,-0.690887451171875,-0.236602783203125
260981,0.652862548828125,-0.6255950927734375,-0.1971893310546875
260982,0.5939178466796875,-0.55047607421875,-0.1482696533203125
260983,0.5452728271484375,-0.4731292724609375,-0.1137237548828125
260984,0.503448486328125,-0.3873748779296875,-0.0748748779296875
260985,0.467010498046875,-0.346832275390625,-0.05267333984375
260986,0.46173095703125,-0.3333587646484375,-0.0401763916015625
260987,0.48089599609375,-0.3590545654296875,0.0376434326171875
260988,0.5677032470703125,-0.4304351806640625,0.1085662841796875
260989,0.6334686279296875,-0.634368896484375,0.1827545166015625
260990,0.7547149658203125,-0.81060791015625,0.2323760986328125
260991,0.9396209716796876,-0.836395263671875,0.25408935546875
260992,1.044586181640625,-0.80780029296875,0.1637725830078125
260993,1.055068969726562,-0.7740936279296875,-0.0081024169921875
260994,1.031417846679688,-0.7548370361328125,-0.1423492431640625
260995,1.031417846679688,-0.7548370361328125,-0.1423492431640625
260996,1.003005981445312,-0.8069915771484375,-0.2166595458984375
260997,0.966094970703125,-0.823638916015625,-0.2002716064453125
260998,0.904571533203125,-0.8321685791015625,-0.204559326171875
260999,0.769134521484375,-0.8383941650390625,-0.26007080078125
261000,0.769134521484375,-0.8383941650390625,-0.26007080078125
261001,0.780120849609375,-0.797943115234375,-0.280792236328125
261002,0.757965087890625,-0.7976531982421875,-0.2618560791015625
261003,0.757965087890625,-0.7976531982421875,-0.2618560791015625
261004,0.640655517578125,-0.8465576171875,-0.25390625
261005,0.593963623046875,-0.8664703369140625,-0.2645721435546875
261006,0.5402984619140625,-0.8005523681640625,-0.2106475830078125
261007,0.5402984619140625,-0.8005523681640625,-0.2106475830078125
261008,0.363616943359375,-0.615631103515625,-0.1354827880859375
261009,0.363616943359375,-0.615631103515625,-0.1354827880859375
261010,0.342926025390625,-0.555816650390625,-0.169952392578125
261011,0.3397216796875,-0.5260009765625,-0.24420166015625
261012,0.357421875,-0.518463134765625,-0.420318603515625
261013,0.3850250244140625,-0.509857177734375,-0.66900634765625
261014,0.454345703125,-0.759796142578125,-1.744781494140625
261015,0.4597320556640625,-0.4711456298828125,-0.8374176025390625
261016,0.552154541015625,-0.3299102783203125,-0.4119110107421875
261017,0.66632080078125,-0.79742431640625,-0.777801513671875
261018,0.616546630859375,-0.6333465576171875,-0.9119720458984376
261019,0.673797607421875,-0.61260986328125,-1.333465576171875
261020,0.7079315185546875,-0.614105224609375,-1.0185546875
261021,0.70458984375,-0.6465911865234375,-0.930206298828125
261022,0.68804931640625,-0.6730194091796875,-0.853912353515625
261023,0.68804931640625,-0.6730194091796875,-0.853912353515625
261024,0.6897735595703125,-0.753509521484375,-0.697418212890625
261025,0.6927032470703125,-0.7506103515625,-0.650054931640625
261026,0.66644287109375,-0.722503662109375,-0.55291748046875
261027,0.6748809814453125,-0.7528533935546875,-0.3905029296875
261028,0.702392578125,-0.7452239990234375,-0.304595947265625
261029,0.733184814453125,-0.72216796875,-0.24749755859375
261030,0.75054931640625,-0.706024169921875,-0.18145751953125
261031,0.761871337890625,-0.695343017578125,-0.13580322265625
261032,0.7606658935546875,-0.663330078125,-0.0924224853515625
261033,0.73187255859375,-0.61224365234375,-0.050262451171875
261034,0.7075042724609375,-0.5581512451171875,-0.036468505859375
261035,0.62158203125,-0.5504302978515625,-0.0229644775390625
261036,0.5378570556640625,-0.4715423583984375,-0.0149078369140625
261037,0.5378570556640625,-0.4715423583984375,-0.0149078369140625
261038,0.7247467041015625,-0.367706298828125,-0.0985107421875
261039,0.7501983642578125,-0.455718994140625,-0.0558624267578125
261040,0.730712890625,-0.508544921875,0.078765869140625
261041,0.7114715576171875,-0.5427703857421875,0.1928253173828125
261042,0.7054290771484375,-0.5644989013671875,0.2492523193359375
261043,0.6998291015625,-0.587921142578125,0.286346435546875
261044,0.7048797607421875,-0.667022705078125,0.2358245849609375
261045,0.7048797607421875,-0.667022705078125,0.2358245849609375
261046,0.7004547119140625,-0.7179412841796875,0.1620941162109375
261047,0.6888885498046875,-0.7523956298828125,0.0541229248046875
261048,0.686370849609375,-0.782745361328125,-0.069091796875
261049,0.699737548828125,-0.8021392822265625,-0.1446380615234375
261050,0.7206573486328125,-0.8262481689453125,-0.156097412109375
261051,0.7206573486328125,-0.8262481689453125,-0.156097412109375
261052,0.7830657958984375,-0.88653564453125,-0.1970062255859375
261053,0.8176727294921875,-0.918212890625,-0.2328948974609375
261054,0.8596954345703125,-0.9384918212890624,-0.2699737548828125
261055,0.8632049560546875,-0.9466094970703124,-0.3143768310546875
261056,0.8591766357421875,-0.9173583984375,-0.364471435546875
261057,0.828765869140625,-0.8935699462890625,-0.3447265625
261058,0.79205322265625,-0.85076904296875,-0.3152008056640625
261059,0.79205322265625,-0.85076904296875,-0.3152008056640625
261060,0.757904052734375,-0.7892913818359375,-0.3043365478515625
261061,0.7245330810546875,-0.6400299072265625,-0.336639404296875
261062,0.713592529296875,-0.5441436767578125,-0.273712158203125
261063,0.6833038330078125,-0.4911346435546875,-0.217620849609375
261064,0.658111572265625,-0.4845123291015625,-0.2036590576171875
261065,0.6228179931640625,-0.486572265625,-0.2361602783203125
261066,0.5727996826171875,-0.5196533203125,-0.2716522216796875
261067,0.5245819091796875,-0.5600128173828125,-0.3423919677734375
261068,0.49591064453125,-0.6054534912109375,-0.39483642578125
261069,0.4672393798828125,-0.67742919921875,-0.4293212890625
261070,0.44244384765625,-0.69720458984375,-0.3186798095703125
261071,0.4501190185546875,-0.653045654296875,-0.278961181640625
261072,0.471923828125,-0.696014404296875,-0.346282958984375
261073,0.4885406494140625,-0.7932281494140625,-0.35711669921875
261074,0.4991607666015625,-0.883819580078125,-0.3723907470703125
261075,0.4932403564453125,-0.9918060302734376,-0.3851165771484375
261076,0.42010498046875,-1.43896484375,-0.6252899169921875
261077,0.4210662841796875,-1.366470336914062,-0.6205902099609375
261078,0.56707763671875,-0.543914794921875,-0.2309722900390625
261079,0.697723388671875,-0.78863525390625,-0.6337890625
261080,0.80889892578125,-0.627777099609375,-0.5905303955078125
261081,0.940460205078125,-0.6941986083984375,-0.5815277099609375
261082,1.04595947265625,-0.7852325439453125,-0.4423828125
261083,1.073898315429688,-0.8340911865234375,-0.3445587158203125
261084,1.003799438476562,-0.7888946533203125,-0.270355224609375
261085,1.003799438476562,-0.7888946533203125,-0.270355224609375
261086,0.8664093017578125,-0.706085205078125,-0.21038818359375
261087,0.8530426025390625,-0.6580047607421875,-0.1408843994140625
261088,0.7640838623046875,-0.5362091064453125,-0.1415252685546875
261089,0.7640838623046875,-0.5362091064453125,-0.1415252685546875
261090,0.64617919921875,-0.4533843994140625,0.0267791748046875
261091,0.658843994140625,-0.554931640625,0.0598907470703125
261092,0.68756103515625,-0.656768798828125,0.0892333984375
261093,0.7173919677734375,-0.68365478515625,0.1705169677734375
261094,0.7290191650390625,-0.6582183837890625,0.2410736083984375
261095,0.7138214111328125,-0.6289520263671875,0.264312744140625
261096,0.6874542236328125,-0.6088714599609375,0.227203369140625
261097,0.6723480224609375,-0.59442138671875,0.153106689453125
261098,0.6778106689453125,-0.5830535888671875,0.0769195556640625
261099,0.6778106689453125,-0.5830535888671875,0.0769195556640625
261100,0.6621246337890625,-0.6248626708984375,0.06695556640625
261101,0.6721649169921875,-0.63360595703125,0.0845489501953125
261102,0.714569091796875,-0.628662109375,0.0805816650390625
261103,0.8047943115234375,-0.601470947265625,0.0516510009765625
261104,0.9145965576171876,-0.58642578125,0.0190277099609375
261105,1.012313842773438,-0.5925140380859375,-0.00909423828125
261106,1.054428100585938,-0.6364593505859375,-0.0250396728515625
261107,0.967987060546875,-0.7523651123046875,-0.0515899658203125
261108,0.967987060546875,-0.7523651123046875,-0.0515899658203125
261109,0.876220703125,-0.8017425537109375,-0.0904998779296875
261110,0.7757568359375,-0.830474853515625,-0.1018218994140625
261111,0.66949462890625,-0.8317108154296875,-0.0793609619140625
261112,0.5725555419921875,-0.8328399658203125,-0.0534210205078125
261113,0.4930419921875,-0.8380279541015625,-0.0377960205078125
261114,0.4315338134765625,-0.8514862060546875,-0.0294647216796875
261115,0.4315338134765625,-0.8514862060546875,-0.0294647216796875
261116,0.36431884765625,-0.871124267578125,0.024200439453125
261117,0.3502655029296875,-0.8644561767578125,0.0402069091796875
261118,0.345306396484375,-0.8349761962890625,0.0285797119140625
261119,0.345306396484375,-0.8349761962890625,0.0285797119140625
261120,0.32568359375,-0.73333740234375,-0.0934600830078125
261121,0.331817626953125,-0.6500396728515625,-0.193115234375
261122,0.3609771728515625,-0.5621490478515625,-0.2913818359375
261123,0.42059326171875,-0.4976043701171875,-0.4530181884765625
261124,0.523162841796875,-0.506103515625,-0.7266387939453125
261125,0.677154541015625,-0.542877197265625,-0.9463653564453124
261126,0.8997955322265625,-0.8659515380859375,-1.127944946289062
261127,0.9594573974609376,-1.124893188476562,-0.8410797119140625
261128,0.9096527099609376,-0.6426239013671875,-0.2359771728515625
261129,0.9096527099609376,-0.6426239013671875,-0.2359771728515625
261130,0.9002838134765625,-0.77044677734375,-0.6818389892578125
261131,0.795013427734375,-0.62298583984375,-0.7535552978515625
261132,0.7278900146484375,-0.6644134521484375,-0.8328704833984375
261133,0.6351165771484375,-0.72589111328125,-0.806671142578125
261134,0.6117706298828125,-0.7264556884765625,-0.716888427734375
261135,0.6225128173828125,-0.74615478515625,-0.6279296875
261136,0.6294708251953125,-0.7720489501953125,-0.5499420166015625
261137,0.6414031982421875,-0.8064422607421875,-0.4410552978515625
261138,0.68023681640625,-0.879058837890625,-0.3489837646484375
261139,0.71722412109375,-0.8404388427734375,-0.3130340576171875
261140,0.7776641845703125,-0.7123565673828125,-0.2143402099609375
261141,0.80145263671875,-0.6949005126953125,-0.063262939453125
261142,0.788360595703125,-0.6490325927734375,0.075042724609375
261143,0.788360595703125,-0.6490325927734375,0.075042724609375
261144,0.6912078857421875,-0.5427398681640625,0.0821685791015625
261145,0.6368408203125,-0.5229339599609375,0.078125
261146,0.5847320556640625,-0.52056884765625,0.1322021484375
261147,0.5847320556640625,-0.52056884765625,0.1322021484375
261148,0.567779541015625,-0.540740966796875,0.2062225341796875
261149,0.5933990478515625,-0.55230712890625,0.3192138671875
261150,0.7022552490234375,-0.60260009765625,0.451263427734375
261151,0.76007080078125,-0.618133544921875,0.4263153076171875
261152,0.76007080078125,-0.618133544921875,0.4263153076171875
261153,0.89166259765625,-0.6461944580078125,0.2796478271484375
261154,0.9117889404296876,-0.65899658203125,0.208984375
261155,0.9117889404296876,-0.65899658203125,0.208984375
261156,0.8496551513671875,-0.7256927490234375,0.14666748046875
261157,0.76947021484375,-0.8043670654296875,0.1146240234375
261158,0.6919403076171875,-0.865966796875,0.030029296875
261159,0.6296234130859375,-0.8979034423828125,-0.0769805908203125
261160,0.5828704833984375,-0.9210357666015624,-0.1686859130859375
261161,0.558807373046875,-0.933990478515625,-0.2237396240234375
261162,0.5510711669921875,-0.9314727783203124,-0.243560791015625
261163,0.5615692138671875,-0.9317474365234376,-0.1883392333984375
261164,0.5599212646484375,-0.980224609375,-0.1481475830078125
261165,0.5614166259765625,-0.9766845703125,-0.220733642578125
261166,0.5635223388671875,-0.9087677001953124,-0.26129150390625
261167,0.5635223388671875,-0.9087677001953124,-0.26129150390625
261168,0.603485107421875,-0.7100830078125,-0.2566986083984375
261169,0.6385955810546875,-0.640655517578125,-0.241180419921875
261170,0.6753082275390625,-0.5937042236328125,-0.199920654296875
261171,0.6753082275390625,-0.5937042236328125,-0.199920654296875
261172,0.7381439208984375,-0.536651611328125,-0.14263916015625
261173,0.756988525390625,-0.5158538818359375,-0.1571807861328125
261174,0.754608154296875,-0.505126953125,-0.1866607666015625
261175,0.6757049560546875,-0.5777435302734375,-0.2824554443359375
261176,0.6757049560546875,-0.5777435302734375,-0.2824554443359375
261177,0.5850372314453125,-0.68231201171875,-0.3569793701171875
261178,0.468109130859375,-0.82989501953125,-0.4578094482421875
261179,0.338653564453125,-0.89617919921875,-0.41400146484375
261180,0.2645263671875,-0.9088897705078124,-0.4063873291015625
261181,0.21673583984375,-1.067672729492188,-0.5722808837890625
261182,0.1875152587890625,-1.548538208007812,-0.9171905517578124
261183,0.1902008056640625,-0.940582275390625,-0.33392333984375
261184,0.169647216796875,-0.85736083984375,-0.349029541015625
261185,0.2939910888671875,-1.021621704101562,-0.61712646484375
261186,0.4455413818359375,-0.8105926513671875,-0.525238037109375
261187,0.5972747802734375,-0.809112548828125,-0.5800933837890625
261188,0.7339324951171875,-0.722198486328125,-0.4980926513671875
261189,0.87420654296875,-0.7427978515625,-0.4786529541015625
261190,0.9868927001953124,-0.770050048828125,-0.402862548828125
261191,1.0814208984375,-0.7958831787109375,-0.277801513671875
261192,1.12432861328125,-0.80572509765625,-0.1644134521484375
261193,1.07940673828125,-0.7984466552734375,-0.1254425048828125
261194,1.006805419921875,-0.7563323974609375,-0.12335205078125
261195,1.006805419921875,-0.7563323974609375,-0.12335205078125
261196,0.81060791015625,-0.621307373046875,-0.203826904296875
261197,0.6466827392578125,-0.5465240478515625,-0.14715576171875
261198,0.5562744140625,-0.4979705810546875,-0.002899169921875
261199,0.5616607666015625,-0.475067138671875,0.0796661376953125
261200,0.5773162841796875,-0.521087646484375,0.0699462890625
261201,0.5776214599609375,-0.5909271240234375,0.09130859375
261202,0.583953857421875,-0.6358795166015625,0.1949005126953125
261203,0.6069488525390625,-0.656005859375,0.316802978515625
261204,0.6367340087890625,-0.6679840087890625,0.4021453857421875
261205,0.6622467041015625,-0.6873626708984375,0.4468536376953125
261206,0.694091796875,-0.7123260498046875,0.440948486328125
261207,0.737548828125,-0.7343597412109375,0.3620147705078125
261208,0.7899169921875,-0.7337493896484375,0.271881103515625
261209,0.8203887939453125,-0.7321014404296875,0.206756591796875
261210,0.8367156982421875,-0.711212158203125,0.2218170166015625
261211,0.83746337890625,-0.69964599609375,0.1959686279296875
261212,0.8448944091796875,-0.7103729248046875,0.114471435546875
261213,0.8765106201171875,-0.6920013427734375,0.0060272216796875
261214,0.8921356201171875,-0.696868896484375,-0.081817626953125
261215,0.8921356201171875,-0.696868896484375,-0.081817626953125
261216,0.8529205322265625,-0.778350830078125,-0.0753021240234375
261217,0.82861328125,-0.8201446533203125,-0.077850341796875
261218,0.792724609375,-0.8418426513671875,-0.0992279052734375
261219,0.7488250732421875,-0.8555755615234375,-0.1170654296875
261220,0.697906494140625,-0.8660125732421875,-0.115264892578125
261221,0.697906494140625,-0.8660125732421875,-0.115264892578125
261222,0.6027374267578125,-0.9165191650390624,-0.07403564453125
261223,0.4748687744140625,-0.860107421875,-0.0446624755859375
261224,0.4748687744140625,-0.860107421875,-0.0446624755859375
261225,0.431365966796875,-0.79498291015625,-0.00439453125
261226,0.4109954833984375,-0.7255859375,0.03631591796875
261227,0.4051666259765625,-0.669189453125,0.036773681640625
261228,0.4070892333984375,-0.6252899169921875,0.013946533203125
261229,0.412811279296875,-0.5941925048828125,-0.0395050048828125
261230,0.429840087890625,-0.558929443359375,-0.1240997314453125
261231,0.429840087890625,-0.558929443359375,-0.1240997314453125
261232,0.48419189453125,-0.483001708984375,-0.3061676025390625
261233,0.5633087158203125,-0.4804229736328125,-0.48345947265625
261234,0.6712799072265625,-0.52447509765625,-0.7435760498046875
261235,0.8362274169921875,-0.5808258056640625,-0.9642333984375
261236,0.9508514404296876,-0.8796844482421875,-0.97900390625
261237,0.9508514404296876,-0.8796844482421875,-0.97900390625
261238,0.9508514404296876,-0.8796844482421875,-0.97900390625
261239,0.8444366455078125,-0.8116607666015625,-0.661590576171875
261240,0.8444366455078125,-0.8116607666015625,-0.661590576171875
261241,0.624847412109375,-0.762786865234375,-0.9222259521484376
261242,0.5599365234375,-0.827178955078125,-0.879302978515625
261243,0.5514373779296875,-0.832275390625,-0.7601165771484375
261244,0.57647705078125,-0.8406524658203125,-0.7320556640625
261245,0.57647705078125,-0.8406524658203125,-0.7320556640625
261246,0.6813201904296875,-0.8456268310546875,-0.5770263671875
261247,0.7504425048828125,-0.8423004150390625,-0.41717529296875
261248,0.8014984130859375,-0.849639892578125,-0.2791748046875
261249,0.7805023193359375,-0.768402099609375,-0.1859130859375
261250,0.7530975341796875,-0.624969482421875,-0.1117706298828125
261251,0.7683563232421875,-0.5638580322265625,-0.02362060546875
261252,0.7683563232421875,-0.5638580322265625,-0.02362060546875
261253,0.702239990234375,-0.587066650390625,0.0690460205078125
261254,0.6365509033203125,-0.569488525390625,0.08929443359375
261255,0.5697174072265625,-0.559112548828125,0.09832763671875
261256,0.5214080810546875,-0.5496978759765625,0.091766357421875
261257,0.5066680908203125,-0.5416107177734375,0.0979156494140625
261258,0.511474609375,-0.5304718017578125,0.1273956298828125
261259,0.5381927490234375,-0.5218353271484375,0.14697265625
261260,0.5796966552734375,-0.5329742431640625,0.14825439453125
261261,0.5796966552734375,-0.5329742431640625,0.14825439453125
261262,0.7019805908203125,-0.636474609375,0.135223388671875
261263,0.7019805908203125,-0.636474609375,0.135223388671875
261264,0.7624359130859375,-0.73004150390625,0.1540069580078125
261265,0.83612060546875,-0.9277496337890624,0.1151275634765625
261266,0.8273162841796875,-1.016708374023438,0.0320587158203125
261267,0.77587890625,-1.126358032226562,-0.063385009765625
261268,0.690338134765625,-1.2213134765625,-0.1244049072265625
261269,0.6344146728515625,-1.021224975585938,0.0323028564453125
261270,0.58245849609375,-0.9502716064453124,-0.033050537109375
261271,0.551361083984375,-0.93023681640625,-0.1435394287109375
261272,0.5414276123046875,-0.8853759765625,-0.1608428955078125
261273,0.5426483154296875,-0.8706817626953125,-0.21197509765625
261274,0.5533599853515625,-0.8509063720703125,-0.216796875
261275,0.5631561279296875,-0.8005828857421875,-0.23809814453125
261276,0.5631561279296875,-0.8005828857421875,-0.23809814453125
261277,0.572540283203125,-0.7030487060546875,-0.222869873046875
261278,0.582855224609375,-0.6828765869140625,-0.210418701171875
261279,0.582855224609375,-0.6828765869140625,-0.210418701171875
261280,0.6465606689453125,-0.6261749267578125,-0.215789794921875
261281,0.676605224609375,-0.59429931640625,-0.1656036376953125
261282,0.6351470947265625,-0.588165283203125,-0.177703857421875
261283,0.6351470947265625,-0.588165283203125,-0.177703857421875
261284,0.566497802734375,-0.656768798828125,-0.26953125
261285,0.4035491943359375,-0.8162994384765625,-0.50628662109375
261286,0.3454742431640625,-1.042129516601562,-0.5782012939453125
261287,0.3471832275390625,-1.170883178710938,-0.5599365234375
261288,0.2913818359375,-0.8048553466796875,-0.2682342529296875
261289,0.2620849609375,-0.7070159912109375,-0.3517608642578125
261290,0.294921875,-0.6651458740234375,-0.57843017578125
261291,0.294921875,-0.6651458740234375,-0.57843017578125
261292,0.3185882568359375,-0.625396728515625,-0.6019134521484375
261293,0.348297119140625,-0.7906646728515625,-0.574798583984375
261294,0.372039794921875,-0.8896026611328125,-0.5238494873046875
261295,0.4271392822265625,-0.9979248046875,-0.49981689453125
261296,0.482177734375,-1.094131469726562,-0.48291015625
261297,0.537811279296875,-1.111434936523438,-0.46307373046875
261298,0.5626678466796875,-1.05889892578125,-0.4996185302734375
261299,0.5626678466796875,-1.05889892578125,-0.4996185302734375
261300,0.5643310546875,-0.947235107421875,-0.5389251708984375
261301,0.6255950927734375,-0.84515380859375,-0.5313873291015625
261302,0.68109130859375,-0.8492584228515625,-0.4879913330078125
261303,0.68109130859375,-0.8492584228515625,-0.4879913330078125
261304,0.741302490234375,-0.8162689208984375,-0.3974456787109375
261305,0.6992645263671875,-0.7089691162109375,-0.32452392578125
261306,0.649200439453125,-0.706573486328125,-0.2114715576171875
261307,0.649200439453125,-0.706573486328125,-0.2114715576171875
261308,0.671142578125,-0.6958770751953125,-0.1338653564453125
261309,0.6861114501953125,-0.628448486328125,0.0106048583984375
261310,0.6489715576171875,-0.6733856201171875,0.1286468505859375
261311,0.6489715576171875,-0.6733856201171875,0.1286468505859375
261312,0.6150054931640625,-0.6613616943359375,0.19580078125
261313,0.5659942626953125,-0.656829833984375,0.1517791748046875
261314,0.5604248046875,-0.6792144775390625,0.1287994384765625
261315,0.5604248046875,-0.6792144775390625,0.1287994384765625
261316,0.617828369140625,-0.822601318359375,0.0837249755859375
261317,0.661865234375,-0.89923095703125,0.0710601806640625
261318,0.7183837890625,-0.9368133544921876,0.0521240234375
261319,0.7761993408203125,-0.936492919921875,0.0322723388671875
261320,0.7761993408203125,-0.936492919921875,0.0322723388671875
261321,0.848663330078125,-0.8581695556640625,-0.0178375244140625
261322,0.868988037109375,-0.8094024658203125,-0.0555877685546875
261323,0.868988037109375,-0.8094024658203125,-0.0555877685546875
261324,0.86651611328125,-0.7918701171875,-0.0865325927734375
261325,0.84613037109375,-0.8154754638671875,-0.135711669921875
261326,0.7965087890625,-0.8764495849609375,-0.1884613037109375
261327,0.7965087890625,-0.8764495849609375,-0.1884613037109375
261328,0.737457275390625,-0.925872802734375,-0.181915283203125
261329,0.595733642578125,-0.953582763671875,-0.10302734375
261330,0.5280609130859375,-0.96575927734375,-0.0840301513671875
261331,0.5280609130859375,-0.96575927734375,-0.0840301513671875
261332,0.400970458984375,-0.9251861572265624,-0.081207275390625
261333,0.3461151123046875,-0.8669586181640625,-0.072052001953125
261334,0.29901123046875,-0.7889556884765625,-0.0142822265625
261335,0.29901123046875,-0.7889556884765625,-0.0142822265625
261336,0.2664794921875,-0.710662841796875,0.0031890869140625
261337,0.23809814453125,-0.6422576904296875,-0.0413360595703125
261338,0.2212982177734375,-0.6170806884765625,-0.155029296875
261339,0.2451019287109375,-0.650482177734375,-0.2063140869140625
261340,0.3388671875,-0.7106781005859375,-0.72705078125
261341,0.5399627685546875,-0.9019622802734376,-0.8619232177734375
261342,0.5015106201171875,-0.836669921875,-0.1595001220703125
261343,0.5015106201171875,-0.836669921875,-0.1595001220703125
261344,0.5752410888671875,-0.671783447265625,-0.18017578125
261345,0.8288726806640625,-0.8390960693359375,-0.254486083984375
261346,0.8822479248046875,-0.78167724609375,-0.4308319091796875
261347,0.9115142822265624,-0.721221923828125,-0.7728118896484375
261348,0.9115142822265624,-0.721221923828125,-0.7728118896484375
261349,0.719696044921875,-0.67578125,-0.8603363037109375
261350,0.5512542724609375,-0.630645751953125,-0.7509002685546875
261351,0.462432861328125,-0.6327056884765625,-0.64154052734375
261352,0.462432861328125,-0.6327056884765625,-0.64154052734375
261353,0.5064544677734375,-0.6956939697265625,-0.6895294189453125
261354,0.49554443359375,-0.744354248046875,-0.6977691650390625
261355,0.49554443359375,-0.744354248046875,-0.6977691650390625
261356,0.4707183837890625,-0.703643798828125,-0.667755126953125
261357,0.4866485595703125,-0.7133026123046875,-0.5522918701171875
261358,0.50732421875,-0.752166748046875,-0.488983154296875
261359,0.50732421875,-0.752166748046875,-0.488983154296875
261360,0.5420989990234375,-0.785186767578125,-0.410888671875
261361,0.566070556640625,-0.7722015380859375,-0.292572021484375
261362,0.5722198486328125,-0.688232421875,-0.2561492919921875
261363,0.5722198486328125,-0.688232421875,-0.2561492919921875
261364,0.6251220703125,-0.660186767578125,-0.19488525390625
261365,0.65338134765625,-0.7324676513671875,-0.153533935546875
261366,0.6193695068359375,-0.6555023193359375,0.0182342529296875
261367,0.6193695068359375,-0.6555023193359375,0.0182342529296875
261368,0.584259033203125,-0.6392364501953125,0.042999267578125
261369,0.5880584716796875,-0.58123779296875,0.1550445556640625
261370,0.6142425537109375,-0.6273040771484375,0.1779937744140625
261371,0.6142425537109375,-0.6273040771484375,0.1779937744140625
261372,0.651611328125,-0.6936492919921875,0.206939697265625
261373,0.6930999755859375,-0.7674560546875,0.2627716064453125
261374,0.7812042236328125,-0.93475341796875,0.3153228759765625
261375,0.7812042236328125,-0.93475341796875,0.3153228759765625
261376,0.800811767578125,-1.071395874023438,0.19183349609375
261377,0.7731170654296875,-1.0045166015625,0.3882293701171875
261378,0.730377197265625,-1.009017944335938,0.204833984375
261379,0.730377197265625,-1.009017944335938,0.204833984375
261380,0.6029510498046875,-0.9104766845703124,0.078857421875
261381,0.562591552734375,-0.8928985595703125,-0.0482635498046875
261382,0.5415191650390625,-0.898834228515625,-0.177001953125
261383,0.5415191650390625,-0.898834228515625,-0.177001953125
261384,0.5306243896484375,-0.9160919189453124,-0.278717041015625
261385,0.47308349609375,-0.97698974609375,-0.2151336669921875
261386,0.452911376953125,-0.976165771484375,-0.404388427734375
261387,0.452911376953125,-0.976165771484375,-0.404388427734375
261388,0.496734619140625,-0.75970458984375,-0.476837158203125
261389,0.5485076904296875,-0.6709442138671875,-0.3075103759765625
261390,0.600860595703125,-0.628265380859375,-0.1921234130859375
261391,0.600860595703125,-0.628265380859375,-0.1921234130859375
261392,0.64788818359375,-0.6021881103515625,-0.1229095458984375
261393,0.6938629150390625,-0.5699462890625,-0.08001708984375
261394,0.756927490234375,-0.4825286865234375,-0.0683135986328125
261395,0.76171875,-0.4579010009765625,-0.0738677978515625
261396,0.76171875,-0.4579010009765625,-0.0738677978515625
261397,0.7487945556640625,-0.4632110595703125,-0.1956329345703125
261398,0.7222137451171875,-0.5306396484375,-0.236175537109375
261399,0.7222137451171875,-0.5306396484375,-0.236175537109375
261400,0.68011474609375,-0.64398193359375,-0.273529052734375
261401,0.599822998046875,-0.8271484375,-0.4254913330078125
261402,0.537811279296875,-1.084640502929688,-0.5776824951171875
261403,0.51666259765625,-1.478240966796875,-0.7349395751953125
261404,0.51666259765625,-1.478240966796875,-0.7349395751953125
261405,0.3193206787109375,-0.9584808349609376,-0.413665771484375
261406,0.3511962890625,-0.9369964599609376,-0.5138092041015625
261407,0.4370880126953125,-0.7774810791015625,-0.4553985595703125
261408,0.4370880126953125,-0.7774810791015625,-0.4553985595703125
261409,0.6815643310546875,-0.7796630859375,-0.800384521484375
261410,0.7318572998046875,-0.76568603515625,-0.766326904296875
261411,0.7318572998046875,-0.76568603515625,-0.766326904296875
261412,0.7787628173828125,-0.7610321044921875,-0.6829681396484375
261413,0.7993316650390625,-0.7709197998046875,-0.4824371337890625
261414,0.826904296875,-0.7174224853515625,-0.38427734375
261415,0.826904296875,-0.7174224853515625,-0.38427734375
261416,0.8647918701171875,-0.57891845703125,-0.3838348388671875
261417,0.8976898193359375,-0.083831787109375,-0.4353179931640625
261418,0.87554931640625,-0.2663421630859375,-0.2392578125
261419,0.87554931640625,-0.2663421630859375,-0.2392578125
261420,0.8857574462890625,-0.615478515625,-0.066802978515625
261421,0.88958740234375,-0.8973236083984375,0.00531005859375
261422,0.706085205078125,-0.829132080078125,0.0008087158203125
261423,0.570526123046875,-0.6419830322265625,-0.0012359619140625
261424,0.570526123046875,-0.6419830322265625,-0.0012359619140625
261425,0.3364715576171875,-0.5451507568359375,0.107696533203125
261426,0.2855377197265625,-0.601165771484375,0.1415863037109375
261427,0.2855377197265625,-0.601165771484375,0.1415863037109375
261428,0.2722320556640625,-0.7204132080078125,0.138885498046875
261429,0.3739166259765625,-1.163192749023438,0.18206787109375
261430,0.49322509765625,-1.2772216796875,0.33917236328125
261431,0.49322509765625,-1.2772216796875,0.33917236328125
261432,0.6455841064453125,-1.244888305664062,0.5193328857421875
261433,0.8263397216796875,-0.8446197509765625,0.56146240234375
261434,0.866546630859375,-0.6273193359375,0.5035400390625
261435,0.866546630859375,-0.6273193359375,0.5035400390625
261436,0.9157867431640624,-0.44366455078125,0.465850830078125
261437,0.9557342529296876,-0.342193603515625,0.3993072509765625
261438,0.98779296875,-0.4247589111328125,0.2886962890625
261439,0.98779296875,-0.4247589111328125,0.2886962890625
261440,0.9128570556640624,-0.6405029296875,0.389129638671875
261441,0.72711181640625,-0.871429443359375,0.356109619140625
261442,0.630340576171875,-0.9133148193359376,0.216217041015625
261443,0.630340576171875,-0.9133148193359376,0.216217041015625
261444,0.557891845703125,-0.9244384765625,0.132904052734375
261445,0.4493408203125,-0.9057159423828124,0.13104248046875
261446,0.3903656005859375,-0.9155426025390624,0.1459503173828125
261447,0.3903656005859375,-0.9155426025390624,0.1459503173828125
261448,0.2965240478515625,-0.9364471435546876,0.144744873046875
261449,0.2566680908203125,-0.9314422607421876,0.1446533203125
261450,0.23040771484375,-0.882080078125,0.121673583984375
261451,0.237945556640625,-0.7778472900390625,0.0902557373046875
261452,0.2941741943359375,-0.648284912109375,0.0429840087890625
261453,0.393310546875,-0.522796630859375,-0.031463623046875
261454,0.512237548828125,-0.461822509765625,-0.07244873046875
261455,0.512237548828125,-0.461822509765625,-0.07244873046875
261456,0.6427459716796875,-0.4764404296875,-0.1131744384765625
261457,0.9388427734375,-0.639312744140625,-0.27899169921875
261458,1.203842163085938,-0.9649505615234376,-0.505279541015625
261459,1.485641479492188,-1.516036987304688,-0.6093597412109375
261460,1.485641479492188,-1.516036987304688,-0.6093597412109375
261461,0.90264892578125,-0.6158905029296875,-0.1692047119140625
261462,0.8588714599609375,-0.7266387939453125,-0.682098388671875
261463,0.7068939208984375,-0.7418060302734375,-0.5312652587890625
261464,0.6004180908203125,-0.7098388671875,-0.553558349609375
261465,0.5598297119140625,-0.7479248046875,-0.5931854248046875
261466,0.520660400390625,-0.8039398193359375,-0.5839385986328125
261467,0.520660400390625,-0.8039398193359375,-0.5839385986328125
261468,0.470458984375,-0.8363189697265625,-0.5384063720703125
261469,0.4109649658203125,-0.8015594482421875,-0.4553375244140625
261470,0.39935302734375,-0.7481231689453125,-0.38409423828125
261471,0.39935302734375,-0.7481231689453125,-0.38409423828125
261472,0.468719482421875,-0.703033447265625,-0.2134246826171875
261473,0.530670166015625,-0.7420654296875,-0.129486083984375
261474,0.604705810546875,-0.8080596923828125,-0.0606536865234375
261475,0.604705810546875,-0.8080596923828125,-0.0606536865234375
261476,0.667938232421875,-0.8455352783203125,-0.015777587890625
261477,0.64556884765625,-0.798004150390625,-0.0201873779296875
261478,0.566680908203125,-0.7142181396484375,0.0077667236328125
261479,0.566680908203125,-0.7142181396484375,0.0077667236328125
261480,0.4912872314453125,-0.6117095947265625,0.0449371337890625
261481,0.3912353515625,-0.443756103515625,0.0960540771484375
261482,0.3985595703125,-0.393585205078125,0.1040496826171875
261483,0.3985595703125,-0.393585205078125,0.1040496826171875
261484,0.5697174072265625,-0.4564056396484375,0.11785888671875
261485,0.677276611328125,-0.5876922607421875,0.1927032470703125
261486,0.7938079833984375,-0.8169403076171875,0.288421630859375
261487,0.7938079833984375,-0.8169403076171875,0.288421630859375
261488,0.9577178955078124,-1.341903686523438,0.41259765625
261489,0.91534423828125,-1.255096435546875,0.4558258056640625
261490,0.8193359375,-1.093109130859375,0.4683990478515625
261491,0.8193359375,-1.093109130859375,0.4683990478515625
261492,0.71722412109375,-1.006240844726562,0.37109375
261493,0.53594970703125,-0.9573211669921876,0.3012847900390625
261494,0.48638916015625,-0.98626708984375,0.216644287109375
261495,0.48638916015625,-0.98626708984375,0.216644287109375
261496,0.4592132568359375,-0.881195068359375,-0.02630615234375
261497,0.4681854248046875,-0.827423095703125,-0.124359130859375
261498,0.4898834228515625,-0.787872314453125,-0.07366943359375
261499,0.53399658203125,-0.7607421875,0.0370330810546875
261500,0.604888916015625,-0.75360107421875,0.1032257080078125
261501,0.6882476806640625,-0.7570037841796875,0.1162109375
261502,0.755645751953125,-0.757415771484375,0.0717926025390625
261503,0.755645751953125,-0.757415771484375,0.0717926025390625
261504,0.8141632080078125,-0.64013671875,0.0064239501953125
261505,0.7856292724609375,-0.561859130859375,0.0360870361328125
261506,0.7376708984375,-0.5286102294921875,0.0120391845703125
261507,0.7376708984375,-0.5286102294921875,0.0120391845703125
261508,0.6927490234375,-0.52777099609375,-0.0554656982421875
261509,0.660308837890625,-0.618682861328125,-0.1944122314453125
261510,0.661102294921875,-0.7005615234375,-0.2417449951171875
261511,0.661102294921875,-0.7005615234375,-0.2417449951171875
261512,0.64599609375,-0.77972412109375,-0.242584228515625
261513,0.603668212890625,-0.8692626953125,-0.188385009765625
261514,0.54449462890625,-0.9804534912109376,-0.3830108642578125
261515,0.4497528076171875,-1.676132202148438,-0.840240478515625
261516,0.4497528076171875,-1.676132202148438,-0.840240478515625
261517,0.280059814453125,-0.824462890625,-0.312530517578125
261518,0.28314208984375,-0.98272705078125,-0.565887451171875
261519,0.2957000732421875,-0.8846435546875,-0.428924560546875
261520,0.2957000732421875,-0.8846435546875,-0.428924560546875
261521,0.4755401611328125,-0.910369873046875,-0.45086669921875
261522,0.59759521484375,-0.8538055419921875,-0.4329681396484375
261523,0.6995086669921875,-0.7771148681640625,-0.3940887451171875
261524,0.7696685791015625,-0.77032470703125,-0.33984375
261525,0.822479248046875,-0.800689697265625,-0.2232666015625
261526,0.8519134521484375,-0.81524658203125,-0.1861419677734375
261527,0.8519134521484375,-0.81524658203125,-0.1861419677734375
261528,0.870391845703125,-0.783477783203125,-0.19696044921875
261529,0.857513427734375,-0.785125732421875,-0.2249908447265625
261530,0.8254852294921875,-0.7733154296875,-0.192901611328125
261531,0.8254852294921875,-0.7733154296875,-0.192901611328125
261532,0.6854095458984375,-0.72119140625,-0.0198211669921875
261533,0.630462646484375,-0.6403350830078125,0.005340576171875
261534,0.605804443359375,-0.5789642333984375,0.001983642578125
261535,0.605804443359375,-0.5789642333984375,0.001983642578125
261536,0.5557861328125,-0.5561676025390625,0.06103515625
261537,0.5557861328125,-0.5561676025390625,0.06103515625
261538,0.518096923828125,-0.5465850830078125,0.0701751708984375
261539,0.510833740234375,-0.5794525146484375,0.042083740234375
261540,0.52081298828125,-0.6361846923828125,0.018280029296875
261541,0.54364013671875,-0.6896514892578125,0.0037078857421875
261542,0.5692901611328125,-0.719207763671875,-0.0364532470703125
261543,0.5975494384765625,-0.749237060546875,-0.061859130859375
261544,0.6378936767578125,-0.7816314697265625,-0.0768585205078125
261545,0.678680419921875,-0.8155670166015625,-0.0913238525390625
261546,0.71319580078125,-0.846771240234375,-0.105560302734375
261547,0.736602783203125,-0.842376708984375,-0.1352386474609375
261548,0.736602783203125,-0.842376708984375,-0.1352386474609375
261549,0.7176513671875,-0.8232421875,-0.1514739990234375
261550,0.7031402587890625,-0.740020751953125,-0.173492431640625
261551,0.703460693359375,-0.698211669921875,-0.1748199462890625
261552,0.703460693359375,-0.698211669921875,-0.1748199462890625
261553,0.67041015625,-0.813262939453125,-0.08782958984375
261554,0.6303863525390625,-0.8490753173828125,-0.056884765625
261555,0.580230712890625,-0.8610992431640625,-0.0492095947265625
261556,0.580230712890625,-0.8610992431640625,-0.0492095947265625
261557,0.475433349609375,-0.88665771484375,-0.0760650634765625
261558,0.41766357421875,-0.923065185546875,-0.090972900390625
261559,0.41766357421875,-0.923065185546875,-0.090972900390625
261560,0.290679931640625,-0.960174560546875,-0.204193115234375
261561,0.2600555419921875,-0.8415985107421875,-0.1991119384765625
261562,0.230438232421875,-0.8032379150390625,-0.213348388671875
261563,0.230438232421875,-0.8032379150390625,-0.213348388671875
261564,0.234344482421875,-0.80963134765625,-0.2534027099609375
261565,0.49542236328125,-0.7934417724609375,-0.2707672119140625
261566,0.6595458984375,-0.862213134765625,-0.3237762451171875
261567,0.7894744873046875,-0.8634796142578125,-0.496734619140625
261568,0.7894744873046875,-0.8634796142578125,-0.496734619140625
261569,0.81829833984375,-0.74517822265625,-0.6997222900390625
261570,0.7511444091796875,-0.740631103515625,-0.71380615234375
261571,0.7070159912109375,-0.6622467041015625,-0.6666717529296875
261572,0.7070159912109375,-0.6622467041015625,-0.6666717529296875
261573,0.6657867431640625,-0.589019775390625,-0.6254119873046875
261574,0.674652099609375,-0.63702392578125,-0.5921783447265625
261575,0.674652099609375,-0.63702392578125,-0.5921783447265625
261576,0.68389892578125,-0.705963134765625,-0.5791778564453125
261577,0.653778076171875,-0.73681640625,-0.5655059814453125
261578,0.6603851318359375,-0.73870849609375,-0.523162841796875
261579,0.65826416015625,-0.807037353515625,-0.4622344970703125
261580,0.6502227783203125,-0.8589630126953125,-0.4303741455078125
261581,0.671356201171875,-0.8499755859375,-0.3953399658203125
261582,0.7042388916015625,-0.83001708984375,-0.3179779052734375
261583,0.7042388916015625,-0.83001708984375,-0.3179779052734375
261584,0.713470458984375,-0.81390380859375,-0.1462554931640625
261585,0.7084808349609375,-0.7661590576171875,-0.0937042236328125
261586,0.6865081787109375,-0.7079925537109375,-0.0616607666015625
261587,0.6865081787109375,-0.7079925537109375,-0.0616607666015625
261588,0.5531005859375,-0.6015167236328125,-0.028228759765625
261589,0.461944580078125,-0.568450927734375,-0.0061187744140625
261590,0.40313720703125,-0.53521728515625,-0.009185791015625
261591,0.40313720703125,-0.53521728515625,-0.009185791015625
261592,0.369049072265625,-0.50677490234375,-0.008636474609375
261593,0.4436492919921875,-0.49993896484375,0.023468017578125
261594,0.5374298095703125,-0.5472869873046875,0.00634765625
261595,0.62890625,-0.632049560546875,-0.0026092529296875
261596,0.62890625,-0.632049560546875,-0.0026092529296875
261597,0.7170562744140625,-0.743438720703125,-0.0737762451171875
261598,0.699676513671875,-0.7618560791015625,-0.1484375
261599,0.699676513671875,-0.7618560791015625,-0.1484375
261600,0.640716552734375,-0.763458251953125,-0.2646331787109375
261601,0.6335601806640625,-0.7670745849609375,-0.3015594482421875
261602,0.6374053955078125,-0.8041534423828125,-0.34869384765625
261603,0.6374053955078125,-0.8041534423828125,-0.34869384765625
261604,0.6957855224609375,-0.7465972900390625,-0.380126953125
261605,0.7216796875,-0.76483154296875,-0.358245849609375
261606,0.7339630126953125,-0.7403106689453125,-0.338134765625
261607,0.73455810546875,-0.7244415283203125,-0.3239288330078125
261608,0.7197418212890625,-0.735595703125,-0.29412841796875
261609,0.679962158203125,-0.793792724609375,-0.23394775390625
261610,0.6312408447265625,-0.828857421875,-0.1452789306640625
261611,0.6312408447265625,-0.828857421875,-0.1452789306640625
261612,0.57513427734375,-0.72491455078125,-0.079071044921875
261613,0.56512451171875,-0.7135009765625,-0.126922607421875
261614,0.5898895263671875,-0.72467041015625,-0.2094573974609375
261615,0.61102294921875,-0.7156829833984375,-0.1814727783203125
261616,0.61102294921875,-0.7156829833984375,-0.1814727783203125
261617,0.662384033203125,-0.7133331298828125,-0.074371337890625
261618,0.6524505615234375,-0.7674407958984375,-0.0946807861328125
261619,0.6524505615234375,-0.7674407958984375,-0.0946807861328125
261620,0.5688323974609375,-0.977874755859375,-0.34014892578125
261621,0.5758819580078125,-1.30377197265625,-0.4094390869140625
261622,0.564117431640625,-1.088775634765625,-0.0428924560546875
261623,0.4503936767578125,-0.9771881103515624,-0.3860626220703125
261624,0.3673858642578125,-0.953277587890625,-0.445892333984375
261625,0.2860260009765625,-0.941925048828125,-0.4733123779296875
261626,0.2307586669921875,-0.925262451171875,-0.500823974609375
261627,0.2307586669921875,-0.925262451171875,-0.500823974609375
261628,0.2306060791015625,-0.9329681396484376,-0.5206298828125
261629,0.3458251953125,-0.90576171875,-0.4835205078125
261630,0.43817138671875,-0.87939453125,-0.444793701171875
261631,0.528411865234375,-0.8648681640625,-0.4162139892578125
261632,0.528411865234375,-0.8648681640625,-0.4162139892578125
261633,0.647491455078125,-0.8072509765625,-0.419586181640625
261634,0.69818115234375,-0.779144287109375,-0.4071044921875
261635,0.69818115234375,-0.779144287109375,-0.4071044921875
261636,0.7982330322265625,-0.6832275390625,-0.2507171630859375
261637,0.7982330322265625,-0.6832275390625,-0.2507171630859375
261638,0.7982330322265625,-0.6832275390625,-0.2507171630859375
261639,0.8055419921875,-0.6754913330078125,-0.2242584228515625
261640,0.7917938232421875,-0.6925506591796875,-0.1665496826171875
261641,0.8103485107421875,-0.746734619140625,-0.1259002685546875
261642,0.797149658203125,-0.758392333984375,-0.0893402099609375
261643,0.797149658203125,-0.758392333984375,-0.0893402099609375
261644,0.6951446533203125,-0.608856201171875,-0.0625
261645,0.646636962890625,-0.5061187744140625,-0.039794921875
261646,0.6180572509765625,-0.4351348876953125,0.0063629150390625
261647,0.6180572509765625,-0.4351348876953125,0.0063629150390625
261648,0.6131744384765625,-0.401885986328125,0.055938720703125
261649,0.5798797607421875,-0.447113037109375,0.165679931640625
261650,0.5945281982421875,-0.535247802734375,0.1998291015625
261651,0.61981201171875,-0.6347198486328125,0.193572998046875
261652,0.6421966552734375,-0.738861083984375,0.177215576171875
261653,0.657196044921875,-0.8244476318359375,0.150299072265625
261654,0.66986083984375,-0.9080047607421876,0.078582763671875
261655,0.66986083984375,-0.9080047607421876,0.078582763671875
261656,0.72991943359375,-0.9716796875,-0.0018463134765625
261657,0.7930755615234375,-0.8951873779296875,-0.0149383544921875
261658,0.866790771484375,-0.7561187744140625,-0.0159454345703125
261659,0.9279022216796876,-0.635284423828125,-0.0137939453125
261660,0.948974609375,-0.623809814453125,-0.0002899169921875
261661,0.95977783203125,-0.6666412353515625,0.0020904541015625
261662,0.9327850341796876,-0.7327117919921875,-0.038330078125
261663,0.8515167236328125,-0.8042144775390625,-0.050628662109375
261664,0.8515167236328125,-0.8042144775390625,-0.050628662109375
261665,0.6309967041015625,-0.8727569580078125,-0.0176239013671875
261666,0.5466461181640625,-0.9079437255859376,-0.0357666015625
261667,0.5466461181640625,-0.9079437255859376,-0.0357666015625
261668,0.4787445068359375,-0.9408111572265624,-0.0448760986328125
261669,0.389373779296875,-0.9677734375,-0.063232421875
261670,0.360687255859375,-0.984954833984375,-0.014373779296875
261671,0.360687255859375,-0.984954833984375,-0.014373779296875
261672,0.3069610595703125,-0.9632720947265624,0.0286865234375
261673,0.3132476806640625,-0.8571014404296875,0.0262298583984375
261674,0.3707275390625,-0.72393798828125,0.0412750244140625
261675,0.4771575927734375,-0.6027984619140625,0.06396484375
261676,0.4771575927734375,-0.6027984619140625,0.06396484375
261677,0.6668853759765625,-0.5185394287109375,0.2097015380859375
261678,0.7181854248046875,-0.50494384765625,0.2527923583984375
261679,0.760162353515625,-0.4925537109375,0.155914306640625
261680,0.760162353515625,-0.4925537109375,0.155914306640625
261681,0.8094940185546875,-0.54376220703125,-0.2319793701171875
261682,0.9683837890625,-1.156341552734375,-0.5047149658203125
261683,1.015655517578125,-1.55035400390625,-0.3075408935546875
261684,1.015655517578125,-1.55035400390625,-0.3075408935546875
261685,0.742828369140625,-0.6425018310546875,-0.507080078125
261686,0.642120361328125,-0.790130615234375,-0.5586395263671875
261687,0.642120361328125,-0.790130615234375,-0.5586395263671875
261688,0.4673004150390625,-0.7424774169921875,-0.4681396484375
261689,0.4722442626953125,-0.69854736328125,-0.5507659912109375
261690,0.517303466796875,-0.6371002197265625,-0.6934967041015625
261691,0.55340576171875,-0.6930694580078125,-0.7554168701171875
261692,0.55340576171875,-0.6930694580078125,-0.7554168701171875
261693,0.4794921875,-0.888885498046875,-0.5962982177734375
261694,0.46923828125,-0.9129486083984376,-0.46075439453125
261695,0.46923828125,-0.9129486083984376,-0.46075439453125
261696,0.497833251953125,-0.7986297607421875,-0.330078125
261697,0.557281494140625,-0.7498626708984375,-0.3110809326171875
261698,0.620880126953125,-0.72186279296875,-0.24420166015625
261699,0.684112548828125,-0.71343994140625,-0.1904296875
261700,0.684112548828125,-0.71343994140625,-0.1904296875
261701,0.8499603271484375,-0.7041778564453125,-0.0051116943359375
261702,0.85797119140625,-0.828704833984375,0.1264801025390625
261703,0.806182861328125,-0.802734375,0.2258758544921875
261704,0.729278564453125,-0.70556640625,0.2136383056640625
261705,0.6549835205078125,-0.6212615966796875,0.17706298828125
261706,0.6004180908203125,-0.57806396484375,0.1713714599609375
261707,0.5712738037109375,-0.5894775390625,0.21173095703125
261708,0.5712738037109375,-0.5894775390625,0.21173095703125
261709,0.5749969482421875,-0.6353302001953125,0.2500457763671875
261710,0.663421630859375,-0.80572509765625,0.2603912353515625
261711,0.7201385498046875,-0.917022705078125,0.2708587646484375
261712,0.761932373046875,-1.011123657226562,0.2622833251953125
261713,0.7913970947265625,-1.029586791992188,0.2666778564453125
261714,0.800994873046875,-0.99298095703125,0.29833984375
261715,0.7765045166015625,-0.96502685546875,0.282958984375
261716,0.7765045166015625,-0.96502685546875,0.282958984375
261717,0.693511962890625,-0.936065673828125,0.2061614990234375
261718,0.649139404296875,-0.921234130859375,0.1600341796875
261719,0.5859527587890625,-0.882659912109375,-0.025970458984375
261720,0.5859527587890625,-0.882659912109375,-0.025970458984375
261721,0.5609893798828125,-0.8492279052734375,-0.1710052490234375
261722,0.5144805908203125,-0.8488006591796875,-0.054931640625
261723,0.4902191162109375,-0.8692474365234375,0.0250701904296875
261724,0.4902191162109375,-0.8692474365234375,0.0250701904296875
261725,0.528106689453125,-0.760528564453125,-0.2119598388671875
261726,0.520172119140625,-0.6621246337890625,-0.07513427734375
261727,0.5879974365234375,-0.623565673828125,0.04705810546875
261728,0.5879974365234375,-0.623565673828125,0.04705810546875
261729,0.620819091796875,-0.6295166015625,0.206512451171875
261730,0.6285552978515625,-0.6253509521484375,0.3184051513671875
261731,0.6105194091796875,-0.5853118896484375,0.2622222900390625
261732,0.6105194091796875,-0.5853118896484375,0.2622222900390625
261733,0.5343780517578125,-0.4786224365234375,0.0576019287109375
261734,0.5045013427734375,-0.4870452880859375,-0.0289306640625
261735,0.50439453125,-0.5331878662109375,-0.0657196044921875
261736,0.50439453125,-0.5331878662109375,-0.0657196044921875
261737,0.5125274658203125,-0.625579833984375,0.0024871826171875
261738,0.573760986328125,-0.9635162353515624,-0.2469482421875
261739,0.613037109375,-1.043655395507812,-0.278839111328125
261740,0.6352081298828125,-1.223541259765625,-0.2550811767578125
261741,0.6469268798828125,-1.538497924804688,-0.287750244140625
261742,0.44525146484375,-1.079940795898438,0.0612945556640625
261743,0.3281097412109375,-0.9923248291015624,-0.2100830078125
261744,0.29327392578125,-0.939483642578125,-0.443511962890625
261745,0.277679443359375,-0.8499755859375,-0.44696044921875
261746,0.323089599609375,-0.92022705078125,-0.469390869140625
261747,0.3988189697265625,-0.9737396240234376,-0.4500732421875
261748,0.3988189697265625,-0.9737396240234376,-0.4500732421875
261749,0.5020599365234375,-0.9810333251953124,-0.28375244140625
261750,0.5413818359375,-0.9931488037109376,-0.2358856201171875
261751,0.578857421875,-0.9853057861328124,-0.2197418212890625
261752,0.578857421875,-0.9853057861328124,-0.2197418212890625
261753,0.6197052001953125,-0.8323211669921875,-0.224700927734375
261754,0.66033935546875,-0.761322021484375,-0.2377166748046875
261755,0.7811279296875,-0.672332763671875,-0.2942352294921875
261756,0.7811279296875,-0.672332763671875,-0.2942352294921875
261757,0.792755126953125,-0.592559814453125,-0.2933197021484375
261758,0.803955078125,-0.5142974853515625,-0.214447021484375
261759,0.8350830078125,-0.579071044921875,-0.089752197265625
261760,0.819854736328125,-0.6720733642578125,0.0794525146484375
261761,0.76849365234375,-0.6628570556640625,0.1931915283203125
261762,0.719451904296875,-0.6420135498046875,0.2056884765625
261763,0.69140625,-0.6629791259765625,0.214324951171875
261764,0.69140625,-0.6629791259765625,0.214324951171875
261765,0.7113494873046875,-0.722076416015625,0.2647857666015625
261766,0.724334716796875,-0.769927978515625,0.36175537109375
261767,0.7389678955078125,-0.8090057373046875,0.4322967529296875
261768,0.74969482421875,-0.840728759765625,0.4624176025390625
261769,0.754486083984375,-0.8773345947265625,0.4448089599609375
261770,0.748321533203125,-0.9005584716796875,0.430816650390625
261771,0.7014007568359375,-0.8551177978515625,0.3509063720703125
261772,0.7014007568359375,-0.8551177978515625,0.3509063720703125
261773,0.6945037841796875,-0.78045654296875,0.3134613037109375
261774,0.69671630859375,-0.7160186767578125,0.3230743408203125
261775,0.7056427001953125,-0.6926116943359375,0.3094635009765625
261776,0.7056427001953125,-0.6926116943359375,0.3094635009765625
261777,0.7072601318359375,-0.7707061767578125,0.2404632568359375
261778,0.6881256103515625,-0.8015594482421875,0.1869049072265625
261779,0.66375732421875,-0.826904296875,0.096923828125
261780,0.625091552734375,-0.8525543212890625,0.0309295654296875
261781,0.5541839599609375,-0.84893798828125,-0.03619384765625
261782,0.46405029296875,-0.854736328125,0.0192413330078125
261783,0.4050445556640625,-0.9563446044921876,0.2021636962890625
261784,0.3910064697265625,-1.086044311523438,0.3058319091796875
261785,0.40643310546875,-1.082015991210938,0.2333221435546875
261786,0.4387969970703125,-0.9848785400390624,0.284088134765625
261787,0.490142822265625,-0.8944244384765625,0.30999755859375
261788,0.490142822265625,-0.8944244384765625,0.30999755859375
261789,0.4662628173828125,-0.73968505859375,0.38531494140625
261790,0.411163330078125,-0.6830902099609375,0.412200927734375
261791,0.3461761474609375,-0.5043792724609375,0.252227783203125
261792,0.3461761474609375,-0.5043792724609375,0.252227783203125
261793,0.359405517578125,-0.45361328125,0.1504669189453125
261794,0.3948516845703125,-0.48016357421875,0.032470703125
261795,0.436370849609375,-0.5575103759765625,-0.008148193359375
261796,0.436370849609375,-0.5575103759765625,-0.008148193359375
261797,0.564605712890625,-0.758209228515625,-0.094940185546875
261798,0.68353271484375,-0.9042205810546876,-0.2558441162109375
261799,1.028335571289062,-1.515670776367188,-0.2108306884765625
261800,1.028335571289062,-1.515670776367188,-0.2108306884765625
261801,0.7591552734375,-0.8797760009765625,0.09228515625
261802,0.6803741455078125,-0.7591094970703125,-0.1707305908203125
261803,0.6775360107421875,-0.9247894287109376,-0.363922119140625
261804,0.6775360107421875,-0.9247894287109376,-0.363922119140625
261805,0.631134033203125,-0.8092193603515625,-0.393402099609375
261806,0.641845703125,-0.8697967529296875,-0.4040679931640625
261807,0.6234893798828125,-0.9578399658203124,-0.3359527587890625
261808,0.6234893798828125,-0.9578399658203124,-0.3359527587890625
261809,0.5901336669921875,-0.9674072265625,-0.2759857177734375
261810,0.564453125,-0.9691925048828124,-0.219207763671875
261811,0.533355712890625,-0.95654296875,-0.2637176513671875
261812,0.472900390625,-0.8388671875,-0.307586669921875
261813,0.452484130859375,-0.722076416015625,-0.3817291259765625
261814,0.47833251953125,-0.6873016357421875,-0.426422119140625
261815,0.6297760009765625,-0.7034912109375,-0.1666107177734375
261816,0.6297760009765625,-0.7034912109375,-0.1666107177734375
261817,0.6984405517578125,-0.702056884765625,-0.0202484130859375
261818,0.7454376220703125,-0.7157440185546875,0.0854644775390625
261819,0.72528076171875,-0.711395263671875,0.1976318359375
261820,0.72528076171875,-0.711395263671875,0.1976318359375
261821,0.68609619140625,-0.6674652099609375,0.2046966552734375
261822,0.64312744140625,-0.592437744140625,0.228271484375
261823,0.583953857421875,-0.5504302978515625,0.2294921875
261824,0.583953857421875,-0.5504302978515625,0.2294921875
261825,0.5626220703125,-0.582611083984375,0.244171142578125
261826,0.552520751953125,-0.633819580078125,0.272369384765625
261827,0.546142578125,-0.7039947509765625,0.33721923828125
261828,0.546142578125,-0.7039947509765625,0.33721923828125
261829,0.5736083984375,-0.874969482421875,0.4085845947265625
261830,0.5948028564453125,-0.9361114501953124,0.440704345703125
261831,0.592529296875,-1.016769409179688,0.328369140625
261832,0.592529296875,-1.016769409179688,0.328369140625
261833,0.5417022705078125,-1.01373291015625,0.2624969482421875
261834,0.5050048828125,-0.8939361572265625,0.44744873046875
261835,0.5367279052734375,-0.9946746826171876,0.208282470703125
261836,0.5367279052734375,-0.9946746826171876,0.208282470703125
261837,0.5666351318359375,-1.07244873046875,0.3609466552734375
261838,0.5472869873046875,-1.108779907226562,0.3587493896484375
261839,0.4796142578125,-1.121063232421875,0.31976318359375
261840,0.4387664794921875,-1.134689331054688,0.149383544921875
261841,0.4332733154296875,-1.12603759765625,-0.055755615234375
261842,0.45562744140625,-0.9912872314453124,-0.068115234375
261843,0.5235748291015625,-0.78973388671875,0.0140533447265625
261844,0.5235748291015625,-0.78973388671875,0.0140533447265625
261845,0.6116180419921875,-0.5609130859375,0.2221527099609375
261846,0.650238037109375,-0.5385894775390625,0.2695465087890625
261847,0.6849517822265625,-0.535980224609375,0.2608642578125
261848,0.6849517822265625,-0.535980224609375,0.2608642578125
261849,0.69793701171875,-0.569854736328125,0.1344146728515625
261850,0.659423828125,-0.6019744873046875,0.0828704833984375
261851,0.598388671875,-0.629669189453125,0.045867919921875
261852,0.5427398681640625,-0.67193603515625,-0.008087158203125
261853,0.481048583984375,-0.71832275390625,-0.0543975830078125
261854,0.4450531005859375,-0.7807769775390625,-0.1103363037109375
261855,0.4372100830078125,-0.83221435546875,-0.1126708984375
261856,0.4624481201171875,-0.8937225341796875,-0.1033782958984375
261857,0.4771881103515625,-0.96990966796875,-0.013580322265625
261858,0.485626220703125,-0.9425201416015624,0.0819549560546875
261859,0.472747802734375,-0.9203948974609376,0.020111083984375
261860,0.472747802734375,-0.9203948974609376,0.020111083984375
261861,0.47576904296875,-0.9329071044921876,-0.031005859375
261862,0.480712890625,-1.021514892578125,-0.111114501953125
261863,0.57330322265625,-1.707839965820312,-0.4961395263671875
261864,0.57330322265625,-1.707839965820312,-0.4961395263671875
261865,0.5460357666015625,-0.5351409912109375,0.1355438232421875
261866,0.6260528564453125,-0.9434356689453124,-0.411773681640625
261867,0.6742095947265625,-0.941925048828125,-0.2848358154296875
261868,0.6742095947265625,-0.941925048828125,-0.2848358154296875
261869,0.6974945068359375,-0.8855743408203125,-0.053497314453125
261870,0.7193450927734375,-0.86553955078125,-0.0143585205078125
261871,0.745452880859375,-0.7789764404296875,-0.0578765869140625
261872,0.745452880859375,-0.7789764404296875,-0.0578765869140625
261873,0.567626953125,-0.6474609375,-0.209625244140625
261874,0.5816497802734375,-0.543243408203125,-0.0369415283203125
261875,0.549896240234375,-0.64739990234375,0.213623046875
261876,0.549896240234375,-0.64739990234375,0.213623046875
261877,0.5942230224609375,-0.687652587890625,0.257415771484375
261878,0.6490325927734375,-0.7711944580078125,0.2822113037109375
261879,0.668670654296875,-0.81378173828125,0.3397369384765625
261880,0.668670654296875,-0.81378173828125,0.3397369384765625
261881,0.64349365234375,-0.76580810546875,0.5006103515625
261882,0.627716064453125,-0.7291412353515625,0.602081298828125
261883,0.6104888916015625,-0.713226318359375,0.71630859375
261884,0.6104888916015625,-0.713226318359375,0.71630859375
261885,0.569915771484375,-0.709564208984375,0.8034515380859375
261886,0.552154541015625,-0.7344512939453125,0.802032470703125
261887,0.5923614501953125,-0.6638336181640625,0.68707275390625
261888,0.5923614501953125,-0.6638336181640625,0.68707275390625
261889,0.6309661865234375,-0.62664794921875,0.576690673828125
261890,0.6018829345703125,-0.6670989990234375,0.554473876953125
261891,0.6133270263671875,-0.6918182373046875,0.473846435546875
261892,0.6133270263671875,-0.6918182373046875,0.473846435546875
261893,0.6047821044921875,-0.7882537841796875,0.2037506103515625
261894,0.6014251708984375,-0.825286865234375,0.12139892578125
261895,0.6055145263671875,-0.8846435546875,0.186676025390625
261896,0.6055145263671875,-0.8846435546875,0.186676025390625
261897,0.6043243408203125,-0.953033447265625,0.3530426025390625
261898,0.57196044921875,-0.949310302734375,0.24774169921875
261899,0.503570556640625,-0.962493896484375,0.1687774658203125
261900,0.503570556640625,-0.962493896484375,0.1687774658203125
261901,0.4246673583984375,-0.9162750244140624,0.1405792236328125
261902,0.4077606201171875,-0.8641510009765625,0.136016845703125
261903,0.412353515625,-0.8266448974609375,0.17315673828125
261904,0.446533203125,-0.813873291015625,0.2571868896484375
261905,0.4862213134765625,-0.8057403564453125,0.3502044677734375
261906,0.50323486328125,-0.7776336669921875,0.3882598876953125
261907,0.497222900390625,-0.761138916015625,0.3520660400390625
261908,0.4714813232421875,-0.7853851318359375,0.268096923828125
261909,0.444610595703125,-0.823760986328125,0.1555938720703125
261910,0.4405975341796875,-0.8316650390625,0.0503997802734375
261911,0.4616241455078125,-0.8032379150390625,-0.0229644775390625
261912,0.4616241455078125,-0.8032379150390625,-0.0229644775390625
261913,0.5282135009765625,-0.777099609375,-0.1399383544921875
261914,0.57720947265625,-0.828857421875,-0.1476287841796875
261915,0.6559906005859375,-0.8837127685546875,-0.2077484130859375
