time_idx,accelerometerAccelerationX(G),accelerometerAccelerationY(G),accelerometerAccelerationZ(G)
280000,1.210693359375,-0.0200958251953125,-0.422515869140625
280001,1.210693359375,-0.0200958251953125,-0.422515869140625
280002,1.203277587890625,-0.0326080322265625,-0.46923828125
280003,1.189971923828125,-0.0516510009765625,-0.4946441650390625
280004,1.173202514648438,-0.0790252685546875,-0.5004119873046875
280005,1.150894165039062,-0.1035919189453125,-0.48211669921875
280006,1.115005493164062,-0.132659912109375,-0.469268798828125
280007,1.069183349609375,-0.154296875,-0.457122802734375
280008,1.024795532226562,-0.1752166748046875,-0.454437255859375
280009,0.98370361328125,-0.181732177734375,-0.4245147705078125
280010,0.9431915283203124,-0.183197021484375,-0.377777099609375
280011,0.901153564453125,-0.1962432861328125,-0.3227386474609375
280012,0.82275390625,-0.2454681396484375,-0.2274322509765625
280013,0.82275390625,-0.2454681396484375,-0.2274322509765625
280014,0.791015625,-0.2732086181640625,-0.1936492919921875
280015,0.7740478515625,-0.2848052978515625,-0.1656494140625
280016,0.7777252197265625,-0.280181884765625,-0.1629638671875
280017,0.7955169677734375,-0.2645721435546875,-0.1796722412109375
280018,0.8229217529296875,-0.2405853271484375,-0.1825408935546875
280019,0.856719970703125,-0.2205963134765625,-0.1854248046875
280020,0.8896942138671875,-0.2077789306640625,-0.1961822509765625
280021,0.9162445068359376,-0.1970672607421875,-0.20306396484375
280022,0.930938720703125,-0.180572509765625,-0.1880950927734375
280023,0.93975830078125,-0.1658782958984375,-0.18768310546875
280024,0.9350433349609376,-0.1625823974609375,-0.2286529541015625
280025,0.9185943603515624,-0.148712158203125,-0.2570343017578125
280026,0.900634765625,-0.1356658935546875,-0.29296875
280027,0.883636474609375,-0.1378631591796875,-0.3354339599609375
280028,0.8682098388671875,-0.148284912109375,-0.3887481689453125
280029,0.8549041748046875,-0.1597137451171875,-0.427642822265625
280030,0.850555419921875,-0.1805419921875,-0.4650726318359375
280031,0.855712890625,-0.2039947509765625,-0.512420654296875
280032,0.8620452880859375,-0.23260498046875,-0.563018798828125
280033,0.8756103515625,-0.2582855224609375,-0.6035003662109375
280034,0.8904571533203125,-0.2823028564453125,-0.6348419189453125
280035,0.893585205078125,-0.30328369140625,-0.666351318359375
280036,0.877166748046875,-0.311920166015625,-0.67645263671875
280037,0.8482666015625,-0.311431884765625,-0.670501708984375
280038,0.806610107421875,-0.30352783203125,-0.6573638916015625
280039,0.758392333984375,-0.2894744873046875,-0.6396331787109375
280040,0.6748199462890625,-0.2581634521484375,-0.5829620361328125
280041,0.6748199462890625,-0.2581634521484375,-0.5829620361328125
280042,0.6449127197265625,-0.2427978515625,-0.55419921875
280043,0.622222900390625,-0.22747802734375,-0.5206298828125
280044,0.6145477294921875,-0.2064971923828125,-0.45074462890625
280045,0.6145477294921875,-0.2064971923828125,-0.45074462890625
280046,0.632171630859375,-0.20452880859375,-0.429351806640625
280047,0.66827392578125,-0.21246337890625,-0.4241943359375
280048,0.71905517578125,-0.2239837646484375,-0.4308319091796875
280049,0.77783203125,-0.2359619140625,-0.4440155029296875
280050,0.84271240234375,-0.244293212890625,-0.4618072509765625
280051,0.9279632568359376,-0.251556396484375,-0.4583282470703125
280052,1.0428466796875,-0.2555084228515625,-0.417724609375
280053,1.160598754882812,-0.1974945068359375,-0.3162994384765625
280054,1.22210693359375,-0.0865631103515625,-0.2229156494140625
280055,1.234344482421875,-0.0026397705078125,-0.1731719970703125
280056,1.237884521484375,0.014739990234375,-0.1642913818359375
280057,1.227767944335938,-0.0182342529296875,-0.165863037109375
280058,1.205078125,-0.0412750244140625,-0.1560211181640625
280059,1.197540283203125,-0.052490234375,-0.1594085693359375
280060,1.206222534179688,-0.0629425048828125,-0.157196044921875
280061,1.230819702148438,-0.087432861328125,-0.1572265625
280062,1.260025024414062,-0.1209259033203125,-0.1673583984375
280063,1.272171020507812,-0.14990234375,-0.1731719970703125
280064,1.264053344726562,-0.1795501708984375,-0.1736297607421875
280065,1.24505615234375,-0.2057647705078125,-0.16790771484375
280066,1.200576782226562,-0.210845947265625,-0.1634521484375
280067,1.12548828125,-0.1851043701171875,-0.1905059814453125
280068,1.056442260742188,-0.1530914306640625,-0.256256103515625
280069,1.007980346679688,-0.1411895751953125,-0.3337249755859375
280070,0.9704437255859376,-0.126190185546875,-0.4229736328125
280071,0.9439849853515624,-0.126922607421875,-0.5009613037109375
280072,0.936676025390625,-0.1461029052734375,-0.5535888671875
280073,0.9472503662109376,-0.1656494140625,-0.5733795166015625
280074,0.960784912109375,-0.1732177734375,-0.56719970703125
280075,0.97320556640625,-0.16546630859375,-0.5436248779296875
280076,0.9650726318359376,-0.152740478515625,-0.498382568359375
280077,0.9430694580078124,-0.1346282958984375,-0.4476318359375
280078,0.905670166015625,-0.1215667724609375,-0.395050048828125
280079,0.863922119140625,-0.10479736328125,-0.340667724609375
280080,0.8240966796875,-0.0875244140625,-0.285797119140625
280081,0.8240966796875,-0.0875244140625,-0.285797119140625
280082,0.793121337890625,-0.063812255859375,-0.2401885986328125
280083,0.7963104248046875,-0.0557098388671875,-0.2576141357421875
280084,0.8176727294921875,-0.040740966796875,-0.305816650390625
280085,0.8176727294921875,-0.040740966796875,-0.305816650390625
280086,0.82763671875,-0.0384979248046875,-0.3150634765625
280087,0.8414764404296875,-0.0444488525390625,-0.3081207275390625
280088,0.84844970703125,-0.0518951416015625,-0.296417236328125
280089,0.8531646728515625,-0.0649566650390625,-0.286346435546875
280090,0.8569488525390625,-0.0824432373046875,-0.271453857421875
280091,0.86322021484375,-0.10650634765625,-0.26727294921875
280092,0.868621826171875,-0.159637451171875,-0.302642822265625
280093,0.868621826171875,-0.159637451171875,-0.302642822265625
280094,0.8630828857421875,-0.1917877197265625,-0.3473968505859375
280095,0.85247802734375,-0.2269287109375,-0.3936767578125
280096,0.8442230224609375,-0.2672882080078125,-0.434112548828125
280097,0.8397064208984375,-0.3059234619140625,-0.472015380859375
280098,0.8394622802734375,-0.3358306884765625,-0.5212860107421875
280099,0.8349609375,-0.3492279052734375,-0.5543212890625
280100,0.808319091796875,-0.339019775390625,-0.63372802734375
280101,0.808319091796875,-0.339019775390625,-0.63372802734375
280102,0.8005218505859375,-0.3351287841796875,-0.659210205078125
280103,0.8095855712890625,-0.3498077392578125,-0.6941375732421875
280104,0.830596923828125,-0.3723602294921875,-0.7222900390625
280105,0.8470001220703125,-0.3953399658203125,-0.709716796875
280106,0.8533935546875,-0.4137115478515625,-0.67803955078125
280107,0.8472900390625,-0.4261322021484375,-0.6385650634765625
280108,0.83111572265625,-0.4261932373046875,-0.59332275390625
280109,0.8104705810546875,-0.4096832275390625,-0.537353515625
280110,0.79571533203125,-0.38128662109375,-0.486114501953125
280111,0.79278564453125,-0.345550537109375,-0.444915771484375
280112,0.80072021484375,-0.30804443359375,-0.4111175537109375
280113,0.8238067626953125,-0.2669525146484375,-0.3809051513671875
280114,0.8587799072265625,-0.2182769775390625,-0.351593017578125
280115,0.916046142578125,-0.161163330078125,-0.3055572509765625
280116,1.00018310546875,-0.087615966796875,-0.232818603515625
280117,1.090118408203125,-0.0011749267578125,-0.12750244140625
280118,1.164962768554688,0.080596923828125,-0.0933380126953125
280119,1.1904296875,0.14300537109375,-0.170318603515625
280120,1.10675048828125,0.2070159912109375,-0.3662261962890625
280121,1.10675048828125,0.2070159912109375,-0.3662261962890625
280122,1.0360107421875,0.2050018310546875,-0.4118804931640625
280123,0.976715087890625,0.1744842529296875,-0.366485595703125
280124,0.95849609375,0.0894927978515625,-0.3009796142578125
280125,0.9882659912109376,0.0235137939453125,-0.2315826416015625
280126,1.050674438476562,0.0244598388671875,-0.1430206298828125
280127,1.126144409179688,0.068328857421875,-0.1038055419921875
280128,1.217666625976562,0.1446075439453125,-0.114501953125
280129,1.217666625976562,0.1446075439453125,-0.114501953125
280130,1.2161865234375,0.1625518798828125,-0.1599273681640625
280131,1.1871337890625,0.1651611328125,-0.2320709228515625
280132,1.116729736328125,0.1038055419921875,-0.3683624267578125
280133,1.116729736328125,0.1038055419921875,-0.3683624267578125
280134,1.091690063476562,0.0564422607421875,-0.4189300537109375
280135,1.07830810546875,0.00396728515625,-0.4463958740234375
280136,1.068069458007812,-0.0475616455078125,-0.47589111328125
280137,1.05322265625,-0.0716094970703125,-0.5036163330078125
280138,1.035125732421875,-0.0992584228515625,-0.526824951171875
280139,1.011154174804688,-0.1394805908203125,-0.5273895263671875
280140,0.9760589599609376,-0.180419921875,-0.5055694580078125
280141,0.9760589599609376,-0.180419921875,-0.5055694580078125
280142,0.8823699951171875,-0.2343902587890625,-0.459991455078125
280143,0.8275909423828125,-0.23974609375,-0.4512481689453125
280144,0.7821197509765625,-0.2396240234375,-0.4598541259765625
280145,0.75128173828125,-0.229583740234375,-0.47015380859375
280146,0.7295379638671875,-0.2248077392578125,-0.47784423828125
280147,0.7207183837890625,-0.2271728515625,-0.4793701171875
280148,0.7518310546875,-0.2158355712890625,-0.4214019775390625
280149,0.7518310546875,-0.2158355712890625,-0.4214019775390625
280150,0.7895050048828125,-0.2043609619140625,-0.3804168701171875
280151,0.8359832763671875,-0.186279296875,-0.3399505615234375
280152,0.880828857421875,-0.1693115234375,-0.3031768798828125
280153,0.9205169677734376,-0.1547393798828125,-0.2720794677734375
280154,0.9550018310546876,-0.1387939453125,-0.2519989013671875
280155,0.9862518310546876,-0.1236724853515625,-0.26092529296875
280156,1.01129150390625,-0.11663818359375,-0.31304931640625
280157,1.023483276367188,-0.1180877685546875,-0.3822784423828125
280158,1.020095825195312,-0.133758544921875,-0.44744873046875
280159,1.007904052734375,-0.173370361328125,-0.51690673828125
280160,0.9570159912109376,-0.2519073486328125,-0.6371612548828125
280161,0.9570159912109376,-0.2519073486328125,-0.6371612548828125
280162,0.92791748046875,-0.2752838134765625,-0.671478271484375
280163,0.904388427734375,-0.2890167236328125,-0.6844635009765625
280164,0.880462646484375,-0.2978057861328125,-0.670562744140625
280165,0.8537139892578125,-0.2976837158203125,-0.643829345703125
280166,0.826690673828125,-0.295501708984375,-0.61785888671875
280167,0.803192138671875,-0.2864990234375,-0.58477783203125
280168,0.781005859375,-0.2610626220703125,-0.54833984375
280169,0.7663726806640625,-0.226593017578125,-0.521636962890625
280170,0.7602386474609375,-0.1898651123046875,-0.5059661865234375
280171,0.754058837890625,-0.1580047607421875,-0.4954376220703125
280172,0.745025634765625,-0.133941650390625,-0.4821319580078125
280173,0.731048583984375,-0.1140289306640625,-0.471954345703125
280174,0.717041015625,-0.102142333984375,-0.4680023193359375
280175,0.7044219970703125,-0.098052978515625,-0.4683074951171875
280176,0.6948394775390625,-0.1027069091796875,-0.4715423583984375
280177,0.7046051025390625,-0.123199462890625,-0.5172882080078125
280178,0.7253875732421875,-0.1533660888671875,-0.5624847412109375
280179,0.7373809814453125,-0.17901611328125,-0.518035888671875
280180,0.750885009765625,-0.203643798828125,-0.4510040283203125
280181,0.7800445556640625,-0.2089691162109375,-0.4095916748046875
280182,0.82086181640625,-0.208038330078125,-0.387176513671875
280183,0.8669586181640625,-0.187103271484375,-0.3770751953125
280184,0.9578704833984376,-0.12847900390625,-0.352813720703125
280185,0.9578704833984376,-0.12847900390625,-0.352813720703125
280186,0.9879913330078124,-0.097930908203125,-0.337432861328125
280187,1.00225830078125,-0.072265625,-0.32708740234375
280188,0.997039794921875,-0.056884765625,-0.3331146240234375
280189,0.9743194580078124,-0.0396728515625,-0.348663330078125
280190,0.9440460205078124,-0.034759521484375,-0.3376007080078125
280191,0.9105987548828124,-0.034088134765625,-0.3199462890625
280192,0.895782470703125,-0.0621337890625,-0.2843170166015625
280193,0.895782470703125,-0.0621337890625,-0.2843170166015625
280194,0.932708740234375,-0.087371826171875,-0.26092529296875
280195,1.000656127929688,-0.113525390625,-0.2156524658203125
280196,1.110565185546875,-0.1587982177734375,-0.131561279296875
280197,1.211090087890625,-0.1570892333984375,-0.1168060302734375
280198,1.240921020507812,-0.1201629638671875,-0.2072906494140625
280199,1.236404418945312,-0.141845703125,-0.258514404296875
280200,1.232192993164062,-0.1954803466796875,-0.2754364013671875
280201,1.232192993164062,-0.1954803466796875,-0.2754364013671875
280202,1.153350830078125,-0.1788330078125,-0.38641357421875
280203,1.140396118164062,-0.1772613525390625,-0.4479217529296875
280204,1.14532470703125,-0.2085723876953125,-0.49945068359375
280205,1.154541015625,-0.232635498046875,-0.5385894775390625
280206,1.158660888671875,-0.2507781982421875,-0.578399658203125
280207,1.144256591796875,-0.2777862548828125,-0.6013946533203125
280208,1.117446899414062,-0.30389404296875,-0.5348052978515625
280209,1.07708740234375,-0.311859130859375,-0.4495849609375
280210,1.022293090820312,-0.29876708984375,-0.421539306640625
280211,0.9488372802734376,-0.2698516845703125,-0.395599365234375
280212,0.87310791015625,-0.2267608642578125,-0.3694915771484375
280213,0.80328369140625,-0.193878173828125,-0.3557586669921875
280214,0.7481842041015625,-0.17279052734375,-0.3555755615234375
280215,0.716339111328125,-0.1589813232421875,-0.35723876953125
280216,0.69366455078125,-0.1397705078125,-0.3508453369140625
280217,0.6811981201171875,-0.12164306640625,-0.334686279296875
280218,0.681884765625,-0.096710205078125,-0.3182830810546875
280219,0.69085693359375,-0.059906005859375,-0.3018341064453125
280220,0.713531494140625,-0.02288818359375,-0.283203125
280221,0.752685546875,0.0087432861328125,-0.279388427734375
280222,0.7926788330078125,0.042724609375,-0.275054931640625
280223,0.83258056640625,0.0544281005859375,-0.2566986083984375
280224,0.9157257080078124,0.021697998046875,-0.2990264892578125
280225,0.9157257080078124,0.021697998046875,-0.2990264892578125
280226,0.942962646484375,-0.0247650146484375,-0.3455810546875
280227,0.9560699462890624,-0.10308837890625,-0.3753204345703125
280228,0.954864501953125,-0.1769256591796875,-0.411865234375
280229,0.94854736328125,-0.24127197265625,-0.4420928955078125
280230,0.93902587890625,-0.2831573486328125,-0.4711151123046875
280231,0.938812255859375,-0.3023529052734375,-0.5075225830078125
280232,0.942230224609375,-0.2977752685546875,-0.5110626220703125
280233,0.9454498291015624,-0.2958984375,-0.4781646728515625
280234,0.927734375,-0.279998779296875,-0.445831298828125
280235,0.89105224609375,-0.26068115234375,-0.4540557861328125
280236,0.835113525390625,-0.3061676025390625,-0.5449371337890625
280237,0.835113525390625,-0.3061676025390625,-0.5449371337890625
280238,0.8289642333984375,-0.3421783447265625,-0.5998992919921875
280239,0.8152313232421875,-0.3607940673828125,-0.628753662109375
280240,0.75811767578125,-0.3771209716796875,-0.567718505859375
280241,0.75811767578125,-0.3771209716796875,-0.567718505859375
280242,0.7323760986328125,-0.3750457763671875,-0.5401153564453125
280243,0.720428466796875,-0.3521270751953125,-0.5491943359375
280244,0.7143707275390625,-0.311004638671875,-0.5550689697265625
280245,0.719512939453125,-0.27215576171875,-0.559906005859375
280246,0.7418212890625,-0.2320709228515625,-0.550872802734375
280247,0.773895263671875,-0.16510009765625,-0.5159759521484375
280248,0.807708740234375,-0.1071319580078125,-0.468597412109375
280249,0.870513916015625,-0.0772552490234375,-0.43994140625
280250,0.964080810546875,-0.0287628173828125,-0.4069976806640625
280251,1.081024169921875,0.0420989990234375,-0.385894775390625
280252,1.222885131835938,0.231201171875,-0.2008056640625
280253,1.222885131835938,0.231201171875,-0.2008056640625
280254,1.237640380859375,0.29046630859375,-0.134033203125
280255,1.208206176757812,0.2891845703125,-0.1553802490234375
280256,1.124053955078125,0.1635894775390625,-0.231719970703125
280257,1.024459838867188,0.0200347900390625,-0.317413330078125
280258,0.948272705078125,-0.02630615234375,-0.347412109375
280259,0.905029296875,-0.0523834228515625,-0.3223419189453125
280260,0.8856658935546875,-0.06915283203125,-0.2741546630859375
280261,0.8907318115234375,-0.07623291015625,-0.237518310546875
280262,0.9126739501953124,-0.0540771484375,-0.2178497314453125
280263,0.9423370361328124,-0.0200347900390625,-0.214630126953125
280264,0.9925079345703124,0.0126190185546875,-0.26690673828125
280265,0.9925079345703124,0.0126190185546875,-0.26690673828125
280266,1.002304077148438,0.004730224609375,-0.316497802734375
280267,1.0015869140625,-0.0013885498046875,-0.3737335205078125
280268,1.002853393554688,-0.01214599609375,-0.49237060546875
280269,1.002853393554688,-0.01214599609375,-0.49237060546875
280270,1.006423950195312,-0.02532958984375,-0.552459716796875
280271,1.011322021484375,-0.0461883544921875,-0.6038360595703125
280272,1.005157470703125,-0.09527587890625,-0.675018310546875
280273,1.005157470703125,-0.09527587890625,-0.675018310546875
280274,0.998748779296875,-0.11602783203125,-0.6823883056640625
280275,0.989593505859375,-0.1441802978515625,-0.6793060302734375
280276,0.94110107421875,-0.19146728515625,-0.6643218994140625
280277,0.94110107421875,-0.19146728515625,-0.6643218994140625
280278,0.909912109375,-0.202789306640625,-0.639251708984375
280279,0.8793487548828125,-0.2015380859375,-0.6189727783203125
280280,0.84820556640625,-0.1805267333984375,-0.588897705078125
280281,0.823516845703125,-0.1536407470703125,-0.52880859375
280282,0.825592041015625,-0.131011962890625,-0.45703125
280283,0.8494415283203125,-0.1107330322265625,-0.3879241943359375
280284,0.8915863037109375,-0.0834197998046875,-0.3389739990234375
280285,0.945526123046875,-0.0512542724609375,-0.285980224609375
280286,1.00079345703125,-0.03118896484375,-0.262603759765625
280287,1.035919189453125,-0.006256103515625,-0.2648162841796875
280288,1.04345703125,0.0150299072265625,-0.282958984375
280289,1.036605834960938,0.0198211669921875,-0.32916259765625
280290,1.024749755859375,-0.00189208984375,-0.3742218017578125
280291,1.013092041015625,-0.030426025390625,-0.4128875732421875
280292,0.9853973388671876,-0.0525360107421875,-0.44781494140625
280293,0.9853973388671876,-0.0525360107421875,-0.44781494140625
280294,0.9488525390625,-0.1548614501953125,-0.5041046142578125
280295,0.9342041015625,-0.1971588134765625,-0.4992523193359375
280296,0.9024200439453124,-0.2277679443359375,-0.504547119140625
280297,0.8761749267578125,-0.2415771484375,-0.51568603515625
280298,0.855316162109375,-0.2401275634765625,-0.5192718505859375
280299,0.836578369140625,-0.233612060546875,-0.5130615234375
280300,0.809112548828125,-0.2144317626953125,-0.50054931640625
280301,0.809112548828125,-0.2144317626953125,-0.50054931640625
280302,0.795196533203125,-0.207550048828125,-0.4954681396484375
280303,0.7754058837890625,-0.19415283203125,-0.48626708984375
280304,0.740570068359375,-0.1734161376953125,-0.48687744140625
280305,0.740570068359375,-0.1734161376953125,-0.48687744140625
280306,0.72637939453125,-0.1622314453125,-0.493194580078125
280307,0.7067108154296875,-0.1473236083984375,-0.4966278076171875
280308,0.6914825439453125,-0.1505889892578125,-0.50982666015625
280309,0.6856231689453125,-0.17266845703125,-0.5357666015625
280310,0.6830596923828125,-0.2010955810546875,-0.5720062255859375
280311,0.6912689208984375,-0.227935791015625,-0.6197662353515625
280312,0.727294921875,-0.2590484619140625,-0.6367645263671875
280313,0.727294921875,-0.2590484619140625,-0.6367645263671875
280314,0.7400665283203125,-0.2389373779296875,-0.5661773681640625
280315,0.7626190185546875,-0.214935302734375,-0.5203704833984375
280316,0.7880096435546875,-0.17529296875,-0.4953460693359375
280317,0.820037841796875,-0.128204345703125,-0.4804534912109375
280318,0.860687255859375,-0.0902862548828125,-0.4658966064453125
280319,0.906707763671875,-0.0629730224609375,-0.4580841064453125
280320,0.94915771484375,-0.0418853759765625,-0.445892333984375
280321,0.9788665771484376,-0.0255889892578125,-0.43487548828125
280322,0.993927001953125,-0.0176239013671875,-0.4149932861328125
280323,0.989837646484375,-0.0171051025390625,-0.39129638671875
280324,0.960906982421875,-0.02099609375,-0.352569580078125
280325,0.9236297607421876,-0.0517425537109375,-0.324859619140625
280326,0.897735595703125,-0.0997161865234375,-0.2837677001953125
280327,0.8810272216796875,-0.1409454345703125,-0.2502288818359375
280328,0.880279541015625,-0.16729736328125,-0.2256011962890625
280329,0.895904541015625,-0.15673828125,-0.22235107421875
280330,0.928558349609375,-0.1128692626953125,-0.24127197265625
280331,0.9679107666015624,-0.060760498046875,-0.283233642578125
280332,1.054107666015625,-0.0622100830078125,-0.3654632568359375
280333,1.054107666015625,-0.0622100830078125,-0.3654632568359375
280334,1.091033935546875,-0.0777587890625,-0.415069580078125
280335,1.122390747070312,-0.0992584228515625,-0.4662017822265625
280336,1.1514892578125,-0.1250152587890625,-0.5093231201171875
280337,1.19293212890625,-0.1782684326171875,-0.493316650390625
280338,1.227859497070312,-0.2364654541015625,-0.46038818359375
280339,1.238983154296875,-0.2652587890625,-0.48089599609375
280340,1.230331420898438,-0.2874603271484375,-0.52423095703125
280341,1.230331420898438,-0.2874603271484375,-0.52423095703125
280342,1.168182373046875,-0.31329345703125,-0.5504150390625
280343,1.13214111328125,-0.3179473876953125,-0.5712127685546875
280344,1.079879760742188,-0.3296661376953125,-0.5487213134765625
280345,1.007797241210938,-0.32421875,-0.4613037109375
280346,0.9373931884765624,-0.303314208984375,-0.3876800537109375
280347,0.86993408203125,-0.2744293212890625,-0.342315673828125
280348,0.8041534423828125,-0.2433624267578125,-0.3074188232421875
280349,0.7495269775390625,-0.212371826171875,-0.3080291748046875
280350,0.6994476318359375,-0.1811065673828125,-0.307342529296875
280351,0.662200927734375,-0.15740966796875,-0.3026123046875
280352,0.6356353759765625,-0.1366424560546875,-0.3016510009765625
280353,0.618865966796875,-0.118896484375,-0.2983245849609375
280354,0.6149444580078125,-0.0978851318359375,-0.294097900390625
280355,0.6194000244140625,-0.0709075927734375,-0.2816009521484375
280356,0.67401123046875,-0.0311431884765625,-0.2653656005859375
280357,0.67401123046875,-0.0311431884765625,-0.2653656005859375
280358,0.718048095703125,-0.0155792236328125,-0.2619171142578125
280359,0.76885986328125,-0.00787353515625,-0.269500732421875
280360,0.868194580078125,-0.007659912109375,-0.3217010498046875
280361,0.868194580078125,-0.007659912109375,-0.3217010498046875
280362,0.9115753173828124,-0.0207977294921875,-0.368377685546875
280363,0.955352783203125,-0.0485687255859375,-0.424652099609375
280364,0.9936676025390624,-0.0929718017578125,-0.4735870361328125
280365,1.0196533203125,-0.1514739990234375,-0.5165252685546875
280366,1.0262451171875,-0.2171630859375,-0.5746612548828125
280367,1.008407592773438,-0.2713470458984375,-0.6339569091796875
280368,0.9643707275390624,-0.29913330078125,-0.6689453125
280369,0.9101715087890624,-0.3041229248046875,-0.67022705078125
280370,0.850494384765625,-0.297393798828125,-0.6508026123046875
280371,0.795135498046875,-0.288238525390625,-0.6133575439453125
280372,0.7514801025390625,-0.2795257568359375,-0.5662689208984375
280373,0.7247161865234375,-0.273223876953125,-0.5204010009765625
280374,0.714935302734375,-0.2806549072265625,-0.477935791015625
280375,0.7130279541015625,-0.29522705078125,-0.4316558837890625
280376,0.7132110595703125,-0.308746337890625,-0.3881072998046875
280377,0.71112060546875,-0.3156890869140625,-0.36260986328125
280378,0.7108001708984375,-0.3207550048828125,-0.363006591796875
280379,0.7171173095703125,-0.3231964111328125,-0.381500244140625
280380,0.73077392578125,-0.319183349609375,-0.4056396484375
280381,0.7551116943359375,-0.3171844482421875,-0.4592742919921875
280382,0.788330078125,-0.312774658203125,-0.5296630859375
280383,0.81414794921875,-0.27947998046875,-0.56610107421875
280384,0.842041015625,-0.233001708984375,-0.5808258056640625
280385,0.8775634765625,-0.1641998291015625,-0.5818939208984375
280386,0.91925048828125,-0.0690460205078125,-0.58099365234375
280387,0.97900390625,0.035552978515625,-0.5535125732421875
280388,1.096664428710938,0.1865692138671875,-0.492523193359375
280389,1.096664428710938,0.1865692138671875,-0.492523193359375
280390,1.126907348632812,0.1977386474609375,-0.4632568359375
280391,1.117156982421875,0.1446990966796875,-0.468597412109375
280392,1.045059204101562,0.045684814453125,-0.4952545166015625
280393,0.954833984375,-0.0165252685546875,-0.4930877685546875
280394,0.9001617431640625,-0.0564727783203125,-0.4706573486328125
280395,0.887969970703125,-0.0971832275390625,-0.4376983642578125
280396,0.9043731689453124,-0.1307525634765625,-0.385223388671875
280397,0.9290771484375,-0.1480712890625,-0.3593292236328125
280398,0.96234130859375,-0.149688720703125,-0.3584747314453125
280399,0.994110107421875,-0.139404296875,-0.365325927734375
280400,1.026397705078125,-0.1215057373046875,-0.373382568359375
280401,1.063125610351562,-0.09326171875,-0.3881378173828125
280402,1.095993041992188,-0.05340576171875,-0.4256439208984375
280403,1.117904663085938,-0.0162200927734375,-0.4746856689453125
280404,1.118209838867188,0.0339202880859375,-0.5945281982421875
280405,1.118209838867188,0.0339202880859375,-0.5945281982421875
280406,1.090408325195312,0.041961669921875,-0.6629180908203125
280407,1.067901611328125,0.02984619140625,-0.6978759765625
280408,1.065292358398438,0.0141448974609375,-0.7005615234375
280409,1.079849243164062,-0.0239105224609375,-0.67279052734375
280410,1.08184814453125,-0.0696563720703125,-0.6236114501953125
280411,1.052932739257812,-0.1137542724609375,-0.5829925537109375
280412,1.011611938476562,-0.1670379638671875,-0.5467681884765625
280413,1.011611938476562,-0.1670379638671875,-0.5467681884765625
280414,0.9029388427734376,-0.236663818359375,-0.4806671142578125
280415,0.84893798828125,-0.25421142578125,-0.4662322998046875
280416,0.8014678955078125,-0.2492828369140625,-0.450958251953125
280417,0.7664031982421875,-0.24053955078125,-0.44110107421875
280418,0.7472991943359375,-0.2268829345703125,-0.4490814208984375
280419,0.74005126953125,-0.201873779296875,-0.4493408203125
280420,0.7385406494140625,-0.178741455078125,-0.436920166015625
280421,0.7422332763671875,-0.1485443115234375,-0.421966552734375
280422,0.7559356689453125,-0.11700439453125,-0.3856964111328125
280423,0.7832794189453125,-0.09063720703125,-0.3345489501953125
280424,0.8306427001953125,-0.0703125,-0.2982177734375
280425,0.886627197265625,-0.0544586181640625,-0.258941650390625
280426,0.9435882568359376,-0.027252197265625,-0.212615966796875
280427,0.98846435546875,-3.0517578125e-05,-0.1768798828125
280428,1.011871337890625,0.023834228515625,-0.17987060546875
280429,1.006668090820312,0.045257568359375,-0.224212646484375
280430,0.98382568359375,0.058135986328125,-0.2830352783203125
280431,0.957122802734375,0.05718994140625,-0.3425750732421875
280432,0.9333953857421876,0.043243408203125,-0.3842010498046875
280433,0.90850830078125,0.0116729736328125,-0.432373046875
280434,0.887542724609375,-0.03448486328125,-0.472808837890625
280435,0.8693695068359375,-0.0906219482421875,-0.49884033203125
280436,0.847076416015625,-0.1426544189453125,-0.524871826171875
280437,0.8231353759765625,-0.1819915771484375,-0.54571533203125
280438,0.804168701171875,-0.2247314453125,-0.5565032958984375
280439,0.7894439697265625,-0.2640838623046875,-0.55224609375
280440,0.774017333984375,-0.2959442138671875,-0.5322113037109375
280441,0.7597503662109375,-0.320098876953125,-0.504974365234375
280442,0.7471771240234375,-0.337066650390625,-0.48406982421875
280443,0.73199462890625,-0.3460845947265625,-0.4709320068359375
280444,0.721435546875,-0.3525390625,-0.473480224609375
280445,0.7186126708984375,-0.3575897216796875,-0.4907073974609375
280446,0.7240447998046875,-0.3554229736328125,-0.516632080078125
280447,0.7323760986328125,-0.350311279296875,-0.5491485595703125
280448,0.7416534423828125,-0.3380126953125,-0.5794830322265625
280449,0.7496490478515625,-0.315887451171875,-0.6049346923828125
280450,0.7540740966796875,-0.284576416015625,-0.6192169189453125
280451,0.763153076171875,-0.24658203125,-0.6226043701171875
280452,0.805999755859375,-0.1694488525390625,-0.5894775390625
280453,0.805999755859375,-0.1694488525390625,-0.5894775390625
280454,0.8544921875,-0.1600494384765625,-0.589630126953125
280455,0.9056243896484376,-0.1637115478515625,-0.5740966796875
280456,0.94061279296875,-0.1381072998046875,-0.52606201171875
280457,0.9607391357421876,-0.0958709716796875,-0.480133056640625
280458,0.9756622314453124,-0.044464111328125,-0.433319091796875
280459,0.9923858642578124,-0.0011444091796875,-0.3823699951171875
280460,1.017318725585938,0.00555419921875,-0.3432769775390625
280461,1.017318725585938,0.00555419921875,-0.3432769775390625
280462,1.053192138671875,-0.0140533447265625,-0.3246612548828125
280463,1.037307739257812,-0.0315093994140625,-0.3466796875
280464,0.99151611328125,-0.0530853271484375,-0.368133544921875
280465,0.938262939453125,-0.0810699462890625,-0.368316650390625
280466,0.884918212890625,-0.1010284423828125,-0.362823486328125
280467,0.8528900146484375,-0.112152099609375,-0.34649658203125
280468,0.8488006591796875,-0.1053466796875,-0.31951904296875
280469,0.871063232421875,-0.070831298828125,-0.294097900390625
280470,0.9222869873046876,-0.0298004150390625,-0.2652130126953125
280471,0.9970245361328124,0.002044677734375,-0.2432403564453125
280472,1.075546264648438,0.028106689453125,-0.239410400390625
280473,1.151123046875,0.0411224365234375,-0.24859619140625
280474,1.212203979492188,0.05023193359375,-0.296295166015625
280475,1.243392944335938,0.05126953125,-0.35260009765625
280476,1.251693725585938,0.0381011962890625,-0.405120849609375
280477,1.240158081054688,-0.0006103515625,-0.4471588134765625
280478,1.218414306640625,-0.062469482421875,-0.4676666259765625
280479,1.200363159179688,-0.1339874267578125,-0.457061767578125
280480,1.183746337890625,-0.181121826171875,-0.4481964111328125
280481,1.159164428710938,-0.1982421875,-0.4594879150390625
280482,1.143844604492188,-0.2255706787109375,-0.4647979736328125
280483,1.1207275390625,-0.260406494140625,-0.465667724609375
280484,1.078598022460938,-0.2918853759765625,-0.45562744140625
280485,1.016769409179688,-0.3016815185546875,-0.4279632568359375
280486,0.945526123046875,-0.2892303466796875,-0.377410888671875
280487,0.8670654296875,-0.2604827880859375,-0.3271636962890625
280488,0.79473876953125,-0.2288055419921875,-0.30242919921875
280489,0.7316436767578125,-0.19720458984375,-0.3026885986328125
280490,0.6769866943359375,-0.1691131591796875,-0.3029632568359375
280491,0.63726806640625,-0.14447021484375,-0.310882568359375
280492,0.6086883544921875,-0.1266937255859375,-0.3169403076171875
280493,0.6086883544921875,-0.1266937255859375,-0.3169403076171875
280494,0.5861053466796875,-0.10968017578125,-0.32379150390625
280495,0.5962677001953125,-0.0965728759765625,-0.3300628662109375
280496,0.62353515625,-0.0780029296875,-0.3412017822265625
280497,0.665496826171875,-0.046783447265625,-0.3514404296875
280498,0.725921630859375,-0.0182647705078125,-0.36199951171875
280499,0.7942047119140625,0.00146484375,-0.3664398193359375
280500,0.8608856201171875,0.011962890625,-0.3634796142578125
280501,0.920928955078125,0.0173492431640625,-0.36932373046875
280502,0.97589111328125,0.0138702392578125,-0.3767242431640625
280503,1.024917602539062,-0.001617431640625,-0.3792266845703125
280504,1.069854736328125,-0.0256500244140625,-0.383575439453125
280505,1.069854736328125,-0.0256500244140625,-0.383575439453125
280506,1.115890502929688,-0.0853118896484375,-0.387847900390625
280507,1.11712646484375,-0.12078857421875,-0.3987884521484375
280508,1.095550537109375,-0.1615142822265625,-0.41107177734375
280509,1.056747436523438,-0.1966400146484375,-0.42230224609375
280510,1.006607055664062,-0.2239532470703125,-0.4356842041015625
280511,0.950958251953125,-0.235260009765625,-0.4459381103515625
280512,0.901580810546875,-0.2452392578125,-0.452239990234375
280513,0.861419677734375,-0.247955322265625,-0.454132080078125
280514,0.8306427001953125,-0.2501983642578125,-0.446044921875
280515,0.8058319091796875,-0.2593231201171875,-0.437774658203125
280516,0.788238525390625,-0.2672882080078125,-0.42376708984375
280517,0.773040771484375,-0.27252197265625,-0.39739990234375
280518,0.76080322265625,-0.27606201171875,-0.3570709228515625
280519,0.7516937255859375,-0.2711639404296875,-0.315399169921875
280520,0.7438507080078125,-0.2544403076171875,-0.2797393798828125
280521,0.7374725341796875,-0.227874755859375,-0.263885498046875
280522,0.73492431640625,-0.1883087158203125,-0.2692108154296875
280523,0.7352752685546875,-0.1551055908203125,-0.2961578369140625
280524,0.7386016845703125,-0.1380615234375,-0.3288116455078125
280525,0.7484893798828125,-0.142242431640625,-0.35626220703125
280526,0.76898193359375,-0.157501220703125,-0.380126953125
280527,0.7965850830078125,-0.1725616455078125,-0.396881103515625
280528,0.829437255859375,-0.18475341796875,-0.411865234375
280529,0.8660125732421875,-0.19189453125,-0.42376708984375
280530,0.955108642578125,-0.181793212890625,-0.4231719970703125
280531,0.955108642578125,-0.181793212890625,-0.4231719970703125
280532,0.9964447021484376,-0.16448974609375,-0.41754150390625
280533,1.029281616210938,-0.1409759521484375,-0.4171905517578125
280534,1.049041748046875,-0.1192474365234375,-0.425323486328125
280535,1.060958862304688,-0.0975494384765625,-0.4452972412109375
280536,1.063995361328125,-0.0821380615234375,-0.4600677490234375
280537,1.058395385742188,-0.0717926025390625,-0.4667205810546875
280538,1.045486450195312,-0.06756591796875,-0.4605712890625
280539,1.022430419921875,-0.0770416259765625,-0.44464111328125
280540,0.9976806640625,-0.091461181640625,-0.4329681396484375
280541,0.9810943603515624,-0.094329833984375,-0.41351318359375
280542,0.966888427734375,-0.084442138671875,-0.3765716552734375
280543,0.9599456787109376,-0.0672760009765625,-0.340057373046875
280544,0.959442138671875,-0.0437774658203125,-0.3076019287109375
280545,0.970245361328125,-0.015777587890625,-0.290008544921875
280546,0.9911346435546876,0.018585205078125,-0.2955169677734375
280547,1.019577026367188,0.058319091796875,-0.3043975830078125
280548,1.04803466796875,0.0955810546875,-0.325958251953125
280549,1.074874877929688,0.13543701171875,-0.33209228515625
280550,1.09619140625,0.165191650390625,-0.3391265869140625
280551,1.1044921875,0.18634033203125,-0.3670501708984375
280552,1.100387573242188,0.1875457763671875,-0.4145965576171875
280553,1.08837890625,0.1584625244140625,-0.4533233642578125
280554,1.073318481445312,0.100250244140625,-0.4598236083984375
280555,1.0567626953125,0.0231781005859375,-0.4619598388671875
280556,1.03656005859375,-0.045379638671875,-0.4724884033203125
280557,1.00665283203125,-0.0992889404296875,-0.476593017578125
280558,0.9712982177734376,-0.1460113525390625,-0.4732513427734375
280559,0.933868408203125,-0.1793212890625,-0.4678192138671875
280560,0.9000244140625,-0.19635009765625,-0.4594573974609375
280561,0.8744964599609375,-0.2126922607421875,-0.4587554931640625
280562,0.85394287109375,-0.2251129150390625,-0.4499664306640625
280563,0.836761474609375,-0.220489501953125,-0.442291259765625
280564,0.8280181884765625,-0.1982421875,-0.4362945556640625
280565,0.8308868408203125,-0.17303466796875,-0.428558349609375
280566,0.846221923828125,-0.1518096923828125,-0.406158447265625
280567,0.8714447021484375,-0.1309967041015625,-0.3780670166015625
280568,0.89581298828125,-0.1110992431640625,-0.3367767333984375
280569,0.9175872802734376,-0.0948028564453125,-0.2881927490234375
280570,0.9428863525390624,-0.0902862548828125,-0.2462921142578125
280571,0.9742584228515624,-0.0898895263671875,-0.2226715087890625
280572,0.9951324462890624,-0.078765869140625,-0.201873779296875
280573,1.00457763671875,-0.0549468994140625,-0.2030029296875
280574,1.007354736328125,-0.0252227783203125,-0.21649169921875
280575,1.005599975585938,-0.007904052734375,-0.22705078125
280576,0.9984893798828124,0.0029296875,-0.235443115234375
280577,0.9901885986328124,0.012847900390625,-0.2431793212890625
280578,0.982696533203125,0.0125579833984375,-0.2511749267578125
280579,0.97723388671875,0.004913330078125,-0.261474609375
280580,0.9649505615234376,-0.02862548828125,-0.375396728515625
280581,0.9649505615234376,-0.02862548828125,-0.375396728515625
280582,0.9553070068359376,-0.0567169189453125,-0.4404296875
280583,0.946868896484375,-0.0901336669921875,-0.487701416015625
280584,0.934417724609375,-0.1221771240234375,-0.5211334228515625
280585,0.924041748046875,-0.1519622802734375,-0.5360107421875
280586,0.9150238037109376,-0.180419921875,-0.5269927978515625
280587,0.91143798828125,-0.2126312255859375,-0.4974822998046875
280588,0.90789794921875,-0.241058349609375,-0.452392578125
280589,0.9006805419921875,-0.2577972412109375,-0.42132568359375
280590,0.88031005859375,-0.265594482421875,-0.4081268310546875
280591,0.84185791015625,-0.2554931640625,-0.4123382568359375
280592,0.7464141845703125,-0.20269775390625,-0.4283905029296875
280593,0.7464141845703125,-0.20269775390625,-0.4283905029296875
280594,0.7010040283203125,-0.17279052734375,-0.4307098388671875
280595,0.6659393310546875,-0.14678955078125,-0.4249114990234375
280596,0.646087646484375,-0.121490478515625,-0.420074462890625
280597,0.6433868408203125,-0.102783203125,-0.4257965087890625
280598,0.65960693359375,-0.093658447265625,-0.451385498046875
280599,0.68695068359375,-0.0863189697265625,-0.479095458984375
280600,0.7210235595703125,-0.0797119140625,-0.4993896484375
280601,0.757476806640625,-0.077178955078125,-0.51861572265625
280602,0.792327880859375,-0.0771026611328125,-0.53582763671875
280603,0.821929931640625,-0.08251953125,-0.55084228515625
280604,0.8661651611328125,-0.115142822265625,-0.57257080078125
280605,0.92535400390625,-0.1644134521484375,-0.58837890625
280606,0.9665374755859376,-0.1887054443359375,-0.56915283203125
280607,0.995635986328125,-0.19927978515625,-0.5594940185546875
280608,1.012741088867188,-0.193939208984375,-0.561492919921875
280609,1.029510498046875,-0.1780548095703125,-0.5638580322265625
280610,1.044540405273438,-0.164886474609375,-0.557952880859375
280611,1.054641723632812,-0.1470184326171875,-0.54449462890625
280612,1.058792114257812,-0.1309051513671875,-0.5355224609375
280613,1.055099487304688,-0.13861083984375,-0.5092010498046875
280614,1.035720825195312,-0.157684326171875,-0.483978271484375
280615,0.998199462890625,-0.1490020751953125,-0.4714508056640625
280616,0.9523162841796876,-0.14813232421875,-0.4427642822265625
280617,0.906005859375,-0.1535186767578125,-0.415863037109375
280618,0.8665008544921875,-0.1560516357421875,-0.3994903564453125
280619,0.84088134765625,-0.1369476318359375,-0.375518798828125
280620,0.8345947265625,-0.0940704345703125,-0.3399200439453125
280621,0.854217529296875,-0.027008056640625,-0.311859130859375
280622,0.89263916015625,0.0301361083984375,-0.28997802734375
280623,0.9344940185546876,0.06390380859375,-0.2820892333984375
280624,0.9782562255859376,0.08160400390625,-0.29925537109375
280625,1.014205932617188,0.0731658935546875,-0.329315185546875
280626,1.036453247070312,0.0556793212890625,-0.3704833984375
280627,1.048965454101562,0.039794921875,-0.4105224609375
280628,1.060134887695312,0.013824462890625,-0.43865966796875
280629,1.062576293945312,-0.022674560546875,-0.4643402099609375
280630,1.05169677734375,-0.066497802734375,-0.4736480712890625
280631,1.040512084960938,-0.117828369140625,-0.47613525390625
280632,1.030838012695312,-0.16717529296875,-0.4841156005859375
280633,1.011962890625,-0.2081451416015625,-0.488525390625
280634,0.9869537353515624,-0.235504150390625,-0.4930572509765625
280635,0.9656219482421876,-0.2512664794921875,-0.4874267578125
280636,0.94464111328125,-0.2646331787109375,-0.467315673828125
280637,0.9203338623046876,-0.27227783203125,-0.4419097900390625
280638,0.883514404296875,-0.271636962890625,-0.396881103515625
280639,0.84027099609375,-0.26129150390625,-0.3645782470703125
280640,0.7618865966796875,-0.2335662841796875,-0.351898193359375
280641,0.7618865966796875,-0.2335662841796875,-0.351898193359375
280642,0.7376708984375,-0.223876953125,-0.3533935546875
280643,0.722137451171875,-0.2133941650390625,-0.36297607421875
280644,0.715667724609375,-0.2021331787109375,-0.38177490234375
280645,0.7161407470703125,-0.185760498046875,-0.40478515625
280646,0.721466064453125,-0.154998779296875,-0.4327392578125
280647,0.7314910888671875,-0.1255035400390625,-0.46044921875
280648,0.75299072265625,-0.0998992919921875,-0.4821929931640625
280649,0.78265380859375,-0.087310791015625,-0.4996185302734375
280650,0.820465087890625,-0.0915374755859375,-0.513916015625
280651,0.86846923828125,-0.11102294921875,-0.5196075439453125
280652,0.923980712890625,-0.1433258056640625,-0.5271759033203125
280653,0.9735260009765624,-0.1833038330078125,-0.5436248779296875
280654,1.017364501953125,-0.220672607421875,-0.5638275146484375
280655,1.04962158203125,-0.2510528564453125,-0.57562255859375
280656,1.069137573242188,-0.2649688720703125,-0.5853118896484375
280657,1.072555541992188,-0.2505340576171875,-0.575103759765625
280658,1.066192626953125,-0.223175048828125,-0.5412445068359375
280659,1.05987548828125,-0.194610595703125,-0.482147216796875
280660,1.015914916992188,-0.185272216796875,-0.3860931396484375
280661,1.015914916992188,-0.185272216796875,-0.3860931396484375
280662,0.975433349609375,-0.1962890625,-0.36456298828125
280663,0.9330596923828124,-0.202484130859375,-0.3808135986328125
280664,0.8984375,-0.208465576171875,-0.419342041015625
280665,0.8709716796875,-0.2147064208984375,-0.4332122802734375
280666,0.8543243408203125,-0.219268798828125,-0.425018310546875
280667,0.850616455078125,-0.2139129638671875,-0.4137420654296875
280668,0.8475189208984375,-0.2023162841796875,-0.3843841552734375
280669,0.83294677734375,-0.17742919921875,-0.3487396240234375
280670,0.8099822998046875,-0.13812255859375,-0.3315582275390625
280671,0.7859649658203125,-0.0961456298828125,-0.3280487060546875
280672,0.7702484130859375,-0.063323974609375,-0.3444061279296875
280673,0.7626190185546875,-0.051544189453125,-0.35797119140625
280674,0.757110595703125,-0.0600433349609375,-0.3547821044921875
280675,0.7503662109375,-0.0771026611328125,-0.3441925048828125
280676,0.7409820556640625,-0.0985260009765625,-0.334503173828125
280677,0.729156494140625,-0.1153411865234375,-0.3260040283203125
280678,0.715362548828125,-0.132080078125,-0.3209381103515625
280679,0.7055511474609375,-0.1529693603515625,-0.32525634765625
280680,0.70098876953125,-0.1735687255859375,-0.3368988037109375
280681,0.704071044921875,-0.1968994140625,-0.3511199951171875
280682,0.7133331298828125,-0.21929931640625,-0.3651123046875
280683,0.7216339111328125,-0.242584228515625,-0.382720947265625
280684,0.7335205078125,-0.2659912109375,-0.3967437744140625
280685,0.74652099609375,-0.28106689453125,-0.4147796630859375
280686,0.7618865966796875,-0.287994384765625,-0.434844970703125
280687,0.77490234375,-0.28521728515625,-0.445648193359375
280688,0.783660888671875,-0.264923095703125,-0.44677734375
280689,0.7923583984375,-0.22491455078125,-0.4305419921875
280690,0.8084259033203125,-0.184417724609375,-0.401611328125
280691,0.8332977294921875,-0.1579437255859375,-0.3804779052734375
280692,0.8692626953125,-0.1472320556640625,-0.365386962890625
280693,0.9110107421875,-0.145233154296875,-0.3542022705078125
280694,0.950286865234375,-0.1526336669921875,-0.34320068359375
280695,0.9849700927734376,-0.1692657470703125,-0.3452911376953125
280696,1.010360717773438,-0.1903076171875,-0.3760223388671875
280697,1.022720336914062,-0.2171630859375,-0.435577392578125
280698,1.019271850585938,-0.2368621826171875,-0.49169921875
280699,1.009201049804688,-0.2518157958984375,-0.5318603515625
280700,1.002685546875,-0.26531982421875,-0.554443359375
280701,0.999847412109375,-0.279541015625,-0.5633087158203125
280702,1.007919311523438,-0.287506103515625,-0.55804443359375
280703,1.024139404296875,-0.2816925048828125,-0.53875732421875
280704,1.052413940429688,-0.2614593505859375,-0.498565673828125
280705,1.093841552734375,-0.2276763916015625,-0.4483642578125
280706,1.130691528320312,-0.19415283203125,-0.4162750244140625
280707,1.162567138671875,-0.1554718017578125,-0.406890869140625
280708,1.18060302734375,-0.1157073974609375,-0.4092559814453125
280709,1.177581787109375,-0.067901611328125,-0.4302520751953125
280710,1.15924072265625,-0.0312957763671875,-0.44354248046875
280711,1.134918212890625,-0.0089263916015625,-0.4626007080078125
280712,1.10748291015625,0.0031280517578125,-0.4864044189453125
280713,1.079376220703125,0.012542724609375,-0.4934234619140625
280714,1.050750732421875,0.003570556640625,-0.49237060546875
280715,1.022384643554688,-0.020050048828125,-0.4811859130859375
280716,0.99407958984375,-0.0517730712890625,-0.45196533203125
280717,0.969451904296875,-0.0838775634765625,-0.4073638916015625
280718,0.947296142578125,-0.112396240234375,-0.3661346435546875
280719,0.9193878173828124,-0.1370391845703125,-0.33758544921875
280720,0.8844757080078125,-0.156158447265625,-0.31903076171875
280721,0.8459014892578125,-0.1697998046875,-0.3090667724609375
280722,0.8082733154296875,-0.17694091796875,-0.29730224609375
280723,0.774261474609375,-0.1791534423828125,-0.287445068359375
280724,0.7457427978515625,-0.179534912109375,-0.281402587890625
280725,0.7259979248046875,-0.17498779296875,-0.277740478515625
280726,0.7166748046875,-0.1774749755859375,-0.27520751953125
280727,0.71710205078125,-0.182830810546875,-0.2721099853515625
280728,0.7203826904296875,-0.1872711181640625,-0.279541015625
280729,0.722808837890625,-0.1815185546875,-0.27960205078125
280730,0.7284698486328125,-0.1820220947265625,-0.2825775146484375
280731,0.7368621826171875,-0.18780517578125,-0.2874298095703125
280732,0.74853515625,-0.1954193115234375,-0.29327392578125
280733,0.7639617919921875,-0.198333740234375,-0.2991790771484375
280734,0.7807769775390625,-0.1983795166015625,-0.30389404296875
280735,0.8023223876953125,-0.19683837890625,-0.3025970458984375
280736,0.82794189453125,-0.1917572021484375,-0.30340576171875
280737,0.856048583984375,-0.1846466064453125,-0.3096771240234375
280738,0.8878936767578125,-0.1748809814453125,-0.322479248046875
280739,0.92095947265625,-0.167755126953125,-0.3303070068359375
280740,0.9556427001953124,-0.1589813232421875,-0.3364715576171875
280741,0.984649658203125,-0.1523590087890625,-0.3519287109375
280742,1.001251220703125,-0.1485748291015625,-0.375885009765625
280743,1.011749267578125,-0.15386962890625,-0.4036712646484375
280744,1.017059326171875,-0.1688690185546875,-0.4396514892578125
280745,1.020950317382812,-0.18963623046875,-0.479583740234375
280746,1.026153564453125,-0.2107696533203125,-0.52288818359375
280747,1.032241821289062,-0.2341156005859375,-0.566558837890625
280748,1.038482666015625,-0.2532501220703125,-0.589630126953125
280749,1.0433349609375,-0.2591552734375,-0.5946197509765625
280750,1.04486083984375,-0.2540435791015625,-0.5758056640625
280751,1.038619995117188,-0.2376861572265625,-0.5464324951171875
280752,1.030410766601562,-0.211700439453125,-0.500518798828125
280753,1.027984619140625,-0.1928863525390625,-0.4500579833984375
280754,1.025100708007812,-0.1883087158203125,-0.409637451171875
280755,1.017333984375,-0.1877899169921875,-0.3839263916015625
280756,0.9998779296875,-0.18463134765625,-0.3690032958984375
280757,0.975738525390625,-0.1799468994140625,-0.371734619140625
280758,0.9508514404296876,-0.1749420166015625,-0.377197265625
280759,0.9284515380859376,-0.1702117919921875,-0.38665771484375
280760,0.9129180908203124,-0.16693115234375,-0.3932952880859375
280761,0.9129180908203124,-0.16693115234375,-0.3932952880859375
280762,0.8915557861328125,-0.161590576171875,-0.388153076171875
280763,0.8780670166015625,-0.153289794921875,-0.3851165771484375
280764,0.862091064453125,-0.1390380859375,-0.37744140625
280765,0.8446197509765625,-0.123748779296875,-0.3593597412109375
280766,0.8260955810546875,-0.113616943359375,-0.337158203125
280767,0.8025054931640625,-0.10614013671875,-0.3098602294921875
280768,0.7766265869140625,-0.0960540771484375,-0.2816162109375
280769,0.7475738525390625,-0.08685302734375,-0.256927490234375
280770,0.72271728515625,-0.0806427001953125,-0.2388916015625
280771,0.7100830078125,-0.0769500732421875,-0.231536865234375
280772,0.706787109375,-0.081451416015625,-0.2434539794921875
280773,0.7112579345703125,-0.0915069580078125,-0.273468017578125
280774,0.724334716796875,-0.1060638427734375,-0.3179473876953125
280775,0.74072265625,-0.12615966796875,-0.3670654296875
280776,0.7528533935546875,-0.142547607421875,-0.423736572265625
280777,0.765777587890625,-0.16156005859375,-0.4768218994140625
280778,0.779632568359375,-0.18560791015625,-0.5273895263671875
280779,0.80316162109375,-0.2080230712890625,-0.581207275390625
280780,0.83966064453125,-0.2234344482421875,-0.6397857666015625
280781,0.8796539306640625,-0.2315673828125,-0.685394287109375
280782,0.9201202392578124,-0.24462890625,-0.723419189453125
280783,0.951507568359375,-0.2506103515625,-0.72564697265625
280784,0.969329833984375,-0.251312255859375,-0.6921234130859375
280785,0.9793701171875,-0.2531890869140625,-0.6426544189453125
280786,0.9838409423828124,-0.2588043212890625,-0.5811309814453125
280787,0.9853668212890624,-0.2681121826171875,-0.516021728515625
280788,0.9903717041015624,-0.2669677734375,-0.4666290283203125
280789,0.9964141845703124,-0.2496490478515625,-0.4339752197265625
280790,0.9918060302734376,-0.2231597900390625,-0.4330291748046875
280791,0.9789276123046876,-0.198974609375,-0.43804931640625
280792,0.969696044921875,-0.1841583251953125,-0.4649658203125
280793,0.9698333740234376,-0.168548583984375,-0.4882354736328125
280794,0.9779205322265624,-0.1602630615234375,-0.513916015625
280795,0.995849609375,-0.152801513671875,-0.527923583984375
280796,1.015945434570312,-0.1378173828125,-0.5347747802734375
280797,1.028823852539062,-0.1175079345703125,-0.529510498046875
280798,1.031326293945312,-0.1051177978515625,-0.517578125
280799,1.023880004882812,-0.095977783203125,-0.501495361328125
280800,1.004119873046875,-0.0960235595703125,-0.484344482421875
280801,0.977752685546875,-0.1024169921875,-0.4703216552734375
280802,0.9480743408203124,-0.1027069091796875,-0.460784912109375
280803,0.8864898681640625,-0.088165283203125,-0.455169677734375
280804,0.8864898681640625,-0.088165283203125,-0.455169677734375
280805,0.8535614013671875,-0.0887603759765625,-0.421661376953125
280806,0.8302154541015625,-0.10302734375,-0.4022674560546875
280807,0.8092193603515625,-0.1174163818359375,-0.39508056640625
280808,0.78826904296875,-0.130340576171875,-0.378662109375
280809,0.7707061767578125,-0.1390533447265625,-0.3616943359375
280810,0.755340576171875,-0.1449127197265625,-0.3529815673828125
280811,0.7437896728515625,-0.1533050537109375,-0.3494720458984375
280812,0.734130859375,-0.16033935546875,-0.356201171875
280813,0.726287841796875,-0.1649932861328125,-0.36676025390625
280814,0.7209930419921875,-0.1667327880859375,-0.3806915283203125
280815,0.7216033935546875,-0.1681365966796875,-0.4049835205078125
280816,0.7257080078125,-0.1729583740234375,-0.433319091796875
280817,0.7321624755859375,-0.179046630859375,-0.4589385986328125
280818,0.7418212890625,-0.1834259033203125,-0.489654541015625
280819,0.75494384765625,-0.1905059814453125,-0.5203857421875
280820,0.77056884765625,-0.199859619140625,-0.5466461181640625
280821,0.7868194580078125,-0.210174560546875,-0.5771331787109375
280822,0.8019866943359375,-0.2205047607421875,-0.6058349609375
280823,0.8240203857421875,-0.231597900390625,-0.6407928466796875
280824,0.8240203857421875,-0.231597900390625,-0.6407928466796875
280825,0.8216094970703125,-0.22906494140625,-0.6400909423828125
280826,0.8126220703125,-0.223388671875,-0.623687744140625
280827,0.8048553466796875,-0.2166748046875,-0.5920562744140625
280828,0.80157470703125,-0.2129974365234375,-0.55828857421875
280829,0.8062286376953125,-0.216552734375,-0.5307769775390625
280830,0.8174285888671875,-0.22119140625,-0.5119171142578125
280831,0.8258514404296875,-0.2270965576171875,-0.5058135986328125
280832,0.8319549560546875,-0.2348480224609375,-0.5050811767578125
280833,0.8339691162109375,-0.2341766357421875,-0.505401611328125
280834,0.8282470703125,-0.227142333984375,-0.5144500732421875
280835,0.82440185546875,-0.2188568115234375,-0.5342254638671875
280836,0.822113037109375,-0.212371826171875,-0.5553131103515625
280837,0.8220062255859375,-0.2046661376953125,-0.574920654296875
280838,0.8252105712890625,-0.1993560791015625,-0.5966644287109375
280839,0.831207275390625,-0.1917724609375,-0.6189117431640625
280840,0.8444366455078125,-0.181182861328125,-0.625579833984375
280841,0.8646697998046875,-0.1624755859375,-0.6214752197265625
280842,0.88604736328125,-0.140289306640625,-0.614471435546875
280843,0.90472412109375,-0.124053955078125,-0.607391357421875
280844,0.91748046875,-0.1194305419921875,-0.6027679443359375
280845,0.91748046875,-0.1247406005859375,-0.6011962890625
280846,0.9026947021484376,-0.1346282958984375,-0.5969390869140625
280847,0.8604583740234375,-0.14337158203125,-0.59295654296875
280848,0.8604583740234375,-0.14337158203125,-0.59295654296875
280849,0.8509979248046875,-0.1427154541015625,-0.58441162109375
280850,0.846832275390625,-0.1434783935546875,-0.5745849609375
280851,0.8447113037109375,-0.14422607421875,-0.566497802734375
280852,0.841705322265625,-0.136749267578125,-0.5543975830078125
280853,0.83367919921875,-0.13018798828125,-0.5455780029296875
280854,0.824737548828125,-0.1262969970703125,-0.544525146484375
280855,0.8134613037109375,-0.120941162109375,-0.5400543212890625
280856,0.802490234375,-0.1137542724609375,-0.531341552734375
280857,0.7992095947265625,-0.1066741943359375,-0.530029296875
280858,0.799957275390625,-0.09954833984375,-0.5386962890625
280859,0.79803466796875,-0.0901947021484375,-0.545440673828125
280860,0.7955780029296875,-0.0870208740234375,-0.55328369140625
280861,0.792266845703125,-0.088531494140625,-0.5643463134765625
280862,0.7859344482421875,-0.097564697265625,-0.5719451904296875
280863,0.78509521484375,-0.1075592041015625,-0.5846405029296875
280864,0.7911376953125,-0.114593505859375,-0.606048583984375
280865,0.799163818359375,-0.1225433349609375,-0.6243133544921875
280866,0.80511474609375,-0.131683349609375,-0.6263427734375
280867,0.809539794921875,-0.132598876953125,-0.610260009765625
280868,0.82037353515625,-0.129638671875,-0.592132568359375
280869,0.8357086181640625,-0.1280059814453125,-0.57684326171875
280870,0.84918212890625,-0.1239776611328125,-0.5623321533203125
280871,0.8577880859375,-0.1185150146484375,-0.55718994140625
280872,0.858673095703125,-0.111724853515625,-0.553741455078125
280873,0.8503875732421875,-0.1062164306640625,-0.5486297607421875
280874,0.8439178466796875,-0.097747802734375,-0.5496063232421875
280875,0.838531494140625,-0.0940704345703125,-0.546844482421875
280876,0.8350830078125,-0.094329833984375,-0.539947509765625
280877,0.8316650390625,-0.0978546142578125,-0.5332794189453125
280878,0.8291473388671875,-0.101318359375,-0.5233917236328125
280879,0.82611083984375,-0.1045989990234375,-0.5115203857421875
280880,0.8184051513671875,-0.1098175048828125,-0.496673583984375
280881,0.8084564208984375,-0.110626220703125,-0.485076904296875
280882,0.7971038818359375,-0.1161346435546875,-0.48126220703125
280883,0.783843994140625,-0.1259307861328125,-0.4849853515625
280884,0.769805908203125,-0.1363067626953125,-0.491607666015625
280885,0.75408935546875,-0.145599365234375,-0.5052032470703125
280886,0.74444580078125,-0.1512603759765625,-0.5332794189453125
280887,0.7386932373046875,-0.15478515625,-0.5731201171875
280888,0.740478515625,-0.1443939208984375,-0.600372314453125
280889,0.749237060546875,-0.1264190673828125,-0.614532470703125
280890,0.7750244140625,-0.11407470703125,-0.642059326171875
280891,0.8138580322265625,-0.09796142578125,-0.6534881591796875
280892,0.877838134765625,-0.1034088134765625,-0.63214111328125
280893,0.877838134765625,-0.1034088134765625,-0.63214111328125
280894,0.9014129638671876,-0.09442138671875,-0.6289215087890625
280895,0.900787353515625,-0.09619140625,-0.626617431640625
280896,0.8868255615234375,-0.1027984619140625,-0.613555908203125
280897,0.86029052734375,-0.11590576171875,-0.605682373046875
280898,0.8351593017578125,-0.11212158203125,-0.5994415283203125
280899,0.8058624267578125,-0.1154327392578125,-0.5938262939453125
280900,0.7806396484375,-0.1146087646484375,-0.5905914306640625
280901,0.766510009765625,-0.1137237548828125,-0.583648681640625
280902,0.7480010986328125,-0.1263580322265625,-0.5760955810546875
280903,0.7480010986328125,-0.1263580322265625,-0.5760955810546875
280904,0.7297210693359375,-0.147674560546875,-0.5819091796875
280905,0.719207763671875,-0.169921875,-0.577972412109375
280906,0.723236083984375,-0.1867523193359375,-0.5766754150390625
280907,0.7165985107421875,-0.210784912109375,-0.5465850830078125
280908,0.7165985107421875,-0.210784912109375,-0.5465850830078125
280909,0.705963134765625,-0.2141571044921875,-0.5655975341796875
280910,0.6820220947265625,-0.2030487060546875,-0.5866851806640625
280911,0.6580047607421875,-0.180084228515625,-0.6066741943359375
280912,0.6349945068359375,-0.1599884033203125,-0.6077117919921875
280913,0.6143951416015625,-0.1514129638671875,-0.581512451171875
280914,0.6011199951171875,-0.1456146240234375,-0.5486602783203125
280915,0.5987396240234375,-0.148529052734375,-0.4969482421875
280916,0.6133880615234375,-0.158935546875,-0.4354248046875
280917,0.63623046875,-0.15924072265625,-0.3619842529296875
280918,0.656036376953125,-0.1561737060546875,-0.32965087890625
280919,0.6663055419921875,-0.1519317626953125,-0.3112945556640625
280920,0.663787841796875,-0.161407470703125,-0.322052001953125
280921,0.659332275390625,-0.1749420166015625,-0.3596038818359375
280922,0.6600189208984375,-0.1864776611328125,-0.40252685546875
280923,0.669586181640625,-0.1875762939453125,-0.457550048828125
280924,0.6952362060546875,-0.208160400390625,-0.5178985595703125
280925,0.7381744384765625,-0.2571258544921875,-0.5794525146484375
280926,0.782470703125,-0.29461669921875,-0.6514129638671875
280927,0.8151702880859375,-0.31488037109375,-0.7366485595703125
280928,0.835174560546875,-0.32275390625,-0.8238372802734375
280929,0.853485107421875,-0.3141937255859375,-0.9449310302734376
280930,0.8565673828125,-0.2845611572265625,-1.058700561523438
280931,0.8512420654296875,-0.2329864501953125,-1.103500366210938
280932,0.8641204833984375,-0.1799468994140625,-1.082077026367188
280933,0.891265869140625,-0.160125732421875,-1.027847290039062
280934,0.9245452880859376,-0.15997314453125,-0.9547576904296876
280935,0.9381866455078124,-0.16729736328125,-0.90618896484375
280936,0.9232330322265624,-0.173614501953125,-0.9040985107421876
280937,0.888519287109375,-0.1715240478515625,-0.90057373046875
280938,0.851593017578125,-0.17608642578125,-0.891815185546875
280939,0.8084259033203125,-0.16845703125,-0.882476806640625
280940,0.772735595703125,-0.123199462890625,-0.8394622802734375
280941,0.7368927001953125,-0.0885467529296875,-0.8309478759765625
280942,0.7014312744140625,-0.06011962890625,-0.790374755859375
280943,0.664947509765625,-0.0498199462890625,-0.763214111328125
280944,0.64239501953125,-0.0365142822265625,-0.741119384765625
280945,0.640960693359375,-0.0427703857421875,-0.7063751220703125
280946,0.646148681640625,-0.103607177734375,-0.65087890625
280947,0.646148681640625,-0.103607177734375,-0.65087890625
280948,0.697906494140625,-0.21527099609375,-0.5791778564453125
280949,0.7322998046875,-0.2373046875,-0.58551025390625
280950,0.80987548828125,-0.2266082763671875,-0.63690185546875
280951,0.881561279296875,-0.2009124755859375,-0.766082763671875
280952,0.905181884765625,-0.2405548095703125,-0.838592529296875
280953,0.87353515625,-0.281097412109375,-0.8257598876953125
280954,0.813385009765625,-0.28424072265625,-0.789581298828125
280955,0.788482666015625,-0.2982635498046875,-0.7643585205078125
280956,0.774749755859375,-0.3122100830078125,-0.7563934326171875
280957,0.7769317626953125,-0.2973785400390625,-0.7275390625
280958,0.797088623046875,-0.2641754150390625,-0.719329833984375
280959,0.7841339111328125,-0.2156524658203125,-0.75
280960,0.7619476318359375,-0.165496826171875,-0.7405548095703125
280961,0.7393341064453125,-0.1284637451171875,-0.65057373046875
280962,0.67987060546875,-0.095977783203125,-0.52203369140625
280963,0.61651611328125,-0.1011810302734375,-0.4610443115234375
280964,0.584808349609375,-0.102996826171875,-0.38616943359375
280965,0.5803375244140625,-0.1164093017578125,-0.3127593994140625
280966,0.6107025146484375,-0.16314697265625,-0.3582305908203125
280967,0.6557464599609375,-0.198944091796875,-0.429840087890625
280968,0.700714111328125,-0.2326507568359375,-0.506988525390625
280969,0.767059326171875,-0.306488037109375,-0.6684722900390625
280970,0.875091552734375,-0.4330596923828125,-1.000930786132812
280971,0.928863525390625,-0.5252227783203125,-1.43212890625
280972,0.8978424072265625,-0.5612945556640625,-1.677536010742188
280973,0.770050048828125,-0.52001953125,-1.624008178710938
280974,0.602508544921875,-0.4861907958984375,-1.444107055664062
280975,0.416961669921875,-0.4120330810546875,-1.343917846679688
280976,0.28851318359375,-0.3206787109375,-1.225555419921875
280977,0.2555389404296875,-0.260894775390625,-1.108505249023438
280978,0.29290771484375,-0.1940460205078125,-1.020965576171875
280979,0.3579559326171875,-0.1374053955078125,-0.9344329833984376
280980,0.441009521484375,-0.1071929931640625,-0.8392333984375
280981,0.52880859375,-0.086029052734375,-0.7578125
280982,0.6255340576171875,-0.0882110595703125,-0.7055206298828125
280983,0.7066802978515625,-0.081573486328125,-0.69537353515625
280984,0.764617919921875,-0.0746612548828125,-0.6856689453125
280985,0.798858642578125,-0.0714569091796875,-0.6528167724609375
280986,0.7886810302734375,-0.0562896728515625,-0.5973052978515625
280987,0.747833251953125,-0.0253753662109375,-0.5773468017578125
280988,0.6985321044921875,0.0005950927734375,-0.6059112548828125
280989,0.65618896484375,0.0277862548828125,-0.6777191162109375
280990,0.614990234375,0.0505523681640625,-0.77142333984375
280991,0.575103759765625,0.0667724609375,-0.8279876708984375
280992,0.542633056640625,0.08807373046875,-0.8468475341796875
280993,0.511566162109375,0.099395751953125,-0.842803955078125
280994,0.4849090576171875,0.09991455078125,-0.8820037841796875
280995,0.43505859375,0.0944061279296875,-0.9583282470703124
280996,0.43505859375,0.0944061279296875,-0.9583282470703124
280997,0.401458740234375,0.0946044921875,-0.980224609375
280998,0.371307373046875,0.100860595703125,-0.9622039794921876
280999,0.35284423828125,0.1015472412109375,-0.9242706298828124
281000,0.3411712646484375,0.098175048828125,-0.8586883544921875
281001,0.354644775390625,0.0984649658203125,-0.78228759765625
281002,0.38433837890625,0.0911712646484375,-0.72369384765625
281003,0.420654296875,0.09918212890625,-0.697967529296875
281004,0.453765869140625,0.1244964599609375,-0.687286376953125
281005,0.48736572265625,0.1422119140625,-0.6739501953125
281006,0.5203399658203125,0.1628265380859375,-0.66802978515625
281007,0.54962158203125,0.1859283447265625,-0.672607421875
281008,0.54962158203125,0.1859283447265625,-0.672607421875
281009,0.5843505859375,0.2067718505859375,-0.685791015625
281010,0.6002349853515625,0.19512939453125,-0.7322845458984375
281011,0.6147918701171875,0.1733245849609375,-0.782470703125
281012,0.6124725341796875,0.1515045166015625,-0.8153228759765625
281013,0.600494384765625,0.1316986083984375,-0.8380279541015625
281014,0.584625244140625,0.115447998046875,-0.8524017333984375
281015,0.54278564453125,0.084808349609375,-0.853607177734375
281016,0.54278564453125,0.084808349609375,-0.853607177734375
281017,0.53228759765625,0.059295654296875,-0.84051513671875
281018,0.5245208740234375,0.035430908203125,-0.85235595703125
281019,0.51849365234375,0.007171630859375,-0.870330810546875
281020,0.5156402587890625,-0.006195068359375,-0.87811279296875
281021,0.5078277587890625,-0.000823974609375,-0.8485107421875
281022,0.50091552734375,0.0143280029296875,-0.83990478515625
281023,0.5025177001953125,0.0309600830078125,-0.862213134765625
281024,0.511505126953125,0.0319366455078125,-0.858917236328125
281025,0.504608154296875,0.02032470703125,-0.8393707275390625
281026,0.5015106201171875,0.0157623291015625,-0.8854217529296875
281027,0.4903411865234375,0.002288818359375,-0.8913726806640625
281028,0.4959564208984375,0.0058746337890625,-0.8853607177734375
281029,0.4930572509765625,0.02294921875,-0.9091949462890624
281030,0.476593017578125,0.02117919921875,-0.8998870849609375
281031,0.4517822265625,0.030609130859375,-0.9002532958984375
281032,0.4314422607421875,0.0390472412109375,-0.8716583251953125
281033,0.426727294921875,0.057373046875,-0.84442138671875
281034,0.43377685546875,0.0749664306640625,-0.81549072265625
281035,0.4371795654296875,0.07135009765625,-0.8064727783203125
281036,0.44091796875,0.065032958984375,-0.7813568115234375
281037,0.448486328125,0.068603515625,-0.8011016845703125
281038,0.4551544189453125,0.0796661376953125,-0.8307952880859375
281039,0.4637298583984375,0.090179443359375,-0.8142852783203125
281040,0.4669647216796875,0.094024658203125,-0.803558349609375
281041,0.4703216552734375,0.09100341796875,-0.80328369140625
281042,0.474578857421875,0.0818023681640625,-0.7982940673828125
281043,0.4758453369140625,0.066680908203125,-0.77130126953125
281044,0.477874755859375,0.0348968505859375,-0.7507781982421875
281045,0.4784698486328125,-0.0020751953125,-0.749176025390625
281046,0.4807586669921875,-0.0335693359375,-0.7635498046875
281047,0.451995849609375,-0.0702972412109375,-0.7529144287109375
281048,0.451995849609375,-0.0702972412109375,-0.7529144287109375
281049,0.4406585693359375,-0.0680999755859375,-0.7859649658203125
281050,0.44110107421875,-0.0714874267578125,-0.8154144287109375
281051,0.44287109375,-0.0721893310546875,-0.8052520751953125
281052,0.439453125,-0.064361572265625,-0.8127899169921875
281053,0.425048828125,-0.058013916015625,-0.8350982666015625
281054,0.3951416015625,-0.05877685546875,-0.8449554443359375
281055,0.3553314208984375,-0.0500030517578125,-0.8231048583984375
281056,0.3173980712890625,-0.022308349609375,-0.84637451171875
281057,0.3173980712890625,-0.022308349609375,-0.84637451171875
281058,0.3184814453125,-0.0071258544921875,-0.866729736328125
281059,0.3338775634765625,0.0091552734375,-0.8879241943359375
281060,0.3475494384765625,0.01678466796875,-0.8961944580078125
281061,0.3522796630859375,0.00958251953125,-0.919342041015625
281062,0.354522705078125,-0.007354736328125,-0.9533538818359376
281063,0.349365234375,-0.02813720703125,-0.9798583984375
281064,0.34320068359375,-0.0529022216796875,-1.011627197265625
281065,0.32391357421875,-0.0644683837890625,-1.044586181640625
281066,0.2995452880859375,-0.08013916015625,-1.082687377929688
281067,0.2877197265625,-0.103546142578125,-1.044937133789062
281068,0.2747039794921875,-0.1464996337890625,-0.9564056396484376
281069,0.2747039794921875,-0.1464996337890625,-0.9564056396484376
281070,0.293701171875,-0.17376708984375,-0.9548492431640624
281071,0.314208984375,-0.2050933837890625,-0.9207305908203124
281072,0.32220458984375,-0.2499237060546875,-0.8917236328125
281073,0.337677001953125,-0.30535888671875,-0.9017333984375
281074,0.362396240234375,-0.3757781982421875,-0.959014892578125
281075,0.37823486328125,-0.430908203125,-1.004226684570312
281076,0.40106201171875,-0.492156982421875,-1.014404296875
281077,0.418731689453125,-0.5555572509765625,-0.96820068359375
281078,0.4449462890625,-0.625518798828125,-0.9806671142578124
281079,0.462310791015625,-0.692291259765625,-0.9884796142578124
281080,0.474456787109375,-0.7033233642578125,-0.9439544677734376
281081,0.4704437255859375,-0.6860198974609375,-0.86810302734375
281082,0.4591522216796875,-0.607513427734375,-0.8203125
281083,0.450042724609375,-0.492034912109375,-0.8561553955078125
281084,0.4277801513671875,-0.3869171142578125,-0.8695068359375
281085,0.3960113525390625,-0.2900238037109375,-0.815643310546875
281086,0.3630523681640625,-0.21044921875,-0.8215484619140625
281087,0.332611083984375,-0.1767425537109375,-0.870147705078125
281088,0.30389404296875,-0.1499176025390625,-0.92266845703125
281089,0.285552978515625,-0.1357421875,-0.9716339111328124
281090,0.2688140869140625,-0.1566619873046875,-1.000732421875
281091,0.266326904296875,-0.212066650390625,-0.988311767578125
281092,0.275665283203125,-0.2635955810546875,-0.9404296875
281093,0.275665283203125,-0.2635955810546875,-0.9404296875
281094,0.35101318359375,-0.3670806884765625,-0.971893310546875
281095,0.3678741455078125,-0.41845703125,-0.9446258544921876
281096,0.371551513671875,-0.4609375,-0.855621337890625
281097,0.3816986083984375,-0.4979248046875,-0.79150390625
281098,0.3972930908203125,-0.55078125,-0.797607421875
281099,0.4037933349609375,-0.538177490234375,-0.721710205078125
281100,0.4037933349609375,-0.538177490234375,-0.721710205078125
281101,0.435577392578125,-0.5447845458984375,-0.724334716796875
281102,0.4500274658203125,-0.6362762451171875,-0.66204833984375
281103,0.4563446044921875,-0.650970458984375,-0.6163177490234375
281104,0.4550933837890625,-0.623016357421875,-0.5527496337890625
281105,0.4742584228515625,-0.5740966796875,-0.5505218505859375
281106,0.5175933837890625,-0.5035400390625,-0.630828857421875
281107,0.5175933837890625,-0.5035400390625,-0.630828857421875
281108,0.5438690185546875,-0.4199676513671875,-0.722991943359375
281109,0.5214691162109375,-0.32952880859375,-0.8933258056640625
281110,0.4849395751953125,-0.3059234619140625,-0.9011688232421876
281111,0.4483184814453125,-0.316192626953125,-0.9050140380859376
281112,0.3979644775390625,-0.3880462646484375,-0.925262451171875
281113,0.336151123046875,-0.475433349609375,-0.92401123046875
281114,0.281280517578125,-0.5517425537109375,-0.91058349609375
281115,0.281280517578125,-0.5517425537109375,-0.91058349609375
281116,0.2392425537109375,-0.59381103515625,-0.8645782470703125
281117,0.2173309326171875,-0.5938568115234375,-0.7300567626953125
281118,0.2402191162109375,-0.55938720703125,-0.676605224609375
281119,0.2933197021484375,-0.4777374267578125,-0.6395721435546875
281120,0.3651885986328125,-0.3714447021484375,-0.6571044921875
281121,0.4401397705078125,-0.2799835205078125,-0.72027587890625
281122,0.501068115234375,-0.231414794921875,-0.803497314453125
281123,0.54278564453125,-0.23809814453125,-0.8790130615234375
281124,0.5685272216796875,-0.2914581298828125,-0.8580474853515625
281125,0.5931854248046875,-0.37176513671875,-0.7840423583984375
281126,0.619110107421875,-0.423736572265625,-0.7100982666015625
281127,0.66510009765625,-0.4920501708984375,-0.67950439453125
281128,0.7042694091796875,-0.5867767333984375,-0.6892547607421875
281129,0.7298126220703125,-0.6547088623046875,-0.6734771728515625
281130,0.752899169921875,-0.676116943359375,-0.597259521484375
281131,0.78070068359375,-0.6832427978515625,-0.5101470947265625
281132,0.813446044921875,-0.6710357666015625,-0.398773193359375
281133,0.8518524169921875,-0.6944580078125,-0.29931640625
281134,0.87823486328125,-0.7486419677734375,-0.16583251953125
281135,0.90728759765625,-0.8212738037109375,-0.0284881591796875
281136,0.9450531005859376,-0.8869781494140625,0.03173828125
281137,0.9565277099609376,-0.9329681396484376,0.029052734375
281138,0.9362030029296876,-0.9662628173828124,-0.0449981689453125
281139,0.896026611328125,-0.9775238037109376,-0.135284423828125
281140,0.839324951171875,-0.9366607666015624,-0.2317352294921875
281141,0.7628021240234375,-0.8738555908203125,-0.2877197265625
281142,0.6746826171875,-0.842864990234375,-0.3583221435546875
281143,0.591094970703125,-0.8454437255859375,-0.446075439453125
281144,0.522613525390625,-0.8575286865234375,-0.500244140625
281145,0.4754638671875,-0.8634490966796875,-0.5341033935546875
281146,0.44122314453125,-0.8548431396484375,-0.55279541015625
281147,0.44122314453125,-0.8548431396484375,-0.55279541015625
281148,0.4098358154296875,-0.8166656494140625,-0.5346527099609375
281149,0.3762664794921875,-0.7139739990234375,-0.4242095947265625
281150,0.3902587890625,-0.6782379150390625,-0.371490478515625
281151,0.425079345703125,-0.6588134765625,-0.3389129638671875
281152,0.469451904296875,-0.648590087890625,-0.3304595947265625
281153,0.5037384033203125,-0.641693115234375,-0.35223388671875
281154,0.5293426513671875,-0.6294403076171875,-0.382598876953125
281155,0.5476531982421875,-0.60546875,-0.4010772705078125
281156,0.5476531982421875,-0.60546875,-0.4010772705078125
281157,0.5582122802734375,-0.572723388671875,-0.41650390625
281158,0.548614501953125,-0.5674591064453125,-0.4096527099609375
281159,0.541015625,-0.5603179931640625,-0.406585693359375
281160,0.5366973876953125,-0.5513763427734375,-0.417327880859375
281161,0.5324554443359375,-0.5411834716796875,-0.4318695068359375
281162,0.49481201171875,-0.495086669921875,-0.433929443359375
281163,0.49481201171875,-0.495086669921875,-0.433929443359375
281164,0.49481201171875,-0.495086669921875,-0.433929443359375
281165,0.4771270751953125,-0.4705047607421875,-0.41876220703125
281166,0.4711456298828125,-0.448333740234375,-0.4201202392578125
281167,0.473052978515625,-0.44183349609375,-0.4331817626953125
281168,0.4815826416015625,-0.44952392578125,-0.458038330078125
281169,0.4855499267578125,-0.4582366943359375,-0.48101806640625
281170,0.4842681884765625,-0.462493896484375,-0.4934539794921875
281171,0.482574462890625,-0.4672088623046875,-0.5038299560546875
281172,0.4911346435546875,-0.471405029296875,-0.5172271728515625
281173,0.5088348388671875,-0.4922027587890625,-0.546295166015625
281174,0.520965576171875,-0.52288818359375,-0.5720672607421875
281175,0.528411865234375,-0.56298828125,-0.59698486328125
281176,0.535552978515625,-0.6026763916015625,-0.618927001953125
281177,0.54290771484375,-0.630828857421875,-0.6219482421875
281178,0.5643463134765625,-0.66259765625,-0.635589599609375
281179,0.586639404296875,-0.6943511962890625,-0.677947998046875
281180,0.5558624267578125,-0.7249603271484375,-0.7152252197265625
281181,0.5558624267578125,-0.7249603271484375,-0.7152252197265625
281182,0.5069427490234375,-0.726593017578125,-0.7034454345703125
281183,0.4755096435546875,-0.7283935546875,-0.694183349609375
281184,0.4632568359375,-0.7563323974609375,-0.712188720703125
281185,0.4717559814453125,-0.8096923828125,-0.7626800537109375
281186,0.4875640869140625,-0.87445068359375,-0.8359222412109375
281187,0.4639129638671875,-0.9249420166015624,-0.9482879638671876
281188,0.4639129638671875,-0.9249420166015624,-0.9482879638671876
281189,0.415374755859375,-0.860626220703125,-0.93994140625
281190,0.355987548828125,-0.77392578125,-0.9304962158203124
281191,0.300201416015625,-0.6866912841796875,-0.9136810302734376
281192,0.234375,-0.571868896484375,-0.9398193359375
281193,0.234375,-0.571868896484375,-0.9398193359375
281194,0.217376708984375,-0.55035400390625,-0.9367828369140624
281195,0.1968994140625,-0.554046630859375,-0.9228515625
281196,0.17767333984375,-0.5742034912109375,-0.8866729736328125
281197,0.179351806640625,-0.593414306640625,-0.8415985107421875
281198,0.21356201171875,-0.5915069580078125,-0.8231048583984375
281199,0.2753448486328125,-0.5621185302734375,-0.7860870361328125
281200,0.4279022216796875,-0.4573974609375,-0.684051513671875
281201,0.4279022216796875,-0.4573974609375,-0.684051513671875
281202,0.45330810546875,-0.4304656982421875,-0.6364593505859375
281203,0.4357452392578125,-0.4095001220703125,-0.5539093017578125
281204,0.412017822265625,-0.3686676025390625,-0.4473724365234375
281205,0.3870697021484375,-0.3138427734375,-0.3537750244140625
281206,0.3642730712890625,-0.2499847412109375,-0.2870025634765625
281207,0.319366455078125,-0.15118408203125,-0.1514129638671875
281208,0.319366455078125,-0.15118408203125,-0.1514129638671875
281209,0.2913970947265625,-0.1167144775390625,-0.1137847900390625
281210,0.2793731689453125,-0.097869873046875,-0.090179443359375
281211,0.281005859375,-0.0771331787109375,-0.0742034912109375
281212,0.28167724609375,-0.0504608154296875,-0.0806427001953125
281213,0.287933349609375,-0.0340728759765625,-0.08935546875
281214,0.285186767578125,-0.0338287353515625,-0.0858154296875
281215,0.2822418212890625,-0.0557861328125,-0.069061279296875
281216,0.281219482421875,-0.0978546142578125,-0.0340423583984375
281217,0.2717132568359375,-0.156707763671875,-0.014617919921875
281218,0.258758544921875,-0.2031402587890625,0.0029754638671875
281219,0.2435760498046875,-0.2180328369140625,0.031341552734375
281220,2.306503295898438,0.68060302734375,-5.199661254882812
281221,2.306503295898438,0.68060302734375,-5.199661254882812
281222,0.3321533203125,-0.94525146484375,1.443115234375
281223,0.0536041259765625,-0.4063568115234375,0.2710113525390625
281224,0.3444366455078125,0.04901123046875,-2.22698974609375
281225,0.185760498046875,-0.1308441162109375,-0.3990478515625
281226,0.1030731201171875,-0.468780517578125,0.334259033203125
281227,0.0944671630859375,-1.072158813476562,1.740203857421875
281228,0.2711334228515625,-1.265731811523438,2.046401977539062
281229,0.6151123046875,-0.7890472412109375,0.156097412109375
281230,0.415985107421875,-0.7344970703125,-0.4808807373046875
281231,0.0500030517578125,-0.4493255615234375,-0.2059783935546875
281232,-0.3535308837890625,-0.2505340576171875,0.2435150146484375
281233,-0.4169158935546875,0.049346923828125,-0.5774078369140625
281234,-0.38482666015625,0.282989501953125,-0.16064453125
281235,-0.292083740234375,0.344329833984375,0.4034423828125
281236,-0.2833709716796875,0.30352783203125,0.129241943359375
281237,-0.39434814453125,0.2202301025390625,-0.021575927734375
281238,-0.4934844970703125,0.1319580078125,-0.186553955078125
281239,-0.3770599365234375,0.136138916015625,-0.235595703125
281240,-0.3387603759765625,0.1071319580078125,-0.213348388671875
281241,-0.3387603759765625,0.1071319580078125,-0.213348388671875
281242,-0.376617431640625,0.048828125,-0.1612396240234375
281243,-0.34564208984375,-0.0012359619140625,-0.09588623046875
281244,-0.21295166015625,0.0306549072265625,-0.0799713134765625
281245,-0.0499267578125,0.0480194091796875,-0.0545806884765625
281246,0.09552001953125,0.00421142578125,-0.0498199462890625
281247,0.6252288818359375,-0.294158935546875,-1.120437622070312
281248,1.3248291015625,-0.7114410400390625,-1.821075439453125
281249,2.535491943359375,-1.062271118164062,-1.23956298828125
281250,6.806167602539062,-1.910202026367188,-1.259796142578125
281251,8.191909790039062,-1.874481201171875,-2.435104370117188
281252,7.985015869140625,-2.026535034179688,-1.50762939453125
281253,7.040969848632812,-0.7173004150390625,0.5449066162109375
281254,4.505599975585938,0.105072021484375,0.8199005126953125
281255,2.697525024414062,0.4588623046875,-0.000640869140625
281256,1.849639892578125,0.3778076171875,-0.466583251953125
281257,1.451004028320312,0.480072021484375,-0.2336578369140625
281258,1.327362060546875,0.461151123046875,0.038909912109375
281259,1.1959228515625,0.775054931640625,0.1165924072265625
281260,1.189376831054688,1.204544067382812,0.366943359375
281261,1.420211791992188,1.09100341796875,0.5963897705078125
281262,1.420211791992188,1.09100341796875,0.5963897705078125
281263,1.300704956054688,1.14141845703125,0.066558837890625
281264,1.207427978515625,0.54693603515625,-0.3903350830078125
281265,1.1968994140625,0.3086395263671875,-0.440460205078125
281266,1.25457763671875,0.205352783203125,-0.4808349609375
281267,1.434661865234375,0.100372314453125,-0.431304931640625
281268,1.705459594726562,-0.0410919189453125,-0.43951416015625
281269,2.001007080078125,-0.1989898681640625,-0.4418182373046875
281270,2.24078369140625,-0.3087310791015625,-0.4528656005859375
281271,2.302749633789062,-0.3957977294921875,-0.44720458984375
281272,2.03289794921875,-0.76531982421875,-0.43902587890625
281273,2.03289794921875,-0.76531982421875,-0.43902587890625
281274,1.761337280273438,-0.79608154296875,-0.543182373046875
281275,1.536026000976562,-0.7789459228515625,-0.5307159423828125
281276,1.413955688476562,-0.7939605712890625,-0.5251312255859375
281277,1.342193603515625,-0.829345703125,-0.5001220703125
281278,1.269943237304688,-0.8120574951171875,-0.441864013671875
281279,1.191741943359375,-0.72216796875,-0.371734619140625
281280,1.148162841796875,-0.6143798828125,-0.3459625244140625
281281,1.141891479492188,-0.5346221923828125,-0.3463134765625
281282,1.157241821289062,-0.474090576171875,-0.349609375
281283,1.206436157226562,-0.428924560546875,-0.3508758544921875
281284,1.307769775390625,-0.4000244140625,-0.3621978759765625
281285,1.452865600585938,-0.3694305419921875,-0.3853607177734375
281286,1.576858520507812,-0.3318023681640625,-0.3923797607421875
281287,1.608001708984375,-0.2711334228515625,-0.3692779541015625
281288,1.5045166015625,-0.2083740234375,-0.237762451171875
281289,1.3232421875,-0.108978271484375,-0.2751007080078125
281290,1.16339111328125,-0.016082763671875,-0.27508544921875
281291,1.045608520507812,0.001068115234375,-0.0855255126953125
281292,0.9278717041015624,0.01226806640625,0.041656494140625
281293,0.9278717041015624,0.01226806640625,0.041656494140625
281294,0.7295379638671875,0.192474365234375,0.0810394287109375
281295,0.6186370849609375,0.171600341796875,0.20916748046875
281296,0.4806976318359375,0.09637451171875,0.1583099365234375
281297,0.376617431640625,0.065582275390625,0.0413665771484375
281298,0.270965576171875,0.028839111328125,-0.0125579833984375
281299,0.1319122314453125,-0.028900146484375,-0.06427001953125
281300,-0.008453369140625,-0.0579833984375,-0.069854736328125
281301,-0.0928192138671875,-0.0697021484375,-0.0325164794921875
281302,-0.1314239501953125,-0.0872039794921875,-0.0032501220703125
281303,-0.1520233154296875,-0.07763671875,0.020263671875
281304,-0.1659698486328125,-0.093414306640625,0.0370025634765625
281305,-0.1673583984375,-0.0948028564453125,0.0224609375
281306,-0.1712188720703125,-0.0999298095703125,-0.0221405029296875
281307,-0.2063140869140625,-0.16058349609375,-0.076751708984375
281308,-0.2063140869140625,-0.16058349609375,-0.076751708984375
281309,-0.2334442138671875,-0.18109130859375,-0.109466552734375
281310,-0.2198638916015625,-0.194488525390625,-0.1128082275390625
281311,-0.27783203125,-0.147552490234375,-0.1156768798828125
281312,-0.34112548828125,-0.11328125,-0.198333740234375
281313,-0.3247833251953125,-0.149566650390625,-0.242401123046875
281314,-0.31793212890625,-0.1633148193359375,-0.26995849609375
281315,-0.309326171875,-0.1288299560546875,-0.3178863525390625
281316,-0.265625,-0.0808258056640625,-0.32427978515625
281317,-0.2111358642578125,-0.017303466796875,-0.2554931640625
281318,-0.13531494140625,0.0431060791015625,-0.1738739013671875
281319,-0.057586669921875,0.061553955078125,-0.1216583251953125
281320,0.0085906982421875,0.0455474853515625,-0.09173583984375
281321,0.0511627197265625,0.0187530517578125,-0.0625457763671875
281322,0.0927581787109375,0.0125885009765625,-0.07293701171875
281323,0.1983642578125,0.039093017578125,-0.136016845703125
281324,1.285842895507812,0.349578857421875,-1.397293090820312
281325,6.497039794921875,-0.36785888671875,-3.485031127929688
281326,8.225662231445312,-2.212356567382812,-2.661209106445312
281327,7.52685546875,-2.014236450195312,-0.6234130859375
281328,5.343231201171875,-0.3405609130859375,0.46124267578125
281329,3.092575073242188,0.8914947509765625,1.146942138671875
281330,1.834457397460938,0.978973388671875,2.038238525390625
281331,1.181884765625,0.632415771484375,2.85992431640625
281332,0.6089324951171875,0.5523834228515625,2.497726440429688
281333,0.4763336181640625,0.484893798828125,1.756500244140625
281334,0.5146331787109375,0.4351654052734375,1.264404296875
281335,0.6320953369140625,0.3354034423828125,0.6896209716796875
281336,0.7211151123046875,0.1568603515625,0.030303955078125
281337,0.68243408203125,-0.04498291015625,-0.6060943603515625
281338,0.5534210205078125,-0.1459808349609375,-1.134918212890625
281339,0.5534210205078125,-0.1459808349609375,-1.134918212890625
281340,0.3401947021484375,-0.2242279052734375,-1.699951171875
281341,0.2752532958984375,-0.24798583984375,-1.573944091796875
281342,0.2864227294921875,-0.3264923095703125,-1.44842529296875
281343,0.27581787109375,-0.3123931884765625,-0.951171875
281344,0.1202545166015625,-0.17425537109375,-0.360931396484375
281345,-0.04949951171875,-0.1092376708984375,-0.0834197998046875
281346,-0.0279693603515625,-0.0696258544921875,-0.3028564453125
281347,0.208099365234375,0.06292724609375,-0.705780029296875
281348,0.540771484375,0.156768798828125,-1.1578369140625
281349,0.95404052734375,0.1948699951171875,-1.566635131835938
281350,1.394088745117188,0.0634765625,-1.56231689453125
281351,1.900283813476562,-0.1088714599609375,-1.137542724609375
281352,2.567474365234375,-0.117919921875,-0.1353302001953125
281353,3.098739624023438,-0.273681640625,0.6468658447265625
281354,3.057907104492188,-0.3351287841796875,1.071746826171875
281355,2.532958984375,-0.2946319580078125,1.735198974609375
281356,1.9739990234375,0.013275146484375,2.155166625976562
281357,1.575164794921875,0.2726287841796875,1.830703735351562
281358,1.310684204101562,0.2825469970703125,1.0185546875
281359,1.143447875976562,0.196746826171875,0.326202392578125
281360,0.99774169921875,0.066986083984375,-0.2087554931640625
281361,0.83740234375,-0.0446319580078125,-0.6134033203125
281362,0.708282470703125,-0.117889404296875,-0.8877716064453125
281363,0.591949462890625,-0.118133544921875,-0.9635772705078124
281364,0.50347900390625,-0.076812744140625,-0.9301910400390624
281365,0.426849365234375,-0.029693603515625,-0.80328369140625
281366,0.3785247802734375,0.0003509521484375,-0.648651123046875
281367,0.4154815673828125,0.029144287109375,-0.6207733154296875
281368,0.4154815673828125,0.029144287109375,-0.6207733154296875
281369,0.5059051513671875,-0.0167236328125,-0.668609619140625
281370,0.643524169921875,-0.0826873779296875,-0.5860748291015625
281371,1.034774780273438,-0.2057647705078125,-0.324615478515625
281372,1.034774780273438,-0.2057647705078125,-0.324615478515625
281373,1.232574462890625,-0.2380523681640625,-0.1803741455078125
281374,1.40045166015625,-0.22467041015625,-0.041259765625
281375,1.505218505859375,-0.18505859375,0.102386474609375
281376,1.535263061523438,-0.094879150390625,0.2112884521484375
281377,1.480545043945312,-0.00579833984375,0.1572418212890625
281378,1.381317138671875,0.03485107421875,0.0175018310546875
281379,1.2269287109375,0.02044677734375,-0.0235748291015625
281380,1.078292846679688,-0.025177001953125,-0.0211181640625
281381,0.97686767578125,-0.0598907470703125,-0.0026702880859375
281382,0.928985595703125,-0.083221435546875,-0.018646240234375
281383,0.90631103515625,-0.078643798828125,-0.0485076904296875
281384,0.9110260009765624,-0.09063720703125,-0.1126861572265625
281385,0.9273529052734376,-0.1023101806640625,-0.1833343505859375
281386,0.9512481689453124,-0.087799072265625,-0.237457275390625
281387,0.956573486328125,-0.0438385009765625,-0.2657012939453125
281388,0.9180145263671876,0.01171875,-0.267608642578125
281389,0.8350830078125,0.064117431640625,-0.2618408203125
281390,0.760040283203125,0.077239990234375,-0.2608642578125
281391,0.7268524169921875,0.04998779296875,-0.2800750732421875
281392,0.74432373046875,0.0216827392578125,-0.2889862060546875
281393,0.7884674072265625,0.00799560546875,-0.28021240234375
281394,0.851348876953125,-0.011810302734375,-0.2684173583984375
281395,0.9201202392578124,-0.042449951171875,-0.2641143798828125
281396,0.9882659912109376,-0.08612060546875,-0.2740325927734375
281397,1.03204345703125,-0.1182861328125,-0.2930755615234375
281398,1.043212890625,-0.151275634765625,-0.3108978271484375
281399,1.02606201171875,-0.18896484375,-0.307861328125
281400,0.9987030029296876,-0.2256317138671875,-0.2801513671875
281401,0.9901123046875,-0.26788330078125,-0.259429931640625
281402,1.008071899414062,-0.303924560546875,-0.2566070556640625
281403,1.043319702148438,-0.3101806640625,-0.2435455322265625
281404,1.0933837890625,-0.3014068603515625,-0.2061004638671875
281405,1.116729736328125,-0.26873779296875,-0.172943115234375
281406,1.103607177734375,-0.2551422119140625,-0.20428466796875
281407,1.103607177734375,-0.2551422119140625,-0.20428466796875
281408,0.972991943359375,-0.299560546875,-0.3167724609375
281409,0.9111175537109376,-0.3058013916015625,-0.332794189453125
281410,0.8596343994140625,-0.2746124267578125,-0.332305908203125
281411,0.8294525146484375,-0.231903076171875,-0.313201904296875
281412,0.8380126953125,-0.191650390625,-0.300384521484375
281413,0.87420654296875,-0.1458587646484375,-0.318023681640625
281414,0.9330596923828124,-0.0944671630859375,-0.3321075439453125
281415,0.9723663330078124,-0.0264129638671875,-0.33856201171875
281416,0.9742431640625,0.0313720703125,-0.3568267822265625
281417,0.9595947265625,0.0400390625,-0.3782958984375
281418,0.9251251220703124,0.00018310546875,-0.3829345703125
281419,0.8415069580078125,-0.1110076904296875,-0.302032470703125
281420,0.8415069580078125,-0.1110076904296875,-0.302032470703125
281421,0.843231201171875,-0.137451171875,-0.273529052734375
281422,0.874237060546875,-0.1495208740234375,-0.2819366455078125
281423,0.936431884765625,-0.138580322265625,-0.3581390380859375
281424,0.936431884765625,-0.138580322265625,-0.3581390380859375
281425,0.936431884765625,-0.138580322265625,-0.3581390380859375
281426,0.9580078125,-0.1617584228515625,-0.3726043701171875
281427,0.985504150390625,-0.184326171875,-0.3839263916015625
281428,1.036346435546875,-0.2318267822265625,-0.4043121337890625
281429,1.036346435546875,-0.2318267822265625,-0.4043121337890625
281430,1.049407958984375,-0.2650604248046875,-0.4131622314453125
281431,1.029830932617188,-0.2853546142578125,-0.4327850341796875
281432,0.9710845947265624,-0.297637939453125,-0.4665069580078125
281433,0.9109954833984376,-0.334228515625,-0.48773193359375
281434,0.894134521484375,-0.387481689453125,-0.504241943359375
281435,0.9126434326171876,-0.43267822265625,-0.5228271484375
281436,0.9518890380859376,-0.4694061279296875,-0.5480194091796875
281437,0.9814605712890624,-0.4755096435546875,-0.5675811767578125
281438,0.98095703125,-0.44512939453125,-0.5575103759765625
281439,0.9471588134765624,-0.39715576171875,-0.532440185546875
281440,0.8989715576171875,-0.3611602783203125,-0.525146484375
281441,0.842132568359375,-0.3400421142578125,-0.51470947265625
281442,0.78399658203125,-0.3243560791015625,-0.464447021484375
281443,0.7419891357421875,-0.302886962890625,-0.3956451416015625
281444,0.7243194580078125,-0.261505126953125,-0.3238372802734375
281445,0.7298126220703125,-0.2085723876953125,-0.2559051513671875
281446,0.7552032470703125,-0.1454620361328125,-0.19500732421875
281447,0.835693359375,-0.029815673828125,-0.1305389404296875
281448,0.835693359375,-0.029815673828125,-0.1305389404296875
281449,0.8830108642578125,-0.00347900390625,-0.111724853515625
281450,0.9322967529296876,0.01116943359375,-0.09979248046875
281451,0.981170654296875,0.01849365234375,-0.096099853515625
281452,1.022598266601562,0.022705078125,-0.1164703369140625
281453,1.050033569335938,0.0293121337890625,-0.158538818359375
281454,1.043624877929688,0.0461883544921875,-0.21649169921875
281455,1.008758544921875,0.059844970703125,-0.289459228515625
281456,1.006866455078125,0.025054931640625,-0.3563385009765625
281457,1.024322509765625,-0.0333099365234375,-0.3961181640625
281458,1.013961791992188,-0.0716400146484375,-0.430694580078125
281459,1.020065307617188,-0.1356048583984375,-0.4576568603515625
281460,1.014968872070312,-0.18511962890625,-0.4507904052734375
281461,0.96795654296875,-0.22247314453125,-0.388702392578125
281462,0.9393310546875,-0.2847442626953125,-0.3127593994140625
281463,0.909759521484375,-0.340301513671875,-0.2626190185546875
281464,0.8590240478515625,-0.3750152587890625,-0.1916656494140625
281465,0.8467864990234375,-0.4255218505859375,-0.1268463134765625
281466,0.84429931640625,-0.4705657958984375,-0.110870361328125
281467,0.82421875,-0.503082275390625,-0.112060546875
281468,0.82421875,-0.503082275390625,-0.112060546875
281469,0.7832794189453125,-0.54345703125,-0.0788421630859375
281470,0.77264404296875,-0.56884765625,-0.0933380126953125
281471,0.755340576171875,-0.6036224365234375,-0.1722259521484375
281472,0.755340576171875,-0.6036224365234375,-0.1722259521484375
281473,0.747344970703125,-0.58740234375,-0.2140655517578125
281474,0.75311279296875,-0.558380126953125,-0.23809814453125
281475,0.765960693359375,-0.52728271484375,-0.267974853515625
281476,0.780548095703125,-0.51251220703125,-0.29296875
281477,0.7942962646484375,-0.519439697265625,-0.2950439453125
281478,0.8153533935546875,-0.5412139892578125,-0.294464111328125
281479,0.8860626220703125,-0.58343505859375,-0.3372650146484375
281480,0.8860626220703125,-0.58343505859375,-0.3372650146484375
281481,0.9542999267578124,-0.6056671142578125,-0.380767822265625
281482,1.054107666015625,-0.609588623046875,-0.4818267822265625
281483,1.323455810546875,-0.5826263427734375,-0.8015289306640625
281484,1.323455810546875,-0.5826263427734375,-0.8015289306640625
281485,1.417633056640625,-0.4843597412109375,-0.9139556884765624
281486,1.439559936523438,-0.313262939453125,-0.883575439453125
281487,1.39215087890625,-0.114990234375,-0.70465087890625
281488,1.307235717773438,0.0526123046875,-0.521728515625
281489,1.203826904296875,0.1538543701171875,-0.38751220703125
281490,1.09033203125,0.2225341796875,-0.244537353515625
281491,0.900604248046875,0.2737579345703125,-0.148101806640625
281492,0.900604248046875,0.2737579345703125,-0.148101806640625
281493,0.8558349609375,0.2489166259765625,-0.2581787109375
281494,0.85076904296875,0.2190704345703125,-0.4344940185546875
281495,0.8739776611328125,0.1992034912109375,-0.700653076171875
281496,0.8739776611328125,0.1992034912109375,-0.700653076171875
281497,0.8738555908203125,0.1902008056640625,-0.766082763671875
281498,0.851348876953125,0.174407958984375,-0.79693603515625
281499,0.7476348876953125,0.0624237060546875,-0.729644775390625
281500,0.7476348876953125,0.0624237060546875,-0.729644775390625
281501,0.7077178955078125,-0.048309326171875,-0.6786956787109375
281502,0.68963623046875,-0.1463623046875,-0.6376190185546875
281503,0.703582763671875,-0.267425537109375,-0.5502471923828125
281504,0.703582763671875,-0.267425537109375,-0.5502471923828125
281505,0.7259368896484375,-0.2924652099609375,-0.4858245849609375
281506,0.7587890625,-0.284423828125,-0.4196929931640625
281507,0.858734130859375,-0.1814117431640625,-0.276611328125
281508,0.858734130859375,-0.1814117431640625,-0.276611328125
281509,0.9124755859375,-0.117523193359375,-0.24542236328125
281510,0.94830322265625,-0.0637054443359375,-0.2418670654296875
281511,0.9403228759765624,0.035552978515625,-0.2650909423828125
281512,0.9403228759765624,0.035552978515625,-0.2650909423828125
281513,0.90606689453125,0.0746917724609375,-0.2850799560546875
281514,0.8692779541015625,0.0981292724609375,-0.31494140625
281515,0.817718505859375,0.1224517822265625,-0.3533935546875
281516,0.817718505859375,0.1224517822265625,-0.3533935546875
281517,0.8253936767578125,0.1184539794921875,-0.35382080078125
281518,0.847503662109375,0.1101837158203125,-0.3597564697265625
281519,0.9055633544921876,0.11126708984375,-0.38134765625
281520,0.9055633544921876,0.11126708984375,-0.38134765625
281521,0.9196014404296876,0.1053924560546875,-0.3950958251953125
281522,0.9217529296875,0.1100616455078125,-0.3942718505859375
281523,0.925933837890625,0.1087188720703125,-0.380279541015625
281524,0.925933837890625,0.1087188720703125,-0.380279541015625
281525,0.9397735595703124,0.105743408203125,-0.335113525390625
281526,0.9549407958984376,0.087432861328125,-0.3053741455078125
281527,0.9812469482421876,0.04998779296875,-0.1794586181640625
281528,0.9812469482421876,0.04998779296875,-0.1794586181640625
281529,0.9743499755859376,0.050445556640625,-0.113800048828125
281530,0.954345703125,0.0535736083984375,-0.0814971923828125
281531,0.930084228515625,0.0297088623046875,-0.086517333984375
281532,0.930084228515625,0.0297088623046875,-0.086517333984375
281533,0.928924560546875,-0.003448486328125,-0.0842742919921875
281534,0.93963623046875,-0.04693603515625,-0.0753173828125
281535,0.9921112060546876,-0.1313323974609375,-0.0568695068359375
281536,0.9921112060546876,-0.1313323974609375,-0.0568695068359375
281537,1.00714111328125,-0.16082763671875,-0.0514068603515625
281538,1.018661499023438,-0.1898651123046875,-0.05108642578125
281539,1.019561767578125,-0.2078094482421875,-0.0367431640625
281540,1.019561767578125,-0.2078094482421875,-0.0367431640625
281541,1.027359008789062,-0.2075958251953125,-0.030303955078125
281542,1.026962280273438,-0.1836395263671875,-0.0370635986328125
281543,1.036544799804688,-0.1466064453125,-0.0402984619140625
281544,1.036544799804688,-0.1466064453125,-0.0402984619140625
281545,1.048828125,-0.140228271484375,-0.0268707275390625
281546,1.069793701171875,-0.1345977783203125,-0.0092620849609375
281547,1.097976684570312,-0.1261138916015625,0.0158843994140625
281548,1.120208740234375,-0.106170654296875,0.0418701171875
281549,1.145706176757812,-0.076873779296875,0.0608673095703125
281550,1.172088623046875,-0.032623291015625,0.0633544921875
281551,1.211776733398438,0.0489044189453125,-0.0461273193359375
281552,1.211776733398438,0.0489044189453125,-0.0461273193359375
281553,1.217422485351562,0.099090576171875,-0.1392974853515625
281554,1.235641479492188,0.147064208984375,-0.2382659912109375
281555,1.358749389648438,0.2198028564453125,-0.5258941650390625
281556,1.358749389648438,0.2198028564453125,-0.5258941650390625
281557,1.417572021484375,0.1800384521484375,-0.5877532958984375
281558,1.439559936523438,0.07672119140625,-0.572265625
281559,1.292144775390625,-0.1457672119140625,-0.3870697021484375
281560,1.292144775390625,-0.1457672119140625,-0.3870697021484375
281561,1.15838623046875,-0.2884674072265625,-0.29742431640625
281562,1.026229858398438,-0.4032440185546875,-0.199310302734375
281563,0.7440185546875,-0.4744415283203125,-0.0525054931640625
281564,0.7440185546875,-0.4744415283203125,-0.0525054931640625
281565,0.6461181640625,-0.4500579833984375,-0.0037841796875
281566,0.561004638671875,-0.387664794921875,-0.031829833984375
281567,0.5346527099609375,-0.2983245849609375,-0.131683349609375
281568,0.583831787109375,-0.2367401123046875,-0.21588134765625
281569,0.583831787109375,-0.2367401123046875,-0.21588134765625
281570,0.6723480224609375,-0.1756744384765625,-0.3021392822265625
281571,0.896575927734375,-0.0880584716796875,-0.3456573486328125
281572,0.896575927734375,-0.0880584716796875,-0.3456573486328125
281573,1.003280639648438,-0.0540008544921875,-0.3238983154296875
281574,1.100967407226562,-0.024200439453125,-0.308013916015625
281575,1.232742309570312,0.020904541015625,-0.210784912109375
281576,1.232742309570312,0.020904541015625,-0.210784912109375
281577,1.264785766601562,0.013946533203125,-0.1822662353515625
281578,1.270477294921875,-0.0167388916015625,-0.125823974609375
281579,1.250778198242188,-0.076324462890625,-0.07708740234375
281580,1.202316284179688,-0.1267852783203125,-0.0078125
281581,1.123916625976562,-0.16595458984375,0.085540771484375
281582,1.038681030273438,-0.2138214111328125,0.1210784912109375
281583,0.8774871826171875,-0.241943359375,0.04864501953125
281584,0.8774871826171875,-0.241943359375,0.04864501953125
281585,0.805755615234375,-0.2280731201171875,-0.0030975341796875
281586,0.751007080078125,-0.19671630859375,-0.0668182373046875
281587,0.712066650390625,-0.1711273193359375,-0.1152191162109375
281588,0.6938323974609375,-0.1505126953125,-0.139007568359375
281589,0.6963043212890625,-0.130126953125,-0.1475830078125
281590,0.7223663330078125,-0.115966796875,-0.126922607421875
281591,0.7587738037109375,-0.1032257080078125,-0.0775604248046875
281592,0.802032470703125,-0.09619140625,-0.0193634033203125
281593,0.84197998046875,-0.082550048828125,0.02410888671875
281594,0.87890625,-0.0705108642578125,0.0576019287109375
281595,0.9149017333984376,-0.058502197265625,0.0951080322265625
281596,0.9488372802734376,-0.0529327392578125,0.15460205078125
281597,0.9913177490234376,-0.047088623046875,0.2229766845703125
281598,1.02923583984375,-0.0528411865234375,0.2760467529296875
281599,1.06744384765625,-0.0726470947265625,0.3113555908203125
281600,1.06744384765625,-0.0726470947265625,0.3113555908203125
281601,1.087066650390625,-0.0883026123046875,0.318939208984375
281602,1.051467895507812,-0.11126708984375,0.3151702880859375
281603,0.9250640869140624,-0.124755859375,0.2360687255859375
281604,0.9250640869140624,-0.124755859375,0.2360687255859375
281605,0.8496246337890625,-0.1270294189453125,0.155242919921875
281606,0.787506103515625,-0.1347503662109375,0.066802978515625
281607,0.7483978271484375,-0.17059326171875,-0.01171875
281608,0.7483978271484375,-0.17059326171875,-0.01171875
281609,0.77484130859375,-0.205322265625,0.0337371826171875
281610,0.8316192626953125,-0.2346343994140625,0.0691680908203125
281611,0.9276580810546876,-0.2848052978515625,0.0186920166015625
281612,0.9276580810546876,-0.2848052978515625,0.0186920166015625
281613,1.137954711914062,-0.3699493408203125,-0.17169189453125
281614,1.248565673828125,-0.4256134033203125,-0.290985107421875
281615,1.387451171875,-0.47772216796875,-0.405914306640625
281616,1.387451171875,-0.47772216796875,-0.405914306640625
281617,1.639907836914062,-0.33306884765625,-0.321929931640625
281618,1.617706298828125,-0.1700897216796875,-0.218719482421875
281619,1.482681274414062,-0.038116455078125,-0.2313385009765625
281620,1.482681274414062,-0.038116455078125,-0.2313385009765625
281621,1.14422607421875,-0.0167083740234375,-0.386962890625
281622,1.0137939453125,-0.0424957275390625,-0.3388671875
281623,0.900848388671875,-0.0685272216796875,-0.2423553466796875
281624,0.900848388671875,-0.0685272216796875,-0.2423553466796875
281625,0.7956695556640625,-0.0249176025390625,-0.1882171630859375
281626,0.803741455078125,0.0309600830078125,-0.25421142578125
281627,0.8107147216796875,0.0800628662109375,-0.33380126953125
281628,0.7795257568359375,0.0953216552734375,-0.4040069580078125
281629,0.7239990234375,0.091156005859375,-0.461273193359375
281630,0.6613311767578125,0.069305419921875,-0.49407958984375
281631,0.5666351318359375,-0.0592498779296875,-0.5457611083984375
281632,0.5666351318359375,-0.0592498779296875,-0.5457611083984375
281633,0.5555419921875,-0.149169921875,-0.5915374755859375
281634,0.58392333984375,-0.224700927734375,-0.6479034423828125
281635,0.6382293701171875,-0.27593994140625,-0.671722412109375
281636,0.6382293701171875,-0.27593994140625,-0.671722412109375
281637,0.792388916015625,-0.270721435546875,-0.5816497802734375
281638,0.8875885009765625,-0.249786376953125,-0.4930572509765625
281639,1.125244140625,-0.1646575927734375,-0.295654296875
281640,1.125244140625,-0.1646575927734375,-0.295654296875
281641,1.2288818359375,-0.098114013671875,-0.2061614990234375
281642,1.303314208984375,-0.0272369384765625,-0.1427154541015625
281643,1.328475952148438,0.0421600341796875,-0.1192474365234375
281644,1.328475952148438,0.0421600341796875,-0.1192474365234375
281645,1.238113403320312,0.12921142578125,-0.1694488525390625
281646,1.127410888671875,0.1253509521484375,-0.2532958984375
281647,0.914642333984375,0.1136627197265625,-0.4250335693359375
281648,0.914642333984375,0.1136627197265625,-0.4250335693359375
281649,0.8345489501953125,0.1204376220703125,-0.459686279296875
281650,0.7708892822265625,0.125244140625,-0.45074462890625
281651,0.7303924560546875,0.1070404052734375,-0.438690185546875
281652,0.7115936279296875,0.074371337890625,-0.416534423828125
281653,0.7118377685546875,0.0609130859375,-0.3430938720703125
281654,0.7431488037109375,0.0135040283203125,-0.3349761962890625
281655,0.8485870361328125,-0.0890350341796875,-0.3528594970703125
281656,0.8485870361328125,-0.0890350341796875,-0.3528594970703125
281657,0.9232330322265624,-0.1209564208984375,-0.3679656982421875
281658,0.9899749755859376,-0.142547607421875,-0.3719635009765625
281659,1.036392211914062,-0.143035888671875,-0.3575592041015625
281660,1.062911987304688,-0.1345367431640625,-0.3160247802734375
281661,1.069381713867188,-0.13690185546875,-0.270294189453125
281662,1.0738525390625,-0.141448974609375,-0.2469329833984375
281663,1.084381103515625,-0.1029815673828125,-0.25616455078125
281664,1.058090209960938,-0.0482025146484375,-0.2993927001953125
281665,1.023086547851562,0.0250244140625,-0.411895751953125
281666,1.003646850585938,0.105377197265625,-0.565521240234375
281667,1.002853393554688,0.18194580078125,-0.7168121337890625
281668,1.002853393554688,0.18194580078125,-0.7168121337890625
281669,1.059326171875,0.2769927978515625,-0.9051971435546876
281670,1.115936279296875,0.247955322265625,-0.9401397705078124
281671,1.191787719726562,0.0804290771484375,-0.8323211669921875
281672,1.191787719726562,0.0804290771484375,-0.8323211669921875
281673,1.27923583984375,-0.2833099365234375,-0.574859619140625
281674,1.235198974609375,-0.3699188232421875,-0.603485107421875
281675,0.8911285400390625,-0.4431610107421875,-0.269683837890625
281676,0.8911285400390625,-0.4431610107421875,-0.269683837890625
281677,0.728424072265625,-0.4824676513671875,-0.02398681640625
281678,0.5973663330078125,-0.487091064453125,0.16290283203125
281679,0.53118896484375,-0.4773101806640625,0.2164459228515625
281680,0.5572357177734375,-0.477935791015625,0.0786895751953125
281681,0.6709747314453125,-0.4081573486328125,-0.1675262451171875
281682,0.8072509765625,-0.2310333251953125,-0.2989044189453125
281683,1.046707153320312,0.102996826171875,-0.303955078125
281684,1.046707153320312,0.102996826171875,-0.303955078125
281685,1.12750244140625,0.2128753662109375,-0.2286224365234375
281686,1.191162109375,0.255157470703125,-0.1555328369140625
281687,1.227584838867188,0.2586669921875,-0.103424072265625
281688,1.227584838867188,0.2586669921875,-0.103424072265625
281689,1.186050415039062,0.1916351318359375,-0.099945068359375
281690,1.14501953125,0.0894622802734375,-0.078460693359375
281691,1.092803955078125,-0.011749267578125,-0.0460968017578125
281692,1.02899169921875,-0.0799713134765625,-0.004058837890625
281693,0.96533203125,-0.12518310546875,0.0155029296875
281694,0.908843994140625,-0.1634063720703125,0.0006561279296875
281695,0.8615264892578125,-0.20098876953125,0.0052032470703125
281696,0.826141357421875,-0.223663330078125,0.0257110595703125
281697,0.802337646484375,-0.241058349609375,0.0393218994140625
281698,0.798004150390625,-0.2361907958984375,0.0383453369140625
281699,0.827362060546875,-0.225799560546875,0.0661773681640625
281700,0.827362060546875,-0.225799560546875,0.0661773681640625
281701,0.843841552734375,-0.2136688232421875,0.085052490234375
281702,0.859649658203125,-0.204681396484375,0.092498779296875
281703,0.8774261474609375,-0.187347412109375,0.1068267822265625
281704,0.8774261474609375,-0.187347412109375,0.1068267822265625
281705,0.9133148193359376,-0.138519287109375,0.158172607421875
281706,0.935028076171875,-0.11505126953125,0.1880340576171875
281707,0.9538421630859376,-0.083831787109375,0.2265625
281708,0.9538421630859376,-0.083831787109375,0.2265625
281709,0.970123291015625,-0.057220458984375,0.257568359375
281710,0.963531494140625,-0.059173583984375,0.2501373291015625
281711,0.9377593994140624,-0.0936737060546875,0.2067718505859375
281712,0.9377593994140624,-0.0936737060546875,0.2067718505859375
281713,0.9347381591796876,-0.1288909912109375,0.18341064453125
281714,0.9464111328125,-0.1678924560546875,0.1609649658203125
281715,0.9973297119140624,-0.2059478759765625,0.1695404052734375
281716,0.9973297119140624,-0.2059478759765625,0.1695404052734375
281717,1.02252197265625,-0.197906494140625,0.2153472900390625
281718,1.035552978515625,-0.1826934814453125,0.2567901611328125
281719,1.0166015625,-0.1661224365234375,0.247283935546875
281720,1.0166015625,-0.1661224365234375,0.247283935546875
281721,1.0010986328125,-0.1747589111328125,0.1786651611328125
281722,1.01275634765625,-0.1914215087890625,0.101654052734375
281723,1.15203857421875,-0.1970672607421875,0.0377349853515625
281724,1.15203857421875,-0.1970672607421875,0.0377349853515625
281725,1.246017456054688,-0.1523895263671875,0.0673828125
281726,1.335220336914062,-0.1455841064453125,0.0916290283203125
281727,1.3834228515625,-0.1028900146484375,0.1222686767578125
281728,1.3834228515625,-0.1028900146484375,0.1222686767578125
281729,1.235214233398438,-0.1106719970703125,0.0750579833984375
281730,1.100601196289062,-0.1383056640625,0.010711669921875
281731,0.980133056640625,-0.1452484130859375,-0.068115234375
281732,0.980133056640625,-0.1452484130859375,-0.068115234375
281733,0.7923583984375,-0.1621856689453125,-0.1880340576171875
281734,0.7296905517578125,-0.1536865234375,-0.23114013671875
281735,0.6888885498046875,-0.142974853515625,-0.2557373046875
281736,0.6710052490234375,-0.1295623779296875,-0.2809295654296875
281737,0.670562744140625,-0.1091461181640625,-0.306884765625
281738,0.6734619140625,-0.0929718017578125,-0.3141937255859375
281739,0.6914215087890625,-0.08856201171875,-0.3152618408203125
281740,0.6914215087890625,-0.08856201171875,-0.3152618408203125
281741,0.7458343505859375,-0.1213836669921875,-0.298828125
281742,0.7894287109375,-0.1605224609375,-0.2740478515625
281743,0.844390869140625,-0.196014404296875,-0.2449951171875
281744,0.9039459228515624,-0.2165069580078125,-0.2156982421875
281745,0.9724884033203124,-0.2452545166015625,-0.180084228515625
281746,1.045516967773438,-0.2645263671875,-0.148040771484375
281747,1.1278076171875,-0.2796630859375,-0.1250457763671875
281748,1.1278076171875,-0.2796630859375,-0.1250457763671875
281749,1.289932250976562,-0.2863616943359375,-0.06903076171875
281750,1.3616943359375,-0.26971435546875,-0.0357208251953125
281751,1.4136962890625,-0.193511962890625,0.00579833984375
281752,1.4136962890625,-0.193511962890625,0.00579833984375
281753,1.357620239257812,-0.1576995849609375,-0.0163421630859375
281754,1.251953125,-0.149566650390625,-0.072265625
281755,0.984649658203125,-0.1567840576171875,-0.2077789306640625
281756,0.984649658203125,-0.1567840576171875,-0.2077789306640625
281757,0.8676910400390625,-0.168121337890625,-0.2044525146484375
281758,0.7907562255859375,-0.18701171875,-0.2048492431640625
281759,0.752166748046875,-0.2082672119140625,-0.197296142578125
281760,0.752166748046875,-0.2082672119140625,-0.197296142578125
281761,0.784454345703125,-0.184051513671875,-0.1724090576171875
281762,0.8398284912109375,-0.1483917236328125,-0.14605712890625
281763,0.9141387939453124,-0.0970916748046875,-0.113677978515625
281764,0.9844207763671876,-0.026519775390625,-0.098297119140625
281765,1.022003173828125,0.009857177734375,-0.1273345947265625
281766,1.051055908203125,0.0147857666015625,-0.0911865234375
281767,1.053375244140625,-0.012237548828125,-0.1249237060546875
281768,1.079452514648438,-0.0288238525390625,-0.21551513671875
281769,1.091506958007812,-0.0405731201171875,-0.188568115234375
281770,1.105209350585938,-0.0574493408203125,-0.189056396484375
281771,1.151336669921875,-0.136962890625,-0.031890869140625
281772,1.151336669921875,-0.136962890625,-0.031890869140625
281773,1.186386108398438,-0.25970458984375,0.036590576171875
281774,1.209548950195312,-0.375396728515625,0.0608978271484375
281775,1.18353271484375,-0.4169158935546875,0.0709991455078125
281776,1.18353271484375,-0.4169158935546875,0.0709991455078125
281777,1.032211303710938,-0.3681640625,0.03692626953125
281778,0.9642333984375,-0.309326171875,0.0114288330078125
281779,0.8524169921875,-0.204254150390625,0.0270538330078125
281780,0.8524169921875,-0.204254150390625,0.0270538330078125
281781,0.7810516357421875,-0.13287353515625,0.058135986328125
281782,0.718231201171875,-0.0704803466796875,0.06475830078125
281783,0.679534912109375,-0.0912628173828125,-0.0074615478515625
281784,0.679534912109375,-0.0912628173828125,-0.0074615478515625
281785,0.727447509765625,-0.1750640869140625,-0.0354766845703125
281786,0.8018646240234375,-0.2518463134765625,-0.0072479248046875
281787,0.9383392333984376,-0.264739990234375,0.120361328125
281788,0.9383392333984376,-0.264739990234375,0.120361328125
281789,0.9925689697265624,-0.234832763671875,0.14208984375
281790,1.041168212890625,-0.1837615966796875,0.1372833251953125
281791,1.089385986328125,-0.1338958740234375,0.1135406494140625
281792,1.127685546875,-0.090179443359375,0.0996246337890625
281793,1.147933959960938,-0.052886962890625,0.111480712890625
281794,1.146804809570312,-0.027313232421875,0.130401611328125
281795,1.130218505859375,-0.0169677734375,0.141693115234375
281796,1.096481323242188,-0.0261688232421875,0.13983154296875
281797,1.048202514648438,-0.055267333984375,0.1328277587890625
281798,0.9943389892578124,-0.08697509765625,0.134185791015625
281799,0.965179443359375,-0.1159820556640625,0.13922119140625
281800,0.945556640625,-0.144439697265625,0.16168212890625
281801,0.9347381591796876,-0.1587371826171875,0.17626953125
281802,0.92987060546875,-0.1613006591796875,0.18121337890625
281803,0.933380126953125,-0.1555328369140625,0.17193603515625
281804,0.947784423828125,-0.1511688232421875,0.15374755859375
281805,0.9659423828125,-0.1467132568359375,0.1336822509765625
281806,0.9757232666015624,-0.1389007568359375,0.1263427734375
281807,0.9832916259765624,-0.1368865966796875,0.118408203125
281808,0.98968505859375,-0.1359710693359375,0.11553955078125
281809,0.994598388671875,-0.1305694580078125,0.1199951171875
281810,0.99383544921875,-0.12744140625,0.135772705078125
281811,0.99407958984375,-0.1281280517578125,0.1587066650390625
281812,0.99407958984375,-0.1281280517578125,0.1587066650390625
281813,0.992431640625,-0.14154052734375,0.182891845703125
281814,0.9863128662109376,-0.14703369140625,0.1916351318359375
281815,0.978118896484375,-0.1500244140625,0.2043304443359375
281816,0.97149658203125,-0.1532135009765625,0.213287353515625
281817,0.9698638916015624,-0.150909423828125,0.2157745361328125
281818,0.973388671875,-0.1440582275390625,0.2126617431640625
281819,0.9803009033203124,-0.1391448974609375,0.20562744140625
281820,0.987396240234375,-0.1387786865234375,0.199249267578125
281821,0.9908599853515624,-0.1446685791015625,0.1981964111328125
281822,0.989532470703125,-0.1499786376953125,0.201446533203125
281823,0.9836578369140624,-0.1543426513671875,0.203033447265625
281824,0.9836578369140624,-0.1543426513671875,0.203033447265625
281825,0.9705657958984376,-0.1602020263671875,0.207489013671875
281826,0.96099853515625,-0.16326904296875,0.208892822265625
281827,0.9507904052734376,-0.1673736572265625,0.20086669921875
281828,0.9507904052734376,-0.1673736572265625,0.20086669921875
281829,0.951202392578125,-0.1655731201171875,0.2007904052734375
281830,0.952239990234375,-0.160400390625,0.19940185546875
281831,0.9576263427734376,-0.159576416015625,0.1977691650390625
281832,0.9682464599609376,-0.16015625,0.1991729736328125
281833,0.9748382568359376,-0.159820556640625,0.20361328125
281834,0.9767608642578124,-0.1634674072265625,0.2091827392578125
281835,0.9766082763671876,-0.1608428955078125,0.216552734375
281836,0.9766082763671876,-0.1608428955078125,0.216552734375
281837,0.97430419921875,-0.1582794189453125,0.21636962890625
281838,0.9742279052734376,-0.1525115966796875,0.2123565673828125
281839,0.973236083984375,-0.1533966064453125,0.2131500244140625
281840,0.971282958984375,-0.1540374755859375,0.2181854248046875
281841,0.96673583984375,-0.1556243896484375,0.2208251953125
281842,0.9643402099609376,-0.1573028564453125,0.2192840576171875
281843,0.9637451171875,-0.157684326171875,0.2206268310546875
281844,0.961029052734375,-0.15655517578125,0.224884033203125
281845,0.95684814453125,-0.1583404541015625,0.2294464111328125
281846,0.95361328125,-0.1576385498046875,0.2327880859375
281847,0.953643798828125,-0.156646728515625,0.2357177734375
281848,0.953643798828125,-0.156646728515625,0.2357177734375
281849,0.9566192626953124,-0.155517578125,0.235443115234375
281850,0.9599609375,-0.1565704345703125,0.23193359375
281851,0.9611663818359376,-0.1558837890625,0.2282257080078125
281852,0.9640960693359376,-0.161773681640625,0.22479248046875
281853,0.967193603515625,-0.1685333251953125,0.224700927734375
281854,0.9664764404296876,-0.16925048828125,0.227752685546875
281855,0.965576171875,-0.1708984375,0.2304534912109375
281856,0.965576171875,-0.1708984375,0.2304534912109375
281857,0.96771240234375,-0.1680908203125,0.2254638671875
281858,0.9662933349609376,-0.15765380859375,0.22283935546875
281859,0.965057373046875,-0.1550140380859375,0.2228851318359375
281860,0.9657135009765624,-0.1560821533203125,0.2214202880859375
281861,0.9644012451171876,-0.1512908935546875,0.22314453125
281862,0.9624176025390624,-0.1520538330078125,0.2214202880859375
281863,0.9625396728515624,-0.156768798828125,0.2129974365234375
281864,0.9625396728515624,-0.156768798828125,0.2129974365234375
281865,0.96038818359375,-0.160430908203125,0.211181640625
281866,0.95758056640625,-0.1605682373046875,0.2180023193359375
281867,0.954376220703125,-0.156494140625,0.220458984375
281868,0.951446533203125,-0.1568756103515625,0.2168426513671875
281869,0.95233154296875,-0.15673828125,0.2144012451171875
281870,0.956024169921875,-0.1585845947265625,0.2164306640625
281871,0.96478271484375,-0.162628173828125,0.222381591796875
281872,0.97296142578125,-0.163909912109375,0.228607177734375
281873,0.976959228515625,-0.1593475341796875,0.2291107177734375
281874,0.9755401611328124,-0.157684326171875,0.2223358154296875
281875,0.972747802734375,-0.1483154296875,0.2172088623046875
281876,0.972747802734375,-0.1483154296875,0.2172088623046875
281877,0.9706573486328124,-0.148956298828125,0.20941162109375
281878,0.9746246337890624,-0.146759033203125,0.21343994140625
281879,0.9782562255859376,-0.1417388916015625,0.2178192138671875
281880,0.9782562255859376,-0.1417388916015625,0.2178192138671875
281881,0.97808837890625,-0.1424713134765625,0.20916748046875
281882,0.979583740234375,-0.1417999267578125,0.214385986328125
281883,0.9812164306640624,-0.1284942626953125,0.2211761474609375
281884,0.9812164306640624,-0.1284942626953125,0.2211761474609375
281885,0.9708251953125,-0.0999298095703125,0.2231292724609375
281886,0.9679107666015624,-0.0895538330078125,0.2173614501953125
281887,0.9661102294921876,-0.0801239013671875,0.21942138671875
281888,0.9671783447265624,-0.0742340087890625,0.221221923828125
281889,0.97271728515625,-0.0703277587890625,0.2092437744140625
281890,0.985809326171875,-0.0755767822265625,0.1871795654296875
281891,0.9942474365234376,-0.071685791015625,0.1884002685546875
281892,0.9942474365234376,-0.071685791015625,0.1884002685546875
281893,0.9998016357421876,-0.0840606689453125,0.2024993896484375
281894,1.002639770507812,-0.09710693359375,0.227508544921875
281895,1.00140380859375,-0.1128997802734375,0.23455810546875
281896,0.9963226318359376,-0.1326446533203125,0.2304229736328125
281897,0.9918365478515624,-0.1517791748046875,0.2230682373046875
281898,0.987701416015625,-0.16156005859375,0.216766357421875
281899,0.9768829345703124,-0.172576904296875,0.2168121337890625
281900,0.9768829345703124,-0.172576904296875,0.2168121337890625
281901,0.9688568115234376,-0.1981964111328125,0.2241363525390625
281902,0.9716796875,-0.2052001953125,0.2253265380859375
281903,0.9825897216796876,-0.197479248046875,0.25177001953125
281904,0.9825897216796876,-0.197479248046875,0.25177001953125
281905,0.9875640869140624,-0.1944427490234375,0.2599945068359375
281906,0.9957275390625,-0.195343017578125,0.25164794921875
281907,1.012039184570312,-0.2005462646484375,0.2478179931640625
281908,1.011810302734375,-0.2014923095703125,0.24139404296875
281909,0.9901580810546876,-0.196502685546875,0.224517822265625
281910,0.9788970947265624,-0.19525146484375,0.2351837158203125
281911,0.9891204833984376,-0.20233154296875,0.2496490478515625
281912,1.00909423828125,-0.2134552001953125,0.2655792236328125
281913,1.013717651367188,-0.1937255859375,0.2735137939453125
281914,0.9519195556640624,-0.1849517822265625,0.269622802734375
281915,0.8858184814453125,-0.14166259765625,0.2758331298828125
