time_idx,accelerometerAccelerationX(G),accelerometerAccelerationY(G),accelerometerAccelerationZ(G)
20000,-0.739013671875,0.6439666748046875,-0.182220458984375
20001,-0.73809814453125,0.644500732421875,-0.17926025390625
20002,-0.7388916015625,0.645904541015625,-0.1784820556640625
20003,-0.7396240234375,0.643798828125,-0.1773223876953125
20004,-0.7408599853515625,0.641632080078125,-0.1777191162109375
20005,-0.742340087890625,0.64093017578125,-0.178436279296875
20006,-0.743194580078125,0.640655517578125,-0.177642822265625
20007,-0.7429962158203125,0.640411376953125,-0.1778564453125
20008,-0.740875244140625,0.6414794921875,-0.17913818359375
20009,-0.7385101318359375,0.6429901123046875,-0.178009033203125
20010,-0.7368316650390625,0.6434478759765625,-0.18115234375
20011,-0.7358245849609375,0.64410400390625,-0.1817169189453125
20012,-0.7366180419921875,0.6444854736328125,-0.1817779541015625
20013,-0.7376708984375,0.6443634033203125,-0.182464599609375
20014,-0.7389068603515625,0.64324951171875,-0.1818695068359375
20015,-0.7393035888671875,0.641510009765625,-0.18157958984375
20016,-0.740875244140625,0.64019775390625,-0.178680419921875
20017,-0.740875244140625,0.64019775390625,-0.178680419921875
20018,-0.7405548095703125,0.64093017578125,-0.177886962890625
20019,-0.7408905029296875,0.6414031982421875,-0.176971435546875
20020,-0.7403564453125,0.64190673828125,-0.1779327392578125
20021,-0.739349365234375,0.6419830322265625,-0.178802490234375
20022,-0.739013671875,0.6428375244140625,-0.1800689697265625
20023,-0.7391204833984375,0.64288330078125,-0.1804046630859375
20024,-0.7397613525390625,0.642364501953125,-0.1819305419921875
20025,-0.739349365234375,0.6409149169921875,-0.18157958984375
20026,-0.740203857421875,0.6414031982421875,-0.180938720703125
20027,-0.740936279296875,0.6414947509765625,-0.181060791015625
20028,-0.74041748046875,0.6401519775390625,-0.1804351806640625
20029,-0.74041748046875,0.6401519775390625,-0.1804351806640625
20030,-0.740631103515625,0.6399688720703125,-0.1804046630859375
20031,-0.7415771484375,0.6411285400390625,-0.180511474609375
20032,-0.7406005859375,0.6441192626953125,-0.178985595703125
20033,-0.7406005859375,0.6441192626953125,-0.178985595703125
20034,-0.73931884765625,0.644073486328125,-0.1792449951171875
20035,-0.739166259765625,0.6431427001953125,-0.1793365478515625
20036,-0.7404632568359375,0.6429595947265625,-0.1803436279296875
20037,-0.7402801513671875,0.6419219970703125,-0.1812896728515625
20038,-0.7396087646484375,0.64007568359375,-0.18109130859375
20039,-0.7391815185546875,0.640045166015625,-0.181976318359375
20040,-0.7372894287109375,0.6424713134765625,-0.182220458984375
20041,-0.7372894287109375,0.6424713134765625,-0.182220458984375
20042,-0.7365570068359375,0.6448974609375,-0.18145751953125
20043,-0.7376556396484375,0.6463775634765625,-0.18182373046875
20044,-0.737762451171875,0.645050048828125,-0.18072509765625
20045,-0.73712158203125,0.64300537109375,-0.1818084716796875
20046,-0.739013671875,0.6410369873046875,-0.1822662353515625
20047,-0.74176025390625,0.63958740234375,-0.1829833984375
20048,-0.7421417236328125,0.6407318115234375,-0.18402099609375
20049,-0.7421417236328125,0.6407318115234375,-0.18402099609375
20050,-0.7418212890625,0.6428985595703125,-0.1824798583984375
20051,-0.740020751953125,0.6422119140625,-0.1811676025390625
20052,-0.7401885986328125,0.643280029296875,-0.181427001953125
20053,-0.7395477294921875,0.6437225341796875,-0.180419921875
20054,-0.7391510009765625,0.644683837890625,-0.1809539794921875
20055,-0.7389068603515625,0.644866943359375,-0.1811065673828125
20056,-0.73895263671875,0.64288330078125,-0.18109130859375
20057,-0.7385406494140625,0.6434783935546875,-0.1815185546875
20058,-0.7386016845703125,0.6430816650390625,-0.1815032958984375
20059,-0.7384185791015625,0.641876220703125,-0.1817474365234375
20060,-0.7362823486328125,0.6418914794921875,-0.1844024658203125
20061,-0.7362823486328125,0.6418914794921875,-0.1844024658203125
20062,-0.7378082275390625,0.6425018310546875,-0.1843109130859375
20063,-0.737945556640625,0.6430206298828125,-0.1851654052734375
20064,-0.7388458251953125,0.6445159912109375,-0.1846923828125
20065,-0.7376556396484375,0.644195556640625,-0.185150146484375
20066,-0.738037109375,0.6435699462890625,-0.1854095458984375
20067,-0.7386627197265625,0.6450347900390625,-0.1840972900390625
20068,-0.742156982421875,0.6434478759765625,-0.180694580078125
20069,-0.7415313720703125,0.6432952880859375,-0.18060302734375
20070,-0.7415313720703125,0.6432952880859375,-0.18060302734375
20071,-0.7430572509765625,0.642791748046875,-0.1799468994140625
20072,-0.7428741455078125,0.64385986328125,-0.180267333984375
20073,-0.7428741455078125,0.64385986328125,-0.180267333984375
20074,-0.740142822265625,0.64288330078125,-0.1796722412109375
20075,-0.739288330078125,0.6414947509765625,-0.1823883056640625
20076,-0.738067626953125,0.643218994140625,-0.1826934814453125
20077,-0.738067626953125,0.643218994140625,-0.1826934814453125
20078,-0.7376861572265625,0.643310546875,-0.18341064453125
20079,-0.7371063232421875,0.6441497802734375,-0.184326171875
20080,-0.7378387451171875,0.6450042724609375,-0.1825408935546875
20081,-0.7378387451171875,0.6450042724609375,-0.1825408935546875
20082,-0.7376861572265625,0.645233154296875,-0.1821136474609375
20083,-0.7382354736328125,0.644805908203125,-0.1817779541015625
20084,-0.7398529052734375,0.645751953125,-0.1812286376953125
20085,-0.7398529052734375,0.645751953125,-0.1812286376953125
20086,-0.73858642578125,0.644775390625,-0.1809539794921875
20087,-0.740478515625,0.6435394287109375,-0.181732177734375
20088,-0.7387847900390625,0.6426849365234375,-0.181671142578125
20089,-0.7387847900390625,0.6426849365234375,-0.181671142578125
20090,-0.7382049560546875,0.64324951171875,-0.182708740234375
20091,-0.7375946044921875,0.641510009765625,-0.18292236328125
20092,-0.73858642578125,0.6412200927734375,-0.1850128173828125
20093,-0.7387847900390625,0.6414031982421875,-0.1853179931640625
20094,-0.7384033203125,0.640960693359375,-0.1853485107421875
20095,-0.739654541015625,0.641265869140625,-0.1851806640625
20096,-0.7400665283203125,0.6425323486328125,-0.182464599609375
20097,-0.7400665283203125,0.6425323486328125,-0.182464599609375
20098,-0.7417449951171875,0.643402099609375,-0.1822509765625
20099,-0.742279052734375,0.6428680419921875,-0.181884765625
20100,-0.74053955078125,0.6433563232421875,-0.180572509765625
20101,-0.74053955078125,0.6433563232421875,-0.180572509765625
20102,-0.739959716796875,0.64288330078125,-0.181396484375
20103,-0.7397918701171875,0.643341064453125,-0.18206787109375
20104,-0.7393951416015625,0.643524169921875,-0.182342529296875
20105,-0.7384490966796875,0.642974853515625,-0.18310546875
20106,-0.7384490966796875,0.64276123046875,-0.184417724609375
20107,-0.7388458251953125,0.641571044921875,-0.1833648681640625
20108,-0.73773193359375,0.6413421630859375,-0.183868408203125
20109,-0.73773193359375,0.6413421630859375,-0.183868408203125
20110,-0.7388153076171875,0.642364501953125,-0.1828765869140625
20111,-0.7402801513671875,0.642974853515625,-0.18341064453125
20112,-0.74127197265625,0.642547607421875,-0.183135986328125
20113,-0.7409210205078125,0.6404266357421875,-0.1820526123046875
20114,-0.74224853515625,0.6392059326171875,-0.18096923828125
20115,-0.7424774169921875,0.6418914794921875,-0.181854248046875
20116,-0.7403717041015625,0.6453399658203125,-0.1793975830078125
20117,-0.73834228515625,0.6453094482421875,-0.1790924072265625
20118,-0.73834228515625,0.6453094482421875,-0.1790924072265625
20119,-0.7379608154296875,0.6456451416015625,-0.1781005859375
20120,-0.7404022216796875,0.6449432373046875,-0.1805877685546875
20121,-0.7404022216796875,0.6449432373046875,-0.1805877685546875
20122,-0.739898681640625,0.644775390625,-0.1813201904296875
20123,-0.739013671875,0.644012451171875,-0.1805419921875
20124,-0.737213134765625,0.643280029296875,-0.1810455322265625
20125,-0.737213134765625,0.643280029296875,-0.1810455322265625
20126,-0.7374267578125,0.6426544189453125,-0.181640625
20127,-0.7374114990234375,0.64215087890625,-0.1810455322265625
20128,-0.7376251220703125,0.642120361328125,-0.18206787109375
20129,-0.7376251220703125,0.6412506103515625,-0.182769775390625
20130,-0.73834228515625,0.642059326171875,-0.1826629638671875
20131,-0.739166259765625,0.6426239013671875,-0.182220458984375
20132,-0.73944091796875,0.64190673828125,-0.1832275390625
20133,-0.73944091796875,0.64190673828125,-0.1832275390625
20134,-0.7394256591796875,0.6411895751953125,-0.182464599609375
20135,-0.7396240234375,0.64227294921875,-0.1820220947265625
20136,-0.7397308349609375,0.642608642578125,-0.1816253662109375
20137,-0.7397308349609375,0.642608642578125,-0.1816253662109375
20138,-0.73870849609375,0.6410980224609375,-0.18145751953125
20139,-0.73907470703125,0.6411895751953125,-0.1822357177734375
20140,-0.73895263671875,0.642425537109375,-0.180694580078125
20141,-0.73895263671875,0.642425537109375,-0.180694580078125
20142,-0.738433837890625,0.6435089111328125,-0.17950439453125
20143,-0.738037109375,0.643707275390625,-0.18011474609375
20144,-0.7410736083984375,0.645904541015625,-0.179656982421875
20145,-0.7410736083984375,0.645904541015625,-0.179656982421875
20146,-0.741851806640625,0.64508056640625,-0.17816162109375
20147,-0.742919921875,0.6440277099609375,-0.1775665283203125
20148,-0.7425384521484375,0.644622802734375,-0.1779022216796875
20149,-0.7425384521484375,0.644622802734375,-0.1779022216796875
20150,-0.7402801513671875,0.644805908203125,-0.1779937744140625
20151,-0.7378387451171875,0.6450653076171875,-0.177276611328125
20152,-0.7374114990234375,0.6456756591796875,-0.177703857421875
20153,-0.7374114990234375,0.6456756591796875,-0.177703857421875
20154,-0.7373504638671875,0.6456298828125,-0.1791534423828125
20155,-0.7380218505859375,0.64459228515625,-0.178985595703125
20156,-0.7388916015625,0.6443023681640625,-0.178466796875
20157,-0.73980712890625,0.6457061767578125,-0.1781158447265625
20158,-0.7390899658203125,0.6452789306640625,-0.1769866943359375
20159,-0.7391204833984375,0.6448211669921875,-0.1768951416015625
20160,-0.7391204833984375,0.6448211669921875,-0.1768951416015625
20161,-0.738555908203125,0.64410400390625,-0.1776275634765625
20162,-0.7370758056640625,0.6439971923828125,-0.1779327392578125
20163,-0.7367706298828125,0.6430816650390625,-0.177734375
20164,-0.7392578125,0.643524169921875,-0.1777191162109375
20165,-0.7392578125,0.643524169921875,-0.1777191162109375
20166,-0.7395782470703125,0.6454010009765625,-0.1772308349609375
20167,-0.7395477294921875,0.6466827392578125,-0.1752166748046875
20168,-0.7393341064453125,0.64593505859375,-0.175262451171875
20169,-0.7393341064453125,0.64593505859375,-0.175262451171875
20170,-0.7398681640625,0.6458892822265625,-0.17596435546875
20171,-0.739959716796875,0.6468658447265625,-0.1777191162109375
20172,-0.7393646240234375,0.6448211669921875,-0.17852783203125
20173,-0.73931884765625,0.6443939208984375,-0.17987060546875
20174,-0.7389373779296875,0.64324951171875,-0.1804046630859375
20175,-0.737396240234375,0.64208984375,-0.181427001953125
20176,-0.737579345703125,0.6414794921875,-0.1822509765625
20177,-0.7387847900390625,0.6425933837890625,-0.1815185546875
20178,-0.738525390625,0.64349365234375,-0.1810150146484375
20179,-0.737579345703125,0.64447021484375,-0.181182861328125
20180,-0.7388763427734375,0.6457977294921875,-0.179229736328125
20181,-0.7388763427734375,0.6457977294921875,-0.179229736328125
20182,-0.7389373779296875,0.6457061767578125,-0.1776123046875
20183,-0.7405242919921875,0.64520263671875,-0.1769256591796875
20184,-0.740234375,0.642608642578125,-0.1774139404296875
20185,-0.740234375,0.642608642578125,-0.1774139404296875
20186,-0.7405853271484375,0.6435089111328125,-0.1777191162109375
20187,-0.7397003173828125,0.6449737548828125,-0.178192138671875
20188,-0.738311767578125,0.646575927734375,-0.17913818359375
20189,-0.738311767578125,0.646575927734375,-0.17913818359375
20190,-0.73858642578125,0.6463470458984375,-0.180572509765625
20191,-0.7396087646484375,0.6451416015625,-0.1815948486328125
20192,-0.739654541015625,0.6441192626953125,-0.1812896728515625
20193,-0.739654541015625,0.6441192626953125,-0.1812896728515625
20194,-0.7386627197265625,0.6435089111328125,-0.179443359375
20195,-0.7367401123046875,0.6447296142578125,-0.1790618896484375
20196,-0.7372283935546875,0.6448516845703125,-0.178466796875
20197,-0.7372283935546875,0.6448516845703125,-0.178466796875
20198,-0.738739013671875,0.6441802978515625,-0.1794281005859375
20199,-0.7389373779296875,0.644134521484375,-0.1790924072265625
20200,-0.7386932373046875,0.6471099853515625,-0.177490234375
20201,-0.7386932373046875,0.6471099853515625,-0.177490234375
20202,-0.737213134765625,0.6480560302734375,-0.1768646240234375
20203,-0.735107421875,0.648651123046875,-0.1776885986328125
20204,-0.737640380859375,0.64697265625,-0.179168701171875
20205,-0.737640380859375,0.64697265625,-0.179168701171875
20206,-0.7378997802734375,0.6442718505859375,-0.18072509765625
20207,-0.7381439208984375,0.644134521484375,-0.181182861328125
20208,-0.73944091796875,0.6440887451171875,-0.1806793212890625
20209,-0.73944091796875,0.6440887451171875,-0.1806793212890625
20210,-0.7370147705078125,0.646514892578125,-0.1795501708984375
20211,-0.7360687255859375,0.6477813720703125,-0.1782989501953125
20212,-0.7358856201171875,0.6494598388671875,-0.17578125
20213,-0.7358856201171875,0.6494598388671875,-0.17578125
20214,-0.735870361328125,0.64849853515625,-0.1762542724609375
20215,-0.7375335693359375,0.6485595703125,-0.1771240234375
20216,-0.738067626953125,0.6477508544921875,-0.1774444580078125
20217,-0.738067626953125,0.6477508544921875,-0.1774444580078125
20218,-0.738677978515625,0.646942138671875,-0.178741455078125
20219,-0.7385711669921875,0.6463775634765625,-0.179412841796875
20220,-0.7381439208984375,0.648193359375,-0.1802825927734375
20221,-0.7381439208984375,0.648193359375,-0.1802825927734375
20222,-0.7364501953125,0.6474456787109375,-0.1778564453125
20223,-0.7352294921875,0.6478424072265625,-0.176910400390625
20224,-0.737457275390625,0.648773193359375,-0.1768341064453125
20225,-0.737457275390625,0.648773193359375,-0.1768341064453125
20226,-0.73773193359375,0.647003173828125,-0.1758575439453125
20227,-0.7377166748046875,0.64739990234375,-0.175628662109375
20228,-0.7379150390625,0.6472320556640625,-0.1766204833984375
20229,-0.7379150390625,0.6472320556640625,-0.1766204833984375
20230,-0.738037109375,0.64727783203125,-0.1781005859375
20231,-0.737335205078125,0.6460113525390625,-0.1795806884765625
20232,-0.736297607421875,0.6465606689453125,-0.17901611328125
20233,-0.736297607421875,0.6465606689453125,-0.17901611328125
20234,-0.73406982421875,0.6462860107421875,-0.1814422607421875
20235,-0.734222412109375,0.6456756591796875,-0.18048095703125
20236,-0.7342071533203125,0.6452178955078125,-0.180633544921875
20237,-0.7342071533203125,0.6452178955078125,-0.180633544921875
20238,-0.7349700927734375,0.64532470703125,-0.1785430908203125
20239,-0.7370758056640625,0.6465301513671875,-0.1783294677734375
20240,-0.7391510009765625,0.6471099853515625,-0.178619384765625
20241,-0.7391510009765625,0.6471099853515625,-0.178619384765625
20242,-0.739593505859375,0.6468353271484375,-0.17529296875
20243,-0.7398223876953125,0.6461334228515625,-0.1739501953125
20244,-0.73931884765625,0.646759033203125,-0.1743011474609375
20245,-0.73931884765625,0.646759033203125,-0.1743011474609375
20246,-0.7384490966796875,0.646728515625,-0.1724395751953125
20247,-0.73675537109375,0.6453094482421875,-0.173553466796875
20248,-0.737548828125,0.64544677734375,-0.1750640869140625
20249,-0.737548828125,0.64544677734375,-0.1750640869140625
20250,-0.73712158203125,0.644012451171875,-0.176300048828125
20251,-0.7367401123046875,0.644287109375,-0.1777801513671875
20252,-0.735504150390625,0.6432342529296875,-0.1766510009765625
20253,-0.7351531982421875,0.6426849365234375,-0.1764373779296875
20254,-0.7356719970703125,0.6455841064453125,-0.1769256591796875
20255,-0.736480712890625,0.64776611328125,-0.175567626953125
20256,-0.7374420166015625,0.648468017578125,-0.173797607421875
20257,-0.7374420166015625,0.648468017578125,-0.173797607421875
20258,-0.7380523681640625,0.6483306884765625,-0.1716461181640625
20259,-0.737701416015625,0.6493072509765625,-0.17181396484375
20260,-0.738067626953125,0.6501617431640625,-0.169891357421875
20261,-0.738067626953125,0.6501617431640625,-0.169891357421875
20262,-0.738250732421875,0.6511077880859375,-0.16888427734375
20263,-0.738616943359375,0.650543212890625,-0.1698150634765625
20264,-0.7388763427734375,0.648681640625,-0.169586181640625
20265,-0.7383575439453125,0.6464385986328125,-0.1697998046875
20266,-0.7367095947265625,0.64501953125,-0.1717071533203125
20267,-0.7365875244140625,0.6436767578125,-0.1735076904296875
20268,-0.7348480224609375,0.6446533203125,-0.174530029296875
20269,-0.7348480224609375,0.6446533203125,-0.174530029296875
20270,-0.7341156005859375,0.6468505859375,-0.177398681640625
20271,-0.734405517578125,0.64605712890625,-0.1769866943359375
20272,-0.7336273193359375,0.6471710205078125,-0.1752166748046875
20273,-0.7336273193359375,0.6471710205078125,-0.1752166748046875
20274,-0.7367401123046875,0.647735595703125,-0.17388916015625
20275,-0.740570068359375,0.648468017578125,-0.1736297607421875
20276,-0.7433929443359375,0.6504974365234375,-0.1722259521484375
20277,-0.7438201904296875,0.650299072265625,-0.169464111328125
20278,-0.7404937744140625,0.6494140625,-0.1670074462890625
20279,-0.7389984130859375,0.649169921875,-0.1649169921875
20280,-0.7357330322265625,0.6481475830078125,-0.168121337890625
20281,-0.7357330322265625,0.6481475830078125,-0.168121337890625
20282,-0.7344512939453125,0.648651123046875,-0.1692657470703125
20283,-0.735137939453125,0.648590087890625,-0.1715850830078125
20284,-0.735198974609375,0.647613525390625,-0.17352294921875
20285,-0.736480712890625,0.646331787109375,-0.1735076904296875
20286,-0.73724365234375,0.6455535888671875,-0.1744232177734375
20287,-0.73919677734375,0.645416259765625,-0.174102783203125
20288,-0.74212646484375,0.6468505859375,-0.173614501953125
20289,-0.74212646484375,0.6468505859375,-0.173614501953125
20290,-0.7425384521484375,0.6486358642578125,-0.168975830078125
20291,-0.74127197265625,0.6487884521484375,-0.1659393310546875
20292,-0.7409820556640625,0.64996337890625,-0.16485595703125
20293,-0.7414093017578125,0.6515960693359375,-0.1633453369140625
20294,-0.74029541015625,0.651214599609375,-0.1638641357421875
20295,-0.73870849609375,0.6510162353515625,-0.1642913818359375
20296,-0.73828125,0.64996337890625,-0.163238525390625
20297,-0.7366180419921875,0.649017333984375,-0.1647796630859375
20298,-0.7367401123046875,0.6483917236328125,-0.1648101806640625
20299,-0.7367706298828125,0.64776611328125,-0.165863037109375
20300,-0.736328125,0.6482086181640625,-0.166839599609375
20301,-0.736328125,0.6482086181640625,-0.166839599609375
20302,-0.73565673828125,0.6479339599609375,-0.167694091796875
20303,-0.735626220703125,0.6459197998046875,-0.1687774658203125
20304,-0.735595703125,0.646270751953125,-0.167694091796875
20305,-0.7372589111328125,0.646240234375,-0.1684417724609375
20306,-0.7373809814453125,0.6448211669921875,-0.1678466796875
20307,-0.7371978759765625,0.645416259765625,-0.16668701171875
20308,-0.737823486328125,0.6466827392578125,-0.16552734375
20309,-0.737823486328125,0.6466827392578125,-0.16552734375
20310,-0.738861083984375,0.647064208984375,-0.1651763916015625
20311,-0.7393951416015625,0.646942138671875,-0.16461181640625
20312,-0.73895263671875,0.64788818359375,-0.1630401611328125
20313,-0.73895263671875,0.64788818359375,-0.1630401611328125
20314,-0.73846435546875,0.647857666015625,-0.161376953125
20315,-0.7369537353515625,0.64898681640625,-0.1626434326171875
20316,-0.7371368408203125,0.6491241455078125,-0.163055419921875
20317,-0.7371368408203125,0.6491241455078125,-0.163055419921875
20318,-0.737396240234375,0.647216796875,-0.1629638671875
20319,-0.737701416015625,0.6446380615234375,-0.1640625
20320,-0.7396697998046875,0.6424560546875,-0.1651153564453125
20321,-0.7405853271484375,0.6414031982421875,-0.1666107177734375
20322,-0.7389678955078125,0.64093017578125,-0.1665496826171875
20323,-0.73895263671875,0.6421661376953125,-0.1667327880859375
20324,-0.7404022216796875,0.642852783203125,-0.164947509765625
20325,-0.7404022216796875,0.642852783203125,-0.164947509765625
20326,-0.738616943359375,0.64501953125,-0.1610107421875
20327,-0.7384185791015625,0.6457672119140625,-0.1592559814453125
20328,-0.7372283935546875,0.646209716796875,-0.15753173828125
20329,-0.7372283935546875,0.646209716796875,-0.15753173828125
20330,-0.738494873046875,0.648223876953125,-0.157379150390625
20331,-0.7396240234375,0.6484527587890625,-0.156982421875
20332,-0.7403411865234375,0.648406982421875,-0.1562957763671875
20333,-0.7388916015625,0.64794921875,-0.1560516357421875
20334,-0.738433837890625,0.6474761962890625,-0.1565399169921875
20335,-0.737152099609375,0.6475982666015625,-0.155029296875
20336,-0.7378387451171875,0.64959716796875,-0.154541015625
20337,-0.73883056640625,0.6475067138671875,-0.1554107666015625
20338,-0.7390899658203125,0.646026611328125,-0.15570068359375
20339,-0.74041748046875,0.64483642578125,-0.156402587890625
20340,-0.742034912109375,0.6431121826171875,-0.1558380126953125
20341,-0.742034912109375,0.6431121826171875,-0.1558380126953125
20342,-0.7429962158203125,0.64276123046875,-0.156646728515625
20343,-0.743560791015625,0.644134521484375,-0.1577911376953125
20344,-0.7474212646484375,0.6485595703125,-0.158203125
20345,-0.7474212646484375,0.6485595703125,-0.158203125
20346,-0.7470855712890625,0.6482696533203125,-0.157958984375
20347,-0.745758056640625,0.6456756591796875,-0.1552581787109375
20348,-0.7451324462890625,0.6443328857421875,-0.1539306640625
20349,-0.7451324462890625,0.6443328857421875,-0.1539306640625
20350,-0.7461700439453125,0.6464691162109375,-0.1523284912109375
20351,-0.7448883056640625,0.647003173828125,-0.1516876220703125
20352,-0.7441558837890625,0.6487884521484375,-0.1521148681640625
20353,-0.7441558837890625,0.6487884521484375,-0.1521148681640625
20354,-0.740692138671875,0.65093994140625,-0.150787353515625
20355,-0.7396697998046875,0.6512298583984375,-0.15216064453125
20356,-0.739959716796875,0.649993896484375,-0.1522674560546875
20357,-0.739959716796875,0.649993896484375,-0.1522674560546875
20358,-0.7382354736328125,0.647064208984375,-0.154266357421875
20359,-0.738189697265625,0.645660400390625,-0.155853271484375
20360,-0.7388916015625,0.64495849609375,-0.1564788818359375
20361,-0.7393035888671875,0.644927978515625,-0.1565704345703125
20362,-0.740386962890625,0.647216796875,-0.1571044921875
20363,-0.7407073974609375,0.647125244140625,-0.1566619873046875
20364,-0.740447998046875,0.6475067138671875,-0.154571533203125
20365,-0.7410430908203125,0.6465911865234375,-0.1527557373046875
20366,-0.7410888671875,0.6481781005859375,-0.1518707275390625
20367,-0.7410430908203125,0.6490478515625,-0.1485748291015625
20368,-0.7420501708984375,0.6525115966796875,-0.148956298828125
20369,-0.7420501708984375,0.6525115966796875,-0.148956298828125
20370,-0.7408447265625,0.6522064208984375,-0.149017333984375
20371,-0.7402496337890625,0.6511383056640625,-0.1513671875
20372,-0.7407073974609375,0.65277099609375,-0.15313720703125
20373,-0.7407073974609375,0.65277099609375,-0.15313720703125
20374,-0.7404937744140625,0.651092529296875,-0.1533050537109375
20375,-0.740997314453125,0.652923583984375,-0.152618408203125
20376,-0.739898681640625,0.65643310546875,-0.1524658203125
20377,-0.739898681640625,0.65643310546875,-0.1524658203125
20378,-0.737579345703125,0.657379150390625,-0.1516265869140625
20379,-0.7360992431640625,0.6567840576171875,-0.15087890625
20380,-0.7357025146484375,0.6569976806640625,-0.149566650390625
20381,-0.7351531982421875,0.65814208984375,-0.1480560302734375
20382,-0.73529052734375,0.6590576171875,-0.1495361328125
20383,-0.7374114990234375,0.66015625,-0.15020751953125
20384,-0.7387237548828125,0.6589202880859375,-0.1522979736328125
20385,-0.739471435546875,0.656829833984375,-0.1554107666015625
20386,-0.7387237548828125,0.652130126953125,-0.1588134765625
20387,-0.73797607421875,0.6475372314453125,-0.160247802734375
20388,-0.73773193359375,0.6457061767578125,-0.1609954833984375
20389,-0.73773193359375,0.6457061767578125,-0.1609954833984375
20390,-0.7340087890625,0.64971923828125,-0.1632232666015625
20391,-0.73370361328125,0.649169921875,-0.161956787109375
20392,-0.7306060791015625,0.652313232421875,-0.16021728515625
20393,-0.7306060791015625,0.652313232421875,-0.16021728515625
20394,-0.731353759765625,0.6528472900390625,-0.160919189453125
20395,-0.7306671142578125,0.6513671875,-0.163360595703125
20396,-0.7294464111328125,0.6534423828125,-0.16571044921875
20397,-0.7294464111328125,0.6534423828125,-0.16571044921875
20398,-0.7306060791015625,0.654510498046875,-0.1645355224609375
20399,-0.7313385009765625,0.6569976806640625,-0.164031982421875
20400,-0.731292724609375,0.65826416015625,-0.161468505859375
20401,-0.7298736572265625,0.6607208251953125,-0.1601104736328125
20402,-0.7292327880859375,0.663177490234375,-0.157745361328125
20403,-0.727081298828125,0.665069580078125,-0.157958984375
20404,-0.7236175537109375,0.666717529296875,-0.1582183837890625
20405,-0.722076416015625,0.6702880859375,-0.16180419921875
20406,-0.7181243896484375,0.67303466796875,-0.16595458984375
20407,-0.716217041015625,0.6723175048828125,-0.1707000732421875
20408,-0.7168731689453125,0.6669158935546875,-0.1744842529296875
20409,-0.7168731689453125,0.6669158935546875,-0.1744842529296875
20410,-0.7192230224609375,0.6548309326171875,-0.177764892578125
20411,-0.7232818603515625,0.65167236328125,-0.1773681640625
20412,-0.7263641357421875,0.6514129638671875,-0.175079345703125
20413,-0.7263641357421875,0.6514129638671875,-0.175079345703125
20414,-0.730682373046875,0.6526031494140625,-0.1660308837890625
20415,-0.7326507568359375,0.6557464599609375,-0.162139892578125
20416,-0.732177734375,0.6617279052734375,-0.1608123779296875
20417,-0.732177734375,0.6617279052734375,-0.1608123779296875
20418,-0.7342681884765625,0.6609039306640625,-0.1633453369140625
20419,-0.733795166015625,0.660369873046875,-0.1669464111328125
20420,-0.7321014404296875,0.659210205078125,-0.1711273193359375
20421,-0.7299957275390625,0.6575775146484375,-0.175689697265625
20422,-0.72796630859375,0.6545562744140625,-0.17864990234375
20423,-0.724395751953125,0.652679443359375,-0.1791534423828125
20424,-0.722442626953125,0.6518707275390625,-0.1805877685546875
20425,-0.722442626953125,0.6518707275390625,-0.1805877685546875
20426,-0.717437744140625,0.6567230224609375,-0.178863525390625
20427,-0.7164459228515625,0.6600189208984375,-0.1770477294921875
20428,-0.7161865234375,0.664276123046875,-0.17315673828125
20429,-0.7176361083984375,0.668365478515625,-0.171234130859375
20430,-0.7194366455078125,0.6703948974609375,-0.16802978515625
20431,-0.722381591796875,0.66937255859375,-0.1668853759765625
20432,-0.7264556884765625,0.665374755859375,-0.1668243408203125
20433,-0.7264556884765625,0.665374755859375,-0.1668243408203125
20434,-0.7275848388671875,0.662628173828125,-0.169281005859375
20435,-0.7293548583984375,0.6602325439453125,-0.1728515625
20436,-0.7298431396484375,0.657379150390625,-0.1776123046875
20437,-0.7298431396484375,0.657379150390625,-0.1776123046875
20438,-0.7294769287109375,0.65948486328125,-0.1781158447265625
20439,-0.7285919189453125,0.6593170166015625,-0.17816162109375
20440,-0.727325439453125,0.65966796875,-0.1783905029296875
20441,-0.727325439453125,0.65966796875,-0.1783905029296875
20442,-0.7278289794921875,0.66143798828125,-0.1779937744140625
20443,-0.729278564453125,0.6616668701171875,-0.1779022216796875
20444,-0.7307586669921875,0.6609649658203125,-0.1775665283203125
20445,-0.7307586669921875,0.6609649658203125,-0.1775665283203125
20446,-0.7299957275390625,0.6614532470703125,-0.1765594482421875
20447,-0.729248046875,0.6639556884765625,-0.175537109375
20448,-0.729339599609375,0.665283203125,-0.17584228515625
20449,-0.72906494140625,0.6656951904296875,-0.175201416015625
20450,-0.7275390625,0.664306640625,-0.1751251220703125
20451,-0.7265777587890625,0.6629791259765625,-0.1746673583984375
20452,-0.7268829345703125,0.6579742431640625,-0.1787109375
20453,-0.7268829345703125,0.6579742431640625,-0.1787109375
20454,-0.72607421875,0.65655517578125,-0.18011474609375
20455,-0.7274169921875,0.6552734375,-0.1833648681640625
20456,-0.7297821044921875,0.653228759765625,-0.183502197265625
20457,-0.7312469482421875,0.652984619140625,-0.1833038330078125
20458,-0.732208251953125,0.6536407470703125,-0.1836090087890625
20459,-0.731658935546875,0.6537017822265625,-0.1826324462890625
20460,-0.73065185546875,0.65570068359375,-0.1823577880859375
20461,-0.73065185546875,0.65570068359375,-0.1823577880859375
20462,-0.72930908203125,0.65869140625,-0.1818695068359375
20463,-0.7291107177734375,0.6586761474609375,-0.1806640625
20464,-0.728759765625,0.6574554443359375,-0.17889404296875
20465,-0.72723388671875,0.65631103515625,-0.1779937744140625
20466,-0.7270355224609375,0.6542816162109375,-0.1774444580078125
20467,-0.7269287109375,0.654296875,-0.178009033203125
20468,-0.728759765625,0.655303955078125,-0.1798553466796875
20469,-0.728759765625,0.655303955078125,-0.1798553466796875
20470,-0.732025146484375,0.6570892333984375,-0.18267822265625
20471,-0.7313690185546875,0.65679931640625,-0.1833648681640625
20472,-0.7313995361328125,0.6555633544921875,-0.18463134765625
20473,-0.7313995361328125,0.6555633544921875,-0.18463134765625
20474,-0.73089599609375,0.654052734375,-0.1847076416015625
20475,-0.7286376953125,0.651458740234375,-0.183868408203125
20476,-0.7273712158203125,0.6499481201171875,-0.1837310791015625
20477,-0.7273712158203125,0.6499481201171875,-0.1837310791015625
20478,-0.726318359375,0.6500701904296875,-0.1832122802734375
20479,-0.7243194580078125,0.6501007080078125,-0.1824493408203125
20480,-0.722930908203125,0.650909423828125,-0.1810760498046875
20481,-0.724212646484375,0.6520233154296875,-0.1788177490234375
20482,-0.7242584228515625,0.652191162109375,-0.17767333984375
20483,-0.7269287109375,0.653228759765625,-0.1779937744140625
20484,-0.730712890625,0.6540679931640625,-0.1772918701171875
20485,-0.730712890625,0.6540679931640625,-0.1772918701171875
20486,-0.73419189453125,0.6543426513671875,-0.178436279296875
20487,-0.7354736328125,0.653717041015625,-0.1795196533203125
20488,-0.734710693359375,0.6556549072265625,-0.1807861328125
20489,-0.733123779296875,0.6572723388671875,-0.182159423828125
20490,-0.7311553955078125,0.65771484375,-0.1836090087890625
20491,-0.7291259765625,0.658294677734375,-0.184783935546875
20492,-0.72601318359375,0.658111572265625,-0.183074951171875
20493,-0.72601318359375,0.658111572265625,-0.183074951171875
20494,-0.723236083984375,0.6592864990234375,-0.177703857421875
20495,-0.7213287353515625,0.6591033935546875,-0.1763916015625
20496,-0.71978759765625,0.6563262939453125,-0.174652099609375
20497,-0.719879150390625,0.6528167724609375,-0.1726531982421875
20498,-0.7227783203125,0.6501007080078125,-0.17376708984375
20499,-0.725555419921875,0.648681640625,-0.1732025146484375
20500,-0.7279510498046875,0.649383544921875,-0.1760711669921875
20501,-0.7285003662109375,0.6511688232421875,-0.1782073974609375
20502,-0.727264404296875,0.6528778076171875,-0.1788330078125
20503,-0.725982666015625,0.65399169921875,-0.180877685546875
20504,-0.7244415283203125,0.6568145751953125,-0.1817779541015625
20505,-0.7226715087890625,0.6579132080078125,-0.181640625
20506,-0.7217864990234375,0.65716552734375,-0.1812896728515625
20507,-0.7211151123046875,0.6573638916015625,-0.1819305419921875
20508,-0.7216796875,0.65423583984375,-0.179962158203125
20509,-0.7216796875,0.65423583984375,-0.179962158203125
20510,-0.7225799560546875,0.654205322265625,-0.1797332763671875
20511,-0.7215118408203125,0.6545562744140625,-0.177764892578125
20512,-0.7183074951171875,0.6500244140625,-0.173431396484375
20513,-0.7183074951171875,0.6500244140625,-0.173431396484375
20514,-0.718780517578125,0.650360107421875,-0.17388916015625
20515,-0.7213897705078125,0.6488494873046875,-0.174530029296875
20516,-0.7243804931640625,0.6473388671875,-0.1765899658203125
20517,-0.7243804931640625,0.6473388671875,-0.1765899658203125
20518,-0.7312774658203125,0.65240478515625,-0.1816253662109375
20519,-0.733795166015625,0.6537017822265625,-0.182952880859375
20520,-0.737274169921875,0.6593170166015625,-0.185150146484375
20521,-0.7396697998046875,0.664581298828125,-0.1867523193359375
20522,-0.7386016845703125,0.6706085205078125,-0.18695068359375
20523,-0.73590087890625,0.6717071533203125,-0.186065673828125
20524,-0.732940673828125,0.6686553955078125,-0.1865234375
20525,-0.72821044921875,0.66278076171875,-0.1846466064453125
20526,-0.7251739501953125,0.6609344482421875,-0.1804962158203125
20527,-0.72528076171875,0.6612091064453125,-0.178863525390625
20528,-0.7250823974609375,0.6628265380859375,-0.17816162109375
20529,-0.7214813232421875,0.66021728515625,-0.1754913330078125
20530,-0.7194061279296875,0.6546173095703125,-0.1732177734375
20531,-0.7175140380859375,0.654510498046875,-0.1722259521484375
20532,-0.7158966064453125,0.6536865234375,-0.17303466796875
20533,-0.7158966064453125,0.6536865234375,-0.17303466796875
20534,-0.7199249267578125,0.6513214111328125,-0.17828369140625
20535,-0.722930908203125,0.6508636474609375,-0.18231201171875
20536,-0.7280731201171875,0.6516571044921875,-0.187835693359375
20537,-0.7280731201171875,0.6516571044921875,-0.187835693359375
20538,-0.730194091796875,0.65380859375,-0.19384765625
20539,-0.7331085205078125,0.6520843505859375,-0.196258544921875
20540,-0.73455810546875,0.6498870849609375,-0.19866943359375
20541,-0.7373199462890625,0.6474761962890625,-0.201263427734375
20542,-0.739410400390625,0.6443328857421875,-0.2000885009765625
20543,-0.7396087646484375,0.6416473388671875,-0.198333740234375
20544,-0.7438201904296875,0.644134521484375,-0.1957855224609375
20545,-0.7438201904296875,0.644134521484375,-0.1957855224609375
20546,-0.743133544921875,0.6478118896484375,-0.1930389404296875
20547,-0.743804931640625,0.646575927734375,-0.1909942626953125
20548,-0.744171142578125,0.641571044921875,-0.18701171875
20549,-0.744171142578125,0.641571044921875,-0.18701171875
20550,-0.745941162109375,0.636932373046875,-0.1868133544921875
20551,-0.7498016357421875,0.636444091796875,-0.1871490478515625
20552,-0.7530059814453125,0.6378173828125,-0.1864166259765625
20553,-0.7530059814453125,0.6378173828125,-0.1864166259765625
20554,-0.746856689453125,0.6416015625,-0.185821533203125
20555,-0.7393951416015625,0.6426544189453125,-0.1842041015625
20556,-0.728729248046875,0.6412353515625,-0.18292236328125
20557,-0.71875,0.635955810546875,-0.1806793212890625
20558,-0.713531494140625,0.6313934326171875,-0.183380126953125
20559,-0.713165283203125,0.628509521484375,-0.1878509521484375
20560,-0.721435546875,0.630279541015625,-0.1954193115234375
20561,-0.73162841796875,0.635009765625,-0.2029266357421875
20562,-0.73822021484375,0.6443328857421875,-0.2059478759765625
20563,-0.7376708984375,0.65283203125,-0.2032012939453125
20564,-0.7264404296875,0.656982421875,-0.1985931396484375
20565,-0.7123260498046875,0.651763916015625,-0.1953582763671875
20566,-0.7031707763671875,0.64495849609375,-0.1930694580078125
20567,-0.699310302734375,0.6454925537109375,-0.194793701171875
20568,-0.7021636962890625,0.6494140625,-0.1951904296875
20569,-0.7021636962890625,0.6494140625,-0.1951904296875
20570,-0.721588134765625,0.6614532470703125,-0.1969757080078125
20571,-0.7346649169921875,0.665191650390625,-0.1996307373046875
20572,-0.744598388671875,0.6657257080078125,-0.19891357421875
20573,-0.744598388671875,0.6657257080078125,-0.19891357421875
20574,-0.758575439453125,0.6680145263671875,-0.200164794921875
20575,-0.753173828125,0.66619873046875,-0.1947021484375
20576,-0.7394256591796875,0.665557861328125,-0.1885986328125
20577,-0.7394256591796875,0.665557861328125,-0.1885986328125
20578,-0.7324066162109375,0.662811279296875,-0.1875
20579,-0.724517822265625,0.6595611572265625,-0.1839599609375
20580,-0.7187652587890625,0.6561279296875,-0.1800079345703125
20581,-0.7187652587890625,0.6561279296875,-0.1800079345703125
20582,-0.712646484375,0.6485595703125,-0.1732025146484375
20583,-0.71661376953125,0.651519775390625,-0.1740264892578125
20584,-0.7197723388671875,0.655181884765625,-0.1740570068359375
20585,-0.7197723388671875,0.655181884765625,-0.1740570068359375
20586,-0.73699951171875,0.6733245849609375,-0.1881256103515625
20587,-0.746856689453125,0.6828460693359375,-0.1962127685546875
20588,-0.7522735595703125,0.69122314453125,-0.2013092041015625
20589,-0.7546844482421875,0.69610595703125,-0.20635986328125
20590,-0.747589111328125,0.6969451904296875,-0.2051544189453125
20591,-0.725372314453125,0.686004638671875,-0.1959228515625
20592,-0.707611083984375,0.6748809814453125,-0.187652587890625
20593,-0.707611083984375,0.6748809814453125,-0.187652587890625
20594,-0.7077484130859375,0.676666259765625,-0.1865997314453125
20595,-0.7059326171875,0.6758270263671875,-0.1829986572265625
20596,-0.705047607421875,0.6745758056640625,-0.1785888671875
20597,-0.7047271728515625,0.669891357421875,-0.1758880615234375
20598,-0.7052001953125,0.66357421875,-0.1765594482421875
20599,-0.7053375244140625,0.6587066650390625,-0.177154541015625
20600,-0.702606201171875,0.655792236328125,-0.1783905029296875
20601,-0.70440673828125,0.655731201171875,-0.18450927734375
20602,-0.70892333984375,0.6543121337890625,-0.193115234375
20603,-0.709320068359375,0.650299072265625,-0.1993560791015625
20604,-0.717071533203125,0.648040771484375,-0.2109527587890625
20605,-0.716552734375,0.64056396484375,-0.2166900634765625
20606,-0.7176666259765625,0.633514404296875,-0.22119140625
20607,-0.7234649658203125,0.6273956298828125,-0.225311279296875
20608,-0.7276153564453125,0.624359130859375,-0.2268524169921875
20609,-0.7276153564453125,0.624359130859375,-0.2268524169921875
20610,-0.72900390625,0.6298828125,-0.2205352783203125
20611,-0.725982666015625,0.6344451904296875,-0.214599609375
20612,-0.725341796875,0.63909912109375,-0.2099609375
20613,-0.725341796875,0.63909912109375,-0.2099609375
20614,-0.713287353515625,0.640777587890625,-0.1979827880859375
20615,-0.7108612060546875,0.6424713134765625,-0.1966400146484375
20616,-0.7126007080078125,0.6458282470703125,-0.192413330078125
20617,-0.7103118896484375,0.6482391357421875,-0.1873626708984375
20618,-0.7037200927734375,0.6517181396484375,-0.1830596923828125
20619,-0.7187652587890625,0.6594696044921875,-0.1941986083984375
20620,-0.7175750732421875,0.6606597900390625,-0.19293212890625
20621,-0.723724365234375,0.667388916015625,-0.194000244140625
20622,-0.72674560546875,0.6710662841796875,-0.19622802734375
20623,-0.7246856689453125,0.6731414794921875,-0.1985015869140625
20624,-0.723388671875,0.6778106689453125,-0.1994476318359375
20625,-0.7235870361328125,0.6807098388671875,-0.2005615234375
20626,-0.7226104736328125,0.6824951171875,-0.2020263671875
20627,-0.72308349609375,0.68572998046875,-0.2024383544921875
20628,-0.7198028564453125,0.6802825927734375,-0.20166015625
20629,-0.7198028564453125,0.6802825927734375,-0.20166015625
20630,-0.718536376953125,0.675048828125,-0.2009124755859375
20631,-0.720062255859375,0.6729736328125,-0.1978759765625
20632,-0.7215423583984375,0.6747589111328125,-0.1964111328125
20633,-0.7210235595703125,0.6763458251953125,-0.192474365234375
20634,-0.720001220703125,0.6749725341796875,-0.191192626953125
20635,-0.7186431884765625,0.675567626953125,-0.1905975341796875
20636,-0.71685791015625,0.6764068603515625,-0.19134521484375
20637,-0.7110748291015625,0.6752166748046875,-0.1895294189453125
20638,-0.7080841064453125,0.676239013671875,-0.1923065185546875
20639,-0.7058868408203125,0.6727294921875,-0.19659423828125
20640,-0.7054290771484375,0.672576904296875,-0.197052001953125
20641,-0.7018890380859375,0.67034912109375,-0.19696044921875
20642,-0.70111083984375,0.6705474853515625,-0.195831298828125
20643,-0.6993560791015625,0.672637939453125,-0.196929931640625
20644,-0.7025299072265625,0.6766815185546875,-0.19842529296875
20645,-0.7053375244140625,0.681243896484375,-0.2001800537109375
20646,-0.706298828125,0.6832122802734375,-0.2021331787109375
20647,-0.70806884765625,0.68389892578125,-0.2060699462890625
20648,-0.7077178955078125,0.6815032958984375,-0.207916259765625
20649,-0.7077178955078125,0.6815032958984375,-0.207916259765625
20650,-0.7065887451171875,0.674713134765625,-0.2137451171875
20651,-0.70538330078125,0.671142578125,-0.2141876220703125
20652,-0.6999359130859375,0.663543701171875,-0.2142181396484375
20653,-0.6999359130859375,0.663543701171875,-0.2142181396484375
20654,-0.7012481689453125,0.6682891845703125,-0.2143402099609375
20655,-0.701141357421875,0.6699676513671875,-0.21331787109375
20656,-0.7026214599609375,0.6775054931640625,-0.210235595703125
20657,-0.7005157470703125,0.6831512451171875,-0.2046356201171875
20658,-0.696136474609375,0.6891937255859375,-0.198333740234375
20659,-0.6903839111328125,0.693603515625,-0.19256591796875
20660,-0.6835174560546875,0.6972198486328125,-0.1892242431640625
20661,-0.67840576171875,0.7013702392578125,-0.1875
20662,-0.6757965087890625,0.7115325927734375,-0.1892547607421875
20663,-0.6752166748046875,0.7203521728515625,-0.1900482177734375
20664,-0.6705474853515625,0.72760009765625,-0.1869049072265625
20665,-0.6642608642578125,0.732147216796875,-0.18328857421875
20666,-0.6630859375,0.7342681884765625,-0.18218994140625
20667,-0.6631622314453125,0.7399444580078125,-0.180511474609375
20668,-0.6686553955078125,0.746490478515625,-0.181182861328125
20669,-0.6686553955078125,0.746490478515625,-0.181182861328125
20670,-0.6710662841796875,0.746307373046875,-0.1806182861328125
20671,-0.6695709228515625,0.744293212890625,-0.179290771484375
20672,-0.673614501953125,0.7426605224609375,-0.1804656982421875
20673,-0.6721343994140625,0.7407379150390625,-0.1792755126953125
20674,-0.6715545654296875,0.73858642578125,-0.18157958984375
20675,-0.673583984375,0.7356719970703125,-0.1845703125
20676,-0.6776123046875,0.7333221435546875,-0.1872406005859375
20677,-0.6776123046875,0.7333221435546875,-0.1872406005859375
20678,-0.6798858642578125,0.7266998291015625,-0.194976806640625
20679,-0.6802825927734375,0.721710205078125,-0.1988372802734375
20680,-0.6782379150390625,0.715728759765625,-0.2001190185546875
20681,-0.6751861572265625,0.709869384765625,-0.201568603515625
20682,-0.67205810546875,0.7033538818359375,-0.2061767578125
20683,-0.668792724609375,0.7010650634765625,-0.209686279296875
20684,-0.6633148193359375,0.69708251953125,-0.2130584716796875
20685,-0.6598358154296875,0.6947021484375,-0.2174835205078125
20686,-0.65716552734375,0.6894989013671875,-0.2208404541015625
20687,-0.6542205810546875,0.6885986328125,-0.2270355224609375
20688,-0.6569366455078125,0.6872406005859375,-0.2338104248046875
20689,-0.6633758544921875,0.6868133544921875,-0.239166259765625
20690,-0.6676177978515625,0.683319091796875,-0.2435302734375
20691,-0.673828125,0.677642822265625,-0.24560546875
20692,-0.6816558837890625,0.67230224609375,-0.2475433349609375
20693,-0.6816558837890625,0.67230224609375,-0.2475433349609375
20694,-0.68817138671875,0.6590728759765625,-0.2398223876953125
20695,-0.6907958984375,0.6549224853515625,-0.2324371337890625
20696,-0.69195556640625,0.651458740234375,-0.2255706787109375
20697,-0.69036865234375,0.6511077880859375,-0.220367431640625
20698,-0.6890411376953125,0.6506805419921875,-0.2192230224609375
20699,-0.689300537109375,0.653533935546875,-0.21612548828125
20700,-0.6885223388671875,0.6602020263671875,-0.2124176025390625
20701,-0.69122314453125,0.667938232421875,-0.2111968994140625
20702,-0.691375732421875,0.6750335693359375,-0.206817626953125
20703,-0.6906890869140625,0.6806793212890625,-0.205657958984375
20704,-0.6937103271484375,0.6851043701171875,-0.2027740478515625
20705,-0.69317626953125,0.6880340576171875,-0.2010345458984375
20706,-0.6933441162109375,0.688720703125,-0.1995697021484375
20707,-0.69451904296875,0.689056396484375,-0.2017974853515625
20708,-0.6980133056640625,0.6882781982421875,-0.203094482421875
20709,-0.703643798828125,0.6861114501953125,-0.2035675048828125
20710,-0.70672607421875,0.6867523193359375,-0.2045745849609375
20711,-0.7065277099609375,0.6840972900390625,-0.2002105712890625
20712,-0.707061767578125,0.6814422607421875,-0.19927978515625
20713,-0.7115936279296875,0.682373046875,-0.20086669921875
20714,-0.7072906494140625,0.67987060546875,-0.1964569091796875
20715,-0.7031402587890625,0.679351806640625,-0.196990966796875
20716,-0.699432373046875,0.67706298828125,-0.198577880859375
20717,-0.6947479248046875,0.6760711669921875,-0.1992645263671875
20718,-0.691925048828125,0.6757049560546875,-0.2020416259765625
20719,-0.6935577392578125,0.6773223876953125,-0.2064666748046875
20720,-0.69061279296875,0.677398681640625,-0.20989990234375
20721,-0.6898651123046875,0.6802978515625,-0.2102508544921875
20722,-0.686126708984375,0.6805572509765625,-0.2090606689453125
20723,-0.68182373046875,0.6803436279296875,-0.208251953125
20724,-0.68353271484375,0.6768035888671875,-0.2115020751953125
20725,-0.6860504150390625,0.6714019775390625,-0.21185302734375
20726,-0.6884613037109375,0.668121337890625,-0.208984375
20727,-0.6906585693359375,0.668914794921875,-0.209014892578125
20728,-0.698822021484375,0.6791534423828125,-0.208404541015625
20729,-0.698822021484375,0.6791534423828125,-0.208404541015625
20730,-0.7003631591796875,0.6844635009765625,-0.20684814453125
20731,-0.7050323486328125,0.6899566650390625,-0.211181640625
20732,-0.7040557861328125,0.6967926025390625,-0.2051849365234375
20733,-0.704498291015625,0.709320068359375,-0.1975555419921875
20734,-0.7031402587890625,0.7227935791015625,-0.1946868896484375
20735,-0.6989898681640625,0.735748291015625,-0.1869049072265625
20736,-0.6964874267578125,0.746612548828125,-0.185150146484375
20737,-0.691497802734375,0.75592041015625,-0.1818695068359375
20738,-0.6854095458984375,0.7686920166015625,-0.1750030517578125
20739,-0.6785125732421875,0.7739410400390625,-0.1704254150390625
20740,-0.67791748046875,0.7757415771484375,-0.16473388671875
20741,-0.66754150390625,0.770843505859375,-0.1580810546875
20742,-0.660491943359375,0.7625732421875,-0.1532745361328125
20743,-0.64739990234375,0.760833740234375,-0.142120361328125
20744,-0.63507080078125,0.7657012939453125,-0.134918212890625
20745,-0.6227569580078125,0.7687225341796875,-0.131439208984375
20746,-0.615875244140625,0.7679443359375,-0.131195068359375
20747,-0.625274658203125,0.7680816650390625,-0.140350341796875
20748,-0.62921142578125,0.758514404296875,-0.1499481201171875
20749,-0.6472015380859375,0.7418365478515625,-0.157196044921875
20750,-0.6678314208984375,0.72552490234375,-0.1647491455078125
20751,-0.68133544921875,0.7027740478515625,-0.172698974609375
20752,-0.6881866455078125,0.6835784912109375,-0.181854248046875
20753,-0.695159912109375,0.674224853515625,-0.188323974609375
20754,-0.70074462890625,0.672271728515625,-0.1990814208984375
20755,-0.6955108642578125,0.67596435546875,-0.2037200927734375
20756,-0.685760498046875,0.6842498779296875,-0.2031402587890625
20757,-0.6840972900390625,0.6949615478515625,-0.2085418701171875
20758,-0.6814117431640625,0.7042236328125,-0.2090606689453125
20759,-0.688201904296875,0.70379638671875,-0.2108917236328125
20760,-0.697967529296875,0.698577880859375,-0.2130889892578125
20761,-0.70062255859375,0.690032958984375,-0.21435546875
20762,-0.6952362060546875,0.681427001953125,-0.211700439453125
20763,-0.6844482421875,0.6788787841796875,-0.2096710205078125
20764,-0.668731689453125,0.6817169189453125,-0.2079620361328125
20765,-0.655059814453125,0.68548583984375,-0.211456298828125
20766,-0.64263916015625,0.6893310546875,-0.2119903564453125
20767,-0.633697509765625,0.6904296875,-0.2143096923828125
20768,-0.6294403076171875,0.6914825439453125,-0.2170562744140625
20769,-0.6294403076171875,0.6914825439453125,-0.2170562744140625
20770,-0.6254730224609375,0.6986236572265625,-0.21527099609375
20771,-0.6302490234375,0.701629638671875,-0.2119903564453125
20772,-0.6405029296875,0.70013427734375,-0.2108154296875
20773,-0.6548614501953125,0.702178955078125,-0.2098236083984375
20774,-0.66925048828125,0.7001495361328125,-0.207794189453125
20775,-0.67901611328125,0.69512939453125,-0.2049102783203125
20776,-0.68756103515625,0.6927032470703125,-0.20111083984375
20777,-0.69720458984375,0.69268798828125,-0.2003936767578125
20778,-0.706878662109375,0.694183349609375,-0.2002410888671875
20779,-0.7120819091796875,0.692535400390625,-0.1981048583984375
20780,-0.71588134765625,0.6894989013671875,-0.20025634765625
20781,-0.7177886962890625,0.683685302734375,-0.2060394287109375
20782,-0.7166900634765625,0.6780853271484375,-0.2078094482421875
20783,-0.713348388671875,0.6752471923828125,-0.20941162109375
20784,-0.71148681640625,0.6707000732421875,-0.2106475830078125
20785,-0.7097320556640625,0.6667633056640625,-0.2122344970703125
20786,-0.7054290771484375,0.663543701171875,-0.2132720947265625
20787,-0.702880859375,0.6615447998046875,-0.215240478515625
20788,-0.69879150390625,0.662322998046875,-0.2155609130859375
20789,-0.69830322265625,0.6658477783203125,-0.217498779296875
20790,-0.69805908203125,0.668670654296875,-0.2186126708984375
20791,-0.6978302001953125,0.6722412109375,-0.220367431640625
20792,-0.6990203857421875,0.6741943359375,-0.220672607421875
20793,-0.7014007568359375,0.6722412109375,-0.2228546142578125
20794,-0.7064208984375,0.671539306640625,-0.225433349609375
20795,-0.7110137939453125,0.6685943603515625,-0.22589111328125
20796,-0.71197509765625,0.6675262451171875,-0.22369384765625
20797,-0.71197509765625,0.6675262451171875,-0.22369384765625
20798,-0.7117919921875,0.672760009765625,-0.223052978515625
20799,-0.7126007080078125,0.6736907958984375,-0.2265167236328125
20800,-0.7115020751953125,0.6647186279296875,-0.227752685546875
20801,-0.714019775390625,0.653411865234375,-0.2275238037109375
20802,-0.7154083251953125,0.6434173583984375,-0.229217529296875
20803,-0.715789794921875,0.628814697265625,-0.227386474609375
20804,-0.7172698974609375,0.6150665283203125,-0.225067138671875
20805,-0.72149658203125,0.60736083984375,-0.2254791259765625
20806,-0.7290496826171875,0.6038360595703125,-0.2238006591796875
20807,-0.7353363037109375,0.60284423828125,-0.2215728759765625
20808,-0.743072509765625,0.6022186279296875,-0.21759033203125
20809,-0.7529754638671875,0.596435546875,-0.2137298583984375
20810,-0.7672576904296875,0.5937347412109375,-0.2076873779296875
20811,-0.7857208251953125,0.5966033935546875,-0.20574951171875
20812,-0.796478271484375,0.6034698486328125,-0.2001190185546875
20813,-0.8045806884765625,0.61517333984375,-0.19317626953125
20814,-0.8105316162109375,0.62860107421875,-0.1865234375
20815,-0.8084716796875,0.637481689453125,-0.180023193359375
20816,-0.7955780029296875,0.6364898681640625,-0.1816253662109375
20817,-0.7955780029296875,0.6364898681640625,-0.1816253662109375
20818,-0.7962188720703125,0.62774658203125,-0.19219970703125
20819,-0.799652099609375,0.620880126953125,-0.2066802978515625
20820,-0.806182861328125,0.617523193359375,-0.23199462890625
20821,-0.806182861328125,0.617523193359375,-0.23199462890625
20822,-0.80908203125,0.6242218017578125,-0.24261474609375
20823,-0.800506591796875,0.6325531005859375,-0.2473602294921875
20824,-0.7824859619140625,0.6410064697265625,-0.24774169921875
20825,-0.7616424560546875,0.6486053466796875,-0.247100830078125
20826,-0.7429046630859375,0.6552886962890625,-0.2426300048828125
20827,-0.72686767578125,0.66156005859375,-0.241363525390625
20828,-0.710968017578125,0.664581298828125,-0.2406005859375
20829,-0.6992645263671875,0.668304443359375,-0.240814208984375
20830,-0.6962890625,0.6737518310546875,-0.244842529296875
20831,-0.697601318359375,0.67706298828125,-0.249603271484375
20832,-0.702239990234375,0.6841278076171875,-0.257476806640625
20833,-0.7007904052734375,0.6864166259765625,-0.2658538818359375
20834,-0.686737060546875,0.6738433837890625,-0.26361083984375
20835,-0.670806884765625,0.6594390869140625,-0.2554473876953125
20836,-0.6540679931640625,0.6497039794921875,-0.2489776611328125
20837,-0.6442718505859375,0.6503143310546875,-0.24755859375
20838,-0.640350341796875,0.659637451171875,-0.2490997314453125
20839,-0.64385986328125,0.672332763671875,-0.2558746337890625
20840,-0.65020751953125,0.69439697265625,-0.2620391845703125
20841,-0.6533966064453125,0.7199249267578125,-0.2592010498046875
20842,-0.6483001708984375,0.7392120361328125,-0.2575531005859375
20843,-0.638031005859375,0.7535552978515625,-0.25762939453125
20844,-0.6290435791015625,0.753204345703125,-0.2570648193359375
20845,-0.6261749267578125,0.749420166015625,-0.257965087890625
20846,-0.621551513671875,0.7427520751953125,-0.2553558349609375
20847,-0.6251068115234375,0.7353515625,-0.2585601806640625
20848,-0.645904541015625,0.72381591796875,-0.26910400390625
20849,-0.645904541015625,0.72381591796875,-0.26910400390625
20850,-0.6558380126953125,0.7235870361328125,-0.2708892822265625
20851,-0.6778411865234375,0.7263641357421875,-0.2721405029296875
20852,-0.6748809814453125,0.7261962890625,-0.2618408203125
20853,-0.6719818115234375,0.729827880859375,-0.2497100830078125
20854,-0.664398193359375,0.73736572265625,-0.23040771484375
20855,-0.656646728515625,0.74676513671875,-0.2117156982421875
20856,-0.6458282470703125,0.7581939697265625,-0.2080841064453125
20857,-0.63397216796875,0.7699432373046875,-0.20611572265625
20858,-0.6188201904296875,0.778900146484375,-0.2145233154296875
20859,-0.5980072021484375,0.7931671142578125,-0.2151641845703125
20860,-0.570648193359375,0.8130035400390625,-0.2076568603515625
20861,-0.5380401611328125,0.835418701171875,-0.20538330078125
20862,-0.5048980712890625,0.8421630859375,-0.2096099853515625
20863,-0.479248046875,0.837677001953125,-0.2046051025390625
20864,-0.45159912109375,0.8399200439453125,-0.173065185546875
20865,-0.44097900390625,0.862518310546875,-0.1429443359375
20866,-0.4657745361328125,0.8671112060546875,-0.14208984375
20867,-0.4884033203125,0.8528900146484375,-0.128082275390625
20868,-0.5133819580078125,0.8346710205078125,-0.124542236328125
20869,-0.5325164794921875,0.8407440185546875,-0.1262664794921875
20870,-0.5383758544921875,0.8637237548828125,-0.102996826171875
20871,-0.5348968505859375,0.867340087890625,-0.0970306396484375
20872,-0.523651123046875,0.8604583740234375,-0.1020355224609375
20873,-0.50665283203125,0.86444091796875,-0.094329833984375
20874,-0.4967193603515625,0.8830413818359375,-0.0917510986328125
20875,-0.4944000244140625,0.884613037109375,-0.112579345703125
20876,-0.4918670654296875,0.8895111083984375,-0.1114349365234375
20877,-0.504852294921875,0.9002685546875,-0.1120147705078125
20878,-0.502044677734375,0.9050140380859376,-0.121795654296875
20879,-0.474578857421875,0.8745574951171875,-0.1191253662109375
20880,-0.4815673828125,0.8816375732421875,-0.1099853515625
20881,-0.49261474609375,0.8881378173828125,-0.1261444091796875
20882,-0.5029296875,0.889862060546875,-0.1384124755859375
20883,-0.5098876953125,0.8862762451171875,-0.138427734375
20884,-0.5115966796875,0.8757171630859375,-0.1519317626953125
20885,-0.518096923828125,0.86712646484375,-0.1609039306640625
20886,-0.5307159423828125,0.8450469970703125,-0.1741790771484375
20887,-0.534423828125,0.81695556640625,-0.175750732421875
20888,-0.53411865234375,0.795806884765625,-0.175567626953125
20889,-0.5435028076171875,0.7884063720703125,-0.17767333984375
20890,-0.557769775390625,0.7908782958984375,-0.1839447021484375
20891,-0.571624755859375,0.7975921630859375,-0.186187744140625
20892,-0.5681610107421875,0.8060302734375,-0.1760101318359375
20893,-0.55670166015625,0.8038330078125,-0.1695709228515625
20894,-0.55169677734375,0.7951202392578125,-0.1654510498046875
20895,-0.550262451171875,0.7921905517578125,-0.1661376953125
20896,-0.5514373779296875,0.7836151123046875,-0.1686248779296875
20897,-0.552459716796875,0.7739715576171875,-0.167572021484375
20898,-0.554779052734375,0.77471923828125,-0.168304443359375
20899,-0.5579376220703125,0.7790679931640625,-0.1721649169921875
20900,-0.583282470703125,0.8003692626953125,-0.18988037109375
20901,-0.583282470703125,0.8003692626953125,-0.18988037109375
20902,-0.5923919677734375,0.799041748046875,-0.19659423828125
20903,-0.5981903076171875,0.78057861328125,-0.1984405517578125
20904,-0.59710693359375,0.754150390625,-0.198974609375
20905,-0.597991943359375,0.7324981689453125,-0.20233154296875
20906,-0.60009765625,0.7159271240234375,-0.208770751953125
20907,-0.6020660400390625,0.710357666015625,-0.2076416015625
20908,-0.6002655029296875,0.72576904296875,-0.1966552734375
20909,-0.5931396484375,0.748504638671875,-0.1853179931640625
20910,-0.591888427734375,0.7666473388671875,-0.1775054931640625
20911,-0.5952301025390625,0.7820281982421875,-0.1756744384765625
20912,-0.59625244140625,0.7927398681640625,-0.173065185546875
20913,-0.5972747802734375,0.8014373779296875,-0.1690673828125
20914,-0.5935211181640625,0.806884765625,-0.1641845703125
20915,-0.5885467529296875,0.8173980712890625,-0.1640167236328125
20916,-0.591094970703125,0.8218231201171875,-0.1645660400390625
20917,-0.5984039306640625,0.810516357421875,-0.1680145263671875
20918,-0.6081390380859375,0.7910308837890625,-0.166168212890625
20919,-0.6122589111328125,0.771575927734375,-0.1562347412109375
20920,-0.6180877685546875,0.7585296630859375,-0.153167724609375
20921,-0.630767822265625,0.7511138916015625,-0.1561431884765625
20922,-0.64581298828125,0.75439453125,-0.155029296875
20923,-0.6643524169921875,0.757843017578125,-0.1490936279296875
20924,-0.6773223876953125,0.7651214599609375,-0.141815185546875
20925,-0.6822357177734375,0.7686614990234375,-0.1316070556640625
20926,-0.675750732421875,0.7713623046875,-0.1287078857421875
20927,-0.658935546875,0.7743682861328125,-0.1165924072265625
20928,-0.641998291015625,0.7789764404296875,-0.1116943359375
20929,-0.624114990234375,0.777435302734375,-0.1115875244140625
20930,-0.622283935546875,0.784454345703125,-0.1103668212890625
20931,-0.62469482421875,0.7829437255859375,-0.1209716796875
20932,-0.630096435546875,0.77276611328125,-0.1376800537109375
20933,-0.639923095703125,0.74371337890625,-0.1475067138671875
20934,-0.647979736328125,0.713348388671875,-0.1545257568359375
20935,-0.6593780517578125,0.6867523193359375,-0.1723175048828125
20936,-0.6885223388671875,0.659088134765625,-0.1855621337890625
20937,-0.6885223388671875,0.659088134765625,-0.1855621337890625
20938,-0.7006988525390625,0.659332275390625,-0.1910400390625
20939,-0.7128143310546875,0.66583251953125,-0.1875152587890625
20940,-0.72100830078125,0.6685791015625,-0.1822509765625
20941,-0.721771240234375,0.6695404052734375,-0.1724853515625
20942,-0.72039794921875,0.67291259765625,-0.1601715087890625
20943,-0.712799072265625,0.6802520751953125,-0.1474456787109375
20944,-0.6943359375,0.702484130859375,-0.131011962890625
20945,-0.6943359375,0.702484130859375,-0.131011962890625
20946,-0.682952880859375,0.7147979736328125,-0.1233062744140625
20947,-0.678192138671875,0.722381591796875,-0.1185150146484375
20948,-0.674713134765625,0.722320556640625,-0.1174774169921875
20949,-0.675872802734375,0.7141265869140625,-0.1204071044921875
20950,-0.6742095947265625,0.7025299072265625,-0.123687744140625
20951,-0.676025390625,0.6935882568359375,-0.1247100830078125
20952,-0.683074951171875,0.6795654296875,-0.137847900390625
20953,-0.683074951171875,0.6795654296875,-0.137847900390625
20954,-0.6945343017578125,0.679168701171875,-0.1423492431640625
20955,-0.7035675048828125,0.6841278076171875,-0.1451873779296875
20956,-0.7100067138671875,0.69000244140625,-0.144195556640625
20957,-0.711761474609375,0.697296142578125,-0.142822265625
20958,-0.70782470703125,0.7034759521484375,-0.1389617919921875
20959,-0.7009124755859375,0.710418701171875,-0.1340484619140625
20960,-0.6907196044921875,0.7211761474609375,-0.1313629150390625
20961,-0.6907196044921875,0.7211761474609375,-0.1313629150390625
20962,-0.68865966796875,0.7236480712890625,-0.1302337646484375
20963,-0.6885528564453125,0.7244720458984375,-0.12933349609375
20964,-0.68731689453125,0.723724365234375,-0.12835693359375
20965,-0.6835479736328125,0.720062255859375,-0.12689208984375
20966,-0.678436279296875,0.7160491943359375,-0.1245574951171875
20967,-0.6721038818359375,0.7130889892578125,-0.121337890625
20968,-0.669525146484375,0.71337890625,-0.1207427978515625
20969,-0.666656494140625,0.7164764404296875,-0.12176513671875
20970,-0.666168212890625,0.7178802490234375,-0.1281280517578125
20971,-0.6669464111328125,0.7158355712890625,-0.1364288330078125
20972,-0.666015625,0.7102203369140625,-0.1442413330078125
20973,-0.6631317138671875,0.69970703125,-0.14990234375
20974,-0.6615753173828125,0.688385009765625,-0.1573638916015625
20975,-0.6619873046875,0.6806488037109375,-0.164154052734375
20976,-0.655181884765625,0.677886962890625,-0.1654815673828125
20977,-0.655181884765625,0.677886962890625,-0.1654815673828125
20978,-0.6495513916015625,0.68109130859375,-0.1646575927734375
20979,-0.64227294921875,0.6887054443359375,-0.162933349609375
20980,-0.6360626220703125,0.6990814208984375,-0.1622467041015625
20981,-0.628143310546875,0.7110443115234375,-0.1619415283203125
20982,-0.6205902099609375,0.7227020263671875,-0.1611480712890625
20983,-0.61871337890625,0.7346954345703125,-0.1615447998046875
20984,-0.6195831298828125,0.745452880859375,-0.1641845703125
20985,-0.6267242431640625,0.7557830810546875,-0.168426513671875
20986,-0.637847900390625,0.7622528076171875,-0.1706390380859375
20987,-0.647216796875,0.7667388916015625,-0.17169189453125
20988,-0.65875244140625,0.7706298828125,-0.1732177734375
20989,-0.666412353515625,0.7710723876953125,-0.1721649169921875
20990,-0.67034912109375,0.768829345703125,-0.169647216796875
20991,-0.6700897216796875,0.7644195556640625,-0.1626434326171875
20992,-0.6698455810546875,0.758331298828125,-0.1585540771484375
20993,-0.6691436767578125,0.7503814697265625,-0.1573028564453125
20994,-0.6669769287109375,0.7442169189453125,-0.15545654296875
20995,-0.664459228515625,0.74090576171875,-0.156219482421875
20996,-0.653839111328125,0.7340087890625,-0.15435791015625
20997,-0.646881103515625,0.728485107421875,-0.1543426513671875
20998,-0.6443023681640625,0.7263946533203125,-0.1548004150390625
20999,-0.6420440673828125,0.7252197265625,-0.1553497314453125
21000,-0.6388702392578125,0.72283935546875,-0.1566925048828125
21001,-0.632110595703125,0.7214508056640625,-0.153289794921875
21002,-0.6270599365234375,0.7257843017578125,-0.1500244140625
21003,-0.6241302490234375,0.7300262451171875,-0.1461334228515625
21004,-0.6250762939453125,0.7351226806640625,-0.1398468017578125
21005,-0.628265380859375,0.7400360107421875,-0.136627197265625
21006,-0.6364593505859375,0.748046875,-0.1366119384765625
21007,-0.63995361328125,0.760955810546875,-0.1344451904296875
21008,-0.65130615234375,0.775970458984375,-0.1384124755859375
21009,-0.66015625,0.78338623046875,-0.13543701171875
21010,-0.6695709228515625,0.78839111328125,-0.134185791015625
21011,-0.6804656982421875,0.78607177734375,-0.135986328125
21012,-0.6882476806640625,0.781005859375,-0.13458251953125
21013,-0.6915435791015625,0.768585205078125,-0.1343231201171875
21014,-0.692596435546875,0.7521820068359375,-0.1376800537109375
21015,-0.691741943359375,0.733978271484375,-0.145904541015625
21016,-0.6921844482421875,0.7235870361328125,-0.156494140625
21017,-0.6898040771484375,0.7180633544921875,-0.1674957275390625
21018,-0.6873321533203125,0.7125396728515625,-0.179840087890625
21019,-0.6866455078125,0.711761474609375,-0.192840576171875
21020,-0.6873931884765625,0.710968017578125,-0.2057342529296875
21021,-0.6865081787109375,0.7086639404296875,-0.215484619140625
21022,-0.68243408203125,0.7056732177734375,-0.222412109375
21023,-0.6734161376953125,0.7011566162109375,-0.2262725830078125
21024,-0.662994384765625,0.699310302734375,-0.228118896484375
21025,-0.6536865234375,0.696624755859375,-0.2273712158203125
21026,-0.648712158203125,0.695556640625,-0.231170654296875
21027,-0.6558380126953125,0.6994476318359375,-0.2379150390625
21028,-0.6647796630859375,0.7052001953125,-0.240325927734375
21029,-0.677490234375,0.7127685546875,-0.2383880615234375
21030,-0.6939849853515625,0.720855712890625,-0.2335357666015625
21031,-0.7039947509765625,0.7200469970703125,-0.2275238037109375
21032,-0.7114715576171875,0.71478271484375,-0.22161865234375
21033,-0.720611572265625,0.70562744140625,-0.219940185546875
21034,-0.7265625,0.694732666015625,-0.218292236328125
21035,-0.72894287109375,0.6863555908203125,-0.2187042236328125
21036,-0.7254791259765625,0.678070068359375,-0.2217864990234375
21037,-0.7208709716796875,0.67022705078125,-0.2262115478515625
21038,-0.7189788818359375,0.665679931640625,-0.232025146484375
21039,-0.721466064453125,0.66009521484375,-0.240447998046875
21040,-0.7233123779296875,0.6533050537109375,-0.247711181640625
21041,-0.7249908447265625,0.6447296142578125,-0.2526092529296875
21042,-0.7301177978515625,0.639862060546875,-0.254669189453125
21043,-0.7305450439453125,0.6377105712890625,-0.253936767578125
21044,-0.7302093505859375,0.63909912109375,-0.25537109375
21045,-0.7284393310546875,0.6414794921875,-0.25579833984375
21046,-0.7267913818359375,0.6406402587890625,-0.2567596435546875
21047,-0.72784423828125,0.637359619140625,-0.2593536376953125
21048,-0.7308197021484375,0.635955810546875,-0.2626495361328125
21049,-0.7350311279296875,0.6320953369140625,-0.2645416259765625
21050,-0.7388916015625,0.6270904541015625,-0.2648162841796875
21051,-0.7445831298828125,0.62158203125,-0.266998291015625
21052,-0.7506866455078125,0.6183013916015625,-0.26953125
21053,-0.7541351318359375,0.6168212890625,-0.2688446044921875
21054,-0.754150390625,0.6146240234375,-0.265411376953125
21055,-0.754852294921875,0.6144866943359375,-0.2617950439453125
21056,-0.7583465576171875,0.621063232421875,-0.2596588134765625
21057,-0.759979248046875,0.625152587890625,-0.2586669921875
21058,-0.7567596435546875,0.6246795654296875,-0.2536468505859375
21059,-0.754486083984375,0.62628173828125,-0.2505340576171875
21060,-0.7572479248046875,0.6251220703125,-0.25006103515625
21061,-0.7605438232421875,0.624176025390625,-0.2496185302734375
21062,-0.76287841796875,0.6225738525390625,-0.2489471435546875
21063,-0.7657318115234375,0.6202545166015625,-0.2469635009765625
21064,-0.769744873046875,0.617340087890625,-0.244842529296875
21065,-0.769256591796875,0.6160430908203125,-0.2415924072265625
21066,-0.76739501953125,0.6171875,-0.2363739013671875
21067,-0.7628936767578125,0.617218017578125,-0.2339630126953125
21068,-0.76373291015625,0.6098480224609375,-0.2276763916015625
21069,-0.7679290771484375,0.6098785400390625,-0.2262115478515625
21070,-0.766021728515625,0.6047515869140625,-0.22821044921875
21071,-0.7646026611328125,0.6103515625,-0.2238922119140625
21072,-0.7568206787109375,0.600616455078125,-0.2152252197265625
21073,-0.7662506103515625,0.5690765380859375,-0.2198944091796875
21074,-0.7817840576171875,0.5690765380859375,-0.217041015625
21075,-0.78643798828125,0.5782623291015625,-0.216888427734375
21076,-0.781158447265625,0.577117919921875,-0.217041015625
21077,-0.780426025390625,0.5688934326171875,-0.2139892578125
21078,-0.7889251708984375,0.56512451171875,-0.2158660888671875
21079,-0.79840087890625,0.560455322265625,-0.214569091796875
21080,-0.805938720703125,0.563720703125,-0.207275390625
21081,-0.811859130859375,0.565948486328125,-0.2017364501953125
21082,-0.81884765625,0.564361572265625,-0.201690673828125
21083,-0.8236236572265625,0.569671630859375,-0.1960601806640625
21084,-0.82513427734375,0.5729522705078125,-0.193603515625
21085,-0.8259429931640625,0.5714569091796875,-0.18780517578125
21086,-0.82281494140625,0.576080322265625,-0.1821441650390625
21087,-0.814483642578125,0.5791015625,-0.1798248291015625
21088,-0.8051910400390625,0.579803466796875,-0.17218017578125
21089,-0.797943115234375,0.579498291015625,-0.1656036376953125
21090,-0.79400634765625,0.58123779296875,-0.1642608642578125
21091,-0.7892303466796875,0.584716796875,-0.1585693359375
21092,-0.7849884033203125,0.5832061767578125,-0.155517578125
21093,-0.78466796875,0.575714111328125,-0.1536865234375
21094,-0.776275634765625,0.576141357421875,-0.1486358642578125
21095,-0.7692108154296875,0.5787200927734375,-0.1392059326171875
21096,-0.763275146484375,0.5750732421875,-0.1272430419921875
21097,-0.763275146484375,0.5750732421875,-0.1272430419921875
21098,-0.7614898681640625,0.583404541015625,-0.120513916015625
21099,-0.7628936767578125,0.58428955078125,-0.115264892578125
21100,-0.7657012939453125,0.5932464599609375,-0.118133544921875
21101,-0.7713470458984375,0.6041412353515625,-0.1231689453125
21102,-0.7850341796875,0.6070404052734375,-0.130523681640625
21103,-0.79815673828125,0.610137939453125,-0.1403045654296875
21104,-0.799163818359375,0.6110687255859375,-0.129852294921875
21105,-0.799163818359375,0.6110687255859375,-0.129852294921875
21106,-0.796539306640625,0.602630615234375,-0.1194915771484375
21107,-0.79461669921875,0.594512939453125,-0.1136322021484375
21108,-0.7969207763671875,0.5838165283203125,-0.1119232177734375
21109,-0.8013763427734375,0.5747222900390625,-0.106475830078125
21110,-0.807830810546875,0.567230224609375,-0.1000518798828125
21111,-0.8143157958984375,0.5508270263671875,-0.0945892333984375
21112,-0.8180084228515625,0.5410614013671875,-0.0913238525390625
21113,-0.815826416015625,0.5426025390625,-0.0874786376953125
21114,-0.808624267578125,0.544219970703125,-0.08544921875
21115,-0.804595947265625,0.544525146484375,-0.084503173828125
21116,-0.8057861328125,0.5464630126953125,-0.084197998046875
21117,-0.807525634765625,0.5460205078125,-0.0830230712890625
21118,-0.811309814453125,0.5441436767578125,-0.082763671875
21119,-0.816070556640625,0.5428466796875,-0.082183837890625
21120,-0.81915283203125,0.5431976318359375,-0.0804901123046875
21121,-0.8223419189453125,0.5413360595703125,-0.0792999267578125
21122,-0.8267364501953125,0.5381317138671875,-0.080413818359375
21123,-0.8345794677734375,0.534698486328125,-0.087860107421875
21124,-0.8487091064453125,0.5328521728515625,-0.1017608642578125
21125,-0.8681182861328125,0.5347442626953125,-0.1217193603515625
21126,-0.8894195556640625,0.53704833984375,-0.1380157470703125
21127,-0.9061126708984376,0.5415802001953125,-0.138275146484375
21128,-0.9062042236328124,0.5387420654296875,-0.1198577880859375
21129,-0.8943328857421875,0.5252532958984375,-0.112762451171875
21130,-0.871551513671875,0.5206146240234375,-0.1201934814453125
21131,-0.8571624755859375,0.5329132080078125,-0.1377716064453125
21132,-0.85406494140625,0.549652099609375,-0.1566162109375
21133,-0.85626220703125,0.54656982421875,-0.168548583984375
21134,-0.8560943603515625,0.53411865234375,-0.1697235107421875
21135,-0.8542633056640625,0.5305633544921875,-0.169708251953125
21136,-0.8536529541015625,0.5340576171875,-0.167999267578125
21137,-0.8516082763671875,0.540771484375,-0.16455078125
21138,-0.8506317138671875,0.546295166015625,-0.1585235595703125
21139,-0.8466033935546875,0.5485992431640625,-0.1527252197265625
21140,-0.8431549072265625,0.553253173828125,-0.1511688232421875
21141,-0.8431549072265625,0.553253173828125,-0.1511688232421875
21142,-0.8454437255859375,0.5532379150390625,-0.1558380126953125
21143,-0.84912109375,0.5525665283203125,-0.161163330078125
21144,-0.8489990234375,0.5499267578125,-0.1627655029296875
21145,-0.8474884033203125,0.55535888671875,-0.1624908447265625
21146,-0.844879150390625,0.55902099609375,-0.1591644287109375
21147,-0.8362579345703125,0.559539794921875,-0.15753173828125
21148,-0.8407135009765625,0.565521240234375,-0.16497802734375
21149,-0.8494720458984375,0.5711822509765625,-0.1690216064453125
21150,-0.8519744873046875,0.5697479248046875,-0.17034912109375
21151,-0.8556060791015625,0.566497802734375,-0.171783447265625
21152,-0.8583831787109375,0.557464599609375,-0.1708221435546875
21153,-0.8565826416015625,0.5439910888671875,-0.16943359375
21154,-0.8563079833984375,0.5319671630859375,-0.169921875
21155,-0.84857177734375,0.520111083984375,-0.1681976318359375
21156,-0.8423614501953125,0.502899169921875,-0.1663818359375
21157,-0.8432159423828125,0.4961395263671875,-0.1685943603515625
21158,-0.8139495849609375,0.47900390625,-0.16546630859375
21159,-0.78619384765625,0.4701995849609375,-0.167510986328125
21160,-0.7700958251953125,0.4740142822265625,-0.1710662841796875
21161,-0.751708984375,0.474151611328125,-0.175262451171875
21162,-0.7298126220703125,0.4720001220703125,-0.187896728515625
21163,-0.7137908935546875,0.474151611328125,-0.1922607421875
21164,-0.703338623046875,0.4704742431640625,-0.2021636962890625
21165,-0.6961517333984375,0.4669647216796875,-0.21337890625
21166,-0.6979522705078125,0.470367431640625,-0.21954345703125
21167,-0.710968017578125,0.4739990234375,-0.2310028076171875
21168,-0.72515869140625,0.4709320068359375,-0.2361602783203125
21169,-0.742431640625,0.466217041015625,-0.2341461181640625
21170,-0.761444091796875,0.4639892578125,-0.2287750244140625
21171,-0.7777862548828125,0.4629058837890625,-0.214111328125
21172,-0.7881927490234375,0.4622344970703125,-0.1951751708984375
21173,-0.79693603515625,0.4644927978515625,-0.1799774169921875
21174,-0.8029937744140625,0.4712677001953125,-0.168914794921875
21175,-0.8008575439453125,0.477935791015625,-0.1595611572265625
21176,-0.797027587890625,0.485870361328125,-0.1515960693359375
21177,-0.7926788330078125,0.4945526123046875,-0.147247314453125
21178,-0.793365478515625,0.5046539306640625,-0.1477203369140625
21179,-0.79925537109375,0.5128326416015625,-0.1500701904296875
21180,-0.805389404296875,0.5175628662109375,-0.1542205810546875
21181,-0.813568115234375,0.5188751220703125,-0.15667724609375
21182,-0.818511962890625,0.5173187255859375,-0.15802001953125
21183,-0.823333740234375,0.5145111083984375,-0.1591644287109375
21184,-0.830413818359375,0.5124664306640625,-0.1597747802734375
21185,-0.8381195068359375,0.5123443603515625,-0.1609039306640625
21186,-0.846527099609375,0.5116119384765625,-0.165435791015625
21187,-0.86041259765625,0.5106964111328125,-0.1693572998046875
21188,-0.881683349609375,0.514495849609375,-0.1746673583984375
21189,-0.8889312744140625,0.5147705078125,-0.1676177978515625
21190,-0.88372802734375,0.50927734375,-0.15533447265625
21191,-0.8934478759765625,0.511444091796875,-0.1488037109375
21192,-0.899505615234375,0.5059814453125,-0.1485443115234375
21193,-0.8996124267578125,0.4943389892578125,-0.1435699462890625
21194,-0.907928466796875,0.485626220703125,-0.145751953125
21195,-0.91204833984375,0.474700927734375,-0.150909423828125
21196,-0.9119415283203124,0.460906982421875,-0.15771484375
21197,-0.9146881103515624,0.4522552490234375,-0.1696014404296875
21198,-0.9157257080078124,0.4447174072265625,-0.1824188232421875
21199,-0.9042816162109376,0.4378509521484375,-0.1861572265625
21200,-0.8924713134765625,0.435546875,-0.1939239501953125
21201,-0.87548828125,0.433074951171875,-0.199462890625
21202,-0.8563690185546875,0.4259796142578125,-0.203704833984375
21203,-0.864105224609375,0.4319915771484375,-0.2210235595703125
21204,-0.8696746826171875,0.442108154296875,-0.2315216064453125
21205,-0.8741607666015625,0.44671630859375,-0.233367919921875
21206,-0.87799072265625,0.4498443603515625,-0.233551025390625
21207,-0.87725830078125,0.458221435546875,-0.2285614013671875
21208,-0.87725830078125,0.458221435546875,-0.2285614013671875
21209,-0.893707275390625,0.4756317138671875,-0.232574462890625
21210,-0.890380859375,0.4842376708984375,-0.228546142578125
21211,-0.8753204345703125,0.489471435546875,-0.2102203369140625
21212,-0.85980224609375,0.4993438720703125,-0.193603515625
21213,-0.843994140625,0.50970458984375,-0.1769561767578125
21214,-0.8316802978515625,0.518524169921875,-0.1702117919921875
21215,-0.8313446044921875,0.529632568359375,-0.1686859130859375
21216,-0.8298187255859375,0.5353546142578125,-0.165069580078125
21217,-0.83148193359375,0.5352325439453125,-0.162261962890625
21218,-0.834075927734375,0.526702880859375,-0.1600799560546875
21219,-0.8381195068359375,0.5149078369140625,-0.1576080322265625
21220,-0.8426513671875,0.508453369140625,-0.1540679931640625
21221,-0.8464508056640625,0.50701904296875,-0.15069580078125
21222,-0.849395751953125,0.509552001953125,-0.1482391357421875
21223,-0.848541259765625,0.5119781494140625,-0.147613525390625
21224,-0.8470306396484375,0.5155487060546875,-0.1455841064453125
21225,-0.8464508056640625,0.5148468017578125,-0.145111083984375
21226,-0.8444671630859375,0.512939453125,-0.14678955078125
21227,-0.846221923828125,0.50799560546875,-0.1538848876953125
21228,-0.8490753173828125,0.5066070556640625,-0.16094970703125
21229,-0.849365234375,0.505767822265625,-0.1672515869140625
21230,-0.853057861328125,0.511077880859375,-0.1753692626953125
21231,-0.8581695556640625,0.516876220703125,-0.18096923828125
21232,-0.8602752685546875,0.518890380859375,-0.1819305419921875
21233,-0.8600006103515625,0.5160675048828125,-0.18328857421875
21234,-0.85992431640625,0.5110321044921875,-0.1822052001953125
21235,-0.8578948974609375,0.505767822265625,-0.1798248291015625
21236,-0.8563995361328125,0.50006103515625,-0.1786346435546875
21237,-0.8556976318359375,0.49713134765625,-0.1800537109375
21238,-0.853851318359375,0.4962310791015625,-0.1816558837890625
21239,-0.850738525390625,0.4962615966796875,-0.181182861328125
21240,-0.8484954833984375,0.495697021484375,-0.179962158203125
21241,-0.84686279296875,0.4951324462890625,-0.1804351806640625
21242,-0.84326171875,0.4958343505859375,-0.1800994873046875
21243,-0.841461181640625,0.4965057373046875,-0.1786346435546875
21244,-0.8395843505859375,0.4966583251953125,-0.177886962890625
21245,-0.83599853515625,0.4957275390625,-0.176605224609375
21246,-0.8346710205078125,0.49444580078125,-0.1754913330078125
21247,-0.83740234375,0.493896484375,-0.17657470703125
21248,-0.8402252197265625,0.4940032958984375,-0.1776580810546875
21249,-0.8419189453125,0.4950408935546875,-0.17633056640625
21250,-0.845245361328125,0.497161865234375,-0.1739959716796875
21251,-0.848052978515625,0.500518798828125,-0.17169189453125
21252,-0.84918212890625,0.502105712890625,-0.168914794921875
21253,-0.8488311767578125,0.504425048828125,-0.1665802001953125
21254,-0.84735107421875,0.5065460205078125,-0.1655120849609375
21255,-0.8438262939453125,0.5049591064453125,-0.1660614013671875
21256,-0.8425750732421875,0.5057373046875,-0.16748046875
21257,-0.840484619140625,0.505645751953125,-0.170806884765625
21258,-0.84100341796875,0.506927490234375,-0.1735687255859375
21259,-0.842071533203125,0.5064849853515625,-0.1740875244140625
21260,-0.8430328369140625,0.5070037841796875,-0.175384521484375
21261,-0.8434906005859375,0.507598876953125,-0.1749267578125
21262,-0.842132568359375,0.506500244140625,-0.1744232177734375
21263,-0.8374176025390625,0.502532958984375,-0.17266845703125
21264,-0.8374176025390625,0.502532958984375,-0.17266845703125
21265,-0.836273193359375,0.501983642578125,-0.1737213134765625
21266,-0.835052490234375,0.502349853515625,-0.1727142333984375
21267,-0.834381103515625,0.503387451171875,-0.1725006103515625
21268,-0.834625244140625,0.5037384033203125,-0.1715240478515625
21269,-0.8341522216796875,0.5041656494140625,-0.1681365966796875
21270,-0.8333282470703125,0.50408935546875,-0.1665191650390625
21271,-0.831451416015625,0.505126953125,-0.163238525390625
21272,-0.8325653076171875,0.50506591796875,-0.1640777587890625
21273,-0.8325653076171875,0.50506591796875,-0.1640777587890625
21274,-0.8350067138671875,0.504180908203125,-0.1652069091796875
21275,-0.835296630859375,0.5030975341796875,-0.16534423828125
21276,-0.83612060546875,0.504608154296875,-0.16839599609375
21277,-0.836700439453125,0.508056640625,-0.1694488525390625
21278,-0.8366851806640625,0.512481689453125,-0.170867919921875
21279,-0.8384857177734375,0.517822265625,-0.1721954345703125
21280,-0.8388824462890625,0.5197601318359375,-0.17242431640625
21281,-0.84002685546875,0.5214996337890625,-0.1716156005859375
21282,-0.841827392578125,0.5203399658203125,-0.1718902587890625
21283,-0.8474273681640625,0.517364501953125,-0.1729583740234375
21284,-0.8474273681640625,0.517364501953125,-0.1729583740234375
21285,-0.8504791259765625,0.5158538818359375,-0.174468994140625
21286,-0.84967041015625,0.5103302001953125,-0.1725616455078125
21287,-0.84808349609375,0.5068206787109375,-0.1727447509765625
21288,-0.8509674072265625,0.5048980712890625,-0.1734771728515625
21289,-0.8484649658203125,0.5038299560546875,-0.172149658203125
21290,-0.8447418212890625,0.50384521484375,-0.17303466796875
21291,-0.8402557373046875,0.5040283203125,-0.17266845703125
21292,-0.83685302734375,0.5051422119140625,-0.17236328125
21293,-0.8354949951171875,0.5052490234375,-0.1755218505859375
21294,-0.835540771484375,0.5055389404296875,-0.1776580810546875
21295,-0.8365936279296875,0.505218505859375,-0.1784820556640625
21296,-0.8382720947265625,0.505462646484375,-0.1788330078125
21297,-0.83819580078125,0.506439208984375,-0.1766204833984375
21298,-0.8388519287109375,0.5078582763671875,-0.1723480224609375
21299,-0.8397979736328125,0.509307861328125,-0.168975830078125
21300,-0.8397979736328125,0.509307861328125,-0.168975830078125
21301,-0.83941650390625,0.507232666015625,-0.167205810546875
21302,-0.8394622802734375,0.5054168701171875,-0.1665802001953125
21303,-0.839996337890625,0.5064544677734375,-0.1672821044921875
21304,-0.84088134765625,0.5087738037109375,-0.170135498046875
21305,-0.84161376953125,0.509246826171875,-0.1725921630859375
21306,-0.8412017822265625,0.51092529296875,-0.173065185546875
21307,-0.8402099609375,0.5112762451171875,-0.17291259765625
21308,-0.8370819091796875,0.50994873046875,-0.1742401123046875
21309,-0.8370819091796875,0.50994873046875,-0.1742401123046875
21310,-0.8344573974609375,0.5072784423828125,-0.172637939453125
21311,-0.833740234375,0.5055084228515625,-0.1737518310546875
21312,-0.8354034423828125,0.5042877197265625,-0.174468994140625
21313,-0.8366241455078125,0.5007476806640625,-0.1744232177734375
21314,-0.8400115966796875,0.5012054443359375,-0.17333984375
21315,-0.84283447265625,0.503570556640625,-0.172821044921875
21316,-0.84307861328125,0.50592041015625,-0.17205810546875
21317,-0.843505859375,0.5081939697265625,-0.1693115234375
21318,-0.8433990478515625,0.508148193359375,-0.167022705078125
21319,-0.8413848876953125,0.51007080078125,-0.1666107177734375
21320,-0.841400146484375,0.510498046875,-0.16705322265625
21321,-0.8421783447265625,0.509674072265625,-0.16802978515625
21322,-0.84173583984375,0.5090484619140625,-0.1691131591796875
21323,-0.841644287109375,0.5083770751953125,-0.169647216796875
21324,-0.8416900634765625,0.5079803466796875,-0.169891357421875
21325,-0.84149169921875,0.50762939453125,-0.170501708984375
21326,-0.8399658203125,0.5081939697265625,-0.168792724609375
21327,-0.8393707275390625,0.508148193359375,-0.1690673828125
21328,-0.8393707275390625,0.508148193359375,-0.1690673828125
21329,-0.8385772705078125,0.5102081298828125,-0.1683502197265625
21330,-0.8395233154296875,0.5089569091796875,-0.1687164306640625
21331,-0.839385986328125,0.5093994140625,-0.168701171875
21332,-0.8397369384765625,0.5089263916015625,-0.168975830078125
21333,-0.8404541015625,0.5071258544921875,-0.1692047119140625
21334,-0.8409423828125,0.5074615478515625,-0.16815185546875
21335,-0.8407745361328125,0.509307861328125,-0.1690521240234375
21336,-0.84014892578125,0.509979248046875,-0.16790771484375
21337,-0.8413848876953125,0.511627197265625,-0.1653900146484375
21338,-0.8411407470703125,0.5134735107421875,-0.16387939453125
21339,-0.8401336669921875,0.5142822265625,-0.1647796630859375
21340,-0.8384552001953125,0.51470947265625,-0.16473388671875
21341,-0.8358154296875,0.51373291015625,-0.1652374267578125
21342,-0.83544921875,0.5140380859375,-0.16632080078125
21343,-0.835906982421875,0.5149688720703125,-0.1661529541015625
21344,-0.8347320556640625,0.5152740478515625,-0.1647186279296875
21345,-0.836090087890625,0.5162506103515625,-0.1636199951171875
21346,-0.8375091552734375,0.5201873779296875,-0.162506103515625
21347,-0.837188720703125,0.520111083984375,-0.1605377197265625
21348,-0.83697509765625,0.5184173583984375,-0.1614532470703125
21349,-0.8358001708984375,0.51690673828125,-0.1621856689453125
21350,-0.836212158203125,0.5162506103515625,-0.1640167236328125
21351,-0.838531494140625,0.5167694091796875,-0.1665496826171875
21352,-0.83917236328125,0.518890380859375,-0.167816162109375
21353,-0.838104248046875,0.5183868408203125,-0.1676788330078125
21354,-0.8362884521484375,0.5162811279296875,-0.1656951904296875
21355,-0.8341827392578125,0.515228271484375,-0.1646728515625
21356,-0.8341217041015625,0.513824462890625,-0.1631011962890625
21357,-0.83612060546875,0.5145721435546875,-0.1628570556640625
21358,-0.8360137939453125,0.5161285400390625,-0.1631622314453125
21359,-0.8354034423828125,0.5173797607421875,-0.1632080078125
21360,-0.8334197998046875,0.5182647705078125,-0.161529541015625
21361,-0.832305908203125,0.5190887451171875,-0.162139892578125
21362,-0.8324127197265625,0.519134521484375,-0.161956787109375
21363,-0.8356475830078125,0.51947021484375,-0.1631927490234375
21364,-0.8356475830078125,0.51947021484375,-0.1631927490234375
21365,-0.837677001953125,0.5191802978515625,-0.16363525390625
21366,-0.83819580078125,0.518524169921875,-0.163543701171875
21367,-0.8394775390625,0.516998291015625,-0.163421630859375
21368,-0.8393402099609375,0.51654052734375,-0.16412353515625
21369,-0.838287353515625,0.5156097412109375,-0.16461181640625
21370,-0.83721923828125,0.514984130859375,-0.1652984619140625
21371,-0.83685302734375,0.515655517578125,-0.165679931640625
21372,-0.8375396728515625,0.5159149169921875,-0.16607666015625
21373,-0.835968017578125,0.517059326171875,-0.1661834716796875
21374,-0.8344879150390625,0.517181396484375,-0.1648712158203125
21375,-0.8337249755859375,0.5166168212890625,-0.163848876953125
21376,-0.832611083984375,0.51849365234375,-0.164642333984375
21377,-0.8323516845703125,0.517608642578125,-0.1645355224609375
21378,-0.8336334228515625,0.5174102783203125,-0.1660003662109375
21379,-0.8364410400390625,0.516815185546875,-0.1663055419921875
21380,-0.8388214111328125,0.5153656005859375,-0.16552734375
21381,-0.8402252197265625,0.51495361328125,-0.162445068359375
21382,-0.8398284912109375,0.5155181884765625,-0.1602630615234375
21383,-0.8394012451171875,0.5167694091796875,-0.159912109375
21384,-0.8394012451171875,0.5167694091796875,-0.159912109375
21385,-0.83544921875,0.5221405029296875,-0.1601104736328125
21386,-0.8345947265625,0.52288818359375,-0.1618499755859375
21387,-0.83441162109375,0.522674560546875,-0.163909912109375
21388,-0.8338165283203125,0.52178955078125,-0.1650848388671875
21389,-0.8326416015625,0.52081298828125,-0.1650390625
21390,-0.83148193359375,0.519683837890625,-0.163116455078125
21391,-0.832611083984375,0.51873779296875,-0.1617431640625
21392,-0.832611083984375,0.51873779296875,-0.1617431640625
21393,-0.833404541015625,0.520263671875,-0.161529541015625
21394,-0.8342742919921875,0.5202789306640625,-0.16192626953125
21395,-0.8363494873046875,0.517364501953125,-0.16351318359375
21396,-0.8363494873046875,0.517364501953125,-0.16351318359375
21397,-0.8367919921875,0.51702880859375,-0.163421630859375
21398,-0.838287353515625,0.5170135498046875,-0.1638641357421875
21399,-0.838287353515625,0.5170135498046875,-0.1638641357421875
21400,-0.8373260498046875,0.5159454345703125,-0.1636199951171875
21401,-0.8358917236328125,0.515716552734375,-0.16339111328125
21402,-0.8345184326171875,0.515960693359375,-0.163665771484375
21403,-0.8331146240234375,0.515625,-0.16497802734375
21404,-0.83319091796875,0.51556396484375,-0.1659698486328125
21405,-0.83343505859375,0.515350341796875,-0.1657867431640625
21406,-0.8322906494140625,0.5157318115234375,-0.165496826171875
21407,-0.832794189453125,0.5214080810546875,-0.1643218994140625
21408,-0.832794189453125,0.5214080810546875,-0.1643218994140625
21409,-0.8339691162109375,0.5218353271484375,-0.16363525390625
21410,-0.8354034423828125,0.52288818359375,-0.1629486083984375
21411,-0.8363800048828125,0.5228424072265625,-0.1631927490234375
21412,-0.837005615234375,0.5217742919921875,-0.1639404296875
21413,-0.8363494873046875,0.521759033203125,-0.1634979248046875
21414,-0.836029052734375,0.522064208984375,-0.165496826171875
21415,-0.834228515625,0.5210723876953125,-0.1657867431640625
21416,-0.833038330078125,0.519683837890625,-0.1643829345703125
21417,-0.8354034423828125,0.5193939208984375,-0.1702423095703125
21418,-0.8352813720703125,0.5189056396484375,-0.167724609375
21419,-0.8351593017578125,0.517181396484375,-0.168975830078125
21420,-0.8343505859375,0.515899658203125,-0.1700897216796875
21421,-0.8329010009765625,0.513916015625,-0.171478271484375
21422,-0.83282470703125,0.5121002197265625,-0.1716156005859375
21423,-0.835723876953125,0.520263671875,-0.169708251953125
21424,-0.835723876953125,0.520263671875,-0.169708251953125
21425,-0.832672119140625,0.52532958984375,-0.1658172607421875
21426,-0.828033447265625,0.5288238525390625,-0.1648101806640625
21427,-0.828033447265625,0.5288238525390625,-0.1648101806640625
21428,-0.826904296875,0.5278472900390625,-0.163543701171875
21429,-0.828094482421875,0.518768310546875,-0.1661529541015625
21430,-0.831024169921875,0.5157928466796875,-0.16925048828125
21431,-0.8310394287109375,0.5142364501953125,-0.1705169677734375
21432,-0.82965087890625,0.51513671875,-0.1718292236328125
21433,-0.8286285400390625,0.5160675048828125,-0.170013427734375
21434,-0.830108642578125,0.5191497802734375,-0.1704559326171875
21435,-0.831634521484375,0.5203857421875,-0.1698760986328125
21436,-0.833221435546875,0.5201873779296875,-0.1696624755859375
21437,-0.833892822265625,0.5209197998046875,-0.17010498046875
21438,-0.8336639404296875,0.5226898193359375,-0.169158935546875
21439,-0.8342437744140625,0.523773193359375,-0.1689300537109375
21440,-0.8350982666015625,0.5237884521484375,-0.1686553955078125
21441,-0.8367156982421875,0.5233612060546875,-0.1678619384765625
21442,-0.8373260498046875,0.5223236083984375,-0.167633056640625
21443,-0.8368682861328125,0.5193939208984375,-0.16741943359375
21444,-0.8353424072265625,0.5206146240234375,-0.166961669921875
21445,-0.8341522216796875,0.52191162109375,-0.1671295166015625
21446,-0.8328857421875,0.521331787109375,-0.1666717529296875
21447,-0.8334197998046875,0.5208740234375,-0.167633056640625
21448,-0.8334197998046875,0.5208740234375,-0.167633056640625
21449,-0.8336639404296875,0.520111083984375,-0.168182373046875
21450,-0.833740234375,0.518280029296875,-0.168609619140625
21451,-0.8329620361328125,0.5162353515625,-0.1681671142578125
21452,-0.833953857421875,0.5159912109375,-0.167633056640625
21453,-0.833709716796875,0.5145263671875,-0.1676177978515625
21454,-0.832733154296875,0.5142822265625,-0.167327880859375
21455,-0.832275390625,0.5133056640625,-0.1677703857421875
21456,-0.831817626953125,0.5111846923828125,-0.167724609375
21457,-0.8334503173828125,0.5134429931640625,-0.1689605712890625
21458,-0.835418701171875,0.514678955078125,-0.1705780029296875
21459,-0.837158203125,0.5167236328125,-0.1709136962890625
21460,-0.83880615234375,0.51763916015625,-0.17083740234375
21461,-0.83819580078125,0.5200958251953125,-0.17010498046875
21462,-0.8377227783203125,0.521209716796875,-0.1686248779296875
21463,-0.8388824462890625,0.5216217041015625,-0.168060302734375
21464,-0.8383331298828125,0.523345947265625,-0.1688079833984375
21465,-0.8377532958984375,0.5242462158203125,-0.1697540283203125
21466,-0.837860107421875,0.5218048095703125,-0.170440673828125
21467,-0.83636474609375,0.519134521484375,-0.168243408203125
21468,-0.8342437744140625,0.5171051025390625,-0.1674652099609375
21469,-0.832977294921875,0.516998291015625,-0.167327880859375
21470,-0.8307037353515625,0.518157958984375,-0.165771484375
21471,-0.8297119140625,0.51898193359375,-0.166961669921875
21472,-0.829986572265625,0.5191497802734375,-0.1671905517578125
21473,-0.8311004638671875,0.51873779296875,-0.1686553955078125
21474,-0.8325958251953125,0.516754150390625,-0.170562744140625
21475,-0.8350830078125,0.5131683349609375,-0.1707763671875
21476,-0.8350830078125,0.5131683349609375,-0.1707763671875
21477,-0.83758544921875,0.51190185546875,-0.17120361328125
21478,-0.837738037109375,0.51165771484375,-0.1703643798828125
21479,-0.83721923828125,0.511505126953125,-0.1690673828125
21480,-0.8366851806640625,0.51422119140625,-0.1680145263671875
21481,-0.8343353271484375,0.5145111083984375,-0.1656341552734375
21482,-0.8344268798828125,0.5171051025390625,-0.165985107421875
21483,-0.83343505859375,0.5181884765625,-0.1668701171875
21484,-0.833343505859375,0.5182037353515625,-0.1667327880859375
21485,-0.83306884765625,0.51666259765625,-0.165496826171875
21486,-0.8356475830078125,0.517059326171875,-0.1641082763671875
21487,-0.8369598388671875,0.520782470703125,-0.1644744873046875
21488,-0.8369598388671875,0.520782470703125,-0.1644744873046875
21489,-0.837066650390625,0.5199127197265625,-0.1647186279296875
21490,-0.837371826171875,0.5185394287109375,-0.1641693115234375
21491,-0.8371124267578125,0.518035888671875,-0.1653289794921875
21492,-0.8371124267578125,0.518035888671875,-0.1653289794921875
21493,-0.8343963623046875,0.5179290771484375,-0.1664886474609375
21494,-0.83251953125,0.51947021484375,-0.1671142578125
21495,-0.8312835693359375,0.521697998046875,-0.168975830078125
21496,-0.8314056396484375,0.521820068359375,-0.169647216796875
21497,-0.83197021484375,0.523834228515625,-0.1702728271484375
21498,-0.8365936279296875,0.526214599609375,-0.171051025390625
21499,-0.83966064453125,0.5285797119140625,-0.168670654296875
21500,-0.83966064453125,0.5285797119140625,-0.168670654296875
21501,-0.83837890625,0.527374267578125,-0.16650390625
21502,-0.83416748046875,0.5256805419921875,-0.16351318359375
21503,-0.8268585205078125,0.519805908203125,-0.164581298828125
21504,-0.8268585205078125,0.519805908203125,-0.164581298828125
21505,-0.8252105712890625,0.5172576904296875,-0.1681060791015625
21506,-0.8256683349609375,0.5171661376953125,-0.169464111328125
21507,-0.826812744140625,0.517730712890625,-0.1700439453125
21508,-0.827880859375,0.518890380859375,-0.172515869140625
21509,-0.8282318115234375,0.5192718505859375,-0.171875
21510,-0.8307647705078125,0.5199432373046875,-0.17205810546875
21511,-0.8336944580078125,0.520294189453125,-0.1728363037109375
21512,-0.8336944580078125,0.520294189453125,-0.1728363037109375
21513,-0.834197998046875,0.521484375,-0.17218017578125
21514,-0.8339385986328125,0.52337646484375,-0.1707000732421875
21515,-0.8316192626953125,0.52581787109375,-0.1706695556640625
21516,-0.8316192626953125,0.52581787109375,-0.1706695556640625
21517,-0.83172607421875,0.5239715576171875,-0.1713714599609375
21518,-0.829376220703125,0.524200439453125,-0.170379638671875
21519,-0.8288116455078125,0.5244293212890625,-0.168914794921875
21520,-0.829010009765625,0.5238800048828125,-0.1690216064453125
21521,-0.82843017578125,0.52178955078125,-0.17071533203125
21522,-0.828125,0.51959228515625,-0.17047119140625
21523,-0.828125,0.51959228515625,-0.17047119140625
21524,-0.82855224609375,0.5192413330078125,-0.1707611083984375
21525,-0.82696533203125,0.5191802978515625,-0.1720733642578125
21526,-0.8264312744140625,0.5195770263671875,-0.1724395751953125
21527,-0.82867431640625,0.5236663818359375,-0.1726837158203125
21528,-0.82867431640625,0.5236663818359375,-0.1726837158203125
21529,-0.82879638671875,0.5247955322265625,-0.1725006103515625
21530,-0.828826904296875,0.52581787109375,-0.1714630126953125
21531,-0.82958984375,0.5272369384765625,-0.1707000732421875
21532,-0.8281707763671875,0.5269317626953125,-0.16864013671875
21533,-0.8281707763671875,0.5269317626953125,-0.16864013671875
21534,-0.82672119140625,0.5274810791015625,-0.1683807373046875
21535,-0.82391357421875,0.526580810546875,-0.1659393310546875
21536,-0.82391357421875,0.526580810546875,-0.1659393310546875
21537,-0.8241119384765625,0.524688720703125,-0.1663360595703125
21538,-0.8233795166015625,0.5249786376953125,-0.165618896484375
21539,-0.8255157470703125,0.5254364013671875,-0.167022705078125
21540,-0.8255157470703125,0.5254364013671875,-0.167022705078125
21541,-0.8245849609375,0.5258636474609375,-0.1672821044921875
21542,-0.825042724609375,0.525543212890625,-0.1684417724609375
21543,-0.82373046875,0.523834228515625,-0.1678924560546875
21544,-0.82373046875,0.523834228515625,-0.1678924560546875
21545,-0.82110595703125,0.52386474609375,-0.1688995361328125
21546,-0.8217620849609375,0.5264892578125,-0.1694488525390625
21547,-0.82080078125,0.5272216796875,-0.169219970703125
21548,-0.8196563720703125,0.5278472900390625,-0.1690673828125
21549,-0.8185272216796875,0.5281982421875,-0.1677398681640625
21550,-0.817230224609375,0.5286407470703125,-0.1687774658203125
21551,-0.817779541015625,0.5283660888671875,-0.17059326171875
21552,-0.81597900390625,0.5285491943359375,-0.169342041015625
21553,-0.8131103515625,0.5283203125,-0.166473388671875
21554,-0.810943603515625,0.529388427734375,-0.1656036376953125
21555,-0.8044586181640625,0.532012939453125,-0.161468505859375
21556,-0.8044586181640625,0.532012939453125,-0.161468505859375
21557,-0.802886962890625,0.5348052978515625,-0.1603546142578125
21558,-0.7999114990234375,0.5374908447265625,-0.159576416015625
21559,-0.7947998046875,0.5450592041015625,-0.1576690673828125
21560,-0.7947998046875,0.5450592041015625,-0.1576690673828125
21561,-0.7921142578125,0.5473175048828125,-0.157012939453125
21562,-0.7887115478515625,0.5478668212890625,-0.1561431884765625
21563,-0.7969207763671875,0.549560546875,-0.1589202880859375
21564,-0.7969207763671875,0.549560546875,-0.1589202880859375
21565,-0.79486083984375,0.54925537109375,-0.152313232421875
21566,-0.798492431640625,0.5483551025390625,-0.1461334228515625
21567,-0.8084564208984375,0.5476226806640625,-0.1413726806640625
21568,-0.8084564208984375,0.5476226806640625,-0.1413726806640625
21569,-0.8126068115234375,0.5490264892578125,-0.137481689453125
21570,-0.8191986083984375,0.550567626953125,-0.1365966796875
21571,-0.82373046875,0.5506591796875,-0.1317138671875
21572,-0.82373046875,0.5506591796875,-0.1317138671875
21573,-0.82806396484375,0.5514678955078125,-0.130706787109375
21574,-0.8343658447265625,0.549530029296875,-0.1308135986328125
21575,-0.84228515625,0.5441131591796875,-0.1295928955078125
21576,-0.84228515625,0.5441131591796875,-0.1295928955078125
21577,-0.8443450927734375,0.5408172607421875,-0.1358184814453125
21578,-0.84423828125,0.5377349853515625,-0.1422882080078125
21579,-0.850616455078125,0.53375244140625,-0.1493072509765625
21580,-0.850616455078125,0.53375244140625,-0.1493072509765625
21581,-0.8515625,0.5318450927734375,-0.1525421142578125
21582,-0.853546142578125,0.529632568359375,-0.15350341796875
21583,-0.8545379638671875,0.528778076171875,-0.1536865234375
21584,-0.85552978515625,0.528656005859375,-0.1536865234375
21585,-0.855743408203125,0.52935791015625,-0.149688720703125
21586,-0.8563232421875,0.5272064208984375,-0.1487274169921875
21587,-0.8526611328125,0.5253448486328125,-0.146484375
21588,-0.847442626953125,0.522705078125,-0.14190673828125
21589,-0.847442626953125,0.522705078125,-0.14190673828125
21590,-0.8471832275390625,0.52178955078125,-0.1410980224609375
21591,-0.8474578857421875,0.5226898193359375,-0.1401519775390625
21592,-0.8474578857421875,0.5226898193359375,-0.1401519775390625
21593,-0.84637451171875,0.5246429443359375,-0.1387481689453125
21594,-0.847259521484375,0.5301666259765625,-0.1384735107421875
21595,-0.8515625,0.535858154296875,-0.141937255859375
21596,-0.8515625,0.535858154296875,-0.141937255859375
21597,-0.849212646484375,0.538665771484375,-0.1420745849609375
21598,-0.8447265625,0.5406951904296875,-0.1436920166015625
21599,-0.84014892578125,0.538665771484375,-0.147369384765625
21600,-0.84014892578125,0.538665771484375,-0.147369384765625
21601,-0.8400726318359375,0.53564453125,-0.1468048095703125
21602,-0.842376708984375,0.5351409912109375,-0.147125244140625
21603,-0.8431243896484375,0.535308837890625,-0.1470489501953125
21604,-0.84051513671875,0.5345001220703125,-0.144805908203125
21605,-0.8377838134765625,0.5355682373046875,-0.1433868408203125
21606,-0.8321685791015625,0.5384063720703125,-0.1418609619140625
21607,-0.8138580322265625,0.53515625,-0.14508056640625
21608,-0.8138580322265625,0.53515625,-0.14508056640625
21609,-0.806884765625,0.532989501953125,-0.1494140625
21610,-0.801727294921875,0.53143310546875,-0.154052734375
21611,-0.79852294921875,0.5299072265625,-0.1591339111328125
21612,-0.79852294921875,0.5299072265625,-0.1591339111328125
21613,-0.79913330078125,0.527801513671875,-0.1634063720703125
21614,-0.7998809814453125,0.5289306640625,-0.1632080078125
21615,-0.80169677734375,0.5391693115234375,-0.1585693359375
21616,-0.80169677734375,0.5391693115234375,-0.1585693359375
21617,-0.8057098388671875,0.5434417724609375,-0.153839111328125
21618,-0.810302734375,0.547943115234375,-0.149749755859375
21619,-0.8181915283203125,0.5562286376953125,-0.1372222900390625
21620,-0.8181915283203125,0.5562286376953125,-0.1372222900390625
21621,-0.8204193115234375,0.55889892578125,-0.1318817138671875
21622,-0.819000244140625,0.5627899169921875,-0.127716064453125
21623,-0.812408447265625,0.564422607421875,-0.1306304931640625
21624,-0.812408447265625,0.564422607421875,-0.1306304931640625
21625,-0.809906005859375,0.56121826171875,-0.1359405517578125
21626,-0.80853271484375,0.5567626953125,-0.14166259765625
21627,-0.8124237060546875,0.5507659912109375,-0.1511993408203125
21628,-0.8124237060546875,0.5507659912109375,-0.1511993408203125
21629,-0.8177642822265625,0.551727294921875,-0.1543426513671875
21630,-0.8224334716796875,0.554718017578125,-0.15447998046875
21631,-0.824432373046875,0.5569610595703125,-0.152496337890625
21632,-0.824432373046875,0.5569610595703125,-0.152496337890625
21633,-0.82666015625,0.559906005859375,-0.146575927734375
21634,-0.8268280029296875,0.5594940185546875,-0.14642333984375
21635,-0.8292236328125,0.558319091796875,-0.14947509765625
21636,-0.8326568603515625,0.553924560546875,-0.1507568359375
21637,-0.8349609375,0.54754638671875,-0.1511077880859375
21638,-0.8363800048828125,0.5439453125,-0.1497344970703125
21639,-0.835174560546875,0.54388427734375,-0.148101806640625
21640,-0.835174560546875,0.54388427734375,-0.148101806640625
21641,-0.831207275390625,0.546142578125,-0.1488494873046875
21642,-0.82720947265625,0.54522705078125,-0.1480712890625
21643,-0.8245086669921875,0.5449371337890625,-0.1502227783203125
21644,-0.8245086669921875,0.5449371337890625,-0.1502227783203125
21645,-0.8244171142578125,0.5418853759765625,-0.1492767333984375
21646,-0.82489013671875,0.540069580078125,-0.1480560302734375
21647,-0.8256683349609375,0.5395355224609375,-0.1475372314453125
21648,-0.8256683349609375,0.5395355224609375,-0.1475372314453125
21649,-0.823577880859375,0.5367889404296875,-0.1485595703125
21650,-0.8240203857421875,0.5374755859375,-0.15155029296875
21651,-0.82623291015625,0.5386199951171875,-0.15960693359375
21652,-0.82623291015625,0.5386199951171875,-0.15960693359375
21653,-0.8253631591796875,0.5395050048828125,-0.159393310546875
21654,-0.8221435546875,0.54083251953125,-0.1568450927734375
21655,-0.82257080078125,0.5459136962890625,-0.1508636474609375
21656,-0.82257080078125,0.5459136962890625,-0.1508636474609375
21657,-0.822540283203125,0.550018310546875,-0.1497802734375
21658,-0.8225555419921875,0.5502471923828125,-0.1478729248046875
21659,-0.8233795166015625,0.550445556640625,-0.14990234375
21660,-0.8233795166015625,0.550445556640625,-0.14990234375
21661,-0.8238677978515625,0.5502471923828125,-0.1494903564453125
21662,-0.8243255615234375,0.551666259765625,-0.1513824462890625
21663,-0.8219451904296875,0.5506134033203125,-0.154266357421875
21664,-0.8209381103515625,0.5504150390625,-0.157379150390625
21665,-0.8212890625,0.5500946044921875,-0.1584320068359375
21666,-0.8213043212890625,0.5485992431640625,-0.1587982177734375
21667,-0.82257080078125,0.5464935302734375,-0.154571533203125
21668,-0.82257080078125,0.5464935302734375,-0.154571533203125
21669,-0.82293701171875,0.547088623046875,-0.1529541015625
21670,-0.82073974609375,0.54791259765625,-0.1504669189453125
21671,-0.8194580078125,0.5469970703125,-0.1513519287109375
21672,-0.8194580078125,0.5469970703125,-0.1513519287109375
21673,-0.8210296630859375,0.54595947265625,-0.154449462890625
21674,-0.8222808837890625,0.54705810546875,-0.1557159423828125
21675,-0.822052001953125,0.545745849609375,-0.156494140625
21676,-0.8215179443359375,0.54583740234375,-0.159149169921875
21677,-0.8221893310546875,0.5471343994140625,-0.159820556640625
21678,-0.822357177734375,0.546875,-0.158477783203125
21679,-0.8216705322265625,0.5464630126953125,-0.1566925048828125
21680,-0.820709228515625,0.54656982421875,-0.1551666259765625
21681,-0.8192596435546875,0.5463409423828125,-0.15570068359375
21682,-0.8180694580078125,0.5447235107421875,-0.155853271484375
21683,-0.8194732666015625,0.5428619384765625,-0.158233642578125
21684,-0.8194732666015625,0.5428619384765625,-0.158233642578125
21685,-0.8209686279296875,0.5413360595703125,-0.1578826904296875
21686,-0.8218841552734375,0.54193115234375,-0.156219482421875
21687,-0.8215179443359375,0.5419158935546875,-0.1556396484375
21688,-0.8204193115234375,0.5413055419921875,-0.1549224853515625
21689,-0.819488525390625,0.541229248046875,-0.153839111328125
21690,-0.8213348388671875,0.541351318359375,-0.1552276611328125
21691,-0.81890869140625,0.5401153564453125,-0.1582489013671875
21692,-0.81890869140625,0.5401153564453125,-0.1582489013671875
21693,-0.819061279296875,0.5414276123046875,-0.158843994140625
21694,-0.8192291259765625,0.542022705078125,-0.1580352783203125
21695,-0.8194732666015625,0.542022705078125,-0.1569671630859375
21696,-0.8201446533203125,0.5424652099609375,-0.156036376953125
21697,-0.8190765380859375,0.54296875,-0.1548919677734375
21698,-0.8182525634765625,0.5441436767578125,-0.1541595458984375
21699,-0.8180694580078125,0.545684814453125,-0.1540985107421875
21700,-0.8180694580078125,0.545684814453125,-0.1540985107421875
21701,-0.8200225830078125,0.5511322021484375,-0.1579742431640625
21702,-0.82159423828125,0.551116943359375,-0.1585693359375
21703,-0.82257080078125,0.5527801513671875,-0.154571533203125
21704,-0.82257080078125,0.5527801513671875,-0.154571533203125
21705,-0.822113037109375,0.5536651611328125,-0.1525421142578125
21706,-0.8224945068359375,0.555267333984375,-0.1498565673828125
21707,-0.819091796875,0.5529937744140625,-0.1494903564453125
21708,-0.819091796875,0.5529937744140625,-0.1494903564453125
21709,-0.819549560546875,0.5505828857421875,-0.1517486572265625
21710,-0.8198089599609375,0.5468292236328125,-0.1541748046875
21711,-0.82049560546875,0.5435333251953125,-0.15655517578125
21712,-0.8186492919921875,0.5403594970703125,-0.1584320068359375
21713,-0.818389892578125,0.5384368896484375,-0.159820556640625
21714,-0.8198699951171875,0.5389862060546875,-0.161102294921875
21715,-0.8197174072265625,0.5413055419921875,-0.157379150390625
21716,-0.8197174072265625,0.5413055419921875,-0.157379150390625
21717,-0.8204193115234375,0.539886474609375,-0.156585693359375
21718,-0.82464599609375,0.53948974609375,-0.1581268310546875
21719,-0.8253173828125,0.538421630859375,-0.1571807861328125
21720,-0.8253173828125,0.538421630859375,-0.1571807861328125
21721,-0.82537841796875,0.5404510498046875,-0.156341552734375
21722,-0.8253326416015625,0.542327880859375,-0.157073974609375
21723,-0.8247528076171875,0.5447235107421875,-0.15570068359375
21724,-0.8238372802734375,0.5467681884765625,-0.1522674560546875
21725,-0.8208465576171875,0.548095703125,-0.1492156982421875
21726,-0.8172607421875,0.548187255859375,-0.147613525390625
21727,-0.81591796875,0.548004150390625,-0.147857666015625
21728,-0.81591796875,0.548004150390625,-0.147857666015625
21729,-0.817413330078125,0.543975830078125,-0.1512603759765625
21730,-0.8190155029296875,0.54150390625,-0.1547698974609375
21731,-0.821441650390625,0.5375823974609375,-0.1560211181640625
21732,-0.821441650390625,0.5375823974609375,-0.1560211181640625
21733,-0.8211517333984375,0.5363311767578125,-0.154693603515625
21734,-0.8226165771484375,0.5350189208984375,-0.1529693603515625
21735,-0.8260040283203125,0.5396881103515625,-0.1565093994140625
21736,-0.8260040283203125,0.5396881103515625,-0.1565093994140625
21737,-0.8245391845703125,0.5416412353515625,-0.1573486328125
21738,-0.822357177734375,0.5412750244140625,-0.1595916748046875
21739,-0.8202972412109375,0.5403594970703125,-0.162078857421875
21740,-0.8202972412109375,0.5403594970703125,-0.162078857421875
21741,-0.820037841796875,0.54339599609375,-0.159912109375
21742,-0.8174285888671875,0.545623779296875,-0.1589813232421875
21743,-0.8124847412109375,0.547943115234375,-0.1534271240234375
21744,-0.8124847412109375,0.547943115234375,-0.1534271240234375
21745,-0.8121490478515625,0.546783447265625,-0.1528472900390625
21746,-0.81439208984375,0.543304443359375,-0.155364990234375
21747,-0.8166961669921875,0.53936767578125,-0.155426025390625
21748,-0.8166961669921875,0.53936767578125,-0.155426025390625
21749,-0.82293701171875,0.5311737060546875,-0.1542816162109375
21750,-0.82720947265625,0.5312652587890625,-0.1532440185546875
21751,-0.8282623291015625,0.5321044921875,-0.1493377685546875
21752,-0.8259735107421875,0.5349884033203125,-0.1479034423828125
21753,-0.8260498046875,0.5371551513671875,-0.1499176025390625
21754,-0.8251495361328125,0.537506103515625,-0.153472900390625
21755,-0.8265380859375,0.53704833984375,-0.1555633544921875
21756,-0.8287353515625,0.53662109375,-0.1579132080078125
21757,-0.82830810546875,0.5381011962890625,-0.1590576171875
21758,-0.82647705078125,0.540435791015625,-0.1582794189453125
21759,-0.8249359130859375,0.543792724609375,-0.1563262939453125
21760,-0.82330322265625,0.5487823486328125,-0.15704345703125
21761,-0.8196563720703125,0.553924560546875,-0.1565399169921875
21762,-0.8184661865234375,0.5570220947265625,-0.155426025390625
21763,-0.81854248046875,0.5565185546875,-0.1562957763671875
21764,-0.8193817138671875,0.5533599853515625,-0.156036376953125
21765,-0.8197784423828125,0.547027587890625,-0.1580963134765625
21766,-0.820831298828125,0.5391082763671875,-0.157745361328125
21767,-0.8209228515625,0.5350799560546875,-0.1561126708984375
21768,-0.8200836181640625,0.533050537109375,-0.156524658203125
21769,-0.8209228515625,0.5337677001953125,-0.15533447265625
21770,-0.8222808837890625,0.5357666015625,-0.1550140380859375
21771,-0.82440185546875,0.54046630859375,-0.155670166015625
21772,-0.82440185546875,0.54046630859375,-0.155670166015625
21773,-0.82427978515625,0.541107177734375,-0.157379150390625
21774,-0.8239898681640625,0.5413970947265625,-0.15704345703125
21775,-0.821533203125,0.54107666015625,-0.1578369140625
21776,-0.8188018798828125,0.541259765625,-0.1553955078125
21777,-0.8166046142578125,0.540802001953125,-0.157257080078125
21778,-0.8149871826171875,0.539581298828125,-0.1577301025390625
21779,-0.8202056884765625,0.540191650390625,-0.15972900390625
21780,-0.8202056884765625,0.540191650390625,-0.15972900390625
21781,-0.82086181640625,0.5408477783203125,-0.156524658203125
21782,-0.8195648193359375,0.5401458740234375,-0.154937744140625
21783,-0.8204345703125,0.5404815673828125,-0.1568756103515625
21784,-0.8215484619140625,0.542144775390625,-0.1586761474609375
21785,-0.8207550048828125,0.543731689453125,-0.1603546142578125
21786,-0.82086181640625,0.54473876953125,-0.1605072021484375
21787,-0.8214569091796875,0.54461669921875,-0.1608428955078125
21788,-0.822998046875,0.544403076171875,-0.1611175537109375
21789,-0.825439453125,0.5441741943359375,-0.15985107421875
21790,-0.8261566162109375,0.5445404052734375,-0.15447998046875
21791,-0.8253631591796875,0.54608154296875,-0.1510009765625
21792,-0.8253631591796875,0.54608154296875,-0.1510009765625
21793,-0.8215484619140625,0.551239013671875,-0.1488800048828125
21794,-0.81817626953125,0.552886962890625,-0.148956298828125
21795,-0.8179168701171875,0.5506134033203125,-0.1502685546875
21796,-0.817962646484375,0.548370361328125,-0.1532440185546875
21797,-0.8166351318359375,0.5441131591796875,-0.15655517578125
21798,-0.8177642822265625,0.5411529541015625,-0.1581878662109375
21799,-0.822998046875,0.5388031005859375,-0.156005859375
21800,-0.822998046875,0.5388031005859375,-0.156005859375
21801,-0.8252105712890625,0.5401763916015625,-0.15570068359375
21802,-0.825286865234375,0.540069580078125,-0.154815673828125
21803,-0.8237152099609375,0.5437164306640625,-0.1541900634765625
21804,-0.8237152099609375,0.5437164306640625,-0.1541900634765625
21805,-0.82244873046875,0.5442657470703125,-0.1558990478515625
21806,-0.8203887939453125,0.5447235107421875,-0.156829833984375
21807,-0.821319580078125,0.5453033447265625,-0.1577301025390625
21808,-0.8217926025390625,0.5460662841796875,-0.1584320068359375
21809,-0.8205108642578125,0.545989990234375,-0.15667724609375
21810,-0.82073974609375,0.546600341796875,-0.1555328369140625
21811,-0.8208465576171875,0.54144287109375,-0.1544952392578125
21812,-0.8208465576171875,0.54144287109375,-0.1544952392578125
21813,-0.8205413818359375,0.539337158203125,-0.154815673828125
21814,-0.8194732666015625,0.5373992919921875,-0.153717041015625
21815,-0.8184814453125,0.5356292724609375,-0.152984619140625
21816,-0.819000244140625,0.53662109375,-0.153350830078125
21817,-0.8197021484375,0.539825439453125,-0.1541900634765625
21818,-0.820648193359375,0.540802001953125,-0.153564453125
21819,-0.82293701171875,0.5408477783203125,-0.15374755859375
21820,-0.82293701171875,0.5408477783203125,-0.15374755859375
21821,-0.8211822509765625,0.5449066162109375,-0.1539306640625
21822,-0.8205413818359375,0.54742431640625,-0.1556549072265625
21823,-0.821258544921875,0.549102783203125,-0.15667724609375
21824,-0.8223114013671875,0.548858642578125,-0.158782958984375
21825,-0.8252716064453125,0.548553466796875,-0.1603851318359375
21826,-0.8275299072265625,0.546295166015625,-0.1604461669921875
21827,-0.82928466796875,0.5442047119140625,-0.1599273681640625
21828,-0.82928466796875,0.5442047119140625,-0.1599273681640625
21829,-0.827606201171875,0.5435791015625,-0.159088134765625
21830,-0.8253021240234375,0.5418853759765625,-0.159210205078125
21831,-0.8215484619140625,0.541839599609375,-0.1606292724609375
21832,-0.8215484619140625,0.541839599609375,-0.1606292724609375
21833,-0.8243560791015625,0.5416412353515625,-0.163482666015625
21834,-0.8249969482421875,0.5404510498046875,-0.1629486083984375
21835,-0.826324462890625,0.541015625,-0.159423828125
21836,-0.826324462890625,0.541015625,-0.159423828125
21837,-0.8274993896484375,0.54754638671875,-0.15216064453125
21838,-0.826812744140625,0.54962158203125,-0.14801025390625
21839,-0.8242950439453125,0.5503387451171875,-0.1444854736328125
21840,-0.8242950439453125,0.5503387451171875,-0.1444854736328125
21841,-0.82342529296875,0.5529937744140625,-0.1440887451171875
21842,-0.82183837890625,0.553863525390625,-0.1467132568359375
21843,-0.8211822509765625,0.5518035888671875,-0.151397705078125
21844,-0.8211822509765625,0.5518035888671875,-0.151397705078125
21845,-0.820953369140625,0.54327392578125,-0.15667724609375
21846,-0.8220367431640625,0.53741455078125,-0.160369873046875
21847,-0.8218536376953125,0.52783203125,-0.157379150390625
21848,-0.8218536376953125,0.52783203125,-0.157379150390625
21849,-0.821502685546875,0.528717041015625,-0.1560821533203125
21850,-0.819122314453125,0.5304107666015625,-0.156829833984375
21851,-0.8162994384765625,0.53106689453125,-0.1560211181640625
21852,-0.8153076171875,0.53204345703125,-0.1577606201171875
21853,-0.8153076171875,0.53277587890625,-0.1602935791015625
21854,-0.8154144287109375,0.533599853515625,-0.1615447998046875
21855,-0.81585693359375,0.5360107421875,-0.1605377197265625
21856,-0.8175201416015625,0.5402984619140625,-0.1604156494140625
21857,-0.818115234375,0.542877197265625,-0.1583251953125
21858,-0.8179779052734375,0.5423431396484375,-0.156158447265625
21859,-0.8151702880859375,0.543853759765625,-0.156707763671875
21860,-0.8151702880859375,0.543853759765625,-0.156707763671875
21861,-0.815155029296875,0.549346923828125,-0.159759521484375
21862,-0.8163604736328125,0.5520172119140625,-0.1619110107421875
21863,-0.8178253173828125,0.5533294677734375,-0.161407470703125
21864,-0.8225860595703125,0.5547637939453125,-0.1591796875
21865,-0.828216552734375,0.5529022216796875,-0.1565093994140625
21866,-0.8349609375,0.5509490966796875,-0.15155029296875
21867,-0.84075927734375,0.553314208984375,-0.1420440673828125
21868,-0.8453826904296875,0.556732177734375,-0.1296539306640625
21869,-0.849761962890625,0.5597686767578125,-0.111785888671875
21870,-0.8531341552734375,0.559478759765625,-0.0992889404296875
21871,-0.860504150390625,0.56353759765625,-0.08538818359375
21872,-0.860504150390625,0.56353759765625,-0.08538818359375
21873,-0.865203857421875,0.5544281005859375,-0.0818634033203125
21874,-0.863494873046875,0.54583740234375,-0.084259033203125
21875,-0.8585052490234375,0.543548583984375,-0.083587646484375
21876,-0.855682373046875,0.5440826416015625,-0.085662841796875
21877,-0.859771728515625,0.5381011962890625,-0.0761871337890625
21878,-0.8675994873046875,0.5329132080078125,-0.0707550048828125
21879,-0.8684844970703125,0.526031494140625,-0.06732177734375
21880,-0.875946044921875,0.5242156982421875,-0.0568389892578125
21881,-0.8799896240234375,0.5338897705078125,-0.0391845703125
21882,-0.893035888671875,0.55023193359375,-0.015594482421875
21883,-0.8842010498046875,0.5418853759765625,0.0179290771484375
21884,-0.8842010498046875,0.5418853759765625,0.0179290771484375
21885,-0.85528564453125,0.5130767822265625,0.021026611328125
21886,-0.84405517578125,0.4993438720703125,0.01116943359375
21887,-0.8404388427734375,0.49713134765625,0.0079193115234375
21888,-0.8398284912109375,0.49639892578125,0.0079345703125
21889,-0.8422088623046875,0.497100830078125,0.0123748779296875
21890,-0.8430328369140625,0.4990386962890625,0.0186309814453125
21891,-0.8508148193359375,0.496978759765625,0.0158538818359375
21892,-0.8577880859375,0.4920196533203125,0.0149688720703125
21893,-0.8620452880859375,0.4812774658203125,0.01373291015625
21894,-0.8673858642578125,0.4711761474609375,0.00677490234375
21895,-0.86376953125,0.4589080810546875,0.012664794921875
21896,-0.8483123779296875,0.44854736328125,0.0181427001953125
21897,-0.8329925537109375,0.4441680908203125,0.0201416015625
21898,-0.8196563720703125,0.4457855224609375,0.030609130859375
21899,-0.8109283447265625,0.4524383544921875,0.0433197021484375
21900,-0.8109283447265625,0.4524383544921875,0.0433197021484375
21901,-0.81292724609375,0.4748687744140625,0.0694580078125
21902,-0.817230224609375,0.48394775390625,0.0782928466796875
21903,-0.8189697265625,0.4972381591796875,0.0876007080078125
21904,-0.8189697265625,0.4972381591796875,0.0876007080078125
21905,-0.822052001953125,0.5047760009765625,0.082855224609375
21906,-0.82781982421875,0.5089263916015625,0.0811920166015625
21907,-0.8335418701171875,0.508880615234375,0.0799407958984375
21908,-0.8335418701171875,0.508880615234375,0.0799407958984375
21909,-0.8410491943359375,0.4979095458984375,0.0835113525390625
21910,-0.8447418212890625,0.4954376220703125,0.091705322265625
21911,-0.8485870361328125,0.4940643310546875,0.0992279052734375
21912,-0.8485870361328125,0.4940643310546875,0.0992279052734375
21913,-0.8504791259765625,0.4959869384765625,0.11041259765625
21914,-0.8484649658203125,0.4962615966796875,0.1128997802734375
21915,-0.8434295654296875,0.49810791015625,0.1153106689453125
21916,-0.8359527587890625,0.5001678466796875,0.1144561767578125
21917,-0.8289794921875,0.4993438720703125,0.113067626953125
21918,-0.8231353759765625,0.50079345703125,0.109130859375
21919,-0.81536865234375,0.498382568359375,0.104583740234375
21920,-0.80926513671875,0.49481201171875,0.1031646728515625
21921,-0.8031005859375,0.4889373779296875,0.1024932861328125
21922,-0.801025390625,0.4868316650390625,0.1020050048828125
21923,-0.8057098388671875,0.4933319091796875,0.1114501953125
21924,-0.8057098388671875,0.4933319091796875,0.1114501953125
21925,-0.8067169189453125,0.5055999755859375,0.1113739013671875
21926,-0.8046112060546875,0.5130767822265625,0.110626220703125
21927,-0.801422119140625,0.5272064208984375,0.1132965087890625
21928,-0.801422119140625,0.5272064208984375,0.1132965087890625
21929,-0.802032470703125,0.5455169677734375,0.114227294921875
21930,-0.803253173828125,0.5551910400390625,0.1190185546875
21931,-0.80810546875,0.56298828125,0.12847900390625
21932,-0.8160552978515625,0.5776824951171875,0.13446044921875
