time_idx,accelerometerAccelerationX(G),accelerometerAccelerationY(G),accelerometerAccelerationZ(G)
240000,0.6976776123046875,-0.2005462646484375,-0.5888824462890625
240001,0.704498291015625,-0.20635986328125,-0.6021270751953125
240002,0.7111053466796875,-0.21441650390625,-0.6131744384765625
240003,0.7144622802734375,-0.215057373046875,-0.616302490234375
240004,0.719268798828125,-0.2176666259765625,-0.6127166748046875
240005,0.7186279296875,-0.2187652587890625,-0.6153411865234375
240006,0.71539306640625,-0.2184295654296875,-0.6185455322265625
240007,0.7179718017578125,-0.22705078125,-0.62274169921875
240008,0.7202606201171875,-0.2347564697265625,-0.6269683837890625
240009,0.7198944091796875,-0.235076904296875,-0.6480560302734375
240010,0.719940185546875,-0.2481231689453125,-0.664703369140625
240011,0.728668212890625,-0.2754058837890625,-0.7130584716796875
240012,0.730255126953125,-0.29156494140625,-0.749542236328125
240013,0.73675537109375,-0.2970428466796875,-0.7865753173828125
240014,0.7434234619140625,-0.28729248046875,-0.7753448486328125
240015,0.74774169921875,-0.2648468017578125,-0.7602996826171875
240016,0.759246826171875,-0.2588348388671875,-0.7592010498046875
240017,0.7665252685546875,-0.2472076416015625,-0.774749755859375
240018,0.7663726806640625,-0.243865966796875,-0.7952423095703125
240019,0.7600250244140625,-0.2484130859375,-0.8132476806640625
240020,0.757965087890625,-0.250518798828125,-0.8300323486328125
240021,0.777801513671875,-0.252410888671875,-0.84979248046875
240022,0.772735595703125,-0.2831268310546875,-0.8623809814453125
240023,0.7470703125,-0.285125732421875,-0.8664398193359375
240024,0.72845458984375,-0.283538818359375,-0.864105224609375
240025,0.70404052734375,-0.282379150390625,-0.8378753662109375
240026,0.67742919921875,-0.26177978515625,-0.84381103515625
240027,0.6659088134765625,-0.2663726806640625,-0.8631591796875
240028,0.6586761474609375,-0.2604217529296875,-0.8733978271484375
240029,0.6547088623046875,-0.29608154296875,-0.8819732666015625
240030,0.6386871337890625,-0.3140716552734375,-0.907958984375
240031,0.62347412109375,-0.275543212890625,-0.917633056640625
240032,0.63446044921875,-0.2370758056640625,-0.94525146484375
240033,0.639801025390625,-0.2266387939453125,-0.9588775634765624
240034,0.607696533203125,-0.31103515625,-0.9157257080078124
240035,0.560150146484375,-0.3823089599609375,-0.8662872314453125
240036,0.526092529296875,-0.36663818359375,-0.8736114501953125
240037,0.5601959228515625,-0.2884521484375,-0.9109649658203124
240038,0.572998046875,-0.3600616455078125,-0.932464599609375
240039,0.5842132568359375,-0.324798583984375,-0.8610076904296875
240040,0.6294708251953125,-0.2749481201171875,-0.85455322265625
240041,0.633636474609375,-0.348724365234375,-0.81903076171875
240042,0.6072998046875,-0.386138916015625,-0.7734375
240043,0.588897705078125,-0.404449462890625,-0.7717437744140625
240044,0.5840606689453125,-0.4243621826171875,-0.7882537841796875
240045,0.588623046875,-0.44110107421875,-0.7845458984375
240046,0.6005401611328125,-0.455474853515625,-0.837860107421875
240047,0.6225433349609375,-0.45013427734375,-0.9603729248046876
240048,0.625885009765625,-0.42230224609375,-1.036178588867188
240049,0.6076507568359375,-0.390228271484375,-1.04986572265625
240050,0.572296142578125,-0.3597869873046875,-1.014556884765625
240051,0.5315093994140625,-0.339447021484375,-0.941558837890625
240052,0.497344970703125,-0.3232574462890625,-0.857696533203125
240053,0.479034423828125,-0.311981201171875,-0.7897491455078125
240054,0.475738525390625,-0.300262451171875,-0.7433013916015625
240055,0.4850616455078125,-0.288055419921875,-0.7099456787109375
240056,0.5030517578125,-0.2770233154296875,-0.67974853515625
240057,0.5209808349609375,-0.2673797607421875,-0.653961181640625
240058,0.535308837890625,-0.259307861328125,-0.628326416015625
240059,0.5449066162109375,-0.24957275390625,-0.6061859130859375
240060,0.555023193359375,-0.2387542724609375,-0.5889739990234375
240061,0.5662994384765625,-0.231048583984375,-0.5742950439453125
240062,0.5799713134765625,-0.2215423583984375,-0.56866455078125
240063,0.597564697265625,-0.2125396728515625,-0.5710296630859375
240064,0.617889404296875,-0.2111663818359375,-0.5793304443359375
240065,0.62969970703125,-0.20550537109375,-0.5898895263671875
240066,0.6434326171875,-0.20513916015625,-0.614837646484375
240067,0.6527557373046875,-0.19818115234375,-0.6180419921875
240068,0.6626739501953125,-0.212677001953125,-0.6562347412109375
240069,0.671783447265625,-0.2242889404296875,-0.6824188232421875
240070,0.6744232177734375,-0.2363739013671875,-0.7006378173828125
240071,0.6734466552734375,-0.2576904296875,-0.70391845703125
240072,0.6732025146484375,-0.2805023193359375,-0.702392578125
240073,0.6810760498046875,-0.3115234375,-0.6956329345703125
240074,0.6890716552734375,-0.3455810546875,-0.696929931640625
240075,0.6951446533203125,-0.380950927734375,-0.7040252685546875
240076,0.705810546875,-0.450225830078125,-0.702392578125
240077,0.705810546875,-0.450225830078125,-0.702392578125
240078,0.7088165283203125,-0.4771881103515625,-0.6943511962890625
240079,0.7088470458984375,-0.4921722412109375,-0.6932830810546875
240080,0.70654296875,-0.493377685546875,-0.6889495849609375
240081,0.689453125,-0.46728515625,-0.6843719482421875
240082,0.6653594970703125,-0.431060791015625,-0.68310546875
240083,0.6455535888671875,-0.398284912109375,-0.6856536865234375
240084,0.6228485107421875,-0.351593017578125,-0.689544677734375
240085,0.5936126708984375,-0.3082275390625,-0.6861572265625
240086,0.5793304443359375,-0.2864990234375,-0.673828125
240087,0.597259521484375,-0.28033447265625,-0.6372222900390625
240088,0.6155548095703125,-0.28204345703125,-0.6079864501953125
240089,0.62158203125,-0.2774200439453125,-0.62066650390625
240090,0.631622314453125,-0.290252685546875,-0.6664886474609375
240091,0.6504669189453125,-0.3143310546875,-0.69293212890625
240092,0.6678466796875,-0.33587646484375,-0.68817138671875
240093,0.683929443359375,-0.34136962890625,-0.662841796875
240094,0.7007904052734375,-0.332489013671875,-0.6227569580078125
240095,0.7127838134765625,-0.3245849609375,-0.57940673828125
240096,0.7177886962890625,-0.31146240234375,-0.542694091796875
240097,0.732177734375,-0.2842864990234375,-0.5109100341796875
240098,0.730224609375,-0.2689056396484375,-0.4946441650390625
240099,0.7204742431640625,-0.2596435546875,-0.48968505859375
240100,0.7131805419921875,-0.2522430419921875,-0.47174072265625
240101,0.7045135498046875,-0.253143310546875,-0.466033935546875
240102,0.70550537109375,-0.2565155029296875,-0.460968017578125
240103,0.7198333740234375,-0.2576751708984375,-0.452789306640625
240104,0.732696533203125,-0.2549896240234375,-0.436187744140625
240105,0.750823974609375,-0.2506103515625,-0.434783935546875
240106,0.77960205078125,-0.2477874755859375,-0.4402923583984375
240107,0.801483154296875,-0.2434234619140625,-0.40386962890625
240108,0.81488037109375,-0.2401885986328125,-0.368896484375
240109,0.8189697265625,-0.2314453125,-0.323089599609375
240110,0.8310699462890625,-0.233978271484375,-0.2985076904296875
240111,0.853790283203125,-0.229827880859375,-0.3113861083984375
240112,0.878021240234375,-0.223297119140625,-0.33367919921875
240113,0.89849853515625,-0.2132415771484375,-0.3531341552734375
240114,0.9135894775390624,-0.2055206298828125,-0.370025634765625
240115,0.915740966796875,-0.2045135498046875,-0.3682098388671875
240116,0.9117584228515624,-0.2073822021484375,-0.359283447265625
240117,0.902740478515625,-0.2197113037109375,-0.335296630859375
240118,0.902740478515625,-0.2197113037109375,-0.335296630859375
240119,0.9011993408203124,-0.2215118408203125,-0.3321380615234375
240120,0.909088134765625,-0.2193603515625,-0.3484039306640625
240121,0.919189453125,-0.20758056640625,-0.36083984375
240122,0.923126220703125,-0.192169189453125,-0.3703460693359375
240123,0.9217529296875,-0.1797637939453125,-0.3806610107421875
240124,0.9218902587890624,-0.177490234375,-0.3861846923828125
240125,0.9182281494140624,-0.196624755859375,-0.3852691650390625
240126,0.9182281494140624,-0.196624755859375,-0.3852691650390625
240127,0.9163360595703124,-0.206573486328125,-0.3756561279296875
240128,0.917816162109375,-0.2131805419921875,-0.36431884765625
240129,0.9237823486328124,-0.221343994140625,-0.3559722900390625
240130,0.9307861328125,-0.2295684814453125,-0.348175048828125
240131,0.9384002685546876,-0.2404022216796875,-0.3463592529296875
240132,0.9412384033203124,-0.245635986328125,-0.3456268310546875
240133,0.9481353759765624,-0.244598388671875,-0.342315673828125
240134,0.959259033203125,-0.23516845703125,-0.3322296142578125
240135,0.969146728515625,-0.222747802734375,-0.3264923095703125
240136,0.97564697265625,-0.2130126953125,-0.330047607421875
240137,0.9752655029296876,-0.205810546875,-0.3329620361328125
240138,0.967071533203125,-0.1970977783203125,-0.3341522216796875
240139,0.95843505859375,-0.1888580322265625,-0.343902587890625
240140,0.951904296875,-0.182830810546875,-0.36334228515625
240141,0.951934814453125,-0.1786956787109375,-0.3724517822265625
240142,0.9521484375,-0.1793212890625,-0.3733978271484375
240143,0.9528045654296876,-0.1846771240234375,-0.367034912109375
240144,0.954864501953125,-0.1894073486328125,-0.355316162109375
240145,0.9590911865234376,-0.1805419921875,-0.338165283203125
240146,0.9593505859375,-0.166656494140625,-0.3155059814453125
240147,0.9542236328125,-0.154144287109375,-0.290283203125
240148,0.942169189453125,-0.150115966796875,-0.2745208740234375
240149,0.9225311279296876,-0.1341552734375,-0.2765960693359375
240150,0.9040374755859376,-0.12042236328125,-0.2985992431640625
240151,0.8934783935546875,-0.115081787109375,-0.330535888671875
240152,0.8875885009765625,-0.1194610595703125,-0.35565185546875
240153,0.8917694091796875,-0.135650634765625,-0.37225341796875
240154,0.9036865234375,-0.154998779296875,-0.3734130859375
240155,0.914520263671875,-0.169921875,-0.363983154296875
240156,0.918792724609375,-0.1737518310546875,-0.341796875
240157,0.9167022705078124,-0.1656951904296875,-0.3115081787109375
240158,0.908111572265625,-0.1548309326171875,-0.28704833984375
240159,0.8946380615234375,-0.1472015380859375,-0.2820587158203125
240160,0.8858184814453125,-0.14404296875,-0.2947998046875
240161,0.879486083984375,-0.142059326171875,-0.318206787109375
240162,0.8787994384765625,-0.1438446044921875,-0.3461761474609375
240163,0.8811492919921875,-0.14947509765625,-0.3635711669921875
240164,0.887481689453125,-0.1550750732421875,-0.36981201171875
240165,0.9011993408203124,-0.1595458984375,-0.36529541015625
240166,0.9147491455078124,-0.1591033935546875,-0.3504791259765625
240167,0.9255523681640624,-0.1640777587890625,-0.340087890625
240168,0.932281494140625,-0.16650390625,-0.335479736328125
240169,0.931671142578125,-0.16278076171875,-0.330841064453125
240170,0.9305877685546876,-0.1576995849609375,-0.3338775634765625
240171,0.9307861328125,-0.147491455078125,-0.3414764404296875
240172,0.9342193603515624,-0.1372833251953125,-0.3518829345703125
240173,0.938201904296875,-0.1313323974609375,-0.3579864501953125
240174,0.938995361328125,-0.131378173828125,-0.3568572998046875
240175,0.933563232421875,-0.13385009765625,-0.3584747314453125
240176,0.933563232421875,-0.13385009765625,-0.3584747314453125
240177,0.9218902587890624,-0.1402587890625,-0.35150146484375
240178,0.9199981689453124,-0.1469573974609375,-0.352508544921875
240179,0.9198760986328124,-0.15020751953125,-0.3503265380859375
240180,0.917999267578125,-0.1511688232421875,-0.348175048828125
240181,0.9119415283203124,-0.1632843017578125,-0.35491943359375
240182,0.907928466796875,-0.1787261962890625,-0.3570556640625
240183,0.908294677734375,-0.1783599853515625,-0.3468017578125
240184,0.9076690673828124,-0.17694091796875,-0.3425750732421875
240185,0.90185546875,-0.1884613037109375,-0.34942626953125
240186,0.90069580078125,-0.1862030029296875,-0.3459625244140625
240187,0.9048919677734376,-0.1765899658203125,-0.34759521484375
240188,0.90728759765625,-0.174835205078125,-0.368438720703125
240189,0.9153289794921876,-0.17742919921875,-0.387969970703125
240190,0.9309844970703124,-0.1720733642578125,-0.3905487060546875
240191,0.940338134765625,-0.167999267578125,-0.391265869140625
240192,0.941680908203125,-0.18768310546875,-0.3891448974609375
240193,0.948974609375,-0.18096923828125,-0.3595733642578125
240194,0.9535064697265624,-0.1752777099609375,-0.35491943359375
240195,0.9522705078125,-0.17059326171875,-0.3657073974609375
240196,0.9481048583984376,-0.167327880859375,-0.3726654052734375
240197,0.9466094970703124,-0.1644439697265625,-0.377166748046875
240198,0.94354248046875,-0.1644134521484375,-0.3851470947265625
240199,0.93988037109375,-0.163848876953125,-0.39471435546875
240200,0.9373779296875,-0.1627197265625,-0.398712158203125
240201,0.937347412109375,-0.1633758544921875,-0.395416259765625
240202,0.937103271484375,-0.16729736328125,-0.3888397216796875
240203,0.93896484375,-0.1703338623046875,-0.379669189453125
240204,0.9397735595703124,-0.171905517578125,-0.3711090087890625
240205,0.945404052734375,-0.1704254150390625,-0.3601837158203125
240206,0.9467620849609376,-0.1708831787109375,-0.351287841796875
240207,0.9445648193359376,-0.16961669921875,-0.3479156494140625
240208,0.9418182373046876,-0.1650848388671875,-0.3444366455078125
240209,0.93780517578125,-0.160247802734375,-0.3438262939453125
240210,0.932952880859375,-0.1529541015625,-0.3440093994140625
240211,0.9301605224609376,-0.1479949951171875,-0.344696044921875
240212,0.9293060302734376,-0.1419830322265625,-0.34130859375
240213,0.932464599609375,-0.1394195556640625,-0.344940185546875
240214,0.936431884765625,-0.14404296875,-0.3482818603515625
240215,0.941009521484375,-0.1412353515625,-0.3422088623046875
240216,0.9458160400390624,-0.1352691650390625,-0.3337554931640625
240217,0.9466094970703124,-0.1298828125,-0.3319854736328125
240218,0.9472808837890624,-0.1162261962890625,-0.3287811279296875
240219,0.941497802734375,-0.116180419921875,-0.330169677734375
240220,0.9366302490234376,-0.1283416748046875,-0.328765869140625
240221,0.9347076416015624,-0.1231689453125,-0.329376220703125
240222,0.9293975830078124,-0.1231689453125,-0.3387908935546875
240223,0.928619384765625,-0.142059326171875,-0.3456878662109375
240224,0.9316253662109376,-0.143768310546875,-0.34326171875
240225,0.93487548828125,-0.149078369140625,-0.3389129638671875
240226,0.937347412109375,-0.1662750244140625,-0.3321990966796875
240227,0.937896728515625,-0.1643829345703125,-0.3201904296875
240228,0.9329681396484376,-0.166259765625,-0.31951904296875
240229,0.9329681396484376,-0.166259765625,-0.31951904296875
240230,0.9271697998046876,-0.163848876953125,-0.319427490234375
240231,0.9193572998046876,-0.1598052978515625,-0.31903076171875
240232,0.9036865234375,-0.1648712158203125,-0.3223114013671875
240233,0.9036865234375,-0.1648712158203125,-0.3223114013671875
240234,0.90179443359375,-0.170318603515625,-0.3255157470703125
240235,0.9017486572265624,-0.176300048828125,-0.327392578125
240236,0.9056549072265624,-0.179473876953125,-0.33026123046875
240237,0.9106292724609376,-0.1817626953125,-0.3309173583984375
240238,0.915252685546875,-0.18463134765625,-0.3331298828125
240239,0.9179229736328124,-0.1854095458984375,-0.3341827392578125
240240,0.921112060546875,-0.18426513671875,-0.331512451171875
240241,0.924896240234375,-0.18121337890625,-0.3243408203125
240242,0.93023681640625,-0.17791748046875,-0.321014404296875
240243,0.935028076171875,-0.1732330322265625,-0.3189849853515625
240244,0.93646240234375,-0.1654815673828125,-0.3107147216796875
240245,0.93646240234375,-0.1654815673828125,-0.3107147216796875
240246,0.9358673095703124,-0.16583251953125,-0.30218505859375
240247,0.936279296875,-0.166259765625,-0.29388427734375
240248,0.936859130859375,-0.1662139892578125,-0.2885284423828125
240249,0.9369049072265624,-0.1651458740234375,-0.2859039306640625
240250,0.938751220703125,-0.16278076171875,-0.2845001220703125
240251,0.9391326904296876,-0.1632232666015625,-0.2840576171875
240252,0.9394989013671876,-0.1582794189453125,-0.281219482421875
240253,0.94219970703125,-0.15667724609375,-0.282958984375
240254,0.9460601806640624,-0.1545562744140625,-0.2858123779296875
240255,0.9491729736328124,-0.1520233154296875,-0.2896270751953125
240256,0.951416015625,-0.1526947021484375,-0.2875213623046875
240257,0.951263427734375,-0.1525115966796875,-0.2837066650390625
240258,0.9501190185546876,-0.1550750732421875,-0.2787628173828125
240259,0.951019287109375,-0.1584625244140625,-0.2738037109375
240260,0.951812744140625,-0.162750244140625,-0.267608642578125
240261,0.9573822021484376,-0.16461181640625,-0.259429931640625
240262,0.9640350341796876,-0.1605072021484375,-0.252410888671875
240263,0.9682769775390624,-0.163604736328125,-0.2557830810546875
240264,0.974365234375,-0.1654815673828125,-0.268280029296875
240265,0.9798583984375,-0.1650848388671875,-0.2839813232421875
240266,0.98675537109375,-0.1750946044921875,-0.3003082275390625
240267,0.9966888427734376,-0.1847076416015625,-0.308868408203125
240268,1.002410888671875,-0.187286376953125,-0.30560302734375
240269,1.010116577148438,-0.204437255859375,-0.30279541015625
240270,1.009048461914062,-0.2034454345703125,-0.292816162109375
240271,0.99969482421875,-0.2084808349609375,-0.2805633544921875
240272,0.98663330078125,-0.2132415771484375,-0.2715606689453125
240273,0.9683685302734376,-0.2058563232421875,-0.266571044921875
240274,0.955718994140625,-0.2024383544921875,-0.26220703125
240275,0.9500732421875,-0.1942596435546875,-0.2580413818359375
240276,0.9417572021484376,-0.1823272705078125,-0.2629547119140625
240277,0.933502197265625,-0.1707305908203125,-0.270294189453125
240278,0.9287872314453124,-0.1645660400390625,-0.276824951171875
240279,0.92755126953125,-0.1605987548828125,-0.279693603515625
240280,0.92742919921875,-0.163665771484375,-0.2793731689453125
240281,0.9288787841796876,-0.1680908203125,-0.274505615234375
240282,0.92926025390625,-0.16888427734375,-0.268829345703125
240283,0.9313201904296876,-0.1717529296875,-0.2615966796875
240284,0.933135986328125,-0.164764404296875,-0.2461090087890625
240285,0.933135986328125,-0.164764404296875,-0.2461090087890625
240286,0.9317169189453124,-0.158355712890625,-0.2414703369140625
240287,0.927734375,-0.153900146484375,-0.237152099609375
240288,0.9259490966796876,-0.161041259765625,-0.229034423828125
240289,0.9259490966796876,-0.161041259765625,-0.229034423828125
240290,0.927734375,-0.1661834716796875,-0.220916748046875
240291,0.931121826171875,-0.1692352294921875,-0.214202880859375
240292,0.9360504150390624,-0.1700439453125,-0.215362548828125
240293,0.9399261474609376,-0.167816162109375,-0.2189178466796875
240294,0.9382171630859376,-0.168212890625,-0.22161865234375
240295,0.9356536865234376,-0.1746063232421875,-0.2265167236328125
240296,0.931610107421875,-0.1821746826171875,-0.228851318359375
240297,0.9306640625,-0.190155029296875,-0.2275390625
240298,0.935760498046875,-0.1939849853515625,-0.222900390625
240299,0.94317626953125,-0.195037841796875,-0.2187957763671875
240300,0.9525146484375,-0.1933135986328125,-0.217864990234375
240301,0.959075927734375,-0.1910552978515625,-0.21820068359375
240302,0.963836669921875,-0.1865081787109375,-0.2199554443359375
240303,0.9649505615234376,-0.182708740234375,-0.21954345703125
240304,0.956298828125,-0.1807708740234375,-0.2222747802734375
240305,0.956298828125,-0.1807708740234375,-0.2222747802734375
240306,0.9504547119140624,-0.1831817626953125,-0.2199859619140625
240307,0.9467315673828124,-0.1865081787109375,-0.215545654296875
240308,0.948211669921875,-0.191070556640625,-0.2138824462890625
240309,0.9505767822265624,-0.1931915283203125,-0.213348388671875
240310,0.95648193359375,-0.1935577392578125,-0.2117462158203125
240311,0.9649505615234376,-0.1908416748046875,-0.21075439453125
240312,0.973388671875,-0.1880950927734375,-0.214263916015625
240313,0.973388671875,-0.1880950927734375,-0.214263916015625
240314,0.973785400390625,-0.1875762939453125,-0.212615966796875
240315,0.9710235595703124,-0.185943603515625,-0.2126312255859375
240316,0.9683380126953124,-0.1827545166015625,-0.216217041015625
240317,0.975799560546875,-0.1795501708984375,-0.22650146484375
240318,0.975799560546875,-0.1795501708984375,-0.22650146484375
240319,0.9818572998046876,-0.177642822265625,-0.2227935791015625
240320,1.001998901367188,-0.1705169677734375,-0.208770751953125
240321,1.001998901367188,-0.1705169677734375,-0.208770751953125
240322,1.008758544921875,-0.1731109619140625,-0.2078704833984375
240323,1.012466430664062,-0.1726531982421875,-0.2058868408203125
240324,1.011001586914062,-0.1712493896484375,-0.2008056640625
240325,1.010833740234375,-0.1735687255859375,-0.1993255615234375
240326,1.0108642578125,-0.1744384765625,-0.20062255859375
240327,1.012420654296875,-0.175079345703125,-0.2029876708984375
240328,1.012420654296875,-0.175079345703125,-0.2029876708984375
240329,1.015182495117188,-0.172821044921875,-0.19970703125
240330,1.016265869140625,-0.1816253662109375,-0.1938629150390625
240331,1.011398315429688,-0.1777496337890625,-0.189483642578125
240332,0.995574951171875,-0.1732025146484375,-0.1884002685546875
240333,0.995574951171875,-0.1732025146484375,-0.1884002685546875
240334,0.985443115234375,-0.17218017578125,-0.1868896484375
240335,0.9737548828125,-0.1678009033203125,-0.1876678466796875
240336,0.9625701904296876,-0.167144775390625,-0.190155029296875
240337,0.9522857666015624,-0.165313720703125,-0.1898040771484375
240338,0.94622802734375,-0.1629638671875,-0.1849517822265625
240339,0.942291259765625,-0.15966796875,-0.1833038330078125
240340,0.943695068359375,-0.159271240234375,-0.1810760498046875
240341,0.94500732421875,-0.1576995849609375,-0.1787109375
240342,0.9474334716796876,-0.160736083984375,-0.1755523681640625
240343,0.947113037109375,-0.1662139892578125,-0.173095703125
240344,0.946990966796875,-0.1721954345703125,-0.1717376708984375
240345,0.947357177734375,-0.17669677734375,-0.1754608154296875
240346,0.948944091796875,-0.1802978515625,-0.1784515380859375
240347,0.9508819580078124,-0.1817169189453125,-0.1779327392578125
240348,0.9543609619140624,-0.177459716796875,-0.1739959716796875
240349,0.9618072509765624,-0.17120361328125,-0.17242431640625
240350,0.96630859375,-0.164093017578125,-0.1729736328125
240351,0.9707183837890624,-0.159332275390625,-0.1724853515625
240352,0.9656219482421876,-0.165008544921875,-0.1734161376953125
240353,0.9656219482421876,-0.165008544921875,-0.1734161376953125
240354,0.9563446044921876,-0.172454833984375,-0.169708251953125
240355,0.948822021484375,-0.1774749755859375,-0.170379638671875
240356,0.9420166015625,-0.177886962890625,-0.181121826171875
240357,0.9420166015625,-0.177886962890625,-0.181121826171875
240358,0.9428558349609376,-0.179412841796875,-0.1875762939453125
240359,0.9409027099609376,-0.182403564453125,-0.1931610107421875
240360,0.941741943359375,-0.1996917724609375,-0.1982421875
240361,0.941741943359375,-0.1996917724609375,-0.1982421875
240362,0.943634033203125,-0.2086944580078125,-0.194061279296875
240363,0.9453277587890624,-0.2127532958984375,-0.192840576171875
240364,0.9498138427734376,-0.1992645263671875,-0.184722900390625
240365,0.9498138427734376,-0.1992645263671875,-0.184722900390625
240366,0.9569854736328124,-0.1929473876953125,-0.1773681640625
240367,0.96624755859375,-0.1844635009765625,-0.174163818359375
240368,0.98175048828125,-0.1743621826171875,-0.1740570068359375
240369,0.98175048828125,-0.1743621826171875,-0.1740570068359375
240370,0.983978271484375,-0.1710357666015625,-0.17633056640625
240371,0.98089599609375,-0.1708526611328125,-0.17724609375
240372,0.963043212890625,-0.2006683349609375,-0.183380126953125
240373,0.963043212890625,-0.2006683349609375,-0.183380126953125
240374,0.9479827880859376,-0.2213592529296875,-0.1901397705078125
240375,0.9262847900390624,-0.2335968017578125,-0.204010009765625
240376,0.916778564453125,-0.2169952392578125,-0.2291107177734375
240377,0.916778564453125,-0.2169952392578125,-0.2291107177734375
240378,0.9345245361328124,-0.1962890625,-0.221099853515625
240379,0.9541015625,-0.1796875,-0.213592529296875
240380,0.9913787841796876,-0.175567626953125,-0.216400146484375
240381,0.9913787841796876,-0.175567626953125,-0.216400146484375
240382,1.004150390625,-0.1739044189453125,-0.2141571044921875
240383,1.009994506835938,-0.1759796142578125,-0.1996307373046875
240384,1.006317138671875,-0.165130615234375,-0.194366455078125
240385,1.006317138671875,-0.165130615234375,-0.194366455078125
240386,1.00048828125,-0.171356201171875,-0.2076568603515625
240387,1.00048828125,-0.1766815185546875,-0.21343994140625
240388,1.003128051757812,-0.1814422607421875,-0.2230377197265625
240389,1.000473022460938,-0.1744232177734375,-0.224761962890625
240390,1.008102416992188,-0.1815185546875,-0.2118682861328125
240391,1.027252197265625,-0.1851043701171875,-0.1991119384765625
240392,1.061492919921875,-0.173614501953125,-0.1756744384765625
240393,1.061492919921875,-0.173614501953125,-0.1756744384765625
240394,1.059097290039062,-0.17022705078125,-0.1667022705078125
240395,1.044784545898438,-0.170501708984375,-0.15277099609375
240396,1.023574829101562,-0.1701202392578125,-0.1443023681640625
240397,1.023574829101562,-0.1701202392578125,-0.1443023681640625
240398,1.01324462890625,-0.1768798828125,-0.1460723876953125
240399,1.004486083984375,-0.1778106689453125,-0.15130615234375
240400,0.98773193359375,-0.18536376953125,-0.1572265625
240401,0.98773193359375,-0.18536376953125,-0.1572265625
240402,0.9833984375,-0.1893157958984375,-0.1616363525390625
240403,0.9818572998046876,-0.188690185546875,-0.159576416015625
240404,0.9774017333984376,-0.1873626708984375,-0.1617584228515625
240405,0.9699554443359376,-0.1917724609375,-0.16986083984375
240406,0.9786224365234376,-0.2052764892578125,-0.168914794921875
240407,0.98248291015625,-0.205474853515625,-0.168853759765625
240408,0.99505615234375,-0.215606689453125,-0.1539306640625
240409,0.99505615234375,-0.215606689453125,-0.1539306640625
240410,0.99725341796875,-0.2195281982421875,-0.1546173095703125
240411,0.9967041015625,-0.213104248046875,-0.166290283203125
240412,0.9909820556640624,-0.1961212158203125,-0.1842498779296875
240413,0.9909820556640624,-0.1961212158203125,-0.1842498779296875
240414,0.9432525634765624,-0.166534423828125,-0.1843719482421875
240415,0.948455810546875,-0.1781463623046875,-0.182403564453125
240416,0.94134521484375,-0.183929443359375,-0.188995361328125
240417,0.9437255859375,-0.1969757080078125,-0.1846466064453125
240418,0.9437255859375,-0.1969757080078125,-0.1846466064453125
240419,0.9509429931640624,-0.2407989501953125,-0.19244384765625
240420,0.943939208984375,-0.2508544921875,-0.1938323974609375
240421,0.9364776611328124,-0.26123046875,-0.192626953125
240422,0.92974853515625,-0.268768310546875,-0.2063140869140625
240423,0.918121337890625,-0.2659454345703125,-0.2118988037109375
240424,0.9119415283203124,-0.2811737060546875,-0.1988677978515625
240425,0.9119415283203124,-0.2811737060546875,-0.1988677978515625
240426,0.9135894775390624,-0.2902069091796875,-0.1812286376953125
240427,0.9103851318359376,-0.2879486083984375,-0.1698455810546875
240428,0.918853759765625,-0.2751922607421875,-0.1527862548828125
240429,0.918853759765625,-0.2751922607421875,-0.1527862548828125
240430,0.9232177734375,-0.27435302734375,-0.1573028564453125
240431,0.92913818359375,-0.269073486328125,-0.167083740234375
240432,0.922271728515625,-0.254364013671875,-0.174102783203125
240433,0.922271728515625,-0.254364013671875,-0.174102783203125
240434,0.88836669921875,-0.2245330810546875,-0.166717529296875
240435,0.8867034912109375,-0.22662353515625,-0.16162109375
240436,0.8989105224609375,-0.2412872314453125,-0.169403076171875
240437,0.8989105224609375,-0.2412872314453125,-0.169403076171875
240438,0.8952178955078125,-0.24127197265625,-0.1746978759765625
240439,0.8907623291015625,-0.2375946044921875,-0.176971435546875
240440,0.889984130859375,-0.211029052734375,-0.181060791015625
240441,0.889984130859375,-0.211029052734375,-0.181060791015625
240442,0.8969268798828125,-0.19146728515625,-0.1793365478515625
240443,0.9127960205078124,-0.1665191650390625,-0.174530029296875
240444,0.93377685546875,-0.1371002197265625,-0.159759521484375
240445,0.952362060546875,-0.109222412109375,-0.14013671875
240446,0.970703125,-0.1006622314453125,-0.1175689697265625
240447,0.9910430908203124,-0.1021881103515625,-0.0965728759765625
240448,1.018875122070312,-0.13201904296875,-0.10137939453125
240449,1.018875122070312,-0.13201904296875,-0.10137939453125
240450,1.021759033203125,-0.1531524658203125,-0.1197662353515625
240451,1.017349243164062,-0.175506591796875,-0.1497344970703125
240452,0.9924774169921876,-0.181304931640625,-0.1774444580078125
240453,0.9924774169921876,-0.181304931640625,-0.1774444580078125
240454,0.9724578857421876,-0.215789794921875,-0.2151947021484375
240455,0.9861602783203124,-0.227630615234375,-0.2197723388671875
240456,0.9927825927734376,-0.2277984619140625,-0.2109222412109375
240457,0.98394775390625,-0.2240447998046875,-0.19464111328125
240458,0.9731597900390624,-0.22149658203125,-0.189178466796875
240459,0.9650115966796876,-0.2189483642578125,-0.19354248046875
240460,0.9628448486328124,-0.2266387939453125,-0.2056884765625
240461,0.9628448486328124,-0.2266387939453125,-0.2056884765625
240462,0.97509765625,-0.235076904296875,-0.2201690673828125
240463,0.9791107177734376,-0.22882080078125,-0.2194061279296875
240464,0.982177734375,-0.209442138671875,-0.2216339111328125
240465,0.982177734375,-0.209442138671875,-0.2216339111328125
240466,0.9752197265625,-0.1604461669921875,-0.23675537109375
240467,0.968414306640625,-0.14617919921875,-0.2489013671875
240468,0.9645843505859376,-0.1365966796875,-0.264923095703125
240469,0.9645843505859376,-0.1365966796875,-0.264923095703125
240470,0.964202880859375,-0.1299591064453125,-0.2729644775390625
240471,0.9677734375,-0.1370086669921875,-0.26739501953125
240472,0.96826171875,-0.15521240234375,-0.26300048828125
240473,0.96795654296875,-0.182281494140625,-0.2535552978515625
240474,0.9700927734375,-0.2041473388671875,-0.2406768798828125
240475,0.9750518798828124,-0.214874267578125,-0.227996826171875
240476,0.9792938232421876,-0.22003173828125,-0.218231201171875
240477,0.98651123046875,-0.220733642578125,-0.207611083984375
240478,0.9915313720703124,-0.2121734619140625,-0.1974639892578125
240479,0.99359130859375,-0.2022857666015625,-0.1928253173828125
240480,0.9860687255859376,-0.196990966796875,-0.19525146484375
240481,0.9860687255859376,-0.196990966796875,-0.19525146484375
240482,0.9433441162109376,-0.2008514404296875,-0.2190093994140625
240483,0.9216461181640624,-0.2059478759765625,-0.22991943359375
240484,0.9058837890625,-0.226959228515625,-0.2537384033203125
240485,0.9058837890625,-0.226959228515625,-0.2537384033203125
240486,0.9124755859375,-0.2345123291015625,-0.26300048828125
240487,0.9218902587890624,-0.23297119140625,-0.26123046875
240488,0.94000244140625,-0.216064453125,-0.249298095703125
240489,0.94000244140625,-0.216064453125,-0.249298095703125
240490,0.94281005859375,-0.2112274169921875,-0.2513275146484375
240491,0.93896484375,-0.209869384765625,-0.257171630859375
240492,0.929473876953125,-0.2102203369140625,-0.2654571533203125
240493,0.929473876953125,-0.2102203369140625,-0.2654571533203125
240494,0.901458740234375,-0.2142181396484375,-0.27288818359375
240495,0.894805908203125,-0.2225494384765625,-0.2739410400390625
240496,0.8952789306640625,-0.234130859375,-0.2745361328125
240497,0.8952789306640625,-0.234130859375,-0.2745361328125
240498,0.9071807861328124,-0.2548828125,-0.2635498046875
240499,0.91571044921875,-0.256011962890625,-0.253265380859375
240500,0.9368133544921876,-0.248382568359375,-0.2401580810546875
240501,0.9368133544921876,-0.248382568359375,-0.2401580810546875
240502,0.94854736328125,-0.247222900390625,-0.2415771484375
240503,0.9630889892578124,-0.2459259033203125,-0.2439117431640625
240504,0.9735260009765624,-0.2402496337890625,-0.2479095458984375
240505,0.9735260009765624,-0.2402496337890625,-0.2479095458984375
240506,0.9841766357421876,-0.241943359375,-0.2648468017578125
240507,0.9838409423828124,-0.2425689697265625,-0.267608642578125
240508,0.9838104248046876,-0.2447509765625,-0.2688751220703125
240509,0.9831085205078124,-0.25048828125,-0.2731781005859375
240510,0.982696533203125,-0.2588653564453125,-0.2729644775390625
240511,0.98516845703125,-0.26885986328125,-0.263946533203125
240512,0.989166259765625,-0.274749755859375,-0.2521820068359375
240513,0.9897003173828124,-0.2798309326171875,-0.24371337890625
240514,0.98779296875,-0.2834930419921875,-0.2383880615234375
240515,0.98516845703125,-0.2849273681640625,-0.2328338623046875
240516,0.980194091796875,-0.282745361328125,-0.231658935546875
240517,0.9715728759765624,-0.2769012451171875,-0.2329864501953125
240518,0.9608001708984376,-0.2713165283203125,-0.2364044189453125
240519,0.9506378173828124,-0.267181396484375,-0.238189697265625
240520,0.9365234375,-0.25982666015625,-0.233489990234375
240521,0.9365234375,-0.25982666015625,-0.233489990234375
240522,0.9354248046875,-0.2578277587890625,-0.2307281494140625
240523,0.9345245361328124,-0.2538604736328125,-0.2290191650390625
240524,0.93780517578125,-0.231842041015625,-0.232666015625
240525,0.93780517578125,-0.231842041015625,-0.232666015625
240526,0.938140869140625,-0.2164459228515625,-0.2330322265625
240527,0.9389801025390624,-0.2022552490234375,-0.23297119140625
240528,0.942352294921875,-0.191680908203125,-0.233001708984375
240529,0.942352294921875,-0.191680908203125,-0.233001708984375
240530,0.954620361328125,-0.1849517822265625,-0.236236572265625
240531,0.9594573974609376,-0.18585205078125,-0.237152099609375
240532,0.95947265625,-0.1843414306640625,-0.2255096435546875
240533,0.95947265625,-0.1843414306640625,-0.2255096435546875
240534,0.959747314453125,-0.18243408203125,-0.21636962890625
240535,0.9601287841796876,-0.1835174560546875,-0.2047119140625
240536,0.959381103515625,-0.189697265625,-0.20306396484375
240537,0.9544677734375,-0.1934967041015625,-0.207794189453125
240538,0.946197509765625,-0.197052001953125,-0.2140960693359375
240539,0.9358673095703124,-0.1979522705078125,-0.2208404541015625
240540,0.9267120361328124,-0.2010498046875,-0.22552490234375
240541,0.920562744140625,-0.2010040283203125,-0.2250518798828125
240542,0.9130096435546876,-0.1978302001953125,-0.2232513427734375
240543,0.906768798828125,-0.1959686279296875,-0.2192230224609375
240544,0.9069976806640624,-0.1981964111328125,-0.215911865234375
240545,0.9077606201171876,-0.2058868408203125,-0.2134246826171875
240546,0.9075469970703124,-0.214324951171875,-0.208740234375
240547,0.904449462890625,-0.2170257568359375,-0.207061767578125
240548,0.9004669189453125,-0.218719482421875,-0.2116851806640625
240549,0.898284912109375,-0.2265777587890625,-0.21929931640625
240550,0.899566650390625,-0.232879638671875,-0.22515869140625
240551,0.901641845703125,-0.236114501953125,-0.226318359375
240552,0.91766357421875,-0.2388916015625,-0.2174835205078125
240553,0.91766357421875,-0.2388916015625,-0.2174835205078125
240554,0.9290008544921876,-0.2406158447265625,-0.2118377685546875
240555,0.939239501953125,-0.241851806640625,-0.2186126708984375
240556,0.96173095703125,-0.2183380126953125,-0.2432861328125
240557,0.96173095703125,-0.2183380126953125,-0.2432861328125
240558,0.9691009521484376,-0.2148895263671875,-0.2453765869140625
240559,0.9652252197265624,-0.2208709716796875,-0.2432403564453125
240560,0.9521636962890624,-0.224639892578125,-0.2384796142578125
240561,0.9521636962890624,-0.224639892578125,-0.2384796142578125
240562,0.937469482421875,-0.2315216064453125,-0.247283935546875
240563,0.9345703125,-0.2407684326171875,-0.25909423828125
240564,0.926971435546875,-0.2470245361328125,-0.26788330078125
240565,0.92510986328125,-0.2463531494140625,-0.272857666015625
240566,0.929046630859375,-0.2470550537109375,-0.2805633544921875
240567,0.93536376953125,-0.251190185546875,-0.283935546875
240568,0.94183349609375,-0.2529449462890625,-0.27691650390625
240569,0.949066162109375,-0.25860595703125,-0.265716552734375
240570,0.9546051025390624,-0.261322021484375,-0.2564239501953125
240571,0.959991455078125,-0.2623138427734375,-0.255126953125
240572,0.9706878662109376,-0.264068603515625,-0.2563323974609375
240573,0.9819793701171876,-0.2645263671875,-0.2598724365234375
240574,0.99371337890625,-0.268218994140625,-0.2613983154296875
240575,1.003463745117188,-0.2670135498046875,-0.25982666015625
240576,0.999664306640625,-0.255859375,-0.26593017578125
240577,0.991180419921875,-0.253204345703125,-0.2784271240234375
240578,0.981201171875,-0.253662109375,-0.286590576171875
240579,0.9692535400390624,-0.2537689208984375,-0.292266845703125
240580,0.9584197998046876,-0.2552642822265625,-0.294342041015625
240581,0.954254150390625,-0.2534027099609375,-0.2930908203125
240582,0.954071044921875,-0.251861572265625,-0.291229248046875
240583,0.9566192626953124,-0.248809814453125,-0.2941741943359375
240584,0.957977294921875,-0.250457763671875,-0.2987060546875
240585,0.957977294921875,-0.250457763671875,-0.2987060546875
240586,0.9404296875,-0.2615203857421875,-0.306884765625
240587,0.9256744384765624,-0.26470947265625,-0.3051910400390625
240588,0.91705322265625,-0.265167236328125,-0.3029022216796875
240589,0.9144134521484376,-0.2635498046875,-0.30035400390625
240590,0.92034912109375,-0.264251708984375,-0.2999725341796875
240591,0.923370361328125,-0.262176513671875,-0.3049774169921875
240592,0.9192352294921876,-0.2601776123046875,-0.3128662109375
240593,0.9073486328125,-0.26617431640625,-0.315826416015625
240594,0.8885955810546875,-0.27490234375,-0.3177032470703125
240595,0.8736724853515625,-0.2815399169921875,-0.3137969970703125
240596,0.8602294921875,-0.2851715087890625,-0.3049468994140625
240597,0.8602294921875,-0.2851715087890625,-0.3049468994140625
240598,0.8591461181640625,-0.287872314453125,-0.3026885986328125
240599,0.8578033447265625,-0.2923583984375,-0.2980499267578125
240600,0.855438232421875,-0.295562744140625,-0.3010101318359375
240601,0.8525238037109375,-0.295684814453125,-0.3089599609375
240602,0.852081298828125,-0.2958831787109375,-0.3166351318359375
240603,0.8546295166015625,-0.29290771484375,-0.3206939697265625
240604,0.8697357177734375,-0.2952423095703125,-0.3243408203125
240605,0.8697357177734375,-0.2952423095703125,-0.3243408203125
240606,0.8752593994140625,-0.2970428466796875,-0.327667236328125
240607,0.8784637451171875,-0.2983245849609375,-0.3232269287109375
240608,0.89324951171875,-0.2981109619140625,-0.2780303955078125
240609,0.89324951171875,-0.2981109619140625,-0.2780303955078125
240610,0.9004058837890625,-0.2917327880859375,-0.28155517578125
240611,0.8992919921875,-0.294769287109375,-0.293670654296875
240612,0.89764404296875,-0.302459716796875,-0.3004913330078125
240613,0.8899993896484375,-0.303924560546875,-0.311126708984375
240614,0.881134033203125,-0.2999267578125,-0.3258514404296875
240615,0.871673583984375,-0.3038787841796875,-0.3415985107421875
240616,0.86822509765625,-0.31170654296875,-0.3487548828125
240617,0.8804931640625,-0.3165283203125,-0.34246826171875
240618,0.9032745361328124,-0.3243408203125,-0.32940673828125
240619,0.9303741455078124,-0.3277587890625,-0.321380615234375
240620,0.9486236572265624,-0.338623046875,-0.3241424560546875
240621,0.9468231201171876,-0.3508453369140625,-0.330108642578125
240622,0.9311676025390624,-0.3574371337890625,-0.3409271240234375
240623,0.9137725830078124,-0.361236572265625,-0.3513641357421875
240624,0.899169921875,-0.35723876953125,-0.361785888671875
240625,0.899169921875,-0.35723876953125,-0.361785888671875
240626,0.8595733642578125,-0.34796142578125,-0.358978271484375
240627,0.8456573486328125,-0.365814208984375,-0.3501434326171875
240628,0.843292236328125,-0.42938232421875,-0.350189208984375
240629,0.843292236328125,-0.42938232421875,-0.350189208984375
240630,0.85223388671875,-0.4432220458984375,-0.359619140625
240631,0.86199951171875,-0.4345855712890625,-0.3690185546875
240632,0.8715057373046875,-0.3834991455078125,-0.374786376953125
240633,0.8715057373046875,-0.3834991455078125,-0.374786376953125
240634,0.8869781494140625,-0.2764129638671875,-0.3924560546875
240635,0.893524169921875,-0.261383056640625,-0.4044952392578125
240636,0.899322509765625,-0.2697906494140625,-0.415374755859375
240637,0.9002685546875,-0.2938995361328125,-0.4253387451171875
240638,0.8925018310546875,-0.321136474609375,-0.4264373779296875
240639,0.878173828125,-0.3424835205078125,-0.41253662109375
240640,0.8643951416015625,-0.359161376953125,-0.3884124755859375
240641,0.8526763916015625,-0.38140869140625,-0.3751678466796875
240642,0.84222412109375,-0.4068756103515625,-0.36883544921875
240643,0.828948974609375,-0.4206390380859375,-0.3631591796875
240644,0.8114776611328125,-0.4307708740234375,-0.3639678955078125
240645,0.7933502197265625,-0.4315338134765625,-0.3691253662109375
240646,0.7762451171875,-0.4273529052734375,-0.371795654296875
240647,0.7609100341796875,-0.420501708984375,-0.3718719482421875
240648,0.74761962890625,-0.4152984619140625,-0.3749542236328125
240649,0.7412872314453125,-0.42156982421875,-0.380584716796875
240650,0.7423095703125,-0.4380645751953125,-0.3901824951171875
240651,0.7483062744140625,-0.4551849365234375,-0.4004974365234375
240652,0.752899169921875,-0.4743499755859375,-0.410186767578125
240653,0.752899169921875,-0.4743499755859375,-0.410186767578125
240654,0.764190673828125,-0.515777587890625,-0.428619384765625
240655,0.7727203369140625,-0.5294189453125,-0.42559814453125
240656,0.7836151123046875,-0.54022216796875,-0.4368438720703125
240657,0.7913818359375,-0.5319671630859375,-0.4479522705078125
240658,0.799163818359375,-0.51104736328125,-0.450927734375
240659,0.8047943115234375,-0.47540283203125,-0.452972412109375
240660,0.808929443359375,-0.4326629638671875,-0.4472198486328125
240661,0.8167877197265625,-0.397735595703125,-0.44427490234375
240662,0.821624755859375,-0.379180908203125,-0.4465179443359375
240663,0.8236083984375,-0.3710479736328125,-0.4517669677734375
240664,0.82177734375,-0.3701019287109375,-0.454345703125
240665,0.8227996826171875,-0.3643951416015625,-0.4523162841796875
240666,0.8311767578125,-0.3581695556640625,-0.4514007568359375
240667,0.8357696533203125,-0.35113525390625,-0.4631805419921875
240668,0.829071044921875,-0.329376220703125,-0.4916839599609375
240669,0.829071044921875,-0.329376220703125,-0.4916839599609375
240670,0.8200225830078125,-0.3218231201171875,-0.5091705322265625
240671,0.8060455322265625,-0.3152008056640625,-0.5174407958984375
240672,0.7921905517578125,-0.31280517578125,-0.5131378173828125
240673,0.7900238037109375,-0.3143463134765625,-0.502838134765625
240674,0.7959442138671875,-0.319671630859375,-0.4955291748046875
240675,0.804962158203125,-0.3281402587890625,-0.489166259765625
240676,0.81268310546875,-0.335052490234375,-0.4823760986328125
240677,0.8205108642578125,-0.3396759033203125,-0.4661407470703125
240678,0.8291473388671875,-0.345458984375,-0.4488067626953125
240679,0.8424224853515625,-0.352294921875,-0.4345703125
240680,0.8560333251953125,-0.3522186279296875,-0.435516357421875
240681,0.865142822265625,-0.34454345703125,-0.447296142578125
240682,0.868743896484375,-0.330841064453125,-0.455841064453125
240683,0.861236572265625,-0.313385009765625,-0.4565277099609375
240684,0.8323822021484375,-0.2757568359375,-0.4652557373046875
240685,0.8323822021484375,-0.2757568359375,-0.4652557373046875
240686,0.8227081298828125,-0.26922607421875,-0.4685821533203125
240687,0.8212432861328125,-0.2749786376953125,-0.4703369140625
240688,0.8288726806640625,-0.286956787109375,-0.47076416015625
240689,0.8426361083984375,-0.2982025146484375,-0.46832275390625
240690,0.8528594970703125,-0.309600830078125,-0.463165283203125
240691,0.854400634765625,-0.3225250244140625,-0.46148681640625
240692,0.8465118408203125,-0.3411407470703125,-0.4613189697265625
240693,0.833251953125,-0.36273193359375,-0.4585418701171875
240694,0.82110595703125,-0.3838958740234375,-0.4594879150390625
240695,0.8137969970703125,-0.39788818359375,-0.46728515625
240696,0.8115692138671875,-0.4078369140625,-0.4778594970703125
240697,0.8101806640625,-0.41558837890625,-0.4918365478515625
240698,0.807708740234375,-0.4247894287109375,-0.5042877197265625
240699,0.803070068359375,-0.4278106689453125,-0.5088348388671875
240700,0.7994232177734375,-0.4262542724609375,-0.5105438232421875
240701,0.8001556396484375,-0.417877197265625,-0.5135040283203125
240702,0.8065948486328125,-0.402252197265625,-0.51092529296875
240703,0.816162109375,-0.3852386474609375,-0.5014801025390625
240704,0.8254852294921875,-0.3699493408203125,-0.4922637939453125
240705,0.8254852294921875,-0.3699493408203125,-0.4922637939453125
240706,0.8319854736328125,-0.341644287109375,-0.4843292236328125
240707,0.82708740234375,-0.3269805908203125,-0.4842987060546875
240708,0.8194427490234375,-0.3143463134765625,-0.48516845703125
240709,0.8151092529296875,-0.30780029296875,-0.48944091796875
240710,0.8131256103515625,-0.30487060546875,-0.4933624267578125
240711,0.8135223388671875,-0.3049163818359375,-0.4921875
240712,0.816741943359375,-0.3037872314453125,-0.484039306640625
240713,0.820037841796875,-0.302490234375,-0.478668212890625
240714,0.8239288330078125,-0.3020782470703125,-0.473297119140625
240715,0.82763671875,-0.302337646484375,-0.46722412109375
240716,0.83251953125,-0.2967529296875,-0.4537200927734375
240717,0.819427490234375,-0.29180908203125,-0.46197509765625
240718,0.819427490234375,-0.29180908203125,-0.46197509765625
240719,0.819427490234375,-0.29180908203125,-0.46197509765625
240720,0.8100433349609375,-0.29058837890625,-0.46337890625
240721,0.8064422607421875,-0.289398193359375,-0.461212158203125
240722,0.8082427978515625,-0.291412353515625,-0.4629974365234375
240723,0.8119964599609375,-0.2991943359375,-0.4620208740234375
240724,0.820098876953125,-0.3144989013671875,-0.4536590576171875
240725,0.8195648193359375,-0.3195037841796875,-0.4488067626953125
240726,0.8195648193359375,-0.3195037841796875,-0.4488067626953125
240727,0.8141937255859375,-0.3188629150390625,-0.4440765380859375
240728,0.807403564453125,-0.3170013427734375,-0.44525146484375
240729,0.807403564453125,-0.3170013427734375,-0.44525146484375
240730,0.8002471923828125,-0.311859130859375,-0.461639404296875
240731,0.8002471923828125,-0.3110504150390625,-0.468475341796875
240732,0.8145599365234375,-0.3170166015625,-0.4685516357421875
240733,0.8145599365234375,-0.3170166015625,-0.4685516357421875
240734,0.8228302001953125,-0.3217926025390625,-0.4639129638671875
240735,0.827850341796875,-0.32330322265625,-0.4568939208984375
240736,0.8309326171875,-0.3137054443359375,-0.447906494140625
240737,0.8309326171875,-0.3137054443359375,-0.447906494140625
240738,0.8310089111328125,-0.3037872314453125,-0.4456329345703125
240739,0.832244873046875,-0.29193115234375,-0.444061279296875
240740,0.8339996337890625,-0.2856903076171875,-0.4420318603515625
240741,0.8352813720703125,-0.2841644287109375,-0.441802978515625
240742,0.836761474609375,-0.287261962890625,-0.4414825439453125
240743,0.8378448486328125,-0.2894134521484375,-0.4425811767578125
240744,0.835601806640625,-0.293060302734375,-0.448577880859375
240745,0.835601806640625,-0.293060302734375,-0.448577880859375
240746,0.8238525390625,-0.298919677734375,-0.458587646484375
240747,0.818389892578125,-0.2972259521484375,-0.464569091796875
240748,0.8160552978515625,-0.296783447265625,-0.4701385498046875
240749,0.816558837890625,-0.2993316650390625,-0.4725341796875
240750,0.8209228515625,-0.3021392822265625,-0.4701690673828125
240751,0.8289642333984375,-0.3088226318359375,-0.4668121337890625
240752,0.8389129638671875,-0.318084716796875,-0.4649200439453125
240753,0.8389129638671875,-0.318084716796875,-0.4649200439453125
240754,0.8662261962890625,-0.331390380859375,-0.4742889404296875
240755,0.8790435791015625,-0.329071044921875,-0.4815673828125
240756,0.889251708984375,-0.3219146728515625,-0.490264892578125
240757,0.89239501953125,-0.309661865234375,-0.4940185546875
240758,0.8875885009765625,-0.297760009765625,-0.495513916015625
240759,0.879852294921875,-0.2904815673828125,-0.498016357421875
240760,0.858673095703125,-0.28912353515625,-0.4987335205078125
240761,0.858673095703125,-0.28912353515625,-0.4987335205078125
240762,0.848968505859375,-0.2939453125,-0.4963836669921875
240763,0.83966064453125,-0.3004913330078125,-0.4970855712890625
240764,0.8239288330078125,-0.314239501953125,-0.502960205078125
240765,0.8239288330078125,-0.314239501953125,-0.502960205078125
240766,0.8187103271484375,-0.3285675048828125,-0.5034027099609375
240767,0.8147125244140625,-0.339202880859375,-0.5036468505859375
240768,0.8123779296875,-0.3472747802734375,-0.5020294189453125
240769,0.8123779296875,-0.3472747802734375,-0.5020294189453125
240770,0.804473876953125,-0.3486480712890625,-0.4970855712890625
240771,0.8022308349609375,-0.3451690673828125,-0.495269775390625
240772,0.8018341064453125,-0.3439788818359375,-0.4964599609375
240773,0.8024444580078125,-0.3426361083984375,-0.493316650390625
240774,0.8014068603515625,-0.341522216796875,-0.490478515625
240775,0.799285888671875,-0.3328094482421875,-0.4875335693359375
240776,0.7981109619140625,-0.326568603515625,-0.484466552734375
240777,0.7975921630859375,-0.3195953369140625,-0.48455810546875
240778,0.798431396484375,-0.3099517822265625,-0.4820404052734375
240779,0.800567626953125,-0.3003692626953125,-0.4815216064453125
240780,0.8127288818359375,-0.2796630859375,-0.486053466796875
240781,0.8127288818359375,-0.2796630859375,-0.486053466796875
240782,0.8213653564453125,-0.2704925537109375,-0.4909210205078125
240783,0.827484130859375,-0.265411376953125,-0.490509033203125
240784,0.83013916015625,-0.257476806640625,-0.48126220703125
240785,0.83013916015625,-0.257476806640625,-0.48126220703125
240786,0.8233489990234375,-0.239013671875,-0.474151611328125
240787,0.8189697265625,-0.23846435546875,-0.472808837890625
240788,0.8150634765625,-0.244903564453125,-0.4777069091796875
240789,0.81280517578125,-0.2590484619140625,-0.4853668212890625
240790,0.8129730224609375,-0.2759857177734375,-0.493072509765625
240791,0.8138275146484375,-0.2874908447265625,-0.4993438720703125
240792,0.8138275146484375,-0.2911224365234375,-0.5034332275390625
240793,0.812744140625,-0.2904205322265625,-0.50323486328125
240794,0.8086395263671875,-0.291473388671875,-0.50323486328125
240795,0.8050689697265625,-0.2942352294921875,-0.49969482421875
240796,0.7979736328125,-0.298980712890625,-0.5067291259765625
240797,0.7979736328125,-0.298980712890625,-0.5067291259765625
240798,0.7938079833984375,-0.296051025390625,-0.51409912109375
240799,0.7920379638671875,-0.292083740234375,-0.5178985595703125
240800,0.7943878173828125,-0.292510986328125,-0.5199127197265625
240801,0.80169677734375,-0.29559326171875,-0.5167694091796875
240802,0.8100738525390625,-0.302764892578125,-0.5101165771484375
240803,0.8181610107421875,-0.308074951171875,-0.500640869140625
240804,0.8252716064453125,-0.3106536865234375,-0.4923248291015625
240805,0.8297119140625,-0.30804443359375,-0.48602294921875
240806,0.8328399658203125,-0.3010101318359375,-0.4848480224609375
240807,0.833038330078125,-0.2919769287109375,-0.485382080078125
240808,0.8283538818359375,-0.270355224609375,-0.4962005615234375
240809,0.8283538818359375,-0.270355224609375,-0.4962005615234375
240810,0.8265228271484375,-0.263458251953125,-0.504638671875
240811,0.824249267578125,-0.257659912109375,-0.5063934326171875
240812,0.8205413818359375,-0.2575225830078125,-0.50714111328125
240813,0.8205413818359375,-0.2575225830078125,-0.50714111328125
240814,0.816741943359375,-0.2671966552734375,-0.512603759765625
240815,0.816436767578125,-0.2779541015625,-0.508575439453125
240816,0.8138885498046875,-0.2874755859375,-0.504058837890625
240817,0.8138885498046875,-0.2874755859375,-0.504058837890625
240818,0.8141021728515625,-0.295867919921875,-0.507110595703125
240819,0.8098907470703125,-0.30462646484375,-0.512969970703125
240820,0.8072509765625,-0.307769775390625,-0.5165252685546875
240821,0.8050079345703125,-0.306121826171875,-0.519805908203125
240822,0.806915283203125,-0.302703857421875,-0.52545166015625
240823,0.8124542236328125,-0.3036956787109375,-0.5305328369140625
240824,0.8209381103515625,-0.30670166015625,-0.5301513671875
240825,0.8209381103515625,-0.30670166015625,-0.5301513671875
240826,0.83856201171875,-0.3063201904296875,-0.5175933837890625
240827,0.843963623046875,-0.3038330078125,-0.5137786865234375
240828,0.8483734130859375,-0.2969207763671875,-0.5101165771484375
240829,0.8483734130859375,-0.2969207763671875,-0.5101165771484375
240830,0.84771728515625,-0.29608154296875,-0.5116119384765625
240831,0.8453826904296875,-0.295196533203125,-0.5137481689453125
240832,0.84088134765625,-0.295135498046875,-0.511199951171875
240833,0.8337554931640625,-0.295196533203125,-0.504486083984375
240834,0.8269805908203125,-0.296112060546875,-0.50128173828125
240835,0.822479248046875,-0.2964324951171875,-0.5015716552734375
240836,0.819122314453125,-0.294464111328125,-0.5006256103515625
240837,0.819122314453125,-0.294464111328125,-0.5006256103515625
240838,0.8133392333984375,-0.2937164306640625,-0.5014801025390625
240839,0.8115081787109375,-0.2936248779296875,-0.50653076171875
240840,0.807281494140625,-0.289398193359375,-0.51153564453125
240841,0.8026580810546875,-0.2850189208984375,-0.51275634765625
240842,0.7956085205078125,-0.2800445556640625,-0.5116729736328125
240843,0.7899017333984375,-0.275665283203125,-0.5088348388671875
240844,0.784881591796875,-0.2709503173828125,-0.5044708251953125
240845,0.7834320068359375,-0.26806640625,-0.5035552978515625
240846,0.78448486328125,-0.2691497802734375,-0.5074462890625
240847,0.7852935791015625,-0.27001953125,-0.5143890380859375
240848,0.7845611572265625,-0.2722930908203125,-0.5200958251953125
240849,0.783111572265625,-0.276763916015625,-0.5264892578125
240850,0.779205322265625,-0.282073974609375,-0.534912109375
240851,0.7711639404296875,-0.2876739501953125,-0.54241943359375
240852,0.7609710693359375,-0.292449951171875,-0.5432891845703125
240853,0.7494659423828125,-0.2969970703125,-0.5343017578125
240854,0.7388916015625,-0.3008575439453125,-0.52923583984375
240855,0.7313079833984375,-0.30596923828125,-0.5286102294921875
240856,0.7228851318359375,-0.3055877685546875,-0.523345947265625
240857,0.7122802734375,-0.3090057373046875,-0.523895263671875
240858,0.703155517578125,-0.3159942626953125,-0.527801513671875
240859,0.6929473876953125,-0.322723388671875,-0.5299530029296875
240860,0.6832275390625,-0.325439453125,-0.532012939453125
240861,0.675872802734375,-0.3242340087890625,-0.5312347412109375
240862,0.66815185546875,-0.3179931640625,-0.5324859619140625
240863,0.660552978515625,-0.30755615234375,-0.5338897705078125
240864,0.6580352783203125,-0.296478271484375,-0.537261962890625
240865,0.6580352783203125,-0.296478271484375,-0.537261962890625
240866,0.6778106689453125,-0.27691650390625,-0.5408172607421875
240867,0.6972503662109375,-0.2735443115234375,-0.5396881103515625
240868,0.7193145751953125,-0.274017333984375,-0.5428619384765625
240869,0.7420501708984375,-0.27850341796875,-0.546539306640625
240870,0.75927734375,-0.2808990478515625,-0.550506591796875
240871,0.7788543701171875,-0.27484130859375,-0.5705413818359375
240872,0.7977447509765625,-0.2649993896484375,-0.5889739990234375
240873,0.80706787109375,-0.2580108642578125,-0.589111328125
240874,0.8083953857421875,-0.2465362548828125,-0.579742431640625
240875,0.7982025146484375,-0.2310943603515625,-0.57733154296875
240876,0.78582763671875,-0.2213287353515625,-0.5812835693359375
240877,0.7644195556640625,-0.2183380126953125,-0.5664215087890625
240878,0.7440643310546875,-0.2277069091796875,-0.5618743896484375
240879,0.726287841796875,-0.2365570068359375,-0.5513153076171875
240880,0.7198028564453125,-0.246826171875,-0.5426483154296875
240881,0.7178802490234375,-0.2500457763671875,-0.548187255859375
240882,0.7173309326171875,-0.2521820068359375,-0.5608673095703125
240883,0.71380615234375,-0.2514801025390625,-0.5692901611328125
240884,0.7087554931640625,-0.2496490478515625,-0.5813751220703125
240885,0.700927734375,-0.257110595703125,-0.603851318359375
240886,0.6867218017578125,-0.2685089111328125,-0.6068115234375
240887,0.6763916015625,-0.2808685302734375,-0.6085662841796875
240888,0.686279296875,-0.32464599609375,-0.6537628173828125
240889,0.686279296875,-0.32464599609375,-0.6537628173828125
240890,0.69293212890625,-0.338836669921875,-0.6598358154296875
240891,0.7046661376953125,-0.35552978515625,-0.6683807373046875
240892,0.7188262939453125,-0.3639678955078125,-0.663055419921875
240893,0.7305908203125,-0.360443115234375,-0.6581878662109375
240894,0.7431182861328125,-0.3541259765625,-0.66143798828125
240895,0.745819091796875,-0.3406524658203125,-0.66461181640625
240896,0.7436981201171875,-0.3289337158203125,-0.668731689453125
240897,0.7340545654296875,-0.3137054443359375,-0.6675567626953125
240898,0.720001220703125,-0.29498291015625,-0.6668243408203125
240899,0.705230712890625,-0.28143310546875,-0.6712646484375
240900,0.6919708251953125,-0.2709808349609375,-0.6810455322265625
240901,0.681610107421875,-0.2640380859375,-0.69281005859375
240902,0.673187255859375,-0.2650604248046875,-0.706329345703125
240903,0.668304443359375,-0.2668914794921875,-0.7164154052734375
240904,0.6675262451171875,-0.274017333984375,-0.728668212890625
240905,0.6675262451171875,-0.274017333984375,-0.728668212890625
240906,0.672607421875,-0.3000946044921875,-0.73419189453125
240907,0.67681884765625,-0.307342529296875,-0.7308807373046875
240908,0.6800384521484375,-0.315826416015625,-0.7226409912109375
240909,0.6817779541015625,-0.319091796875,-0.7115478515625
240910,0.683319091796875,-0.3242340087890625,-0.7016754150390625
240911,0.6835174560546875,-0.3243408203125,-0.690948486328125
240912,0.678192138671875,-0.32769775390625,-0.697540283203125
240913,0.678192138671875,-0.32769775390625,-0.697540283203125
240914,0.6708831787109375,-0.325714111328125,-0.70086669921875
240915,0.6616973876953125,-0.3180694580078125,-0.7034912109375
240916,0.6436309814453125,-0.3045654296875,-0.7246856689453125
240917,0.6436309814453125,-0.3045654296875,-0.7246856689453125
240918,0.63616943359375,-0.2987823486328125,-0.7264556884765625
240919,0.629425048828125,-0.2944183349609375,-0.7254486083984375
240920,0.627532958984375,-0.2895965576171875,-0.7276458740234375
240921,0.6308441162109375,-0.28741455078125,-0.7372589111328125
240922,0.6363372802734375,-0.2958526611328125,-0.74481201171875
240923,0.6431427001953125,-0.303497314453125,-0.7469482421875
240924,0.6640472412109375,-0.321502685546875,-0.7364501953125
240925,0.6640472412109375,-0.321502685546875,-0.7364501953125
240926,0.6723175048828125,-0.33074951171875,-0.719085693359375
240927,0.6792755126953125,-0.3416290283203125,-0.70855712890625
240928,0.6894073486328125,-0.3486175537109375,-0.712371826171875
240929,0.6894073486328125,-0.3486175537109375,-0.712371826171875
240930,0.7021942138671875,-0.3213043212890625,-0.7201690673828125
240931,0.7061614990234375,-0.3009033203125,-0.72344970703125
240932,0.7024993896484375,-0.25726318359375,-0.73529052734375
240933,0.7024993896484375,-0.25726318359375,-0.73529052734375
240934,0.7020111083984375,-0.239013671875,-0.74542236328125
240935,0.70526123046875,-0.2249755859375,-0.74920654296875
240936,0.7132720947265625,-0.2198486328125,-0.745269775390625
240937,0.723480224609375,-0.225433349609375,-0.734222412109375
240938,0.73773193359375,-0.242156982421875,-0.7236785888671875
240939,0.7528076171875,-0.262786865234375,-0.7139739990234375
240940,0.7661285400390625,-0.276611328125,-0.705108642578125
240941,0.7806854248046875,-0.2854766845703125,-0.7023773193359375
240942,0.788543701171875,-0.28515625,-0.7055206298828125
240943,0.7889251708984375,-0.2745208740234375,-0.705078125
240944,0.78509521484375,-0.2643280029296875,-0.7017974853515625
240945,0.78228759765625,-0.254302978515625,-0.6912078857421875
240946,0.7830047607421875,-0.241363525390625,-0.679443359375
240947,0.7873382568359375,-0.227447509765625,-0.6701507568359375
240948,0.7985992431640625,-0.213592529296875,-0.6566925048828125
240949,0.8155517578125,-0.1976318359375,-0.6407928466796875
240950,0.830352783203125,-0.187225341796875,-0.631134033203125
240951,0.83807373046875,-0.1872100830078125,-0.63153076171875
240952,0.8356170654296875,-0.20513916015625,-0.63006591796875
240953,0.8356170654296875,-0.20513916015625,-0.63006591796875
240954,0.8306427001953125,-0.2117156982421875,-0.628173828125
240955,0.824066162109375,-0.2196197509765625,-0.627777099609375
240956,0.816314697265625,-0.2254486083984375,-0.63336181640625
240957,0.807586669921875,-0.2310028076171875,-0.6395111083984375
240958,0.7962188720703125,-0.2340087890625,-0.647796630859375
240959,0.779754638671875,-0.2339324951171875,-0.64886474609375
240960,0.75982666015625,-0.23223876953125,-0.645904541015625
240961,0.75982666015625,-0.23223876953125,-0.645904541015625
240962,0.7256622314453125,-0.2290191650390625,-0.6260223388671875
240963,0.7119293212890625,-0.23175048828125,-0.615631103515625
240964,0.7012481689453125,-0.2356109619140625,-0.6037750244140625
240965,0.69903564453125,-0.237701416015625,-0.5993499755859375
240966,0.6999969482421875,-0.240631103515625,-0.6070404052734375
240967,0.70037841796875,-0.24041748046875,-0.6156768798828125
240968,0.7023468017578125,-0.2386474609375,-0.626068115234375
240969,0.705810546875,-0.2386627197265625,-0.6290283203125
240970,0.708160400390625,-0.2429656982421875,-0.6238250732421875
240971,0.7086944580078125,-0.243072509765625,-0.6147613525390625
240972,0.7210540771484375,-0.24810791015625,-0.6098785400390625
240973,0.7210540771484375,-0.24810791015625,-0.6098785400390625
240974,0.729278564453125,-0.246490478515625,-0.6021881103515625
240975,0.7389068603515625,-0.24298095703125,-0.591033935546875
240976,0.7625732421875,-0.230621337890625,-0.55938720703125
240977,0.7625732421875,-0.230621337890625,-0.55938720703125
240978,0.7742919921875,-0.22503662109375,-0.546630859375
240979,0.7868194580078125,-0.2158355712890625,-0.5280303955078125
240980,0.7992095947265625,-0.20709228515625,-0.5135955810546875
240981,0.811065673828125,-0.1996612548828125,-0.50555419921875
240982,0.820587158203125,-0.196563720703125,-0.5044097900390625
240983,0.8245697021484375,-0.1951141357421875,-0.5024871826171875
240984,0.8242950439453125,-0.194549560546875,-0.50250244140625
240985,0.8243255615234375,-0.1984710693359375,-0.501220703125
240986,0.8261871337890625,-0.2011566162109375,-0.501434326171875
240987,0.82757568359375,-0.2037200927734375,-0.500457763671875
240988,0.8305206298828125,-0.2071075439453125,-0.4989776611328125
240989,0.8305206298828125,-0.2071075439453125,-0.4989776611328125
240990,0.8302001953125,-0.20684814453125,-0.50250244140625
240991,0.8314056396484375,-0.207672119140625,-0.5072174072265625
240992,0.8335723876953125,-0.2071533203125,-0.512420654296875
240993,0.835968017578125,-0.208892822265625,-0.51678466796875
240994,0.8391876220703125,-0.2084503173828125,-0.5177154541015625
240995,0.840789794921875,-0.207611083984375,-0.5177459716796875
240996,0.8447113037109375,-0.20941162109375,-0.513885498046875
240997,0.8498687744140625,-0.21014404296875,-0.51483154296875
240998,0.8533782958984375,-0.2109222412109375,-0.5136260986328125
240999,0.8620147705078125,-0.2142791748046875,-0.5097198486328125
241000,0.870208740234375,-0.2085723876953125,-0.508941650390625
241001,0.8770751953125,-0.2024078369140625,-0.504669189453125
241002,0.88519287109375,-0.19671630859375,-0.49993896484375
241003,0.89337158203125,-0.193359375,-0.4996185302734375
241004,0.8998870849609375,-0.19091796875,-0.5015869140625
241005,0.9007720947265624,-0.193115234375,-0.5006561279296875
241006,0.89501953125,-0.1971893310546875,-0.4977874755859375
241007,0.8866119384765625,-0.2050933837890625,-0.496368408203125
241008,0.878387451171875,-0.214599609375,-0.502960205078125
241009,0.878387451171875,-0.214599609375,-0.502960205078125
241010,0.8584136962890625,-0.2173919677734375,-0.5125579833984375
241011,0.8519439697265625,-0.21563720703125,-0.511199951171875
241012,0.8440093994140625,-0.2108612060546875,-0.5124053955078125
241013,0.8511810302734375,-0.2115936279296875,-0.504730224609375
241014,0.86114501953125,-0.2046966552734375,-0.5067138671875
241015,0.8665924072265625,-0.2017059326171875,-0.5054931640625
241016,0.8671417236328125,-0.2038116455078125,-0.506134033203125
241017,0.8671417236328125,-0.2038116455078125,-0.506134033203125
241018,0.8559112548828125,-0.2114715576171875,-0.497528076171875
241019,0.8460235595703125,-0.2136383056640625,-0.4928741455078125
241020,0.8337249755859375,-0.2158050537109375,-0.494598388671875
241021,0.8254852294921875,-0.2236328125,-0.4943695068359375
241022,0.812774658203125,-0.2320098876953125,-0.49169921875
241023,0.8019256591796875,-0.2333984375,-0.4825897216796875
241024,0.7951202392578125,-0.2223968505859375,-0.4777679443359375
241025,0.7951202392578125,-0.2223968505859375,-0.4777679443359375
241026,0.8093414306640625,-0.218017578125,-0.49462890625
241027,0.7970733642578125,-0.215362548828125,-0.460723876953125
241028,0.7993927001953125,-0.2160186767578125,-0.459747314453125
241029,0.80145263671875,-0.2141571044921875,-0.47271728515625
241030,0.7989654541015625,-0.214599609375,-0.486907958984375
241031,0.7891387939453125,-0.21630859375,-0.4878387451171875
241032,0.782684326171875,-0.2213134765625,-0.493621826171875
241033,0.7805633544921875,-0.2302398681640625,-0.4954071044921875
241034,0.783843994140625,-0.2392730712890625,-0.486663818359375
241035,0.796234130859375,-0.245880126953125,-0.48797607421875
241036,0.8250274658203125,-0.2415008544921875,-0.511474609375
241037,0.8250274658203125,-0.2415008544921875,-0.511474609375
241038,0.835662841796875,-0.2373809814453125,-0.5123443603515625
241039,0.8453826904296875,-0.2293701171875,-0.5161895751953125
241040,0.8538970947265625,-0.2220458984375,-0.51104736328125
241041,0.858917236328125,-0.2176361083984375,-0.4792022705078125
241042,0.86968994140625,-0.2067108154296875,-0.446807861328125
241043,0.879913330078125,-0.201416015625,-0.463592529296875
241044,0.86968994140625,-0.200836181640625,-0.4685516357421875
241045,0.86968994140625,-0.200836181640625,-0.4685516357421875
241046,0.8682708740234375,-0.19952392578125,-0.4909820556640625
241047,0.8652801513671875,-0.1905517578125,-0.513153076171875
241048,0.8571319580078125,-0.1909942626953125,-0.5148468017578125
241049,0.8551025390625,-0.198211669921875,-0.5187835693359375
241050,0.8584136962890625,-0.199737548828125,-0.521240234375
241051,0.85687255859375,-0.1926422119140625,-0.5009613037109375
241052,0.8529815673828125,-0.1870269775390625,-0.4918365478515625
241053,0.8529815673828125,-0.1870269775390625,-0.4918365478515625
241054,0.84967041015625,-0.1878814697265625,-0.495941162109375
241055,0.845947265625,-0.2003021240234375,-0.48699951171875
241056,0.8483734130859375,-0.21112060546875,-0.4833984375
241057,0.8579559326171875,-0.211944580078125,-0.4893341064453125
241058,0.86944580078125,-0.2103729248046875,-0.4929656982421875
241059,0.8765106201171875,-0.208953857421875,-0.484619140625
241060,0.8933258056640625,-0.209625244140625,-0.487091064453125
241061,0.8933258056640625,-0.209625244140625,-0.487091064453125
241062,0.9015045166015624,-0.207977294921875,-0.4878082275390625
241063,0.9064178466796876,-0.2023773193359375,-0.4873046875
241064,0.907867431640625,-0.19256591796875,-0.4797210693359375
241065,0.907867431640625,-0.19256591796875,-0.4797210693359375
241066,0.909149169921875,-0.1881561279296875,-0.475067138671875
241067,0.9085540771484376,-0.1873321533203125,-0.4735870361328125
241068,0.903106689453125,-0.1849212646484375,-0.4743499755859375
241069,0.8951568603515625,-0.1892852783203125,-0.4691162109375
241070,0.8864593505859375,-0.1933746337890625,-0.4620361328125
241071,0.879302978515625,-0.1982879638671875,-0.46002197265625
241072,0.87298583984375,-0.2012176513671875,-0.4555206298828125
241073,0.864288330078125,-0.2065582275390625,-0.4572296142578125
241074,0.858245849609375,-0.2100982666015625,-0.4528656005859375
241075,0.8521575927734375,-0.2136688232421875,-0.4430084228515625
241076,0.844512939453125,-0.2183074951171875,-0.443084716796875
241077,0.84539794921875,-0.2249603271484375,-0.442352294921875
241078,0.8465728759765625,-0.2296295166015625,-0.4394989013671875
241079,0.851165771484375,-0.2274017333984375,-0.4446258544921875
241080,0.86053466796875,-0.21533203125,-0.443695068359375
241081,0.86053466796875,-0.21533203125,-0.443695068359375
241082,0.86614990234375,-0.2096710205078125,-0.438507080078125
241083,0.8689727783203125,-0.2021636962890625,-0.4354705810546875
241084,0.8702392578125,-0.193450927734375,-0.4294281005859375
241085,0.87127685546875,-0.18756103515625,-0.4256134033203125
241086,0.87158203125,-0.1842041015625,-0.424285888671875
241087,0.8712158203125,-0.1855316162109375,-0.4267578125
241088,0.8708648681640625,-0.1866607666015625,-0.42755126953125
241089,0.8717041015625,-0.187774658203125,-0.4310455322265625
241090,0.876068115234375,-0.189483642578125,-0.4309844970703125
241091,0.879180908203125,-0.18951416015625,-0.4302520751953125
241092,0.8800048828125,-0.1927032470703125,-0.4215545654296875
241093,0.8839111328125,-0.1974945068359375,-0.4112701416015625
241094,0.8886566162109375,-0.2060699462890625,-0.40411376953125
241095,0.89251708984375,-0.210174560546875,-0.4072113037109375
241096,0.8965606689453125,-0.2135772705078125,-0.410858154296875
241097,0.8965606689453125,-0.2135772705078125,-0.410858154296875
241098,0.8944091796875,-0.2152557373046875,-0.407379150390625
241099,0.89373779296875,-0.21209716796875,-0.407501220703125
241100,0.894134521484375,-0.2061920166015625,-0.40582275390625
241101,0.894256591796875,-0.1988677978515625,-0.3974761962890625
241102,0.8960113525390625,-0.193084716796875,-0.3894500732421875
241103,0.9012298583984376,-0.1905975341796875,-0.387969970703125
241104,0.9027557373046876,-0.18829345703125,-0.3868560791015625
241105,0.9022369384765624,-0.18603515625,-0.38043212890625
241106,0.90460205078125,-0.1825714111328125,-0.376220703125
241107,0.9072265625,-0.172149658203125,-0.3759765625
241108,0.911773681640625,-0.16204833984375,-0.3672637939453125
241109,0.9155426025390624,-0.16363525390625,-0.3551025390625
241110,0.9242401123046876,-0.163360595703125,-0.3490753173828125
241111,0.9288330078125,-0.1738128662109375,-0.3437347412109375
241112,0.9243621826171876,-0.1807098388671875,-0.3504486083984375
241113,0.9243621826171876,-0.1807098388671875,-0.3504486083984375
241114,0.9195709228515624,-0.1775665283203125,-0.3560943603515625
241115,0.917877197265625,-0.17724609375,-0.3563690185546875
241116,0.9217376708984376,-0.1753082275390625,-0.350555419921875
241117,0.928924560546875,-0.173004150390625,-0.3588104248046875
241118,0.9366302490234376,-0.1731414794921875,-0.3597259521484375
241119,0.9412841796875,-0.170745849609375,-0.3594207763671875
241120,0.941162109375,-0.16986083984375,-0.354705810546875
241121,0.9432373046875,-0.173675537109375,-0.346710205078125
241122,0.946563720703125,-0.175811767578125,-0.3425140380859375
241123,0.951507568359375,-0.178985595703125,-0.3388671875
241124,0.9557342529296876,-0.17926025390625,-0.339630126953125
241125,0.9587554931640624,-0.178436279296875,-0.3395538330078125
241126,0.9578399658203124,-0.180633544921875,-0.333831787109375
241127,0.9571075439453124,-0.180450439453125,-0.32904052734375
241128,0.9546356201171876,-0.1768798828125,-0.3280792236328125
241129,0.951934814453125,-0.174957275390625,-0.3292083740234375
241130,0.94744873046875,-0.1741485595703125,-0.3302459716796875
241131,0.94122314453125,-0.1716156005859375,-0.3310546875
241132,0.9352264404296876,-0.17034912109375,-0.3314361572265625
241133,0.9316864013671876,-0.170440673828125,-0.330535888671875
241134,0.929901123046875,-0.1717987060546875,-0.3271331787109375
241135,0.92919921875,-0.171173095703125,-0.325164794921875
241136,0.9286041259765624,-0.174957275390625,-0.32513427734375
241137,0.9286041259765624,-0.174957275390625,-0.32513427734375
241138,0.93011474609375,-0.178314208984375,-0.32330322265625
241139,0.93408203125,-0.1766204833984375,-0.31829833984375
241140,0.9367828369140624,-0.1761016845703125,-0.3129425048828125
241141,0.938079833984375,-0.17559814453125,-0.3087158203125
241142,0.937591552734375,-0.173187255859375,-0.308624267578125
241143,0.9359130859375,-0.1702423095703125,-0.3067474365234375
241144,0.9340362548828124,-0.168060302734375,-0.30133056640625
241145,0.933380126953125,-0.1625518798828125,-0.29779052734375
241146,0.9339141845703124,-0.1583709716796875,-0.29730224609375
241147,0.928558349609375,-0.158233642578125,-0.3011322021484375
241148,0.9226531982421876,-0.1598358154296875,-0.30615234375
241149,0.916259765625,-0.1624908447265625,-0.3115692138671875
241150,0.909423828125,-0.1697540283203125,-0.315826416015625
241151,0.901824951171875,-0.17919921875,-0.31982421875
241152,0.893768310546875,-0.1949615478515625,-0.3278961181640625
241153,0.893768310546875,-0.1949615478515625,-0.3278961181640625
241154,0.891845703125,-0.1981964111328125,-0.33306884765625
241155,0.89495849609375,-0.200653076171875,-0.3333740234375
241156,0.903533935546875,-0.2001800537109375,-0.3290863037109375
241157,0.9145050048828124,-0.1976165771484375,-0.321136474609375
241158,0.9239959716796876,-0.1929168701171875,-0.3136749267578125
241159,0.92755126953125,-0.186798095703125,-0.3115234375
241160,0.920257568359375,-0.174835205078125,-0.3049774169921875
241161,0.920257568359375,-0.174835205078125,-0.3049774169921875
241162,0.9144134521484376,-0.170166015625,-0.3012237548828125
241163,0.9095916748046876,-0.16815185546875,-0.30035400390625
241164,0.902801513671875,-0.169403076171875,-0.30792236328125
241165,0.902801513671875,-0.169403076171875,-0.30792236328125
241166,0.90155029296875,-0.171875,-0.3119659423828125
241167,0.9036407470703124,-0.1742706298828125,-0.31427001953125
241168,0.9106292724609376,-0.17486572265625,-0.313751220703125
241169,0.918121337890625,-0.176666259765625,-0.3107452392578125
241170,0.9267425537109376,-0.1785430908203125,-0.3074188232421875
241171,0.9344940185546876,-0.176605224609375,-0.30267333984375
241172,0.9429473876953124,-0.17669677734375,-0.2980194091796875
241173,0.9534454345703124,-0.177490234375,-0.2965240478515625
241174,0.9631805419921876,-0.179473876953125,-0.297149658203125
241175,0.971038818359375,-0.1813812255859375,-0.3013153076171875
241176,0.9775543212890624,-0.1844940185546875,-0.3058929443359375
241177,0.98114013671875,-0.188995361328125,-0.3064727783203125
241178,0.98162841796875,-0.194183349609375,-0.30780029296875
241179,0.97808837890625,-0.1995697021484375,-0.308135986328125
241180,0.9741668701171876,-0.2071380615234375,-0.3109893798828125
241181,0.9711151123046876,-0.2117156982421875,-0.3157958984375
241182,0.9693756103515624,-0.2147369384765625,-0.3176116943359375
241183,0.9682464599609376,-0.217498779296875,-0.3166961669921875
241184,0.967803955078125,-0.2180023193359375,-0.3157958984375
241185,0.9675750732421876,-0.219696044921875,-0.312164306640625
241186,0.9659271240234376,-0.2205047607421875,-0.307525634765625
241187,0.961578369140625,-0.2197265625,-0.306976318359375
241188,0.9542388916015624,-0.218048095703125,-0.30853271484375
241189,0.949462890625,-0.215667724609375,-0.31390380859375
241190,0.9461669921875,-0.21282958984375,-0.319549560546875
241191,0.9434967041015624,-0.208984375,-0.3269500732421875
241192,0.939544677734375,-0.20660400390625,-0.3302459716796875
241193,0.93621826171875,-0.208526611328125,-0.33251953125
241194,0.9336090087890624,-0.213226318359375,-0.333099365234375
241195,0.92864990234375,-0.2203216552734375,-0.3306121826171875
241196,0.926544189453125,-0.22650146484375,-0.3258819580078125
241197,0.9255218505859376,-0.2274322509765625,-0.3209075927734375
241198,0.9262542724609376,-0.2198028564453125,-0.3182220458984375
241199,0.9271697998046876,-0.21392822265625,-0.316619873046875
241200,0.924652099609375,-0.210052490234375,-0.3130950927734375
241201,0.924652099609375,-0.210052490234375,-0.3130950927734375
241202,0.919403076171875,-0.2117767333984375,-0.3115386962890625
241203,0.91229248046875,-0.2130126953125,-0.3084564208984375
241204,0.9063262939453124,-0.2152862548828125,-0.3059234619140625
241205,0.89898681640625,-0.2188262939453125,-0.305450439453125
241206,0.893157958984375,-0.221160888671875,-0.307342529296875
241207,0.8887786865234375,-0.2242584228515625,-0.308807373046875
241208,0.8851470947265625,-0.2271270751953125,-0.3128814697265625
241209,0.8816070556640625,-0.2293243408203125,-0.317413330078125
241210,0.8782196044921875,-0.232330322265625,-0.3227081298828125
241211,0.8765869140625,-0.238494873046875,-0.329376220703125
241212,0.87823486328125,-0.243988037109375,-0.3364410400390625
241213,0.87823486328125,-0.243988037109375,-0.3364410400390625
241214,0.88104248046875,-0.257110595703125,-0.3384246826171875
241215,0.88433837890625,-0.262176513671875,-0.3349761962890625
241216,0.891204833984375,-0.2658233642578125,-0.33197021484375
241217,0.899261474609375,-0.264556884765625,-0.32720947265625
241218,0.9070281982421876,-0.258941650390625,-0.3210906982421875
241219,0.9141082763671876,-0.251068115234375,-0.3196868896484375
241220,0.9199066162109376,-0.2407379150390625,-0.320343017578125
241221,0.925445556640625,-0.2317047119140625,-0.3209228515625
241222,0.93035888671875,-0.2252655029296875,-0.32501220703125
241223,0.9339752197265624,-0.222747802734375,-0.3282623291015625
241224,0.935455322265625,-0.2193450927734375,-0.322113037109375
241225,0.935455322265625,-0.2193450927734375,-0.322113037109375
241226,0.9320831298828124,-0.2164764404296875,-0.3153839111328125
241227,0.9282073974609376,-0.215240478515625,-0.3096466064453125
241228,0.927032470703125,-0.2152862548828125,-0.3031005859375
241229,0.9275970458984376,-0.2158203125,-0.29901123046875
241230,0.931549072265625,-0.21392822265625,-0.2994384765625
241231,0.92999267578125,-0.2159881591796875,-0.3004150390625
241232,0.9219970703125,-0.2182464599609375,-0.303924560546875
241233,0.9162750244140624,-0.21905517578125,-0.3051300048828125
241234,0.916534423828125,-0.223358154296875,-0.3051300048828125
241235,0.9237213134765624,-0.2273101806640625,-0.3048553466796875
241236,0.9419403076171876,-0.2322845458984375,-0.3035888671875
241237,0.9419403076171876,-0.2322845458984375,-0.3035888671875
241238,0.9519195556640624,-0.23583984375,-0.3051300048828125
241239,0.956634521484375,-0.2412567138671875,-0.306427001953125
241240,0.9554901123046876,-0.243316650390625,-0.308074951171875
241241,0.9512939453125,-0.2433013916015625,-0.3106231689453125
241242,0.9444732666015624,-0.2412567138671875,-0.307952880859375
241243,0.9411773681640624,-0.2381134033203125,-0.307403564453125
241244,0.941070556640625,-0.2333984375,-0.3081817626953125
241245,0.948486328125,-0.226593017578125,-0.3063812255859375
241246,0.957672119140625,-0.219818115234375,-0.3006591796875
241247,0.96331787109375,-0.2161102294921875,-0.29522705078125
241248,0.9622039794921876,-0.219146728515625,-0.2834930419921875
241249,0.9622039794921876,-0.219146728515625,-0.2834930419921875
241250,0.9567108154296876,-0.22528076171875,-0.28594970703125
241251,0.9498443603515624,-0.22735595703125,-0.2906951904296875
241252,0.942962646484375,-0.2256927490234375,-0.2926177978515625
241253,0.938629150390625,-0.225006103515625,-0.29449462890625
241254,0.93304443359375,-0.2288970947265625,-0.292266845703125
241255,0.9286956787109376,-0.2349700927734375,-0.291748046875
241256,0.9254608154296876,-0.2414093017578125,-0.2951812744140625
241257,0.921966552734375,-0.2452545166015625,-0.2976226806640625
241258,0.920013427734375,-0.248809814453125,-0.299560546875
241259,0.9181060791015624,-0.25164794921875,-0.3012542724609375
241260,0.915374755859375,-0.252899169921875,-0.3018798828125
241261,0.9133453369140624,-0.2515869140625,-0.29974365234375
241262,0.9125518798828124,-0.2505340576171875,-0.297698974609375
241263,0.908538818359375,-0.2510986328125,-0.2990570068359375
241264,0.9040374755859376,-0.251953125,-0.304290771484375
241265,0.897430419921875,-0.2514495849609375,-0.3091278076171875
241266,0.89801025390625,-0.25054931640625,-0.312042236328125
241267,0.9032745361328124,-0.2509765625,-0.3157958984375
241268,0.9079132080078124,-0.250091552734375,-0.317413330078125
241269,0.9085540771484376,-0.247100830078125,-0.3133087158203125
241270,0.90911865234375,-0.2435150146484375,-0.309722900390625
241271,0.9088592529296876,-0.238555908203125,-0.30889892578125
241272,0.9061126708984376,-0.236358642578125,-0.3126983642578125
241273,0.9010772705078124,-0.2387847900390625,-0.31524658203125
241274,0.8951263427734375,-0.24456787109375,-0.3168792724609375
241275,0.892608642578125,-0.2527923583984375,-0.3170166015625
241276,0.8957366943359375,-0.257354736328125,-0.314422607421875
241277,0.90411376953125,-0.2599945068359375,-0.311859130859375
241278,0.9160919189453124,-0.264404296875,-0.302947998046875
241279,0.9340972900390624,-0.2667083740234375,-0.2927398681640625
241280,0.954864501953125,-0.2645416259765625,-0.2865753173828125
241281,0.9699249267578124,-0.264190673828125,-0.280059814453125
241282,0.980804443359375,-0.2642669677734375,-0.277496337890625
241283,0.9862213134765624,-0.2641448974609375,-0.2743377685546875
241284,0.9984588623046876,-0.259063720703125,-0.2615966796875
241285,0.9984588623046876,-0.259063720703125,-0.2615966796875
241286,0.995391845703125,-0.264801025390625,-0.2554168701171875
241287,0.9868927001953124,-0.2766265869140625,-0.2499542236328125
241288,0.9729461669921876,-0.27325439453125,-0.251129150390625
241289,0.9486083984375,-0.2754974365234375,-0.257080078125
241290,0.925933837890625,-0.2733306884765625,-0.2681732177734375
241291,0.9018096923828124,-0.265716552734375,-0.2692413330078125
241292,0.876983642578125,-0.247314453125,-0.258514404296875
241293,0.8535919189453125,-0.222686767578125,-0.249969482421875
241294,0.83551025390625,-0.20941162109375,-0.245025634765625
241295,0.84014892578125,-0.2049560546875,-0.2352752685546875
241296,0.8839263916015625,-0.201080322265625,-0.2202606201171875
241297,0.8839263916015625,-0.201080322265625,-0.2202606201171875
241298,0.9105224609375,-0.19866943359375,-0.2122802734375
241299,0.92877197265625,-0.191864013671875,-0.20123291015625
241300,0.9462890625,-0.1839599609375,-0.19854736328125
241301,0.9669647216796876,-0.180023193359375,-0.1966552734375
241302,0.9889984130859376,-0.1786651611328125,-0.1985321044921875
241303,1.009765625,-0.177734375,-0.2060699462890625
241304,1.027587890625,-0.1713714599609375,-0.209686279296875
241305,1.038345336914062,-0.166168212890625,-0.2096710205078125
241306,1.047195434570312,-0.164459228515625,-0.2012786865234375
241307,1.060882568359375,-0.1570281982421875,-0.191864013671875
241308,1.0799560546875,-0.1594390869140625,-0.1851043701171875
241309,1.097808837890625,-0.1696014404296875,-0.1808929443359375
241310,1.0992431640625,-0.1736907958984375,-0.1933746337890625
241311,1.064605712890625,-0.1619720458984375,-0.1930084228515625
241312,1.026351928710938,-0.17236328125,-0.1641693115234375
241313,0.9962615966796876,-0.1945953369140625,-0.130645751953125
241314,0.980926513671875,-0.2199249267578125,-0.1207122802734375
241315,0.9813385009765624,-0.2491302490234375,-0.1315460205078125
241316,0.9766998291015624,-0.2632293701171875,-0.1363983154296875
241317,0.964080810546875,-0.2646026611328125,-0.1315765380859375
241318,0.960174560546875,-0.2662506103515625,-0.119781494140625
241319,0.9642333984375,-0.2678680419921875,-0.113311767578125
241320,0.969482421875,-0.2683563232421875,-0.1117706298828125
241321,0.977447509765625,-0.2686309814453125,-0.114410400390625
241322,0.9825592041015624,-0.267364501953125,-0.116729736328125
241323,0.972076416015625,-0.2576904296875,-0.1084136962890625
241324,0.9547119140625,-0.250457763671875,-0.1011505126953125
241325,0.945648193359375,-0.2521514892578125,-0.1027679443359375
241326,0.9452972412109376,-0.2584991455078125,-0.1007232666015625
241327,0.944183349609375,-0.2596588134765625,-0.103424072265625
241328,0.9397735595703124,-0.2602691650390625,-0.114349365234375
241329,0.927947998046875,-0.258575439453125,-0.1276092529296875
241330,0.90753173828125,-0.2546234130859375,-0.142242431640625
241331,0.8851318359375,-0.2503814697265625,-0.1587677001953125
241332,0.86328125,-0.2496337890625,-0.1746368408203125
241333,0.8562164306640625,-0.2469635009765625,-0.186279296875
241334,0.8570709228515625,-0.2447052001953125,-0.1958465576171875
241335,0.8636932373046875,-0.2442169189453125,-0.1967926025390625
241336,0.8760528564453125,-0.2391815185546875,-0.195709228515625
241337,0.88433837890625,-0.228668212890625,-0.190032958984375
241338,0.8905181884765625,-0.216461181640625,-0.182525634765625
241339,0.8982086181640625,-0.2048797607421875,-0.179534912109375
241340,0.901763916015625,-0.1918792724609375,-0.1717071533203125
241341,0.9093475341796876,-0.1928558349609375,-0.164031982421875
241342,0.9236907958984376,-0.2016754150390625,-0.160614013671875
241343,0.935791015625,-0.199737548828125,-0.1642913818359375
241344,0.944183349609375,-0.19403076171875,-0.1685638427734375
241345,0.9545745849609376,-0.193328857421875,-0.1682281494140625
241346,0.960113525390625,-0.1894378662109375,-0.1691131591796875
241347,0.96270751953125,-0.1842193603515625,-0.16998291015625
241348,0.96533203125,-0.181427001953125,-0.165435791015625
241349,0.9651336669921876,-0.18157958984375,-0.1626129150390625
241350,0.96832275390625,-0.1882781982421875,-0.164642333984375
241351,0.9771728515625,-0.1999664306640625,-0.1723785400390625
241352,0.975189208984375,-0.2032928466796875,-0.1819305419921875
241353,0.976409912109375,-0.205322265625,-0.1929779052734375
241354,0.9752044677734376,-0.2061614990234375,-0.1895294189453125
241355,0.9740142822265624,-0.2100677490234375,-0.19097900390625
241356,0.9710845947265624,-0.20733642578125,-0.207672119140625
241357,0.9658050537109376,-0.2089996337890625,-0.2147369384765625
241358,0.961029052734375,-0.2204132080078125,-0.21527099609375
241359,0.96209716796875,-0.2263031005859375,-0.2176666259765625
241360,0.972747802734375,-0.2268524169921875,-0.2340240478515625
241361,0.972747802734375,-0.2268524169921875,-0.2340240478515625
241362,0.978790283203125,-0.2258758544921875,-0.229736328125
241363,0.984832763671875,-0.218902587890625,-0.2191162109375
241364,0.9886016845703124,-0.211883544921875,-0.2091522216796875
241365,0.9886016845703124,-0.211883544921875,-0.2091522216796875
241366,0.989501953125,-0.22222900390625,-0.2058563232421875
241367,0.988128662109375,-0.232879638671875,-0.221405029296875
241368,0.9961090087890624,-0.234954833984375,-0.258056640625
241369,0.9961090087890624,-0.234954833984375,-0.258056640625
241370,1.002212524414062,-0.23577880859375,-0.2669219970703125
241371,1.005218505859375,-0.2313385009765625,-0.272216796875
241372,1.003463745117188,-0.228424072265625,-0.2740631103515625
241373,0.99481201171875,-0.2300262451171875,-0.2752838134765625
241374,0.9804229736328124,-0.232666015625,-0.2798614501953125
241375,0.9618682861328124,-0.2350006103515625,-0.279693603515625
241376,0.9452056884765624,-0.245147705078125,-0.2776336669921875
241377,0.93341064453125,-0.2575836181640625,-0.2815093994140625
241378,0.9240264892578124,-0.2677764892578125,-0.287322998046875
241379,0.9167938232421876,-0.2715606689453125,-0.2978515625
241380,0.910858154296875,-0.2761688232421875,-0.3017730712890625
241381,0.9013214111328124,-0.2763519287109375,-0.3003692626953125
241382,0.890533447265625,-0.2727813720703125,-0.2986297607421875
241383,0.8850250244140625,-0.2697906494140625,-0.302032470703125
241384,0.883819580078125,-0.2698516845703125,-0.3075714111328125
241385,0.883819580078125,-0.2698516845703125,-0.3075714111328125
241386,0.890289306640625,-0.2756805419921875,-0.310577392578125
241387,0.892120361328125,-0.2720947265625,-0.3169708251953125
241388,0.8928375244140625,-0.272613525390625,-0.3173065185546875
241389,0.890625,-0.27093505859375,-0.3132781982421875
241390,0.8832550048828125,-0.2681732177734375,-0.3126678466796875
241391,0.8773193359375,-0.269744873046875,-0.31927490234375
241392,0.873016357421875,-0.2728729248046875,-0.3299407958984375
241393,0.8704986572265625,-0.2749176025390625,-0.34295654296875
241394,0.8694610595703125,-0.278076171875,-0.3543853759765625
241395,0.870849609375,-0.286407470703125,-0.35931396484375
241396,0.8739471435546875,-0.299163818359375,-0.3664703369140625
241397,0.872802734375,-0.306365966796875,-0.37103271484375
241398,0.8709564208984375,-0.313262939453125,-0.3753509521484375
241399,0.8720855712890625,-0.318084716796875,-0.386199951171875
241400,0.877593994140625,-0.318328857421875,-0.392486572265625
241401,0.8840789794921875,-0.311767578125,-0.3972015380859375
241402,0.8933563232421875,-0.3003387451171875,-0.3946380615234375
241403,0.8994598388671875,-0.29364013671875,-0.3881683349609375
241404,0.901153564453125,-0.2844696044921875,-0.3834991455078125
241405,0.902587890625,-0.280029296875,-0.3851165771484375
241406,0.897796630859375,-0.2755584716796875,-0.38427734375
241407,0.888885498046875,-0.26947021484375,-0.391326904296875
241408,0.880950927734375,-0.2626800537109375,-0.396881103515625
241409,0.8753204345703125,-0.2595672607421875,-0.3982696533203125
241410,0.871429443359375,-0.2559051513671875,-0.3986358642578125
241411,0.8703765869140625,-0.2549285888671875,-0.396575927734375
241412,0.87286376953125,-0.25299072265625,-0.3961181640625
241413,0.8773193359375,-0.2527618408203125,-0.394195556640625
241414,0.87835693359375,-0.251861572265625,-0.3938751220703125
241415,0.8792266845703125,-0.25341796875,-0.3972320556640625
241416,0.8858642578125,-0.2724609375,-0.4053955078125
241417,0.8858642578125,-0.2724609375,-0.4053955078125
241418,0.8858642578125,-0.2724609375,-0.4053955078125
241419,0.886993408203125,-0.2830963134765625,-0.4112091064453125
241420,0.890777587890625,-0.2892303466796875,-0.4139404296875
241421,0.890838623046875,-0.29559326171875,-0.416656494140625
241422,0.8919677734375,-0.3009796142578125,-0.430145263671875
241423,0.8935699462890625,-0.29925537109375,-0.4387054443359375
241424,0.899017333984375,-0.288482666015625,-0.437744140625
241425,0.9042816162109376,-0.275421142578125,-0.4360809326171875
241426,0.9109039306640624,-0.266632080078125,-0.42718505859375
241427,0.9167327880859376,-0.257843017578125,-0.4182281494140625
241428,0.9221038818359376,-0.2501373291015625,-0.4102935791015625
241429,0.926483154296875,-0.24371337890625,-0.4036407470703125
241430,0.927703857421875,-0.238189697265625,-0.3999176025390625
241431,0.9251861572265624,-0.234771728515625,-0.3968048095703125
241432,0.9200592041015624,-0.23358154296875,-0.3977813720703125
241433,0.9134979248046876,-0.23614501953125,-0.3993072509765625
241434,0.9031829833984376,-0.2414093017578125,-0.4010162353515625
241435,0.9001617431640625,-0.2420654296875,-0.3988037109375
241436,0.9031219482421876,-0.2437286376953125,-0.4015045166015625
241437,0.904815673828125,-0.2448577880859375,-0.4080352783203125
241438,0.904083251953125,-0.246185302734375,-0.4082794189453125
241439,0.900909423828125,-0.2488555908203125,-0.4034271240234375
241440,0.89532470703125,-0.2493438720703125,-0.3975830078125
241441,0.88946533203125,-0.250823974609375,-0.393157958984375
241442,0.88494873046875,-0.2501983642578125,-0.39117431640625
241443,0.880279541015625,-0.250457763671875,-0.38372802734375
241444,0.8854217529296875,-0.2496337890625,-0.3779754638671875
241445,0.89678955078125,-0.24676513671875,-0.3720855712890625
241446,0.9058837890625,-0.242584228515625,-0.367034912109375
241447,0.9097900390625,-0.2357025146484375,-0.3603973388671875
241448,0.9078216552734376,-0.2323455810546875,-0.3591461181640625
241449,0.905364990234375,-0.2321319580078125,-0.362274169921875
241450,0.898895263671875,-0.2304840087890625,-0.3641204833984375
241451,0.891845703125,-0.2312469482421875,-0.3572235107421875
241452,0.885955810546875,-0.2281494140625,-0.3427276611328125
241453,0.88177490234375,-0.230194091796875,-0.3331298828125
241454,0.8861083984375,-0.23980712890625,-0.3336334228515625
241455,0.885955810546875,-0.232635498046875,-0.3530731201171875
241456,0.894500732421875,-0.2349853515625,-0.367584228515625
241457,0.9068603515625,-0.237060546875,-0.3514556884765625
241458,0.9138336181640624,-0.23370361328125,-0.3253173828125
241459,0.916290283203125,-0.2324066162109375,-0.305999755859375
241460,0.9172515869140624,-0.2315826416015625,-0.2957611083984375
241461,0.9222412109375,-0.225616455078125,-0.3054046630859375
241462,0.9283447265625,-0.2268829345703125,-0.3115081787109375
241463,0.93011474609375,-0.22308349609375,-0.3146514892578125
241464,0.9231109619140624,-0.2068634033203125,-0.2974090576171875
241465,0.9231109619140624,-0.2068634033203125,-0.2974090576171875
241466,0.914886474609375,-0.2035369873046875,-0.282623291015625
241467,0.913238525390625,-0.2104949951171875,-0.2667999267578125
241468,0.9126739501953124,-0.2146453857421875,-0.260528564453125
241469,0.9126739501953124,-0.2146453857421875,-0.260528564453125
241470,0.9095611572265624,-0.2181396484375,-0.2607574462890625
241471,0.907379150390625,-0.217864990234375,-0.2650146484375
241472,0.9016265869140624,-0.2178955078125,-0.2687225341796875
241473,0.902984619140625,-0.2211761474609375,-0.275177001953125
241474,0.91241455078125,-0.21795654296875,-0.274810791015625
241475,0.926788330078125,-0.2162017822265625,-0.2652435302734375
241476,0.9387359619140624,-0.2183380126953125,-0.25286865234375
241477,0.9472198486328124,-0.2230224609375,-0.2428436279296875
241478,0.9527740478515624,-0.2250518798828125,-0.241455078125
241479,0.954437255859375,-0.2248382568359375,-0.242645263671875
241480,0.957305908203125,-0.2238922119140625,-0.2394866943359375
241481,0.957305908203125,-0.2238922119140625,-0.2394866943359375
241482,0.9586334228515624,-0.227294921875,-0.2355804443359375
241483,0.9608306884765624,-0.233795166015625,-0.2357940673828125
241484,0.961273193359375,-0.2389678955078125,-0.2429656982421875
241485,0.955841064453125,-0.2433929443359375,-0.2555389404296875
241486,0.950775146484375,-0.2440185546875,-0.2687835693359375
241487,0.94622802734375,-0.2431793212890625,-0.2798309326171875
241488,0.9445953369140624,-0.240325927734375,-0.2872161865234375
241489,0.94512939453125,-0.2338104248046875,-0.292755126953125
241490,0.9474639892578124,-0.2281036376953125,-0.291534423828125
241491,0.9481048583984376,-0.2232818603515625,-0.2888946533203125
241492,0.948822021484375,-0.2200469970703125,-0.28875732421875
241493,0.952056884765625,-0.2155303955078125,-0.2892913818359375
241494,0.952667236328125,-0.2187957763671875,-0.2867279052734375
241495,0.95184326171875,-0.22198486328125,-0.288970947265625
241496,0.94580078125,-0.21881103515625,-0.295928955078125
241497,0.9341278076171876,-0.2208099365234375,-0.299713134765625
241498,0.92303466796875,-0.2190093994140625,-0.297698974609375
241499,0.9140167236328124,-0.21856689453125,-0.2949981689453125
241500,0.913482666015625,-0.2289886474609375,-0.2969818115234375
241501,0.91510009765625,-0.2320556640625,-0.3115997314453125
241502,0.9093017578125,-0.22613525390625,-0.3241424560546875
241503,0.9081573486328124,-0.221038818359375,-0.329742431640625
241504,0.9031829833984376,-0.21490478515625,-0.331756591796875
241505,0.894561767578125,-0.2141265869140625,-0.33203125
241506,0.8930816650390625,-0.2159271240234375,-0.3270416259765625
241507,0.89501953125,-0.2144317626953125,-0.32586669921875
241508,0.8994140625,-0.216156005859375,-0.325408935546875
241509,0.90167236328125,-0.217132568359375,-0.3181915283203125
241510,0.90570068359375,-0.225189208984375,-0.31182861328125
241511,0.90997314453125,-0.2298431396484375,-0.311065673828125
241512,0.9079742431640624,-0.2321014404296875,-0.318023681640625
241513,0.905548095703125,-0.2349395751953125,-0.3269500732421875
241514,0.90374755859375,-0.2339630126953125,-0.3358154296875
241515,0.9030609130859376,-0.2285003662109375,-0.3399505615234375
241516,0.9030609130859376,-0.2285003662109375,-0.3399505615234375
241517,0.9020843505859376,-0.2152252197265625,-0.3397064208984375
241518,0.90411376953125,-0.2083282470703125,-0.328521728515625
241519,0.90789794921875,-0.2097320556640625,-0.330413818359375
241520,0.9133453369140624,-0.2056121826171875,-0.3347015380859375
241521,0.917877197265625,-0.2034759521484375,-0.3356170654296875
241522,0.919403076171875,-0.198577880859375,-0.3307037353515625
241523,0.9155731201171876,-0.1947021484375,-0.3275909423828125
241524,0.90826416015625,-0.2035369873046875,-0.3331756591796875
241525,0.90826416015625,-0.2035369873046875,-0.3331756591796875
241526,0.912353515625,-0.2070465087890625,-0.3401641845703125
241527,0.918365478515625,-0.2126922607421875,-0.3478546142578125
241528,0.92303466796875,-0.2183685302734375,-0.35595703125
241529,0.924896240234375,-0.222747802734375,-0.366455078125
241530,0.92657470703125,-0.228240966796875,-0.374114990234375
241531,0.923431396484375,-0.227508544921875,-0.37603759765625
241532,0.917236328125,-0.2249298095703125,-0.3717193603515625
241533,0.9127655029296876,-0.223907470703125,-0.364044189453125
241534,0.9139251708984376,-0.2239990234375,-0.3596954345703125
241535,0.920013427734375,-0.2237091064453125,-0.358154296875
241536,0.9311370849609376,-0.221923828125,-0.3613739013671875
241537,0.9427032470703124,-0.2186431884765625,-0.365997314453125
241538,0.9526824951171876,-0.209381103515625,-0.3611297607421875
241539,0.95745849609375,-0.1981964111328125,-0.35687255859375
241540,0.96142578125,-0.1925048828125,-0.35321044921875
241541,0.96612548828125,-0.19097900390625,-0.34820556640625
241542,0.9682464599609376,-0.19305419921875,-0.3510284423828125
241543,0.96484375,-0.193450927734375,-0.356964111328125
241544,0.954437255859375,-0.1917724609375,-0.361419677734375
241545,0.9390411376953124,-0.192657470703125,-0.366241455078125
241546,0.925933837890625,-0.19677734375,-0.368682861328125
241547,0.9128875732421876,-0.200775146484375,-0.371917724609375
241548,0.90325927734375,-0.20916748046875,-0.37457275390625
241549,0.9007415771484376,-0.2150726318359375,-0.3788909912109375
241550,0.9022979736328124,-0.2197265625,-0.3841552734375
241551,0.9053192138671876,-0.220428466796875,-0.385955810546875
241552,0.908599853515625,-0.21734619140625,-0.385101318359375
241553,0.91131591796875,-0.213958740234375,-0.3721466064453125
241554,0.91131591796875,-0.213958740234375,-0.3721466064453125
241555,0.912261962890625,-0.215423583984375,-0.3703765869140625
241556,0.9086456298828124,-0.2179412841796875,-0.371337890625
241557,0.9039459228515624,-0.2196502685546875,-0.372589111328125
241558,0.89569091796875,-0.2186737060546875,-0.3718719482421875
241559,0.8874664306640625,-0.21875,-0.37774658203125
241560,0.8800506591796875,-0.219696044921875,-0.381805419921875
241561,0.8746185302734375,-0.2181854248046875,-0.37890625
241562,0.8699798583984375,-0.218719482421875,-0.376373291015625
241563,0.8682403564453125,-0.2210235595703125,-0.3768768310546875
241564,0.8661346435546875,-0.2224273681640625,-0.3775177001953125
241565,0.863372802734375,-0.2227783203125,-0.3755645751953125
241566,0.8621978759765625,-0.223052978515625,-0.375
241567,0.862518310546875,-0.22503662109375,-0.3733978271484375
241568,0.866302490234375,-0.2290191650390625,-0.37237548828125
241569,0.8742523193359375,-0.2321014404296875,-0.3741607666015625
241570,0.8835906982421875,-0.23443603515625,-0.3791656494140625
241571,0.89105224609375,-0.2359619140625,-0.384735107421875
241572,0.8954925537109375,-0.2376708984375,-0.3899993896484375
241573,0.8959808349609375,-0.238677978515625,-0.394012451171875
241574,0.893341064453125,-0.2394866943359375,-0.3973846435546875
241575,0.8896942138671875,-0.235870361328125,-0.399993896484375
241576,0.8880615234375,-0.23175048828125,-0.399932861328125
241577,0.8907318115234375,-0.2261505126953125,-0.3985443115234375
241578,0.89520263671875,-0.221405029296875,-0.3954620361328125
241579,0.899139404296875,-0.2178192138671875,-0.393310546875
241580,0.9029693603515624,-0.2138214111328125,-0.389678955078125
241581,0.90338134765625,-0.208587646484375,-0.385955810546875
241582,0.9011688232421876,-0.2034759521484375,-0.3837127685546875
241583,0.8982696533203125,-0.1997528076171875,-0.38287353515625
241584,0.8940277099609375,-0.1998291015625,-0.3834381103515625
241585,0.8939056396484375,-0.1997528076171875,-0.3870849609375
241586,0.8929595947265625,-0.1987457275390625,-0.390716552734375
241587,0.893096923828125,-0.2000885009765625,-0.3981781005859375
241588,0.8956451416015625,-0.2008514404296875,-0.4085845947265625
241589,0.8983612060546875,-0.2032928466796875,-0.4133148193359375
241590,0.89947509765625,-0.20477294921875,-0.4149017333984375
241591,0.9019012451171876,-0.20751953125,-0.41424560546875
241592,0.9044647216796876,-0.2110443115234375,-0.4146270751953125
241593,0.9091339111328124,-0.2137298583984375,-0.4170074462890625
241594,0.9124908447265624,-0.2129669189453125,-0.4178466796875
241595,0.916259765625,-0.2094879150390625,-0.4181671142578125
241596,0.9187774658203124,-0.201812744140625,-0.4160003662109375
241597,0.9227142333984376,-0.1959686279296875,-0.4081573486328125
241598,0.925811767578125,-0.19366455078125,-0.400726318359375
241599,0.9319610595703124,-0.1943511962890625,-0.3982086181640625
241600,0.9357757568359376,-0.196990966796875,-0.397735595703125
241601,0.9361724853515624,-0.199737548828125,-0.4011688232421875
241602,0.933441162109375,-0.2032623291015625,-0.409027099609375
241603,0.9256591796875,-0.2084808349609375,-0.4177703857421875
241604,0.914337158203125,-0.21478271484375,-0.4225006103515625
241605,0.8991546630859375,-0.2187957763671875,-0.4234161376953125
241606,0.8860015869140625,-0.227386474609375,-0.4304351806640625
241607,0.875885009765625,-0.2328948974609375,-0.437042236328125
241608,0.8691864013671875,-0.232940673828125,-0.43829345703125
241609,0.8645782470703125,-0.2305450439453125,-0.4348602294921875
241610,0.8669891357421875,-0.2279510498046875,-0.43359375
241611,0.870880126953125,-0.225189208984375,-0.4359283447265625
241612,0.8737945556640625,-0.2239990234375,-0.43212890625
241613,0.875701904296875,-0.224090576171875,-0.4302520751953125
241614,0.87237548828125,-0.2241058349609375,-0.4357147216796875
241615,0.8653411865234375,-0.2200927734375,-0.439422607421875
241616,0.8558502197265625,-0.217620849609375,-0.435882568359375
241617,0.8473358154296875,-0.2149200439453125,-0.432708740234375
241618,0.8441162109375,-0.214874267578125,-0.4337005615234375
241619,0.8420867919921875,-0.215423583984375,-0.437591552734375
241620,0.8420257568359375,-0.2173004150390625,-0.443756103515625
241621,0.8428192138671875,-0.218536376953125,-0.4515533447265625
241622,0.8442840576171875,-0.2187347412109375,-0.4583587646484375
241623,0.845916748046875,-0.2195892333984375,-0.4636383056640625
241624,0.8485870361328125,-0.22076416015625,-0.4655303955078125
241625,0.8525543212890625,-0.223175048828125,-0.4642791748046875
241626,0.8608245849609375,-0.2253265380859375,-0.4599761962890625
241627,0.87286376953125,-0.22894287109375,-0.450927734375
241628,0.8838653564453125,-0.2317047119140625,-0.44390869140625
241629,0.890899658203125,-0.23272705078125,-0.441314697265625
241630,0.8935546875,-0.22808837890625,-0.4390869140625
241631,0.8892059326171875,-0.22021484375,-0.44189453125
241632,0.882171630859375,-0.2149200439453125,-0.441436767578125
241633,0.877685546875,-0.210235595703125,-0.4420013427734375
241634,0.8726806640625,-0.20599365234375,-0.443389892578125
241635,0.868896484375,-0.2020111083984375,-0.4421844482421875
241636,0.8670654296875,-0.198974609375,-0.4369659423828125
241637,0.866302490234375,-0.1925048828125,-0.4308013916015625
241638,0.8659820556640625,-0.18572998046875,-0.4248809814453125
241639,0.868194580078125,-0.1780548095703125,-0.417327880859375
241640,0.8714141845703125,-0.1717681884765625,-0.4125518798828125
241641,0.878997802734375,-0.1677093505859375,-0.409332275390625
241642,0.888092041015625,-0.166656494140625,-0.405853271484375
241643,0.8965911865234375,-0.16845703125,-0.4086151123046875
241644,0.9033203125,-0.167724609375,-0.4132537841796875
241645,0.906005859375,-0.16845703125,-0.41448974609375
241646,0.9088592529296876,-0.17340087890625,-0.41619873046875
241647,0.90948486328125,-0.1808929443359375,-0.415679931640625
241648,0.9099578857421876,-0.188568115234375,-0.419097900390625
241649,0.9091339111328124,-0.194305419921875,-0.42047119140625
241650,0.90765380859375,-0.196563720703125,-0.418792724609375
241651,0.9071197509765624,-0.19561767578125,-0.418548583984375
241652,0.906494140625,-0.1975250244140625,-0.421051025390625
241653,0.906494140625,-0.1975250244140625,-0.421051025390625
241654,0.9011993408203124,-0.2033538818359375,-0.4214630126953125
241655,0.89788818359375,-0.2052001953125,-0.41937255859375
241656,0.8961029052734375,-0.208251953125,-0.4184112548828125
241657,0.8974456787109375,-0.2092132568359375,-0.418670654296875
241658,0.8986358642578125,-0.210693359375,-0.4243011474609375
241659,0.8980712890625,-0.2136077880859375,-0.431396484375
241660,0.8924560546875,-0.210784912109375,-0.43023681640625
241661,0.8924560546875,-0.210784912109375,-0.43023681640625
241662,0.89007568359375,-0.218658447265625,-0.4237213134765625
241663,0.887481689453125,-0.221160888671875,-0.4349212646484375
241664,0.886871337890625,-0.216796875,-0.4456329345703125
241665,0.88287353515625,-0.21484375,-0.4523773193359375
241666,0.878326416015625,-0.216033935546875,-0.44854736328125
241667,0.87603759765625,-0.2155914306640625,-0.4434356689453125
241668,0.8763885498046875,-0.212158203125,-0.4434814453125
241669,0.87738037109375,-0.2060699462890625,-0.4456634521484375
241670,0.8799591064453125,-0.200469970703125,-0.444610595703125
241671,0.8814239501953125,-0.1974029541015625,-0.4431304931640625
241672,0.8803558349609375,-0.1971435546875,-0.4446563720703125
241673,0.8751068115234375,-0.198516845703125,-0.44720458984375
241674,0.8682403564453125,-0.199249267578125,-0.4441680908203125
241675,0.861083984375,-0.1999969482421875,-0.4416656494140625
241676,0.853302001953125,-0.2018280029296875,-0.441558837890625
241677,0.847015380859375,-0.205169677734375,-0.4433746337890625
241678,0.8447418212890625,-0.21026611328125,-0.4427642822265625
241679,0.84552001953125,-0.2159423828125,-0.444122314453125
241680,0.8492889404296875,-0.221923828125,-0.4476165771484375
241681,0.853973388671875,-0.2274322509765625,-0.452117919921875
241682,0.8572540283203125,-0.2308807373046875,-0.452789306640625
241683,0.859619140625,-0.2334747314453125,-0.4516448974609375
241684,0.86199951171875,-0.2337188720703125,-0.4484710693359375
241685,0.86505126953125,-0.23138427734375,-0.447601318359375
241686,0.8663330078125,-0.2284088134765625,-0.4434967041015625
241687,0.868896484375,-0.2251739501953125,-0.4370269775390625
241688,0.87335205078125,-0.224822998046875,-0.432373046875
241689,0.877044677734375,-0.2230682373046875,-0.4272308349609375
241690,0.8779754638671875,-0.221832275390625,-0.422821044921875
241691,0.8801116943359375,-0.217681884765625,-0.416015625
241692,0.8809051513671875,-0.2133941650390625,-0.4095458984375
241693,0.8807830810546875,-0.2102508544921875,-0.4075775146484375
241694,0.88018798828125,-0.2095489501953125,-0.4068450927734375
241695,0.877410888671875,-0.2076416015625,-0.405242919921875
241696,0.8743896484375,-0.2028350830078125,-0.4052886962890625
241697,0.8734893798828125,-0.1970977783203125,-0.4058990478515625
241698,0.8752593994140625,-0.191436767578125,-0.40789794921875
241699,0.87841796875,-0.1865997314453125,-0.4084014892578125
241700,0.88446044921875,-0.1844940185546875,-0.4086151123046875
241701,0.8905181884765625,-0.185272216796875,-0.4064178466796875
241702,0.8961639404296875,-0.1901702880859375,-0.4058685302734375
241703,0.899566650390625,-0.19647216796875,-0.4040679931640625
241704,0.902069091796875,-0.2044219970703125,-0.4083404541015625
241705,0.9035186767578124,-0.2112274169921875,-0.409637451171875
241706,0.9051055908203124,-0.2164459228515625,-0.408599853515625
241707,0.9064483642578124,-0.21844482421875,-0.41015625
241708,0.9086151123046876,-0.2180023193359375,-0.4147186279296875
241709,0.9102630615234376,-0.2122955322265625,-0.4138336181640625
241710,0.9149627685546876,-0.2061767578125,-0.41162109375
241711,0.91851806640625,-0.2010955810546875,-0.4085540771484375
241712,0.923675537109375,-0.1989898681640625,-0.409637451171875
241713,0.927093505859375,-0.1967926025390625,-0.410400390625
241714,0.9269866943359376,-0.1980743408203125,-0.4083709716796875
241715,0.925689697265625,-0.200469970703125,-0.4116058349609375
241716,0.9233245849609376,-0.1999664306640625,-0.4146575927734375
241717,0.915924072265625,-0.197296142578125,-0.4152374267578125
241718,0.915924072265625,-0.197296142578125,-0.4152374267578125
241719,0.9095611572265624,-0.194122314453125,-0.410125732421875
241720,0.908935546875,-0.1937103271484375,-0.4001617431640625
241721,0.9106292724609376,-0.1936492919921875,-0.39495849609375
241722,0.9128875732421876,-0.1961669921875,-0.397430419921875
241723,0.9149322509765624,-0.198272705078125,-0.3983001708984375
241724,0.9140625,-0.1996307373046875,-0.3988037109375
241725,0.9114532470703124,-0.1979522705078125,-0.399139404296875
241726,0.909149169921875,-0.1970367431640625,-0.4016265869140625
241727,0.9063262939453124,-0.197265625,-0.4038848876953125
241728,0.902862548828125,-0.1985321044921875,-0.40582275390625
241729,0.89923095703125,-0.20050048828125,-0.404998779296875
241730,0.8951263427734375,-0.2013702392578125,-0.4042205810546875
241731,0.8915557861328125,-0.20404052734375,-0.4047698974609375
241732,0.8878021240234375,-0.204742431640625,-0.403594970703125
241733,0.8856964111328125,-0.2049713134765625,-0.4019317626953125
241734,0.88177490234375,-0.203277587890625,-0.4021453857421875
241735,0.876007080078125,-0.202392578125,-0.4023284912109375
241736,0.869537353515625,-0.2024078369140625,-0.399627685546875
241737,0.8632049560546875,-0.204010009765625,-0.3956146240234375
241738,0.8578338623046875,-0.2063751220703125,-0.391998291015625
241739,0.8548583984375,-0.2086029052734375,-0.3923187255859375
241740,0.8525238037109375,-0.2120819091796875,-0.396331787109375
241741,0.8505401611328125,-0.214874267578125,-0.4012298583984375
241742,0.851654052734375,-0.21533203125,-0.404327392578125
241743,0.8553924560546875,-0.21612548828125,-0.4067230224609375
241744,0.860687255859375,-0.2158203125,-0.408721923828125
241745,0.868072509765625,-0.2143096923828125,-0.4108428955078125
241746,0.8742218017578125,-0.2110595703125,-0.41241455078125
241747,0.880950927734375,-0.210723876953125,-0.40924072265625
241748,0.8902130126953125,-0.2091064453125,-0.405731201171875
241749,0.8978118896484375,-0.2044677734375,-0.39990234375
241750,0.903778076171875,-0.1995086669921875,-0.3936309814453125
241751,0.9061431884765624,-0.194305419921875,-0.3898773193359375
241752,0.9044342041015624,-0.1875152587890625,-0.3856353759765625
241753,0.9015045166015624,-0.182708740234375,-0.381591796875
241754,0.8993682861328125,-0.1770782470703125,-0.38018798828125
241755,0.898590087890625,-0.175811767578125,-0.380096435546875
241756,0.9001312255859375,-0.1775665283203125,-0.3828125
241757,0.899566650390625,-0.180755615234375,-0.3845062255859375
241758,0.899688720703125,-0.1795196533203125,-0.38446044921875
241759,0.89990234375,-0.1776885986328125,-0.3839263916015625
241760,0.9044036865234376,-0.174041748046875,-0.3867950439453125
241761,0.90667724609375,-0.1739959716796875,-0.3861236572265625
241762,0.9083709716796876,-0.1786041259765625,-0.38330078125
241763,0.9151153564453124,-0.18450927734375,-0.3841705322265625
241764,0.9203033447265624,-0.189666748046875,-0.3867950439453125
241765,0.92352294921875,-0.1942596435546875,-0.3954010009765625
241766,0.9230499267578124,-0.1987457275390625,-0.4005889892578125
241767,0.92059326171875,-0.2016448974609375,-0.40313720703125
241768,0.919769287109375,-0.202972412109375,-0.398529052734375
241769,0.919769287109375,-0.202972412109375,-0.398529052734375
241770,0.919036865234375,-0.200439453125,-0.3934173583984375
241771,0.918731689453125,-0.19427490234375,-0.38861083984375
241772,0.9211883544921876,-0.1884002685546875,-0.3847808837890625
241773,0.927734375,-0.1868896484375,-0.3838043212890625
241774,0.9361419677734376,-0.1861724853515625,-0.3850555419921875
241775,0.9434661865234376,-0.185516357421875,-0.3850250244140625
241776,0.9476318359375,-0.1876373291015625,-0.3826751708984375
241777,0.94769287109375,-0.1911773681640625,-0.379119873046875
241778,0.9452667236328124,-0.1922149658203125,-0.3763275146484375
241779,0.938812255859375,-0.19403076171875,-0.376220703125
241780,0.9319610595703124,-0.195098876953125,-0.37750244140625
241781,0.92498779296875,-0.1996612548828125,-0.381011962890625
241782,0.9191131591796876,-0.2038116455078125,-0.3854827880859375
241783,0.9149627685546876,-0.2085723876953125,-0.3905029296875
241784,0.912322998046875,-0.2099456787109375,-0.3990936279296875
241785,0.9099273681640624,-0.208709716796875,-0.406707763671875
241786,0.9022979736328124,-0.2091522216796875,-0.4089508056640625
241787,0.8917083740234375,-0.2084503173828125,-0.4069976806640625
241788,0.8838043212890625,-0.204376220703125,-0.41015625
241789,0.880889892578125,-0.2014923095703125,-0.4122161865234375
241790,0.877716064453125,-0.19891357421875,-0.414337158203125
241791,0.874053955078125,-0.196624755859375,-0.409942626953125
241792,0.8734588623046875,-0.19732666015625,-0.40478515625
241793,0.8713836669921875,-0.1993408203125,-0.399169921875
241794,0.86614990234375,-0.200775146484375,-0.396636962890625
241795,0.864593505859375,-0.204681396484375,-0.3900909423828125
241796,0.8630828857421875,-0.2071075439453125,-0.3773651123046875
241797,0.863433837890625,-0.209259033203125,-0.37451171875
241798,0.86578369140625,-0.2112884521484375,-0.376129150390625
241799,0.8671722412109375,-0.21197509765625,-0.3798675537109375
241800,0.8697052001953125,-0.2123870849609375,-0.381988525390625
241801,0.87445068359375,-0.2135009765625,-0.387237548828125
241802,0.881256103515625,-0.214691162109375,-0.395660400390625
241803,0.8843536376953125,-0.2136077880859375,-0.3979034423828125
241804,0.8876800537109375,-0.2126617431640625,-0.3935394287109375
241805,0.8942718505859375,-0.213043212890625,-0.389495849609375
241806,0.903289794921875,-0.2138824462890625,-0.3898162841796875
241807,0.912506103515625,-0.2117767333984375,-0.38909912109375
241808,0.912506103515625,-0.2117767333984375,-0.38909912109375
241809,0.909637451171875,-0.2092742919921875,-0.3884124755859375
241810,0.9026947021484376,-0.209716796875,-0.38818359375
241811,0.89422607421875,-0.2112884521484375,-0.388763427734375
241812,0.8891754150390625,-0.208251953125,-0.3909149169921875
241813,0.885955810546875,-0.2033233642578125,-0.3930206298828125
241814,0.8834075927734375,-0.1971435546875,-0.39630126953125
241815,0.8842926025390625,-0.1912384033203125,-0.3984222412109375
241816,0.8866729736328125,-0.18548583984375,-0.3970947265625
241817,0.8901519775390625,-0.1789398193359375,-0.393463134765625
241818,0.896728515625,-0.175140380859375,-0.3904876708984375
241819,0.902679443359375,-0.174407958984375,-0.3881072998046875
241820,0.9039459228515624,-0.1801910400390625,-0.387786865234375
241821,0.90155029296875,-0.1872406005859375,-0.389434814453125
241822,0.90087890625,-0.1920928955078125,-0.39312744140625
241823,0.901397705078125,-0.1949920654296875,-0.400177001953125
241824,0.9058685302734376,-0.1980438232421875,-0.4102935791015625
241825,0.909942626953125,-0.2001800537109375,-0.41644287109375
241826,0.9131927490234376,-0.2015228271484375,-0.415191650390625
241827,0.916046142578125,-0.2035064697265625,-0.4102630615234375
241828,0.9171905517578124,-0.205780029296875,-0.403900146484375
241829,0.91668701171875,-0.2087860107421875,-0.396942138671875
241830,0.9172821044921876,-0.209503173828125,-0.3914642333984375
241831,0.91815185546875,-0.2082061767578125,-0.389617919921875
241832,0.916778564453125,-0.2054901123046875,-0.392486572265625
241833,0.9178314208984376,-0.2032928466796875,-0.3987274169921875
241834,0.91815185546875,-0.200347900390625,-0.40557861328125
241835,0.9164581298828124,-0.1938629150390625,-0.414154052734375
241836,0.9164581298828124,-0.1938629150390625,-0.414154052734375
241837,0.91339111328125,-0.189483642578125,-0.4154205322265625
241838,0.907928466796875,-0.1855316162109375,-0.4129638671875
241839,0.90289306640625,-0.1844024658203125,-0.4094085693359375
241840,0.897308349609375,-0.187042236328125,-0.40509033203125
241841,0.89263916015625,-0.191650390625,-0.4044036865234375
241842,0.8898162841796875,-0.194549560546875,-0.406768798828125
241843,0.88861083984375,-0.1965484619140625,-0.4108734130859375
241844,0.8889923095703125,-0.1995391845703125,-0.4188079833984375
241845,0.88677978515625,-0.200775146484375,-0.427215576171875
241846,0.88427734375,-0.2006072998046875,-0.43341064453125
241847,0.880889892578125,-0.201263427734375,-0.437652587890625
241848,0.877044677734375,-0.203521728515625,-0.4410858154296875
241849,0.8737335205078125,-0.2037353515625,-0.445068359375
241850,0.8677215576171875,-0.2026824951171875,-0.44805908203125
241851,0.86322021484375,-0.2053680419921875,-0.446502685546875
241852,0.8594970703125,-0.206512451171875,-0.445037841796875
241853,0.8572845458984375,-0.2087554931640625,-0.44390869140625
241854,0.8565673828125,-0.2098541259765625,-0.44305419921875
241855,0.8553009033203125,-0.2152099609375,-0.4444732666015625
241856,0.8524932861328125,-0.2220306396484375,-0.4464263916015625
241857,0.8513946533203125,-0.2297210693359375,-0.4510498046875
241858,0.8516998291015625,-0.233978271484375,-0.4559326171875
241859,0.8538970947265625,-0.2293548583984375,-0.4666748046875
241860,0.8538970947265625,-0.2293548583984375,-0.4666748046875
241861,0.8542022705078125,-0.2257232666015625,-0.468658447265625
241862,0.85601806640625,-0.220306396484375,-0.4664459228515625
241863,0.85906982421875,-0.2155914306640625,-0.4659423828125
241864,0.860931396484375,-0.211761474609375,-0.463592529296875
241865,0.86138916015625,-0.211212158203125,-0.4580535888671875
241866,0.857086181640625,-0.211334228515625,-0.4559783935546875
241867,0.8515777587890625,-0.2088165283203125,-0.4535675048828125
241868,0.8426361083984375,-0.20562744140625,-0.4528045654296875
241869,0.837066650390625,-0.20172119140625,-0.4574127197265625
241870,0.8370819091796875,-0.197265625,-0.46124267578125
241871,0.8422698974609375,-0.1899261474609375,-0.4658660888671875
241872,0.8482818603515625,-0.1842498779296875,-0.4678497314453125
241873,0.852081298828125,-0.1772613525390625,-0.4682464599609375
241874,0.853424072265625,-0.1732635498046875,-0.4694671630859375
241875,0.8585205078125,-0.1736297607421875,-0.4703521728515625
241876,0.8620452880859375,-0.1705322265625,-0.4716033935546875
241877,0.8636474609375,-0.1685791015625,-0.4693145751953125
241878,0.8663482666015625,-0.1681976318359375,-0.466552734375
241879,0.87176513671875,-0.16925048828125,-0.4686431884765625
241880,0.8749847412109375,-0.17108154296875,-0.472747802734375
241881,0.8787384033203125,-0.173492431640625,-0.4758148193359375
241882,0.8821563720703125,-0.1784515380859375,-0.47540283203125
241883,0.886077880859375,-0.1831817626953125,-0.4732513427734375
241884,0.8907318115234375,-0.1880950927734375,-0.4727020263671875
241885,0.894866943359375,-0.1899566650390625,-0.4757080078125
241886,0.899383544921875,-0.190338134765625,-0.476715087890625
241887,0.9042510986328124,-0.190582275390625,-0.468994140625
241888,0.9042510986328124,-0.190582275390625,-0.468994140625
241889,0.9062347412109376,-0.1931304931640625,-0.4673614501953125
241890,0.905731201171875,-0.192596435546875,-0.466400146484375
241891,0.9044036865234376,-0.189483642578125,-0.4715576171875
241892,0.9044036865234376,-0.189483642578125,-0.4715576171875
241893,0.900634765625,-0.1883544921875,-0.47796630859375
241894,0.893646240234375,-0.18975830078125,-0.4801177978515625
241895,0.884613037109375,-0.1924896240234375,-0.479888916015625
241896,0.874664306640625,-0.1933441162109375,-0.48126220703125
241897,0.868194580078125,-0.1926422119140625,-0.4811859130859375
241898,0.8654937744140625,-0.1932373046875,-0.4798583984375
241899,0.8689727783203125,-0.1975250244140625,-0.48114013671875
241900,0.8689727783203125,-0.1975250244140625,-0.48114013671875
241901,0.8713531494140625,-0.196624755859375,-0.4815826416015625
241902,0.8730621337890625,-0.194976806640625,-0.4806976318359375
