time_idx,accelerometerAccelerationX(G),accelerometerAccelerationY(G),accelerometerAccelerationZ(G)
100000,0.188507080078125,-0.1910552978515625,0.2235260009765625
100001,0.1949310302734375,-0.1946563720703125,0.183746337890625
100002,0.17218017578125,-0.2979736328125,0.0224761962890625
100003,0.1125946044921875,-0.379119873046875,0.00030517578125
100004,0.1125946044921875,-0.379119873046875,0.00030517578125
100005,0.03662109375,-0.40899658203125,-0.0831451416015625
100006,-0.1905517578125,-0.43560791015625,-0.2099151611328125
100007,-0.1905517578125,-0.43560791015625,-0.2099151611328125
100008,-0.303070068359375,-0.4592132568359375,-0.1055755615234375
100009,-0.36602783203125,-0.5501861572265625,0.0684356689453125
100010,-0.4081573486328125,-0.7287750244140625,0.170501708984375
100011,-0.4182891845703125,-1.059707641601562,0.1750335693359375
100012,-0.394012451171875,-1.5948486328125,0.1141815185546875
100013,-0.4111175537109375,-2.318161010742188,-0.1281890869140625
100014,-0.7093048095703125,-4.228271484375,-0.4007568359375
100015,-0.7093048095703125,-4.228271484375,-0.4007568359375
100016,-1.0621337890625,-4.439620971679688,-0.3067474365234375
100017,-1.281280517578125,-3.941390991210938,0.1053466796875
100018,-1.070953369140625,-3.28564453125,0.43060302734375
100019,-0.5493011474609375,-2.718505859375,0.4929351806640625
100020,-0.20068359375,-2.315811157226562,0.6096954345703125
100021,0.053497314453125,-2.114410400390625,0.7650299072265625
100022,0.226837158203125,-1.783126831054688,0.644500732421875
100023,0.226837158203125,-1.783126831054688,0.644500732421875
100024,0.1336669921875,-1.646392822265625,0.51702880859375
100025,-0.0273590087890625,-1.563339233398438,0.41693115234375
100026,-0.1575927734375,-1.386871337890625,0.3374481201171875
100027,-0.1575927734375,-1.386871337890625,0.3374481201171875
100028,-0.1523284912109375,-1.2508544921875,0.30120849609375
100029,-0.1329498291015625,-1.076873779296875,0.25921630859375
100030,-0.0764312744140625,-0.72198486328125,0.16094970703125
100031,-0.0764312744140625,-0.72198486328125,0.16094970703125
100032,-0.0474090576171875,-0.5676727294921875,0.0939483642578125
100033,-0.011749267578125,-0.411956787109375,0.0546875
100034,0.075531005859375,-0.1685943603515625,0.0977630615234375
100035,0.075531005859375,-0.1685943603515625,0.0977630615234375
100036,0.1076202392578125,-0.059661865234375,0.1092376708984375
100037,0.1276092529296875,0.0515594482421875,0.07257080078125
100038,0.13262939453125,0.1421661376953125,-0.0019378662109375
100039,0.1175079345703125,0.219024658203125,-0.0684661865234375
100040,0.110687255859375,0.290557861328125,-0.061248779296875
100041,0.118621826171875,0.322479248046875,-0.016082763671875
100042,0.046661376953125,0.2263336181640625,-0.1647186279296875
100043,0.046661376953125,0.2263336181640625,-0.1647186279296875
100044,0.0035552978515625,0.1519317626953125,-0.131378173828125
100045,-0.054168701171875,0.0194244384765625,-0.0162506103515625
100046,-0.0891265869140625,-0.3133087158203125,0.1404571533203125
100047,-0.0891265869140625,-0.3133087158203125,0.1404571533203125
100048,-0.004852294921875,-0.452056884765625,0.1640167236328125
100049,0.0699462890625,-0.5910491943359375,0.1376800537109375
100050,0.0830230712890625,-0.6964263916015625,0.017059326171875
100051,0.012603759765625,-0.7741241455078125,-0.1916046142578125
100052,-0.1152191162109375,-0.8650970458984375,-0.5006256103515625
100053,-0.265350341796875,-1.056747436523438,-0.77825927734375
100054,-0.6785430908203125,-2.098800659179688,-0.7750396728515625
100055,-0.6785430908203125,-2.098800659179688,-0.7750396728515625
100056,-0.9589080810546876,-2.883102416992188,-0.6913604736328125
100057,-1.165328979492188,-3.611907958984375,-0.6962432861328125
100058,-1.201629638671875,-3.916427612304688,-0.72271728515625
100059,-1.097824096679688,-3.51788330078125,-0.6339263916015625
100060,-0.7970123291015625,-2.7340087890625,-0.3401641845703125
100061,-0.531982421875,-1.993850708007812,-0.4187164306640625
100062,-0.4376068115234375,-1.44293212890625,-0.4700469970703125
100063,-0.434356689453125,-1.029022216796875,-0.13653564453125
100064,-0.522613525390625,-0.7098846435546875,0.0285491943359375
100065,-0.6013336181640625,-0.556488037109375,0.080657958984375
100066,-0.5973052978515625,-0.4783935546875,0.1345977783203125
100067,-0.53741455078125,-0.4136505126953125,0.12139892578125
100068,-0.439300537109375,-0.3560943603515625,0.0659637451171875
100069,-0.327545166015625,-0.2903594970703125,0.0463104248046875
100070,-0.0817413330078125,-0.12921142578125,0.09722900390625
100071,-0.0817413330078125,-0.12921142578125,0.09722900390625
100072,0.0158843994140625,-0.0540008544921875,0.109405517578125
100073,0.0963592529296875,0.0161590576171875,0.1475372314453125
100074,0.203094482421875,0.137359619140625,0.2837066650390625
100075,0.203094482421875,0.137359619140625,0.2837066650390625
100076,0.2760772705078125,0.1447906494140625,0.3398590087890625
100077,0.3256072998046875,0.0605316162109375,0.385894775390625
100078,0.3289031982421875,-0.10650634765625,0.399566650390625
100079,0.2979278564453125,-0.2737274169921875,0.3971099853515625
100080,0.2460784912109375,-0.3870086669921875,0.3634185791015625
100081,0.2016754150390625,-0.4093780517578125,0.2125244140625
100082,0.196746826171875,-0.3917694091796875,0.0769195556640625
100083,0.1842498779296875,-0.372650146484375,-0.0446624755859375
100084,0.1566619873046875,-0.392730712890625,-0.0587158203125
100085,0.1204681396484375,-0.4091339111328125,-0.009246826171875
100086,0.02288818359375,-0.3459930419921875,-0.188262939453125
100087,0.02288818359375,-0.3459930419921875,-0.188262939453125
100088,-0.091522216796875,-0.3174591064453125,-0.236297607421875
100089,-0.205657958984375,-0.3011932373046875,-0.2494659423828125
100090,-0.3228912353515625,-0.4648895263671875,0.0748443603515625
100091,-0.3228912353515625,-0.4648895263671875,0.0748443603515625
100092,-0.3392486572265625,-0.7730865478515625,0.2818603515625
100093,-0.3314208984375,-1.246719360351562,0.40362548828125
100094,-0.30401611328125,-2.588531494140625,-0.0194854736328125
100095,-0.30401611328125,-2.588531494140625,-0.0194854736328125
100096,-0.32464599609375,-3.424423217773438,-0.0676422119140625
100097,-0.4732666015625,-4.1077880859375,-0.070648193359375
100098,-1.018478393554688,-3.852996826171875,0.2329559326171875
100099,-1.018478393554688,-3.852996826171875,0.2329559326171875
100100,-1.066879272460938,-3.31884765625,0.4583892822265625
100101,-0.74493408203125,-2.8038330078125,0.5507659912109375
100102,-0.3687896728515625,-2.32769775390625,0.7587432861328125
100103,-0.3687896728515625,-2.32769775390625,0.7587432861328125
100104,-0.100006103515625,-2.035064697265625,0.8668670654296875
100105,0.14990234375,-1.7816162109375,0.6854095458984375
100106,0.02313232421875,-1.497573852539062,0.36297607421875
100107,0.02313232421875,-1.497573852539062,0.36297607421875
100108,-0.0363006591796875,-1.406295776367188,0.2852020263671875
100109,-0.0252685546875,-1.317230224609375,0.22705078125
100110,0.0372467041015625,-1.0142822265625,0.0934600830078125
100111,0.0372467041015625,-1.0142822265625,0.0934600830078125
100112,0.0376739501953125,-0.8309478759765625,0.0401458740234375
100113,0.0248870849609375,-0.6525421142578125,-0.0094146728515625
100114,0.0039825439453125,-0.467132568359375,-0.060791015625
100115,0.007049560546875,-0.28302001953125,-0.067779541015625
100116,0.0387725830078125,-0.12078857421875,-0.0254669189453125
100117,0.0793304443359375,0.0039825439453125,0.03369140625
100118,0.1772003173828125,0.2177276611328125,0.1359100341796875
100119,0.1772003173828125,0.2177276611328125,0.1359100341796875
100120,0.2107086181640625,0.3133697509765625,0.14068603515625
100121,0.2319183349609375,0.3861846923828125,0.1300506591796875
100122,0.2418975830078125,0.4125518798828125,0.067352294921875
100123,0.2418975830078125,0.4125518798828125,0.067352294921875
100124,0.22369384765625,0.36138916015625,0.0496673583984375
100125,0.191497802734375,0.2635650634765625,0.0434112548828125
100126,0.083251953125,-0.15460205078125,0.18316650390625
100127,0.083251953125,-0.15460205078125,0.18316650390625
100128,0.0631103515625,-0.391326904296875,0.21856689453125
100129,0.0695648193359375,-0.58819580078125,0.203948974609375
100130,0.090545654296875,-0.884674072265625,0.034210205078125
100131,0.090545654296875,-0.884674072265625,0.034210205078125
100132,0.068389892578125,-0.9467315673828124,-0.16497802734375
100133,-0.0193939208984375,-1.03076171875,-0.4398956298828125
100134,-0.46771240234375,-1.640182495117188,-0.6807403564453125
100135,-0.46771240234375,-1.640182495117188,-0.6807403564453125
100136,-0.7684326171875,-2.178604125976562,-0.704742431640625
100137,-0.99176025390625,-2.879226684570312,-0.6569061279296875
100138,-1.154296875,-3.601226806640625,-0.8479156494140625
100139,-1.154296875,-3.601226806640625,-0.8479156494140625
100140,-1.095977783203125,-3.259780883789062,-0.8225555419921875
100141,-0.8487701416015625,-2.534576416015625,-0.645904541015625
100142,-0.5457763671875,-1.849105834960938,-0.5787811279296875
100143,-0.345001220703125,-1.430252075195312,-0.4403228759765625
100144,-0.2689208984375,-1.10577392578125,-0.1671142578125
100145,-0.36444091796875,-0.7776336669921875,0.0735626220703125
100146,-0.577545166015625,-0.5706939697265625,0.1591339111328125
100147,-0.6429595947265625,-0.5311737060546875,0.1284942626953125
100148,-0.542022705078125,-0.5468597412109375,0.0823822021484375
100149,-0.396942138671875,-0.50494384765625,0.068359375
100150,-0.13714599609375,-0.3314056396484375,0.1017913818359375
100151,-0.13714599609375,-0.3314056396484375,0.1017913818359375
100152,-0.020294189453125,-0.2295684814453125,0.1497039794921875
100153,0.0769805908203125,-0.13623046875,0.1951446533203125
100154,0.2445068359375,0.0018768310546875,0.298858642578125
100155,0.2445068359375,0.0018768310546875,0.298858642578125
100156,0.374969482421875,0.003265380859375,0.43072509765625
100157,0.4962158203125,-0.0581512451171875,0.5758209228515625
100158,0.5452117919921875,-0.1666259765625,0.576812744140625
100159,0.522430419921875,-0.2381591796875,0.463043212890625
100160,0.4428558349609375,-0.24334716796875,0.3067779541015625
100161,0.3509063720703125,-0.18121337890625,0.13134765625
100162,0.120697021484375,-0.15386962890625,0.02105712890625
100163,0.120697021484375,-0.15386962890625,0.02105712890625
100164,0.0106048583984375,-0.186431884765625,-0.00445556640625
100165,-0.0540618896484375,-0.2121734619140625,-0.138092041015625
100166,-0.1273040771484375,-0.2205352783203125,-0.276885986328125
100167,-0.1273040771484375,-0.2205352783203125,-0.276885986328125
100168,-0.2059478759765625,-0.2086029052734375,-0.1967620849609375
100169,-0.3320770263671875,-0.22100830078125,-0.1821746826171875
100170,-0.50732421875,-0.3905181884765625,-0.0259246826171875
100171,-0.50732421875,-0.3905181884765625,-0.0259246826171875
100172,-0.5243377685546875,-0.6665802001953125,0.1185150146484375
100173,-0.4717254638671875,-1.074676513671875,0.2257232666015625
100174,-0.4769439697265625,-2.307907104492188,0.0555572509765625
100175,-0.4769439697265625,-2.307907104492188,0.0555572509765625
100176,-0.587890625,-2.9468994140625,-0.233367919921875
100177,-0.6590576171875,-3.5579833984375,-0.350250244140625
100178,-0.73681640625,-3.881866455078125,-0.204071044921875
100179,-0.8790435791015625,-3.738189697265625,0.017852783203125
100180,-0.87457275390625,-3.3529052734375,0.1558990478515625
100181,-0.6162109375,-2.963119506835938,0.234405517578125
100182,-0.3966064453125,-2.546524047851562,0.393096923828125
100183,-0.2260589599609375,-2.232757568359375,0.6004180908203125
100184,-0.0667572021484375,-2.043914794921875,0.7463226318359375
100185,0.0483856201171875,-1.916397094726562,0.785186767578125
100186,-0.0181121826171875,-1.77081298828125,0.39239501953125
100187,-0.0181121826171875,-1.77081298828125,0.39239501953125
100188,-0.0855560302734375,-1.679367065429688,0.263641357421875
100189,-0.0610809326171875,-1.533615112304688,0.2084197998046875
100190,0.0287933349609375,-1.351211547851562,0.195556640625
100191,0.116607666015625,-1.161651611328125,0.20977783203125
100192,0.160736083984375,-0.96173095703125,0.1865997314453125
100193,0.16583251953125,-0.753692626953125,0.1057891845703125
100194,0.131500244140625,-0.396728515625,0.0119781494140625
100195,0.131500244140625,-0.396728515625,0.0119781494140625
100196,0.1253814697265625,-0.2527313232421875,0.0315704345703125
100197,0.140411376953125,-0.104888916015625,0.0775299072265625
100198,0.1959075927734375,0.178466796875,0.179290771484375
100199,0.1959075927734375,0.178466796875,0.179290771484375
100200,0.215606689453125,0.28546142578125,0.1827545166015625
100201,0.2228546142578125,0.3567047119140625,0.162261962890625
100202,0.22320556640625,0.3714447021484375,0.1157684326171875
100203,0.22320556640625,0.3714447021484375,0.1157684326171875
100204,0.1935882568359375,0.31036376953125,-0.02716064453125
100205,0.1796112060546875,0.24420166015625,-0.0176239013671875
100206,0.147979736328125,0.129974365234375,-0.021392822265625
100207,0.0885162353515625,-0.058319091796875,-0.0405120849609375
100208,0.049285888671875,-0.2729339599609375,-0.02374267578125
100209,0.063873291015625,-0.43621826171875,0.0441436767578125
100210,0.1500396728515625,-0.6656494140625,0.101715087890625
100211,0.1500396728515625,-0.6656494140625,0.101715087890625
100212,0.1349334716796875,-0.7592010498046875,-0.0742034912109375
100213,0.06561279296875,-0.8441009521484375,-0.342681884765625
100214,-0.038360595703125,-0.9854888916015624,-0.5983428955078125
100215,-0.186126708984375,-1.196060180664062,-0.8126373291015625
100216,-0.404052734375,-1.535812377929688,-1.006820678710938
100217,-0.6601104736328125,-2.05389404296875,-1.087799072265625
100218,-1.216827392578125,-3.2757568359375,-0.77423095703125
100219,-1.216827392578125,-3.2757568359375,-0.77423095703125
100220,-1.434616088867188,-3.577713012695312,-0.713043212890625
100221,-1.486190795898438,-3.347854614257812,-0.8684539794921875
100222,-0.6332550048828125,-2.048126220703125,-0.511199951171875
100223,-0.6332550048828125,-2.048126220703125,-0.511199951171875
100224,-0.3585357666015625,-1.633575439453125,-0.3575439453125
100225,-0.1888580322265625,-1.274566650390625,-0.117431640625
100226,-0.1956634521484375,-0.944915771484375,0.08642578125
100227,-0.380889892578125,-0.6668853759765625,0.226959228515625
100228,-0.5408935546875,-0.524749755859375,0.2526702880859375
100229,-0.496734619140625,-0.498748779296875,0.188812255859375
100230,-0.3288421630859375,-0.4810028076171875,0.135345458984375
100231,-0.17205810546875,-0.4495697021484375,0.087677001953125
100232,-0.0520782470703125,-0.3864593505859375,0.0590667724609375
100233,0.054595947265625,-0.2969818115234375,0.06964111328125
100234,0.145416259765625,-0.2050323486328125,0.104949951171875
100235,0.2201690673828125,-0.10577392578125,0.130615234375
100236,0.3025054931640625,-0.0057220458984375,0.2028656005859375
100237,0.3990478515625,0.0797119140625,0.327545166015625
100238,0.49078369140625,0.0151519775390625,0.47900390625
100239,0.49078369140625,0.0151519775390625,0.47900390625
100240,0.3744049072265625,-0.0344696044921875,0.5147552490234375
100241,0.2327117919921875,-0.0170440673828125,0.489105224609375
100242,0.1438140869140625,0.02728271484375,0.3416290283203125
100243,0.1438140869140625,0.02728271484375,0.3416290283203125
100244,0.06658935546875,-0.0081939697265625,0.0917510986328125
100245,0.0012054443359375,-0.110015869140625,0.00775146484375
100246,-0.0635528564453125,-0.214691162109375,-0.00628662109375
100247,-0.0954742431640625,-0.269378662109375,-0.0911865234375
100248,-0.1277923583984375,-0.2983245849609375,-0.22100830078125
100249,-0.1789093017578125,-0.3174591064453125,-0.247589111328125
100250,-0.302734375,-0.42218017578125,-0.025421142578125
100251,-0.302734375,-0.42218017578125,-0.025421142578125
100252,-0.332427978515625,-0.6629486083984375,0.0497283935546875
100253,-0.323150634765625,-1.04962158203125,0.104949951171875
100254,-0.45849609375,-2.168487548828125,-0.14239501953125
100255,-0.45849609375,-2.168487548828125,-0.14239501953125
100256,-0.58038330078125,-2.951248168945312,-0.506866455078125
100257,-0.7467041015625,-3.774154663085938,-0.726318359375
100258,-1.367446899414062,-4.044097900390625,-0.414306640625
100259,-1.367446899414062,-4.044097900390625,-0.414306640625
100260,-1.5106201171875,-3.395950317382812,0.052032470703125
100261,-1.213134765625,-2.7626953125,0.3252716064453125
100262,-0.173492431640625,-2.150238037109375,0.536468505859375
100263,-0.173492431640625,-2.150238037109375,0.536468505859375
100264,0.0942230224609375,-1.967147827148438,0.8224334716796875
100265,0.2368621826171875,-1.8497314453125,0.9163818359375
100266,0.1418304443359375,-1.6094970703125,0.49005126953125
100267,0.1418304443359375,-1.6094970703125,0.49005126953125
100268,0.0307769775390625,-1.5003662109375,0.4294891357421875
100269,-0.032073974609375,-1.397918701171875,0.3648223876953125
100270,-0.0139617919921875,-1.294586181640625,0.3428955078125
100271,0.042144775390625,-1.169525146484375,0.3334808349609375
100272,0.0729217529296875,-1.019729614257812,0.263336181640625
100273,0.0735321044921875,-0.838653564453125,0.16705322265625
100274,0.074188232421875,-0.645904541015625,0.0906982421875
100275,0.0673675537109375,-0.4709625244140625,0.0507965087890625
100276,0.0625457763671875,-0.31488037109375,0.0341949462890625
100277,0.068572998046875,-0.1716461181640625,0.03448486328125
100278,0.107177734375,0.0965118408203125,0.0692138671875
100279,0.107177734375,0.0965118408203125,0.0692138671875
100280,0.122772216796875,0.2188568115234375,0.0783538818359375
100281,0.1240692138671875,0.3220672607421875,0.078125
100282,0.0999908447265625,0.4215087890625,-0.0204925537109375
100283,0.0999908447265625,0.4215087890625,-0.0204925537109375
100284,0.071990966796875,0.4180450439453125,-0.08612060546875
100285,0.0348968505859375,0.3916168212890625,-0.1206207275390625
100286,-0.114532470703125,0.12078857421875,-0.0618743896484375
100287,-0.114532470703125,0.12078857421875,-0.0618743896484375
100288,-0.206787109375,-0.0847320556640625,0.0343170166015625
100289,-0.23760986328125,-0.267242431640625,0.1034393310546875
100290,-0.1898651123046875,-0.4073638916015625,0.1471099853515625
100291,-0.0973358154296875,-0.5271759033203125,0.1967315673828125
100292,0.00885009765625,-0.625885009765625,0.178466796875
100293,0.0604248046875,-0.707977294921875,0.110076904296875
100294,-0.0718841552734375,-0.8001556396484375,-0.3980865478515625
100295,-0.0718841552734375,-0.8001556396484375,-0.3980865478515625
100296,-0.1847076416015625,-0.9820556640625,-0.5858917236328125
100297,-0.3622283935546875,-1.377731323242188,-0.6121978759765625
100298,-0.6472625732421875,-1.971038818359375,-0.5626220703125
100299,-1.015670776367188,-2.661453247070312,-0.6717529296875
100300,-1.286758422851562,-3.251083374023438,-0.6873779296875
100301,-1.382904052734375,-3.540328979492188,-0.67376708984375
100302,-1.422225952148438,-3.551864624023438,-0.902740478515625
100303,-1.147857666015625,-3.140945434570312,-0.7930908203125
100304,-0.7117156982421875,-2.266555786132812,-0.4178924560546875
100305,-0.4898223876953125,-1.674209594726562,-0.1416473388671875
100306,-0.3942413330078125,-1.266143798828125,0.0534210205078125
100307,-0.4207000732421875,-0.9293212890625,0.104736328125
100308,-0.517791748046875,-0.679656982421875,0.142486572265625
100309,-0.536346435546875,-0.5774078369140625,0.168853759765625
100310,-0.4442138671875,-0.5577392578125,0.1699981689453125
100311,-0.312164306640625,-0.5296630859375,0.1394805908203125
100312,-0.202178955078125,-0.4794921875,0.1135406494140625
100313,-0.1230621337890625,-0.3917999267578125,0.0975189208984375
100314,-0.059356689453125,-0.2878265380859375,0.09649658203125
100315,-0.009033203125,-0.1908721923828125,0.0930938720703125
100316,0.0373992919921875,-0.1001129150390625,0.11016845703125
100317,0.064697265625,-0.0113372802734375,0.1634674072265625
100318,0.132904052734375,0.1811370849609375,0.271697998046875
100319,0.132904052734375,0.1811370849609375,0.271697998046875
100320,0.195587158203125,0.2440948486328125,0.321868896484375
100321,0.2409820556640625,0.2421875,0.322509765625
100322,0.230224609375,0.1142578125,0.3233184814453125
100323,0.18829345703125,-0.0801849365234375,0.3136138916015625
100324,0.1448974609375,-0.1946563720703125,0.2376251220703125
100325,0.1096649169921875,-0.290802001953125,0.179779052734375
100326,0.07318115234375,-0.400634765625,0.1100616455078125
100327,0.0126495361328125,-0.46954345703125,-0.0223236083984375
100328,-0.0339813232421875,-0.4922027587890625,-0.0417327880859375
100329,-0.064697265625,-0.4688873291015625,-0.077178955078125
100330,-0.0715484619140625,-0.3834686279296875,-0.167144775390625
100331,-0.074859619140625,-0.3031005859375,-0.236724853515625
100332,-0.0661468505859375,-0.2758636474609375,-0.15374755859375
100333,-0.0520477294921875,-0.341583251953125,0.0518798828125
100334,-0.08111572265625,-0.5513763427734375,0.1802978515625
100335,-0.08111572265625,-0.5513763427734375,0.1802978515625
100336,-0.1474609375,-1.152236938476562,0.14556884765625
100337,-0.17431640625,-1.596710205078125,-0.00244140625
100338,-0.25909423828125,-2.323867797851562,-0.2185211181640625
100339,-0.447174072265625,-3.381027221679688,-0.420166015625
100340,-0.8782501220703125,-4.194839477539062,-0.6428985595703125
100341,-1.298095703125,-4.346420288085938,-0.4882354736328125
100342,-1.513107299804688,-3.798599243164062,-0.0449066162109375
100343,-1.513107299804688,-3.798599243164062,-0.0449066162109375
100344,-0.7986602783203125,-2.517868041992188,0.3425445556640625
100345,-0.3046875,-2.1229248046875,0.5954132080078125
100346,0.1965789794921875,-1.699920654296875,0.8201446533203125
100347,0.1965789794921875,-1.699920654296875,0.8201446533203125
100348,0.2575836181640625,-1.579910278320312,0.6043701171875
100349,0.2495269775390625,-1.508377075195312,0.4187469482421875
100350,0.21514892578125,-1.506332397460938,0.3600921630859375
100351,0.21514892578125,-1.506332397460938,0.3600921630859375
100352,0.07830810546875,-1.429580688476562,0.2743072509765625
100353,0.0416107177734375,-1.324966430664062,0.285003662109375
100354,0.018829345703125,-0.9573516845703124,0.2437744140625
100355,0.018829345703125,-0.9573516845703124,0.2437744140625
100356,0.0211639404296875,-0.7471160888671875,0.18597412109375
100357,0.0325775146484375,-0.558837890625,0.1425018310546875
100358,0.0621185302734375,-0.402252197265625,0.1395111083984375
100359,0.105133056640625,-0.2733612060546875,0.159027099609375
100360,0.1429290771484375,-0.1519622802734375,0.1748046875
100361,0.171661376953125,-0.029541015625,0.15570068359375
100362,0.184722900390625,0.0703582763671875,0.119659423828125
100363,0.171966552734375,0.1446990966796875,0.0730743408203125
100364,0.1527099609375,0.190338134765625,0.0430755615234375
100365,0.132476806640625,0.210906982421875,0.014495849609375
100366,0.0950927734375,0.2083740234375,-0.0164794921875
100367,0.0511932373046875,0.183074951171875,-0.0298004150390625
100368,0.0022735595703125,0.1330108642578125,-0.0099334716796875
100369,-0.0535888671875,0.0458831787109375,0.0423736572265625
100370,-0.1091461181640625,-0.06805419921875,0.1352691650390625
100371,-0.1360321044921875,-0.1954803466796875,0.2021636962890625
100372,-0.0684661865234375,-0.30523681640625,0.1933135986328125
100373,0.0462646484375,-0.414642333984375,0.1656341552734375
100374,0.167816162109375,-0.626007080078125,-0.0626068115234375
100375,0.167816162109375,-0.626007080078125,-0.0626068115234375
100376,0.11956787109375,-0.7661590576171875,-0.2241058349609375
100377,0.00543212890625,-0.9332122802734376,-0.439666748046875
100378,-0.1685943603515625,-1.149703979492188,-0.71282958984375
100379,-0.396881103515625,-1.53729248046875,-0.9476165771484376
100380,-0.6949920654296875,-2.150619506835938,-0.9711761474609376
100381,-1.049423217773438,-2.950088500976562,-0.787994384765625
100382,-1.337982177734375,-3.602462768554688,-0.6221923828125
100383,-1.473831176757812,-3.761932373046875,-0.7068328857421875
100384,-1.33111572265625,-3.3331298828125,-0.813507080078125
100385,-0.8535003662109375,-2.563980102539062,-0.507568359375
100386,-0.5095977783203125,-1.94232177734375,-0.2725982666015625
100387,-0.340484619140625,-1.474014282226562,-0.140472412109375
100388,-0.3165435791015625,-1.108291625976562,-0.042877197265625
100389,-0.3866424560546875,-0.832244873046875,-0.0013580322265625
100390,-0.4545440673828125,-0.67486572265625,-0.0002288818359375
100391,-0.436126708984375,-0.5772247314453125,0.0563201904296875
100392,-0.3675689697265625,-0.4831695556640625,0.111480712890625
100393,-0.276947021484375,-0.3786773681640625,0.125152587890625
100394,-0.1790313720703125,-0.257781982421875,0.1316986083984375
100395,-0.0901336669921875,-0.140594482421875,0.130859375
100396,-0.00152587890625,-0.045440673828125,0.13348388671875
100397,0.0767974853515625,0.0329437255859375,0.1342620849609375
100398,0.136322021484375,0.102294921875,0.13629150390625
100399,0.183197021484375,0.163330078125,0.1646728515625
100400,0.226898193359375,0.213623046875,0.2165374755859375
100401,0.268157958984375,0.192047119140625,0.2774810791015625
100402,0.2649383544921875,-0.1400299072265625,0.4135894775390625
100403,0.2558135986328125,-0.2615814208984375,0.3718719482421875
100404,0.2558135986328125,-0.2615814208984375,0.3718719482421875
100405,0.2094268798828125,-0.3429412841796875,0.2394866943359375
100406,0.1518096923828125,-0.376495361328125,0.1577911376953125
100407,0.11834716796875,-0.3913726806640625,0.1216278076171875
100408,0.0803070068359375,-0.4053802490234375,0.029083251953125
100409,0.0133819580078125,-0.4231414794921875,-0.086578369140625
100410,-0.018310546875,-0.43585205078125,-0.0768585205078125
100411,-0.0143890380859375,-0.4042510986328125,-0.0844268798828125
100412,-0.04364013671875,-0.3638916015625,-0.1592254638671875
100413,-0.104278564453125,-0.369110107421875,-0.1695404052734375
100414,-0.17071533203125,-0.398773193359375,-0.1261444091796875
100415,-0.2302703857421875,-0.4727783203125,-0.054473876953125
100416,-0.277130126953125,-0.6462554931640625,0.0456390380859375
100417,-0.2978363037109375,-0.957366943359375,0.1227264404296875
100418,-0.330780029296875,-1.414932250976562,0.08880615234375
100419,-0.3879241943359375,-2.078170776367188,-0.0969696044921875
100420,-0.483123779296875,-3.021392822265625,-0.3065643310546875
100421,-0.7488555908203125,-3.898330688476562,-0.494140625
100422,-1.10235595703125,-4.216659545898438,-0.5029754638671875
100423,-1.10235595703125,-4.216659545898438,-0.5029754638671875
100424,-1.20526123046875,-3.261962890625,0.3905181884765625
100425,-0.65106201171875,-2.66455078125,0.4723968505859375
100426,-0.2099456787109375,-2.284454345703125,0.71539306640625
100427,0.0183868408203125,-2.11004638671875,0.8434295654296875
100428,0.2035980224609375,-1.99359130859375,0.8719329833984375
100429,0.30670166015625,-1.879638671875,0.7191009521484375
100430,0.2962799072265625,-1.73895263671875,0.5383148193359375
100431,0.197265625,-1.642547607421875,0.3929901123046875
100432,0.0751190185546875,-1.582992553710938,0.310638427734375
100433,0.021575927734375,-1.495071411132812,0.2945404052734375
100434,0.0085906982421875,-1.361984252929688,0.2897796630859375
100435,0.0083160400390625,-1.191513061523438,0.2753448486328125
100436,-0.0092620849609375,-0.9986419677734376,0.211273193359375
100437,-0.0399932861328125,-0.80419921875,0.1199951171875
100438,-0.060302734375,-0.6145172119140625,0.035186767578125
100439,-0.0567169189453125,-0.4422454833984375,-0.0035552978515625
100440,-0.03228759765625,-0.2923431396484375,-0.0065460205078125
100441,0.0074310302734375,-0.16265869140625,0.0271759033203125
100442,0.0538177490234375,-0.044219970703125,0.0644073486328125
100443,0.109405517578125,0.0933990478515625,0.0980224609375
100444,0.1544342041015625,0.22357177734375,0.1090545654296875
100445,0.172576904296875,0.3288726806640625,0.07757568359375
100446,0.14617919921875,0.4299774169921875,-0.0208282470703125
100447,0.14617919921875,0.4299774169921875,-0.0208282470703125
100448,0.132781982421875,0.4161224365234375,-0.02801513671875
100449,0.1033172607421875,0.3465576171875,-0.022674560546875
100450,0.0529937744140625,0.2272796630859375,-0.0255584716796875
100451,-0.022216796875,0.0595550537109375,-0.002960205078125
100452,-0.10565185546875,-0.1373443603515625,0.0706787109375
100453,-0.1281890869140625,-0.3383026123046875,0.13934326171875
100454,-0.0870208740234375,-0.5050506591796875,0.169952392578125
100455,-0.0350341796875,-0.6495361328125,0.151397705078125
100456,0.00726318359375,-0.7577362060546875,0.0626983642578125
100457,-0.017669677734375,-0.7941741943359375,-0.095306396484375
100458,-0.2527313232421875,-0.92718505859375,-0.486480712890625
100459,-0.2527313232421875,-0.92718505859375,-0.486480712890625
100460,-0.4323883056640625,-1.211029052734375,-0.6778411865234375
100461,-0.671600341796875,-1.725631713867188,-0.6328277587890625
100462,-0.9554443359375,-2.386306762695312,-0.47637939453125
100463,-1.21685791015625,-3.0140380859375,-0.49932861328125
100464,-1.351638793945312,-3.410125732421875,-0.618988037109375
100465,-1.313262939453125,-3.45318603515625,-0.66510009765625
100466,-1.001983642578125,-3.018295288085938,-0.515533447265625
100467,-0.57073974609375,-2.24542236328125,-0.230865478515625
100468,-0.378997802734375,-1.683547973632812,-0.1272735595703125
100469,-0.39971923828125,-1.298797607421875,-0.090057373046875
100470,-0.488922119140625,-0.9752349853515624,-0.0689544677734375
100471,-0.5839691162109375,-0.7656707763671875,-0.045562744140625
100472,-0.6021881103515625,-0.680999755859375,0.0340728759765625
100473,-0.527587890625,-0.6504669189453125,0.1192169189453125
100474,-0.389129638671875,-0.584503173828125,0.1905059814453125
100475,-0.2513427734375,-0.5279998779296875,0.2041473388671875
100476,-0.1457061767578125,-0.4479827880859375,0.177215576171875
100477,-0.0528564453125,-0.3454742431640625,0.1422882080078125
100478,0.027313232421875,-0.2460174560546875,0.1231231689453125
100479,0.0840301513671875,-0.1585235595703125,0.163909912109375
100480,0.136810302734375,-0.0687713623046875,0.2331695556640625
100481,0.2015228271484375,0.018707275390625,0.334686279296875
100482,0.2986297607421875,0.05615234375,0.4637908935546875
100483,0.3834991455078125,-0.0070343017578125,0.55487060546875
100484,0.38092041015625,-0.1761322021484375,0.5425567626953125
100485,0.236114501953125,-0.277587890625,0.474761962890625
100486,0.0910491943359375,-0.2046356201171875,0.309539794921875
100487,0.0910491943359375,-0.2046356201171875,0.309539794921875
100488,0.1237335205078125,-0.1388702392578125,0.1245269775390625
100489,0.117828369140625,-0.166229248046875,0.1322174072265625
100490,0.0965118408203125,-0.1902313232421875,0.054931640625
100491,0.0877227783203125,-0.227142333984375,-0.0899200439453125
100492,0.0661468505859375,-0.26715087890625,-0.1457672119140625
100493,-0.006683349609375,-0.2933502197265625,-0.077911376953125
100494,-0.100494384765625,-0.2982635498046875,0.006011962890625
100495,-0.100494384765625,-0.2982635498046875,0.006011962890625
100496,-0.272857666015625,-0.361572265625,0.1744232177734375
100497,-0.3217620849609375,-0.4884185791015625,0.1231231689453125
100498,-0.3395233154296875,-0.7422943115234375,0.07000732421875
100499,-0.357391357421875,-1.124618530273438,0.00537109375
100500,-0.403350830078125,-1.5843505859375,-0.0888824462890625
100501,-0.4941253662109375,-2.135986328125,-0.24871826171875
100502,-0.6463623046875,-2.913055419921875,-0.4044647216796875
100503,-0.852783203125,-3.836883544921875,-0.48150634765625
100504,-1.047027587890625,-4.439926147460938,-0.3969268798828125
100505,-1.187225341796875,-4.264190673828125,0.0995635986328125
100506,-1.16180419921875,-3.515548706054688,0.514801025390625
100507,-0.6596221923828125,-2.783111572265625,0.6646881103515625
100508,-0.204376220703125,-2.15435791015625,0.8720550537109375
100509,0.0569305419921875,-1.776519775390625,1.05401611328125
100510,0.2536163330078125,-1.620193481445312,0.8024749755859375
100511,0.2536163330078125,-1.620193481445312,0.8024749755859375
100512,0.1939239501953125,-1.566024780273438,0.579315185546875
100513,0.062164306640625,-1.4859619140625,0.4712677001953125
100514,-0.0346832275390625,-1.422027587890625,0.395233154296875
100515,-0.035064697265625,-1.345245361328125,0.350677490234375
100516,0.0147857666015625,-1.2154541015625,0.341339111328125
100517,0.0564117431640625,-1.065536499023438,0.34686279296875
100518,0.06427001953125,-0.8958740234375,0.3225555419921875
100519,0.056121826171875,-0.7106475830078125,0.2642364501953125
100520,0.0524139404296875,-0.542755126953125,0.2000885009765625
100521,0.066314697265625,-0.3856048583984375,0.1522369384765625
100522,0.10400390625,-0.2345123291015625,0.1445159912109375
100523,0.147216796875,-0.1064605712890625,0.1800689697265625
100524,0.1796417236328125,0.0067291259765625,0.2213134765625
100525,0.1947784423828125,0.113372802734375,0.209686279296875
100526,0.1763763427734375,0.175323486328125,0.1179046630859375
100527,0.130523681640625,0.1913604736328125,-0.0039520263671875
100528,0.097198486328125,0.1752166748046875,-0.0419921875
100529,0.07537841796875,0.13720703125,-0.0433807373046875
100530,0.03851318359375,0.0749359130859375,-0.0686798095703125
100531,-0.0055084228515625,0.0235595703125,-0.108001708984375
100532,-0.05126953125,-0.0047760009765625,-0.085968017578125
100533,-0.096893310546875,-0.039306640625,-0.011260986328125
100534,-0.1514892578125,-0.27392578125,0.1512451171875
100535,-0.1514892578125,-0.27392578125,0.1512451171875
100536,-0.0860137939453125,-0.43182373046875,0.13629150390625
100537,-0.0305023193359375,-0.583526611328125,0.1376495361328125
100538,-0.0034637451171875,-0.722991943359375,0.079315185546875
100539,-0.0335540771484375,-0.8231964111328125,-0.122100830078125
100540,-0.1142578125,-0.9444427490234376,-0.369415283203125
100541,-0.218719482421875,-1.136947631835938,-0.6223907470703125
100542,-0.3594970703125,-1.427749633789062,-0.7839813232421875
100543,-0.5407257080078125,-1.808975219726562,-0.730255126953125
100544,-0.784912109375,-2.234329223632812,-0.6694183349609375
100545,-1.018829345703125,-2.633010864257812,-0.6808013916015625
100546,-1.12921142578125,-2.87957763671875,-0.766510009765625
100547,-1.11614990234375,-2.993896484375,-0.8953704833984375
100548,-1.051437377929688,-3.013458251953125,-0.950164794921875
100549,-0.7796630859375,-2.655670166015625,-0.7193145751953125
100550,-0.511199951171875,-1.976287841796875,-0.33551025390625
100551,-0.5032958984375,-1.534835815429688,-0.000946044921875
100552,-0.5719757080078125,-1.205657958984375,0.18505859375
100553,-0.6115264892578125,-0.95074462890625,0.239013671875
100554,-0.55853271484375,-0.82318115234375,0.2066192626953125
100555,-0.43792724609375,-0.735809326171875,0.16455078125
100556,-0.3011932373046875,-0.624176025390625,0.1402740478515625
100557,-0.172698974609375,-0.4913330078125,0.1163330078125
100558,-0.0523681640625,-0.3531341552734375,0.1112518310546875
100559,0.050628662109375,-0.21966552734375,0.112548828125
100560,0.136962890625,-0.1001434326171875,0.1272125244140625
100561,0.208282470703125,-0.0010986328125,0.1612701416015625
100562,0.251678466796875,0.0960845947265625,0.2161712646484375
100563,0.2639923095703125,0.1802520751953125,0.2542724609375
100564,0.2664794921875,0.21917724609375,0.273773193359375
100565,0.2593536376953125,0.156829833984375,0.3318939208984375
100566,0.2244873046875,-0.0162200927734375,0.374298095703125
100567,0.19580078125,-0.134796142578125,0.339813232421875
100568,0.16107177734375,-0.23272705078125,0.278900146484375
100569,0.1084442138671875,-0.2972564697265625,0.1430816650390625
100570,0.067169189453125,-0.3042449951171875,0.0532989501953125
100571,0.0419769287109375,-0.2968292236328125,0.0017852783203125
100572,0.004241943359375,-0.3079681396484375,-0.0409088134765625
100573,-0.029510498046875,-0.3172454833984375,-0.0341796875
100574,-0.0428619384765625,-0.3013763427734375,-0.08355712890625
100575,-0.0609588623046875,-0.245025634765625,-0.1698455810546875
100576,-0.118194580078125,-0.198211669921875,-0.1466217041015625
100577,-0.17779541015625,-0.1638946533203125,-0.10546875
100578,-0.211578369140625,-0.1645050048828125,-0.0756072998046875
100579,-0.2123870849609375,-0.31939697265625,0.0276031494140625
100580,-0.22601318359375,-0.633941650390625,0.14825439453125
100581,-0.25396728515625,-1.073455810546875,0.1788177490234375
100582,-0.31829833984375,-1.699920654296875,0.091766357421875
100583,-0.3857269287109375,-2.557403564453125,-0.1465606689453125
100584,-0.483978271484375,-3.614044189453125,-0.349273681640625
100585,-0.7903594970703125,-4.378204345703125,-0.515045166015625
100586,-1.131683349609375,-4.362167358398438,-0.4491119384765625
100587,-1.328384399414062,-3.79168701171875,0.0763702392578125
100588,-1.090576171875,-3.100479125976562,0.38580322265625
100589,-0.50860595703125,-2.542388916015625,0.479156494140625
100590,-0.1551055908203125,-2.186264038085938,0.675323486328125
100591,0.07098388671875,-1.972091674804688,0.865447998046875
100592,0.226593017578125,-1.82977294921875,0.911224365234375
100593,0.276763916015625,-1.688888549804688,0.7642669677734375
100594,0.052215576171875,-1.50146484375,0.3390350341796875
100595,0.052215576171875,-1.50146484375,0.3390350341796875
100596,-0.0278167724609375,-1.483383178710938,0.29345703125
100597,-0.0299072265625,-1.423355102539062,0.282958984375
100598,0.0037078857421875,-1.313156127929688,0.281005859375
100599,0.040863037109375,-1.146652221679688,0.2490997314453125
100600,0.062347412109375,-0.951751708984375,0.1957244873046875
100601,0.05633544921875,-0.7486114501953125,0.123870849609375
100602,0.037567138671875,-0.554229736328125,0.06304931640625
100603,0.037567138671875,-0.554229736328125,0.06304931640625
100604,0.0616302490234375,-0.21038818359375,0.08856201171875
100605,0.0886688232421875,-0.076446533203125,0.1169586181640625
100606,0.0986785888671875,0.031707763671875,0.147247314453125
100607,0.09222412109375,0.1432647705078125,0.153778076171875
100608,0.0779266357421875,0.2273712158203125,0.125457763671875
100609,0.056671142578125,0.273773193359375,0.04443359375
100610,0.0227203369140625,0.296173095703125,-0.041900634765625
100611,-0.0032806396484375,0.3060302734375,-0.041046142578125
100612,-0.0178985595703125,0.2727203369140625,-0.0037384033203125
100613,-0.04742431640625,0.1867218017578125,0.003662109375
100614,-0.1245574951171875,-0.0667572021484375,0.0501861572265625
100615,-0.1245574951171875,-0.0667572021484375,0.0501861572265625
100616,-0.1160736083984375,-0.2540283203125,0.1033782958984375
100617,-0.065673828125,-0.4346923828125,0.160247802734375
100618,-0.0053558349609375,-0.592315673828125,0.2305450439453125
100619,0.0507659912109375,-0.6801300048828125,0.1157989501953125
100620,0.09881591796875,-0.73876953125,-0.0257110595703125
100621,0.0798492431640625,-0.8062744140625,-0.1530914306640625
100622,-0.0155181884765625,-0.896209716796875,-0.3309326171875
100623,-0.1363677978515625,-1.082000732421875,-0.4438018798828125
100624,-0.3088836669921875,-1.508499145507812,-0.4866485595703125
100625,-0.6051025390625,-2.113143920898438,-0.4449920654296875
100626,-0.90771484375,-2.671798706054688,-0.4942474365234375
100627,-1.10260009765625,-3.072723388671875,-0.656982421875
100628,-1.23114013671875,-3.262222290039062,-0.8529815673828125
100629,-1.27532958984375,-3.236312866210938,-0.9069061279296876
100630,-1.125823974609375,-2.946945190429688,-0.7537384033203125
100631,-0.7862091064453125,-2.345855712890625,-0.47955322265625
100632,-0.5846099853515625,-1.737518310546875,-0.243011474609375
100633,-0.5366973876953125,-1.314849853515625,-0.100433349609375
100634,-0.554840087890625,-0.9859619140625,0.005615234375
100635,-0.6010589599609375,-0.77520751953125,0.068878173828125
100636,-0.5970306396484375,-0.6414947509765625,0.100372314453125
100637,-0.512481689453125,-0.54766845703125,0.1618499755859375
100638,-0.387176513671875,-0.4603424072265625,0.2005615234375
100639,-0.2704620361328125,-0.3568572998046875,0.2089996337890625
100640,-0.1715240478515625,-0.2503662109375,0.1876983642578125
100641,-0.0779876708984375,-0.146728515625,0.1492156982421875
100642,0.08001708984375,0.021728515625,0.117645263671875
100643,0.08001708984375,0.021728515625,0.117645263671875
100644,0.1293182373046875,0.0938873291015625,0.176361083984375
100645,0.1639251708984375,0.14971923828125,0.2534637451171875
100646,0.2255706787109375,0.2019805908203125,0.3303375244140625
100647,0.314666748046875,0.181365966796875,0.3736724853515625
100648,0.35711669921875,0.052703857421875,0.359130859375
100649,0.31085205078125,-0.108856201171875,0.3776397705078125
100650,0.125762939453125,-0.27276611328125,0.2198028564453125
100651,0.125762939453125,-0.27276611328125,0.2198028564453125
100652,0.0405120849609375,-0.2693328857421875,0.0602264404296875
100653,-0.0144195556640625,-0.261627197265625,-0.03546142578125
100654,-0.07318115234375,-0.2640228271484375,-0.097320556640625
100655,-0.1300048828125,-0.2823486328125,-0.0716705322265625
100656,-0.1558074951171875,-0.3056488037109375,-0.0224609375
100657,-0.145294189453125,-0.3026275634765625,-0.033599853515625
100658,-0.14300537109375,-0.2864532470703125,-0.0337677001953125
100659,-0.157318115234375,-0.29595947265625,-0.01263427734375
100660,-0.1759033203125,-0.374114990234375,0.0481414794921875
100661,-0.18829345703125,-0.5454559326171875,0.1611328125
100662,-0.2014923095703125,-0.8498382568359375,0.2926177978515625
100663,-0.226776123046875,-1.268035888671875,0.398193359375
100664,-0.3057861328125,-1.776885986328125,0.3336181640625
100665,-0.435211181640625,-2.353485107421875,0.001434326171875
100666,-0.59100341796875,-3.005264282226562,-0.2435455322265625
100667,-0.7866668701171875,-3.582122802734375,-0.3103179931640625
100668,-1.014205932617188,-3.863601684570312,-0.2753143310546875
100669,-1.24200439453125,-3.748733520507812,-0.1524200439453125
100670,-1.295913696289062,-3.312026977539062,0.0538330078125
100671,-0.930450439453125,-2.818038940429688,0.230712890625
100672,-0.4329986572265625,-2.366790771484375,0.4115753173828125
100673,-0.0953826904296875,-2.053314208984375,0.601715087890625
100674,0.127532958984375,-1.857467651367188,0.763580322265625
100675,0.2458038330078125,-1.721282958984375,0.758758544921875
100676,0.2362060546875,-1.600799560546875,0.569427490234375
100677,0.1390228271484375,-1.542129516601562,0.3931121826171875
100678,0.0455780029296875,-1.520462036132812,0.3321990966796875
100679,0.0110931396484375,-1.453903198242188,0.3277130126953125
100680,0.022125244140625,-1.341232299804688,0.350006103515625
100681,0.0387115478515625,-1.1966552734375,0.341033935546875
100682,0.0350341796875,-1.031890869140625,0.2779998779296875
100683,0.0088348388671875,-0.8562164306640625,0.1816253662109375
100684,-0.0184783935546875,-0.6717529296875,0.100006103515625
100685,-0.015777587890625,-0.4875030517578125,0.059814453125
100686,0.0179290771484375,-0.320556640625,0.055206298828125
100687,0.0562286376953125,-0.1712646484375,0.0584259033203125
100688,0.0862274169921875,-0.0391998291015625,0.078399658203125
100689,0.11529541015625,0.105224609375,0.13348388671875
100690,0.1339569091796875,0.2287750244140625,0.1385040283203125
100691,0.1275787353515625,0.3108062744140625,0.078369140625
100692,0.1152496337890625,0.3573455810546875,0.01885986328125
100693,0.113861083984375,0.3701324462890625,-0.00225830078125
100694,0.106201171875,0.3413543701171875,-0.0277557373046875
100695,0.0778961181640625,0.27337646484375,-0.0986785888671875
100696,0.0422821044921875,0.171234130859375,-0.12506103515625
100697,-0.020233154296875,0.03289794921875,-0.06951904296875
100698,-0.1101531982421875,-0.16168212890625,0.0338134765625
100699,-0.1607208251953125,-0.3409423828125,0.0791168212890625
100700,-0.1455078125,-0.4815826416015625,0.0724945068359375
100701,-0.115753173828125,-0.614013671875,0.033050537109375
100702,-0.1599578857421875,-0.8026123046875,-0.2472686767578125
100703,-0.1599578857421875,-0.8026123046875,-0.2472686767578125
100704,-0.258148193359375,-0.88604736328125,-0.4469757080078125
100705,-0.3660736083984375,-1.081573486328125,-0.5989837646484375
100706,-0.4918212890625,-1.453948974609375,-0.5969696044921875
100707,-0.652679443359375,-1.888900756835938,-0.4857940673828125
100708,-0.8227081298828125,-2.332229614257812,-0.446929931640625
100709,-0.9385223388671876,-2.76812744140625,-0.5507354736328125
100710,-0.89971923828125,-3.146881103515625,-0.59619140625
100711,-0.7637176513671875,-3.333953857421875,-0.664459228515625
100712,-0.49853515625,-3.098922729492188,-0.679595947265625
100713,-0.194305419921875,-2.48504638671875,-0.510772705078125
100714,-0.225494384765625,-1.444778442382812,-0.1188201904296875
100715,-0.225494384765625,-1.444778442382812,-0.1188201904296875
100716,-0.3976593017578125,-1.082626342773438,0.005218505859375
100717,-0.510894775390625,-0.881561279296875,0.0506439208984375
100718,-0.5289306640625,-0.7743377685546875,0.0586090087890625
100719,-0.500579833984375,-0.6696014404296875,0.068023681640625
100720,-0.4359588623046875,-0.551788330078125,0.10296630859375
100721,-0.3313140869140625,-0.4286956787109375,0.14263916015625
100722,-0.1949462890625,-0.3255615234375,0.16192626953125
100723,-0.0670623779296875,-0.234283447265625,0.159637451171875
100724,0.0394439697265625,-0.1395721435546875,0.15960693359375
100725,0.12420654296875,-0.040679931640625,0.1796722412109375
100726,0.185089111328125,0.05889892578125,0.208831787109375
100727,0.2545623779296875,0.165008544921875,0.2392578125
100728,0.3648529052734375,0.24334716796875,0.2877655029296875
100729,0.4912567138671875,0.2675628662109375,0.340087890625
100730,0.5445709228515625,0.1636505126953125,0.342987060546875
100731,0.4375152587890625,-0.0612640380859375,0.3875885009765625
100732,0.2538604736328125,-0.1960296630859375,0.43682861328125
100733,0.127227783203125,-0.29345703125,0.30859375
100734,-0.0931396484375,-0.3405609130859375,0.0095367431640625
100735,-0.0931396484375,-0.3405609130859375,0.0095367431640625
100736,-0.2085418701171875,-0.3328399658203125,0.1061859130859375
100737,-0.300140380859375,-0.3366546630859375,0.065887451171875
100738,-0.29864501953125,-0.28564453125,-0.2048797607421875
100739,-0.29864501953125,-0.28564453125,-0.2048797607421875
100740,-0.291351318359375,-0.326019287109375,-0.1843719482421875
100741,-0.3037567138671875,-0.3427581787109375,-0.1604156494140625
100742,-0.2633819580078125,-0.60931396484375,0.0811920166015625
100743,-0.20562744140625,-0.95770263671875,0.2345123291015625
100744,-0.20562744140625,-0.95770263671875,0.2345123291015625
100745,-0.1976165771484375,-1.360992431640625,0.230743408203125
100746,-0.25469970703125,-1.928619384765625,-0.008087158203125
100747,-0.336029052734375,-2.724777221679688,-0.3485107421875
100748,-0.5270843505859375,-3.666656494140625,-0.5568389892578125
100749,-0.867889404296875,-4.202957153320312,-0.6706390380859375
100750,-1.318923950195312,-3.468734741210938,0.0514984130859375
100751,-1.318923950195312,-3.468734741210938,0.0514984130859375
100752,-1.098037719726562,-2.805419921875,0.2713623046875
100753,-0.5904998779296875,-2.340606689453125,0.383575439453125
100754,-0.2446746826171875,-2.028961181640625,0.5954437255859375
100755,-0.0126953125,-1.8206787109375,0.8551483154296875
100756,0.1437530517578125,-1.674667358398438,0.85345458984375
100757,0.180572509765625,-1.54925537109375,0.6432037353515625
100758,0.146514892578125,-1.463729858398438,0.4632110595703125
100759,0.0862884521484375,-1.466278076171875,0.3436279296875
100760,0.038421630859375,-1.48388671875,0.2591705322265625
100761,0.0352020263671875,-1.445236206054688,0.223358154296875
100762,0.0504913330078125,-1.338287353515625,0.2024383544921875
100763,0.0643157958984375,-1.172271728515625,0.187530517578125
100764,0.06475830078125,-0.9871826171875,0.176177978515625
100765,0.0528717041015625,-0.7905731201171875,0.1493988037109375
100766,0.040435791015625,-0.6038055419921875,0.1229095458984375
100767,0.042449951171875,-0.4258575439453125,0.1201171875
100768,0.055755615234375,-0.2734832763671875,0.134979248046875
100769,0.078125,-0.1580657958984375,0.1431121826171875
100770,0.100738525390625,-0.0463104248046875,0.1613006591796875
100771,0.1233673095703125,0.0662994384765625,0.18499755859375
100772,0.139190673828125,0.1633758544921875,0.16046142578125
100773,0.1390228271484375,0.22760009765625,0.1006317138671875
100774,0.12957763671875,0.2761383056640625,0.0556793212890625
100775,0.121856689453125,0.3020477294921875,0.047271728515625
100776,0.115997314453125,0.29248046875,0.0519866943359375
100777,0.10833740234375,0.22930908203125,0.02947998046875
100778,0.091094970703125,0.124603271484375,0.028778076171875
100779,0.0606536865234375,-0.0489349365234375,0.052734375
100780,0.048126220703125,-0.2484130859375,0.0936126708984375
100781,0.04119873046875,-0.393707275390625,0.1293487548828125
100782,0.023468017578125,-0.5824127197265625,-0.0100860595703125
100783,0.023468017578125,-0.5824127197265625,-0.0100860595703125
100784,-0.0073394775390625,-0.64605712890625,-0.142913818359375
100785,-0.09625244140625,-0.704376220703125,-0.3441314697265625
100786,-0.2470245361328125,-0.8430328369140625,-0.5272369384765625
100787,-0.481231689453125,-1.157135009765625,-0.6399688720703125
100788,-0.802978515625,-1.707611083984375,-0.678314208984375
100789,-1.135040283203125,-2.416610717773438,-0.600982666015625
100790,-1.431976318359375,-3.175567626953125,-0.5080718994140625
100791,-1.662322998046875,-3.641830444335938,-0.6899871826171875
100792,-1.754837036132812,-3.669815063476562,-0.875640869140625
100793,-1.387496948242188,-3.215133666992188,-0.6514434814453125
100794,-0.3957061767578125,-1.815032958984375,-0.134368896484375
100795,-0.3957061767578125,-1.815032958984375,-0.134368896484375
100796,-0.213348388671875,-1.396163940429688,-0.044708251953125
100797,-0.154266357421875,-1.076461791992188,0.0048980712890625
100798,-0.18011474609375,-0.7924041748046875,0.0658111572265625
100799,-0.281951904296875,-0.607391357421875,0.120635986328125
100800,-0.3690643310546875,-0.530181884765625,0.1557464599609375
100801,-0.3677978515625,-0.5015716552734375,0.1749725341796875
100802,-0.2947235107421875,-0.4679107666015625,0.184814453125
100803,-0.1969146728515625,-0.3976287841796875,0.1889495849609375
100804,-0.1090545654296875,-0.3258819580078125,0.1824798583984375
100805,-0.031463623046875,-0.2442779541015625,0.1500396728515625
100806,0.038848876953125,-0.1643524169921875,0.124176025390625
100807,0.092620849609375,-0.08056640625,0.143157958984375
100808,0.1144866943359375,0.0065155029296875,0.196807861328125
100809,0.1206512451171875,0.08380126953125,0.2119140625
100810,0.1257476806640625,0.1488037109375,0.1998138427734375
100811,0.1428070068359375,0.1990966796875,0.233123779296875
100812,0.1419830322265625,0.1608428955078125,0.2601470947265625
100813,0.1129150390625,0.0365447998046875,0.2530670166015625
100814,0.0833892822265625,-0.0501708984375,0.2406158447265625
100815,0.0586700439453125,-0.11151123046875,0.1924896240234375
100816,0.0525970458984375,-0.1592559814453125,0.1175994873046875
100817,0.052642822265625,-0.2354278564453125,0.0330352783203125
100818,0.0114898681640625,-0.3272247314453125,-0.0825958251953125
100819,-0.0429534912109375,-0.346435546875,-0.1616058349609375
100820,-0.064605712890625,-0.333160400390625,-0.1832427978515625
100821,-0.0896759033203125,-0.312164306640625,-0.21685791015625
100822,-0.1562347412109375,-0.296875,-0.244476318359375
100823,-0.2324066162109375,-0.3003387451171875,-0.1553802490234375
100824,-0.28607177734375,-0.3707733154296875,0.03314208984375
100825,-0.3253326416015625,-0.6210784912109375,0.193756103515625
100826,-0.3150787353515625,-1.010818481445312,0.390380859375
100827,-0.254547119140625,-1.5126953125,0.50244140625
100828,-0.2369842529296875,-2.06439208984375,0.3209991455078125
100829,-0.276092529296875,-2.60626220703125,-0.02386474609375
100830,-0.5628814697265625,-3.703369140625,-0.3070831298828125
100831,-0.5628814697265625,-3.703369140625,-0.3070831298828125
100832,-0.85345458984375,-3.82574462890625,-0.1566314697265625
100833,-1.0787353515625,-3.639328002929688,0.0963287353515625
100834,-1.059661865234375,-3.34173583984375,0.311431884765625
100835,-0.7237091064453125,-2.915435791015625,0.4498291015625
100836,-0.3314361572265625,-2.405715942382812,0.6336212158203125
100837,-0.028656005859375,-2.046524047851562,0.7763824462890625
100838,0.2122802734375,-1.878173828125,0.809967041015625
100839,0.3139495849609375,-1.769851684570312,0.617950439453125
100840,0.2315521240234375,-1.69378662109375,0.4293212890625
100841,0.07574462890625,-1.623184204101562,0.4264373779296875
100842,-4.57763671875e-05,-1.525772094726562,0.40155029296875
100843,0.0162353515625,-1.404464721679688,0.34967041015625
100844,0.0681610107421875,-1.256301879882812,0.27532958984375
100845,0.0921478271484375,-1.090301513671875,0.1689910888671875
100846,0.085479736328125,-0.9039764404296876,0.0711669921875
100847,0.0684814453125,-0.7051849365234375,-0.002197265625
100848,0.055816650390625,-0.4971160888671875,-0.0349273681640625
100849,0.059906005859375,-0.3004302978515625,-0.037261962890625
100850,0.098846435546875,0.0307159423828125,0.0779571533203125
100851,0.098846435546875,0.0307159423828125,0.0779571533203125
100852,0.117034912109375,0.1749420166015625,0.1380462646484375
100853,0.131866455078125,0.2934112548828125,0.1422576904296875
100854,0.14508056640625,0.387420654296875,0.1279144287109375
100855,0.1435699462890625,0.4370269775390625,0.099884033203125
100856,0.1309051513671875,0.4282684326171875,0.069915771484375
100857,0.1067962646484375,0.3704833984375,0.0501708984375
100858,0.05364990234375,0.2592620849609375,0.0245361328125
100859,-0.03936767578125,0.0846710205078125,-0.019012451171875
100860,-0.1518096923828125,-0.1214752197265625,-0.0111846923828125
100861,-0.24298095703125,-0.3114166259765625,0.0780181884765625
100862,-0.2384490966796875,-0.47882080078125,0.147491455078125
100863,-0.149566650390625,-0.5926666259765625,0.146148681640625
100864,-0.0554656982421875,-0.6670379638671875,0.127044677734375
100865,0.025238037109375,-0.687042236328125,0.0413665771484375
100866,-0.021148681640625,-0.7373046875,-0.29742431640625
100867,-0.021148681640625,-0.7373046875,-0.29742431640625
100868,-0.10858154296875,-0.8387908935546875,-0.41168212890625
100869,-0.22442626953125,-1.017120361328125,-0.549896240234375
100870,-0.4032745361328125,-1.351715087890625,-0.7183685302734375
100871,-0.6822509765625,-1.918365478515625,-0.725372314453125
100872,-1.023666381835938,-2.6773681640625,-0.546966552734375
100873,-1.291900634765625,-3.448455810546875,-0.3765716552734375
100874,-1.416549682617188,-3.840545654296875,-0.6360015869140625
100875,-1.29705810546875,-3.52557373046875,-0.8839569091796875
100876,-0.829437255859375,-2.8206787109375,-0.564605712890625
100877,-0.43975830078125,-2.107376098632812,-0.2878265380859375
100878,-0.2861175537109375,-1.59228515625,-0.1981353759765625
100879,-0.28411865234375,-1.203277587890625,-0.01904296875
100880,-0.4022369384765625,-0.8948211669921875,0.167266845703125
100881,-0.5220184326171875,-0.742523193359375,0.249237060546875
100882,-0.5548858642578125,-0.6907958984375,0.21978759765625
100883,-0.5110015869140625,-0.62994384765625,0.194976806640625
100884,-0.4216766357421875,-0.5463714599609375,0.1692352294921875
100885,-0.3104248046875,-0.4518890380859375,0.139892578125
100886,-0.1965179443359375,-0.355560302734375,0.121795654296875
100887,-0.0982208251953125,-0.2584228515625,0.1223602294921875
100888,-0.023895263671875,-0.1577606201171875,0.1263885498046875
100889,0.0376434326171875,-0.059661865234375,0.1196441650390625
100890,0.0854034423828125,0.0454864501953125,0.1385345458984375
100891,0.1250152587890625,0.1535491943359375,0.1959228515625
100892,0.1535186767578125,0.2621917724609375,0.225189208984375
100893,0.1838531494140625,0.3437957763671875,0.20147705078125
100894,0.230743408203125,0.3883819580078125,0.1710968017578125
100895,0.2823486328125,0.3767242431640625,0.181396484375
100896,0.2786865234375,0.2473602294921875,0.2617645263671875
100897,0.248809814453125,0.0901947021484375,0.328857421875
100898,0.1816558837890625,-0.0657501220703125,0.2728118896484375
100899,0.093536376953125,-0.2126007080078125,0.1665191650390625
100900,0.027740478515625,-0.32635498046875,0.0748443603515625
100901,-0.052886962890625,-0.400634765625,-0.057037353515625
100902,-0.1699676513671875,-0.4351043701171875,-0.036285400390625
100903,-0.1699676513671875,-0.4351043701171875,-0.036285400390625
100904,-0.2170867919921875,-0.424591064453125,-0.038360595703125
100905,-0.266143798828125,-0.4083709716796875,-0.075836181640625
100906,-0.281463623046875,-0.4322509765625,-0.05487060546875
100907,-0.296417236328125,-0.5518646240234375,-0.017425537109375
100908,-0.3201446533203125,-0.81494140625,-0.0016632080078125
100909,-0.3606414794921875,-1.26934814453125,0.063201904296875
100910,-0.4409027099609375,-1.958847045898438,0.0674591064453125
100911,-0.553375244140625,-2.993072509765625,-0.1168975830078125
100912,-0.87371826171875,-4.143783569335938,-0.445770263671875
100913,-1.3658447265625,-4.696029663085938,-0.7457733154296875
100914,-1.66656494140625,-4.32391357421875,-0.2630767822265625
100915,-1.698928833007812,-3.443099975585938,0.3640899658203125
100916,-1.113113403320312,-2.784164428710938,0.5648956298828125
100917,-0.4086456298828125,-2.353805541992188,0.6910858154296875
100918,-0.037445068359375,-2.11212158203125,0.954498291015625
100919,0.1892852783203125,-1.953201293945312,1.027587890625
100920,0.290679931640625,-1.766571044921875,0.8345794677734375
100921,0.2585906982421875,-1.55767822265625,0.6065673828125
100922,0.1284027099609375,-1.446884155273438,0.442962646484375
100923,-0.0045013427734375,-1.409652709960938,0.3465118408203125
100924,-0.083984375,-1.379241943359375,0.3292999267578125
100925,-0.1173553466796875,-1.313278198242188,0.36810302734375
100926,-0.1338653564453125,-1.196868896484375,0.3665924072265625
100927,-0.1475677490234375,-1.021926879882812,0.3150482177734375
100928,-0.1612091064453125,-0.81982421875,0.2264251708984375
100929,-0.1690673828125,-0.6204376220703125,0.150177001953125
100930,-0.1526336669921875,-0.4303131103515625,0.1101226806640625
100931,-0.096832275390625,-0.2532806396484375,0.1045074462890625
100932,-0.0201263427734375,-0.1096343994140625,0.1175994873046875
100933,0.0546112060546875,0.0151214599609375,0.1584930419921875
100934,0.1093902587890625,0.11676025390625,0.188140869140625
100935,0.151336669921875,0.2167816162109375,0.152679443359375
100936,0.1669769287109375,0.2906341552734375,0.054229736328125
100937,0.171173095703125,0.349517822265625,-0.004364013671875
100938,0.1822967529296875,0.3822479248046875,0.026641845703125
100939,0.1926727294921875,0.3695831298828125,0.057037353515625
100940,0.167022705078125,0.289886474609375,-0.0082550048828125
100941,0.121185302734375,0.16778564453125,-0.0742034912109375
100942,0.061492919921875,0.018768310546875,-0.04571533203125
100943,0.061492919921875,0.018768310546875,-0.04571533203125
100944,-0.050201416015625,-0.3054962158203125,0.088714599609375
100945,-0.0518646240234375,-0.427520751953125,0.1303558349609375
100946,-0.04974365234375,-0.5437164306640625,0.15283203125
100947,-0.0670166015625,-0.621734619140625,0.113739013671875
100948,-0.1353912353515625,-0.674774169921875,-0.020172119140625
100949,-0.247100830078125,-0.71142578125,-0.2934722900390625
100950,-0.36968994140625,-0.84918212890625,-0.51885986328125
100951,-0.5354156494140625,-1.187576293945312,-0.5947418212890625
100952,-0.7453460693359375,-1.7259521484375,-0.5433502197265625
100953,-0.99786376953125,-2.3848876953125,-0.5141143798828125
100954,-1.222763061523438,-3.105438232421875,-0.493316650390625
100955,-1.341659545898438,-3.679153442382812,-0.5906219482421875
100956,-1.319198608398438,-3.800384521484375,-0.6639556884765625
100957,-1.011215209960938,-3.197952270507812,-0.4806976318359375
100958,-0.3767547607421875,-1.656051635742188,-0.2465362548828125
100959,-0.3767547607421875,-1.656051635742188,-0.2465362548828125
100960,-0.2966766357421875,-1.283432006835938,-0.23492431640625
100961,-0.315704345703125,-1.026809692382812,-0.1661834716796875
100962,-0.432281494140625,-0.82806396484375,-0.09014892578125
100963,-0.5893707275390625,-0.675048828125,-0.0409088134765625
100964,-0.6604156494140625,-0.6048431396484375,0.0046234130859375
100965,-0.63677978515625,-0.5302734375,0.0486907958984375
100966,-0.555755615234375,-0.4340667724609375,0.0751495361328125
100967,-0.4429168701171875,-0.3170318603515625,0.09356689453125
100968,-0.3092498779296875,-0.215545654296875,0.1010894775390625
100969,-0.177886962890625,-0.12652587890625,0.097930908203125
100970,-0.0537872314453125,-0.047088623046875,0.1128997802734375
100971,0.0548553466796875,0.024658203125,0.1317901611328125
100972,0.1448974609375,0.080322265625,0.1536407470703125
100973,0.23590087890625,0.127044677734375,0.2020111083984375
100974,0.354827880859375,0.175567626953125,0.2762298583984375
100975,0.4789276123046875,0.1897735595703125,0.2961578369140625
100976,0.5599212646484375,0.1230621337890625,0.2551422119140625
100977,0.512359619140625,-0.0695343017578125,0.246551513671875
100978,0.3028717041015625,-0.2217864990234375,0.28350830078125
100979,0.1027679443359375,-0.2863922119140625,0.1758880615234375
100980,-0.0205841064453125,-0.32733154296875,0.0373992919921875
100981,-0.0962677001953125,-0.33447265625,-0.0608367919921875
100982,-0.1690826416015625,-0.313629150390625,-0.1483306884765625
100983,-0.2277374267578125,-0.3099365234375,-0.1400604248046875
100984,-0.24505615234375,-0.350982666015625,-0.0694427490234375
100985,-0.2485198974609375,-0.38818359375,-0.1035003662109375
100986,-0.2319793701171875,-0.3778076171875,-0.2040863037109375
100987,-0.194915771484375,-0.4347381591796875,-0.162628173828125
100988,-0.155120849609375,-0.555511474609375,-0.051239013671875
100989,-0.140869140625,-0.7249908447265625,0.0723114013671875
100990,-0.1366729736328125,-1.004501342773438,0.146820068359375
100991,-0.121978759765625,-1.436553955078125,0.204132080078125
100992,-0.1084136962890625,-2.185165405273438,0.22711181640625
100993,-0.1858978271484375,-3.234649658203125,0.0301971435546875
100994,-0.4620361328125,-4.0909423828125,-0.3639678955078125
100995,-0.7997283935546875,-4.273895263671875,-0.3955535888671875
100996,-1.067138671875,-3.711456298828125,-0.069580078125
100997,-1.079849243164062,-2.9400634765625,0.0977935791015625
100998,-0.7270965576171875,-2.41888427734375,0.2411956787109375
100999,-0.43377685546875,-2.065902709960938,0.5882415771484375
101000,-0.23065185546875,-1.893218994140625,0.849700927734375
101001,-0.0818328857421875,-1.833282470703125,0.8768157958984375
101002,0.0136260986328125,-1.75860595703125,0.546051025390625
101003,0.0136260986328125,-1.75860595703125,0.546051025390625
101004,0.046539306640625,-1.752914428710938,0.431182861328125
101005,0.0543212890625,-1.70849609375,0.3538055419921875
101006,0.03961181640625,-1.611083984375,0.3201904296875
101007,0.02099609375,-1.473098754882812,0.30694580078125
101008,0.0119781494140625,-1.306869506835938,0.2759246826171875
101009,-0.001312255859375,-1.117279052734375,0.2472991943359375
101010,-0.0201416015625,-0.9105987548828124,0.2170257568359375
101011,-0.031005859375,-0.707244873046875,0.1803741455078125
101012,-0.03173828125,-0.528045654296875,0.1439666748046875
101013,-0.0116424560546875,-0.3689727783203125,0.126495361328125
101014,0.027252197265625,-0.227203369140625,0.13824462890625
101015,0.0657501220703125,-0.08697509765625,0.1577301025390625
101016,0.10089111328125,0.0435943603515625,0.169464111328125
101017,0.128997802734375,0.1571807861328125,0.154754638671875
101018,0.1350860595703125,0.2439727783203125,0.0879058837890625
101019,0.1144561767578125,0.2996826171875,-0.0056304931640625
101020,0.107147216796875,0.3345794677734375,-0.029876708984375
101021,0.110687255859375,0.34747314453125,0.00054931640625
101022,0.0946807861328125,0.3359375,-0.0130157470703125
101023,0.075927734375,0.275146484375,-0.0430145263671875
101024,0.06158447265625,0.1526947021484375,-0.060211181640625
101025,0.0326690673828125,-0.0457305908203125,-0.0658111572265625
101026,0.0317535400390625,-0.2706146240234375,-0.07080078125
101027,0.0432281494140625,-0.4335784912109375,-0.1011962890625
101028,0.023406982421875,-0.5596923828125,-0.16400146484375
101029,-0.0402679443359375,-0.7416229248046875,-0.306915283203125
101030,-0.140106201171875,-0.9829864501953124,-0.4287872314453125
101031,-0.2810211181640625,-1.2813720703125,-0.4788360595703125
101032,-0.479248046875,-1.609115600585938,-0.601348876953125
101033,-0.747650146484375,-2.020339965820312,-0.7407989501953125
101034,-1.21905517578125,-2.900283813476562,-0.476287841796875
101035,-1.21905517578125,-2.900283813476562,-0.476287841796875
101036,-1.31243896484375,-3.041030883789062,-0.475982666015625
101037,-1.11767578125,-2.77557373046875,-0.53662109375
101038,-0.6534271240234375,-2.306121826171875,-0.4555206298828125
101039,-0.3272857666015625,-1.93536376953125,-0.4792633056640625
101040,-0.142822265625,-1.652572631835938,-0.5057373046875
101041,-0.0474090576171875,-1.451522827148438,-0.3616943359375
101042,-0.1592254638671875,-1.273681640625,-0.098724365234375
101043,-0.3813018798828125,-1.191421508789062,0.1172332763671875
101044,-0.4953460693359375,-1.112640380859375,0.139862060546875
101045,-0.4984893798828125,-0.9910888671875,0.1266937255859375
101046,-0.4499664306640625,-0.8435821533203125,0.1127777099609375
101047,-0.380279541015625,-0.700042724609375,0.1130218505859375
101048,-0.2899627685546875,-0.5250396728515625,0.1192474365234375
101049,-0.1996002197265625,-0.3581390380859375,0.133270263671875
101050,-0.113128662109375,-0.203765869140625,0.1528778076171875
101051,-0.021942138671875,-0.0767059326171875,0.1667327880859375
101052,0.0663299560546875,0.034637451171875,0.1724853515625
101053,0.1451873779296875,0.124755859375,0.1729736328125
101054,0.21099853515625,0.2151031494140625,0.192535400390625
101055,0.2786865234375,0.3084259033203125,0.2161865234375
101056,0.3311767578125,0.3556671142578125,0.183258056640625
101057,0.34356689453125,0.349273681640625,0.0707855224609375
101058,0.320220947265625,0.3087921142578125,-0.0669708251953125
101059,0.2566680908203125,0.2123870849609375,-0.1421966552734375
101060,0.1574249267578125,0.05999755859375,-0.11334228515625
101061,0.0550384521484375,-0.0577239990234375,-0.0935821533203125
101062,-0.015838623046875,-0.137786865234375,-0.1042633056640625
101063,-0.0464019775390625,-0.19415283203125,-0.0855712890625
101064,-0.07940673828125,-0.2259979248046875,-0.099853515625
101065,-0.1197509765625,-0.2827606201171875,-0.09808349609375
101066,-0.1743621826171875,-0.371734619140625,-0.0215301513671875
101067,-0.2388763427734375,-0.48663330078125,0.11962890625
101068,-0.224822998046875,-0.6246490478515625,0.229949951171875
101069,-0.185211181640625,-0.792572021484375,0.183807373046875
101070,-0.1619720458984375,-0.9842529296875,0.1507415771484375
101071,-0.1401824951171875,-1.232131958007812,0.206756591796875
101072,-0.1570281982421875,-1.598068237304688,0.13885498046875
101073,-0.1860504150390625,-2.249359130859375,-0.134521484375
101074,-0.23138427734375,-3.30181884765625,-0.2960052490234375
101075,-0.4742431640625,-4.22161865234375,-0.4445953369140625
101076,-0.8673858642578125,-4.435775756835938,-0.746856689453125
101077,-1.201736450195312,-3.911697387695312,-0.670501708984375
101078,-1.376327514648438,-3.133956909179688,-0.27740478515625
101079,-1.21417236328125,-2.532196044921875,0.1626434326171875
101080,-0.72955322265625,-2.220687866210938,0.4115142822265625
101081,-0.2649078369140625,-2.107223510742188,0.58929443359375
101082,0.00543212890625,-2.02569580078125,0.7682647705078125
101083,0.1520843505859375,-1.877288818359375,0.807342529296875
101084,0.1389312744140625,-1.72784423828125,0.5827484130859375
101085,0.0361328125,-1.561355590820312,0.368896484375
101086,-0.044403076171875,-1.249343872070312,0.2312774658203125
101087,-0.044403076171875,-1.249343872070312,0.2312774658203125
101088,-0.008270263671875,-1.120513916015625,0.1948089599609375
101089,0.039031982421875,-1.0108642578125,0.1581573486328125
101090,0.0651092529296875,-0.9061431884765624,0.15338134765625
101091,0.0579681396484375,-0.779144287109375,0.1325531005859375
101092,0.04327392578125,-0.6337738037109375,0.089447021484375
101093,0.0509033203125,-0.5066680908203125,0.0885467529296875
101094,0.0709075927734375,-0.3938751220703125,0.109405517578125
101095,0.0919342041015625,-0.2848052978515625,0.13018798828125
101096,0.1109161376953125,-0.1860809326171875,0.143310546875
101097,0.12225341796875,-0.09002685546875,0.1483001708984375
101098,0.114990234375,-0.0098724365234375,0.10809326171875
101099,0.0906982421875,0.0498199462890625,0.0538482666015625
101100,0.0633544921875,0.11090087890625,0.0536651611328125
101101,0.042572021484375,0.157806396484375,0.0809478759765625
101102,0.0080718994140625,0.181854248046875,0.0666961669921875
101103,0.0080718994140625,0.181854248046875,0.0666961669921875
101104,-0.0634918212890625,0.109039306640625,0.0107421875
101105,-0.086181640625,0.034942626953125,0.05035400390625
101106,-0.1054229736328125,-0.0496368408203125,0.1470794677734375
101107,-0.08355712890625,-0.1422119140625,0.21405029296875
101108,-0.00274658203125,-0.2671966552734375,0.1781768798828125
101109,0.08685302734375,-0.40301513671875,0.14373779296875
101110,0.1324615478515625,-0.5316314697265625,0.065338134765625
101111,0.0888824462890625,-0.660400390625,-0.118560791015625
101112,-0.0253143310546875,-0.79833984375,-0.3642730712890625
101113,-0.1802825927734375,-0.9533538818359376,-0.6433563232421875
101114,-0.378082275390625,-1.237823486328125,-0.879608154296875
101115,-0.6568603515625,-1.754348754882812,-0.9012908935546876
101116,-1.066543579101562,-2.47381591796875,-0.8289031982421875
101117,-1.486984252929688,-3.17645263671875,-0.8029327392578125
101118,-1.793960571289062,-3.727249145507812,-0.7834320068359375
101119,-1.924484252929688,-3.92327880859375,-0.867279052734375
101120,-1.604110717773438,-3.47283935546875,-0.746826171875
101121,-0.9772186279296876,-2.615921020507812,-0.393310546875
101122,-0.60577392578125,-1.949066162109375,-0.1576385498046875
101123,-0.4144134521484375,-1.42138671875,0.0499725341796875
101124,-0.376922607421875,-0.9493408203125,0.1791534423828125
101125,-0.4241485595703125,-0.6294708251953125,0.2765045166015625
101126,-0.4607696533203125,-0.524658203125,0.2669525146484375
101127,-0.3971099853515625,-0.53643798828125,0.216033935546875
101128,-0.2783966064453125,-0.5157623291015625,0.1651458740234375
101129,-0.1696319580078125,-0.4362945556640625,0.1312713623046875
101130,-0.0741424560546875,-0.3191070556640625,0.1389617919921875
101131,0.0089874267578125,-0.187042236328125,0.1437530517578125
101132,0.0742950439453125,-0.0815582275390625,0.110382080078125
101133,0.130767822265625,0.027191162109375,0.094879150390625
101134,0.184722900390625,0.1420745849609375,0.1348114013671875
101135,0.224639892578125,0.2471160888671875,0.1795654296875
101136,0.26129150390625,0.3587493896484375,0.19110107421875
101137,0.3050384521484375,0.46722412109375,0.207000732421875
101138,0.32659912109375,0.5173797607421875,0.2360687255859375
101139,0.2301483154296875,0.314483642578125,0.29779052734375
101140,0.1335296630859375,0.09271240234375,0.3499603271484375
101141,0.0628509521484375,-0.064727783203125,0.3550872802734375
101142,0.00341796875,-0.2108154296875,0.2825927734375
101143,-0.017059326171875,-0.301544189453125,0.1685638427734375
101144,-0.0115203857421875,-0.3290863037109375,0.0243682861328125
101145,-0.0279693603515625,-0.362060546875,-0.129241943359375
101146,-0.0441436767578125,-0.4016571044921875,-0.1206512451171875
101147,-0.0549774169921875,-0.43817138671875,-0.0451202392578125
101148,-0.09063720703125,-0.477935791015625,-0.0361328125
101149,-0.1341705322265625,-0.520904541015625,-0.0364990234375
101150,-0.153594970703125,-0.5535125732421875,0.0873870849609375
101151,-0.1259613037109375,-0.6049041748046875,0.28533935546875
101152,-0.07958984375,-0.717498779296875,0.4189300537109375
101153,-0.0745086669921875,-0.8983154296875,0.4657440185546875
101154,-0.125213623046875,-1.167037963867188,0.4591064453125
101155,-0.223876953125,-1.504486083984375,0.365264892578125
101156,-0.38134765625,-1.93701171875,0.2664794921875
101157,-0.5896148681640625,-2.524398803710938,0.217681884765625
101158,-0.76007080078125,-3.295425415039062,0.2359619140625
101159,-0.90789794921875,-3.991439819335938,0.2430572509765625
101160,-1.062332153320312,-4.368988037109375,0.2192230224609375
101161,-1.124267578125,-4.253997802734375,0.3825225830078125
101162,-0.9536590576171876,-3.60980224609375,0.582061767578125
101163,-0.5275115966796875,-2.770416259765625,0.646270751953125
101164,-0.1806182861328125,-2.198196411132812,0.7449188232421875
101165,0.0574188232421875,-1.892059326171875,0.836669921875
101166,0.2181854248046875,-1.717117309570312,0.8021087646484375
101167,0.2733001708984375,-1.562606811523438,0.6591339111328125
101168,0.1839141845703125,-1.391571044921875,0.5501708984375
101169,0.0677490234375,-1.243331909179688,0.463531494140625
101170,0.022705078125,-1.117889404296875,0.3814697265625
101171,0.0149688720703125,-0.993988037109375,0.3242034912109375
101172,0.0047454833984375,-0.8546600341796875,0.2518157958984375
101173,-0.0062255859375,-0.6983489990234375,0.184539794921875
101174,-0.0144500732421875,-0.5482940673828125,0.155609130859375
101175,-0.0208587646484375,-0.4013824462890625,0.1314239501953125
101176,-0.0069580078125,-0.25616455078125,0.1140289306640625
101177,0.028594970703125,-0.1274261474609375,0.1119232177734375
101178,0.07147216796875,-0.017333984375,0.12774658203125
101179,0.114349365234375,0.0814056396484375,0.1501617431640625
101180,0.155487060546875,0.183502197265625,0.1624298095703125
101181,0.18780517578125,0.2650604248046875,0.146514892578125
101182,0.1907958984375,0.307708740234375,0.0744476318359375
101183,0.1697235107421875,0.3171234130859375,-0.0074615478515625
101184,0.1576995849609375,0.305084228515625,-0.01580810546875
101185,0.156036376953125,0.27374267578125,0.003143310546875
101186,0.13665771484375,0.19451904296875,-0.0233917236328125
101187,0.1012420654296875,0.0912628173828125,-0.0553436279296875
101188,0.04559326171875,-0.05328369140625,0.0100860595703125
101189,-0.0314178466796875,-0.2401885986328125,0.1078033447265625
101190,-0.077545166015625,-0.4159088134765625,0.13055419921875
101191,-0.109832763671875,-0.5792083740234375,0.0833282470703125
101192,-0.139801025390625,-0.701202392578125,0.0087127685546875
101193,-0.1831207275390625,-0.7723388671875,-0.0992431640625
101194,-0.2498016357421875,-0.8210296630859375,-0.2614288330078125
101195,-0.3388214111328125,-0.9319305419921876,-0.412689208984375
101196,-0.4923553466796875,-1.1856689453125,-0.53729248046875
101197,-0.728424072265625,-1.640167236328125,-0.600677490234375
101198,-1.023956298828125,-2.326400756835938,-0.5494384765625
101199,-1.30816650390625,-3.139068603515625,-0.4134979248046875
101200,-1.517593383789062,-3.762115478515625,-0.4896240234375
101201,-1.507369995117188,-3.807510375976562,-0.7025146484375
101202,-0.1788177490234375,-1.860610961914062,-0.1194610595703125
101203,-0.1788177490234375,-1.860610961914062,-0.1194610595703125
101204,-0.1788177490234375,-1.860610961914062,-0.1194610595703125
101205,-0.011932373046875,-1.406295776367188,-0.0590057373046875
101206,0.025115966796875,-1.0531005859375,0.00341796875
101207,-0.0823516845703125,-0.764251708984375,0.0330963134765625
101208,-0.261474609375,-0.5644683837890625,0.0536956787109375
101209,-0.3908843994140625,-0.491943359375,0.0715789794921875
101210,-0.435394287109375,-0.4649658203125,0.0594635009765625
101211,-0.42138671875,-0.39788818359375,0.059814453125
101212,-0.371307373046875,-0.293792724609375,0.0888671875
101213,-0.3040771484375,-0.1812744140625,0.0820770263671875
101214,-0.22906494140625,-0.0685882568359375,0.0731658935546875
101215,-0.1566162109375,0.030426025390625,0.090240478515625
101216,-0.101043701171875,0.1389923095703125,0.1524200439453125
101217,-0.02178955078125,0.2558441162109375,0.2536163330078125
101218,0.1006011962890625,0.3470611572265625,0.3621826171875
101219,0.2418060302734375,0.3246307373046875,0.4007415771484375
101220,0.3157806396484375,0.10284423828125,0.3966522216796875
101221,0.2568511962890625,-0.15301513671875,0.374786376953125
101222,0.13702392578125,-0.3069610595703125,0.2939453125
101223,0.0787506103515625,-0.3845977783203125,0.1840667724609375
101224,0.0578155517578125,-0.4388275146484375,0.09869384765625
101225,-0.0020751953125,-0.4783935546875,-0.027435302734375
101226,-0.0813140869140625,-0.54144287109375,-0.050506591796875
101227,-0.1175079345703125,-0.5632171630859375,-0.04229736328125
101228,-0.067901611328125,-0.50140380859375,-0.10345458984375
101229,-0.02783203125,-0.4591217041015625,-0.1314239501953125
101230,-0.069915771484375,-0.3997039794921875,-0.070831298828125
101231,-0.1331329345703125,-0.3211822509765625,0.02899169921875
101232,-0.1544647216796875,-0.2867431640625,0.10198974609375
101233,-0.119140625,-0.3355560302734375,0.22100830078125
101234,-0.0605926513671875,-0.4637908935546875,0.3103790283203125
101235,-0.069000244140625,-0.6406707763671875,0.2437896728515625
101236,-0.0772247314453125,-0.9224395751953124,0.191558837890625
101237,-0.08306884765625,-1.328948974609375,0.131256103515625
101238,-0.178497314453125,-1.882293701171875,0.00146484375
101239,-0.3805999755859375,-2.737197875976562,-0.155029296875
101240,-0.697998046875,-3.762557983398438,-0.281158447265625
101241,-1.041702270507812,-4.489486694335938,-0.2830657958984375
101242,-1.323944091796875,-4.509521484375,-0.0251617431640625
101243,-1.431549072265625,-3.825607299804688,0.27783203125
101244,-0.962493896484375,-2.960708618164062,0.4124908447265625
101245,-0.3785552978515625,-2.263671875,0.5980682373046875
101246,0.0233306884765625,-1.893707275390625,0.78466796875
101247,0.2714691162109375,-1.697357177734375,0.805999755859375
101248,0.339691162109375,-1.627670288085938,0.692352294921875
101249,0.2670745849609375,-1.6513671875,0.5394287109375
101250,0.121612548828125,-1.652252197265625,0.4326324462890625
101251,-0.016357421875,-1.5888671875,0.3519134521484375
101252,-0.0871124267578125,-1.500411987304688,0.3184356689453125
101253,-0.0981292724609375,-1.370010375976562,0.2960662841796875
101254,-0.092620849609375,-1.170761108398438,0.2560272216796875
101255,-0.0958251953125,-0.9381866455078124,0.2148284912109375
101256,-0.0964813232421875,-0.7231292724609375,0.1551513671875
101257,-0.078216552734375,-0.5375213623046875,0.1024322509765625
101258,-0.0417327880859375,-0.3733062744140625,0.0919036865234375
101259,0.0006866455078125,-0.223480224609375,0.1147918701171875
101260,0.043121337890625,-0.10284423828125,0.13958740234375
101261,0.0830535888671875,0.0149688720703125,0.1424713134765625
101262,0.11639404296875,0.121612548828125,0.11297607421875
101263,0.1425323486328125,0.2049407958984375,0.0410003662109375
101264,0.147308349609375,0.2656707763671875,-0.0267333984375
101265,0.1317596435546875,0.283935546875,-0.0940093994140625
101266,0.12103271484375,0.2887115478515625,-0.096466064453125
101267,0.1237030029296875,0.281036376953125,-0.0048065185546875
101268,0.097503662109375,0.2414093017578125,0.0042572021484375
101269,0.0463714599609375,0.1598663330078125,-0.041046142578125
101270,-0.0055084228515625,0.0516204833984375,0.0011138916015625
101271,-0.05987548828125,-0.1232147216796875,0.1374664306640625
101272,-0.0750885009765625,-0.3271331787109375,0.1874542236328125
101273,-0.0596923828125,-0.5053863525390625,0.1314849853515625
101274,-0.0465087890625,-0.6554107666015625,0.0462493896484375
101275,-0.065673828125,-0.7460784912109375,-0.0819854736328125
101276,-0.1446685791015625,-0.808380126953125,-0.2569427490234375
101277,-0.2732696533203125,-0.9085235595703124,-0.4457855224609375
101278,-0.439208984375,-1.112655639648438,-0.5828094482421875
101279,-0.658447265625,-1.488067626953125,-0.6966705322265625
101280,-0.9275360107421876,-2.110519409179688,-0.7122344970703125
101281,-1.16888427734375,-2.900741577148438,-0.57000732421875
101282,-1.257949829101562,-3.564407348632812,-0.4858245849609375
101283,-1.189376831054688,-3.758621215820312,-0.6525115966796875
101284,-0.938232421875,-3.446319580078125,-0.6631622314453125
101285,-0.5022125244140625,-2.688949584960938,-0.3609466552734375
101286,-0.2550811767578125,-1.938583374023438,-0.2238311767578125
101287,-0.19293212890625,-1.447021484375,-0.1686553955078125
101288,-0.243255615234375,-1.07684326171875,-0.083343505859375
101289,-0.3961334228515625,-0.786712646484375,-0.0006561279296875
101290,-0.517364501953125,-0.6597137451171875,0.0490264892578125
101291,-0.5779266357421875,-0.6046600341796875,0.0461578369140625
101292,-0.579132080078125,-0.5483551025390625,0.039825439453125
101293,-0.5289459228515625,-0.4652099609375,0.022552490234375
101294,-0.4467620849609375,-0.34814453125,0.0148162841796875
101295,-0.3382720947265625,-0.229949951171875,0.0277099609375
101296,-0.21673583984375,-0.1183624267578125,0.0622100830078125
101297,-0.096954345703125,4.57763671875e-05,0.119384765625
101298,0.0039520263671875,0.104248046875,0.180419921875
101299,0.0863037109375,0.204010009765625,0.251739501953125
101300,0.1409149169921875,0.294921875,0.2972412109375
101301,0.206512451171875,0.3647003173828125,0.28753662109375
101302,0.37152099609375,0.36114501953125,0.2740020751953125
101303,0.37152099609375,0.36114501953125,0.2740020751953125
101304,0.353363037109375,0.2355804443359375,0.265289306640625
101305,0.2491607666015625,0.0824737548828125,0.3302459716796875
101306,0.1492156982421875,-0.046875,0.2970428466796875
101307,0.10211181640625,-0.1781158447265625,0.178558349609375
101308,0.08074951171875,-0.2855987548828125,0.0589599609375
101309,0.030426025390625,-0.3554534912109375,-0.07965087890625
101310,-0.00994873046875,-0.44500732421875,-0.068695068359375
101311,-0.0389556884765625,-0.4940338134765625,-0.0788421630859375
101312,-0.0876007080078125,-0.5091705322265625,-0.1519927978515625
101313,-0.266143798828125,-0.5776214599609375,-0.0954437255859375
101314,-0.266143798828125,-0.5776214599609375,-0.0954437255859375
101315,-0.3650054931640625,-0.670562744140625,-0.00372314453125
101316,-0.41973876953125,-0.8756561279296875,0.08148193359375
101317,-0.415252685546875,-1.278793334960938,0.13128662109375
101318,-0.390869140625,-1.945343017578125,0.083709716796875
101319,-0.342071533203125,-2.925033569335938,-0.0200347900390625
101320,-0.403533935546875,-3.954666137695312,-0.1646270751953125
101321,-0.756011962890625,-4.519989013671875,-0.3514862060546875
101322,-1.11224365234375,-4.241470336914062,-0.07586669921875
101323,-1.200836181640625,-3.520095825195312,0.4628753662109375
101324,-0.8087615966796875,-2.920883178710938,0.653045654296875
101325,-0.361114501953125,-2.34820556640625,0.8411865234375
101326,-0.09161376953125,-2.005966186523438,0.97869873046875
101327,0.080322265625,-1.88336181640625,0.9441986083984376
101328,0.125457763671875,-1.76220703125,0.808990478515625
101329,0.0692138671875,-1.655349731445312,0.6587066650390625
101330,-0.0327911376953125,-1.561813354492188,0.505035400390625
101331,-0.1246185302734375,-1.484130859375,0.3899688720703125
101332,-0.165008544921875,-1.4100341796875,0.3402557373046875
101333,-0.1420440673828125,-1.333328247070312,0.32611083984375
101334,-0.0765838623046875,-1.238037109375,0.3071441650390625
101335,-0.0144500732421875,-1.105865478515625,0.2668304443359375
101336,0.0107421875,-0.93743896484375,0.2117462158203125
101337,0.0086822509765625,-0.7541656494140625,0.1609649658203125
101338,0.0087432861328125,-0.5652313232421875,0.1125030517578125
101339,0.0181427001953125,-0.3943939208984375,0.0825653076171875
101340,0.0374298095703125,-0.24554443359375,0.0818328857421875
101341,0.0547027587890625,-0.136444091796875,0.0868072509765625
101342,0.074676513671875,-0.040557861328125,0.08905029296875
101343,0.101043701171875,0.06439208984375,0.083892822265625
101344,0.12677001953125,0.160919189453125,0.052337646484375
101345,0.138153076171875,0.2201690673828125,-0.00872802734375
101346,0.160308837890625,0.27471923828125,0.0055389404296875
101347,0.18267822265625,0.3067474365234375,0.03851318359375
101348,0.1872406005859375,0.2809295654296875,0.0017547607421875
101349,0.18414306640625,0.2405548095703125,-0.0564422607421875
101350,0.1769256591796875,0.177734375,-0.076751708984375
101351,0.1488189697265625,0.0680694580078125,-0.059539794921875
101352,0.072418212890625,-0.164794921875,-0.091949462890625
101353,-0.0008544921875,-0.378204345703125,-0.133758544921875
101354,-0.05084228515625,-0.508026123046875,-0.1829376220703125
101355,-0.0757904052734375,-0.62103271484375,-0.2488555908203125
101356,-0.1187896728515625,-0.78387451171875,-0.3898468017578125
101357,-0.183807373046875,-0.9984893798828124,-0.4618377685546875
101358,-0.3020477294921875,-1.29742431640625,-0.4824676513671875
101359,-0.4808349609375,-1.70135498046875,-0.512420654296875
101360,-0.746063232421875,-2.205963134765625,-0.60430908203125
101361,-1.057571411132812,-2.797332763671875,-0.6889495849609375
101362,-1.291488647460938,-3.3419189453125,-0.7967681884765625
101363,-1.3890380859375,-3.60137939453125,-0.891357421875
101364,-1.247085571289062,-3.248016357421875,-0.7567901611328125
101365,-0.56396484375,-1.748550415039062,-0.27362060546875
101366,-0.56396484375,-1.748550415039062,-0.27362060546875
101367,-0.32830810546875,-1.3837890625,-0.1451568603515625
101368,-0.227447509765625,-1.164810180664062,-0.0129852294921875
101369,-0.312713623046875,-0.9949493408203124,0.0149993896484375
101370,-0.472137451171875,-0.8736724853515625,-0.01605224609375
101371,-0.5331573486328125,-0.79278564453125,-0.049591064453125
101372,-0.496307373046875,-0.7137451171875,-0.041961669921875
101373,-0.4073333740234375,-0.6164398193359375,-0.005401611328125
101374,-0.3112945556640625,-0.484710693359375,0.0250244140625
101375,-0.212005615234375,-0.3404541015625,0.055511474609375
101376,-0.1063995361328125,-0.2003631591796875,0.084259033203125
101377,-0.0068817138671875,-0.056549072265625,0.129486083984375
101378,0.0860137939453125,0.082916259765625,0.2290802001953125
101379,0.1689300537109375,0.2177734375,0.3333587646484375
101380,0.287109375,0.35211181640625,0.4163665771484375
101381,0.4477996826171875,0.441619873046875,0.4577178955078125
101382,0.61798095703125,0.3804931640625,0.3874969482421875
101383,0.673736572265625,0.080108642578125,0.294921875
101384,0.5409698486328125,-0.238433837890625,0.29962158203125
101385,0.23052978515625,-0.4900665283203125,0.200347900390625
101386,0.23052978515625,-0.4900665283203125,0.200347900390625
101387,0.091156005859375,-0.5137176513671875,0.0015411376953125
101388,-0.02020263671875,-0.532623291015625,-0.044769287109375
101389,-0.11474609375,-0.5655364990234375,0.08551025390625
101390,-0.188507080078125,-0.4915008544921875,-0.0469818115234375
101391,-0.2047119140625,-0.3336334228515625,-0.3089447021484375
101392,-0.2245025634765625,-0.28558349609375,-0.234649658203125
101393,-0.2842559814453125,-0.2503814697265625,-0.1108551025390625
101394,-0.3614654541015625,-0.17962646484375,-0.0702362060546875
101395,-0.390045166015625,-0.1792755126953125,0.07122802734375
101396,-0.316497802734375,-0.286956787109375,0.308563232421875
101397,-0.2093658447265625,-0.5055389404296875,0.386505126953125
101398,-0.17132568359375,-0.865142822265625,0.3753204345703125
101399,-0.1917877197265625,-1.3426513671875,0.2692108154296875
101400,-0.2801666259765625,-1.952056884765625,0.1031341552734375
101401,-0.43487548828125,-2.772430419921875,-0.089813232421875
101402,-0.6407012939453125,-3.822250366210938,-0.2579193115234375
101403,-0.6407012939453125,-3.822250366210938,-0.2579193115234375
101404,-1.152816772460938,-4.559295654296875,-0.219635009765625
101405,-1.373138427734375,-3.948867797851562,0.1070404052734375
101406,-1.10894775390625,-3.21173095703125,0.2388458251953125
101407,-0.5838470458984375,-2.613418579101562,0.418609619140625
101408,-0.2133026123046875,-2.168228149414062,0.731292724609375
101409,0.0502471923828125,-1.936935424804688,0.9575958251953124
101410,0.1661834716796875,-1.760726928710938,0.902984619140625
101411,0.1276092529296875,-1.641983032226562,0.6619720458984375
101412,0.032318115234375,-1.587478637695312,0.4875030517578125
101413,-0.057708740234375,-1.52734375,0.3837738037109375
101414,-0.097442626953125,-1.433563232421875,0.2654571533203125
101415,-0.085906982421875,-1.306472778320312,0.168121337890625
101416,-0.056640625,-1.148361206054688,0.1322174072265625
101417,-0.0471038818359375,-0.9527435302734376,0.108306884765625
101418,-0.0529327392578125,-0.7364349365234375,0.082489013671875
101419,-0.05206298828125,-0.5496978759765625,0.0416259765625
101420,-0.03179931640625,-0.38128662109375,0.0305633544921875
101421,0.0488433837890625,-0.0732574462890625,0.144500732421875
101422,0.0488433837890625,-0.0732574462890625,0.144500732421875
101423,0.0951080322265625,0.0740203857421875,0.1986846923828125
101424,0.1305389404296875,0.19140625,0.1959075927734375
101425,0.1649322509765625,0.326690673828125,0.0562744140625
101426,0.1649322509765625,0.326690673828125,0.0562744140625
101427,0.1515045166015625,0.3362274169921875,-0.0260162353515625
101428,0.147979736328125,0.3065338134765625,-0.053741455078125
101429,0.15509033203125,0.248260498046875,-0.040985107421875
101430,0.1446533203125,0.16607666015625,-0.0517730712890625
101431,0.113983154296875,0.0660400390625,-0.0778656005859375
101432,0.0801849365234375,-0.0406951904296875,-0.0565185546875
101433,0.04461669921875,-0.1915435791015625,-7.62939453125e-05
101434,0.0471649169921875,-0.37158203125,0.0190277099609375
101435,0.0892333984375,-0.5373077392578125,0.030731201171875
101436,0.1143035888671875,-0.68597412109375,0.022308349609375
101437,0.1199951171875,-0.803314208984375,-0.1046905517578125
101438,0.084930419921875,-0.9130401611328124,-0.310943603515625
101439,-0.009033203125,-1.048431396484375,-0.5677032470703125
101440,-0.1454620361328125,-1.242446899414062,-0.82257080078125
101441,-0.34613037109375,-1.564849853515625,-0.9857025146484376
101442,-0.6026763916015625,-2.036895751953125,-1.038894653320312
101443,-0.9156646728515624,-2.611419677734375,-1.028167724609375
101444,-1.2420654296875,-3.033493041992188,-0.9968414306640624
101445,-1.494247436523438,-3.208099365234375,-0.86279296875
101446,-1.588760375976562,-3.016555786132812,-0.7361297607421875
101447,-1.256546020507812,-2.366409301757812,-0.567840576171875
101448,-0.7633819580078125,-1.872299194335938,-0.3548126220703125
101449,-0.43072509765625,-1.53375244140625,-0.18817138671875
101450,-0.23553466796875,-1.236053466796875,-0.03363037109375
101451,-0.1969757080078125,-0.9971923828125,0.0120697021484375
101452,-0.265716552734375,-0.8112640380859375,0.02783203125
101453,-0.3216094970703125,-0.7628631591796875,0.0142974853515625
101454,-0.2976531982421875,-0.743499755859375,-0.006622314453125
101455,-0.241119384765625,-0.659515380859375,0.0131683349609375
101456,-0.1756134033203125,-0.53839111328125,0.0417327880859375
101457,-0.098663330078125,-0.411834716796875,0.063690185546875
101458,-0.0169830322265625,-0.31109619140625,0.0851287841796875
101459,0.0607147216796875,-0.2149810791015625,0.1129302978515625
101460,0.12957763671875,-0.1323394775390625,0.1499176025390625
101461,0.2323455810546875,0.0352630615234375,0.2477874755859375
101462,0.2323455810546875,0.0352630615234375,0.2477874755859375
101463,0.2823638916015625,0.098846435546875,0.2935943603515625
101464,0.3454132080078125,0.1219024658203125,0.3046722412109375
101465,0.3904571533203125,-0.07781982421875,0.29937744140625
101466,0.3904571533203125,-0.07781982421875,0.29937744140625
101467,0.296966552734375,-0.2242584228515625,0.2963409423828125
101468,0.1673583984375,-0.2980499267578125,0.224517822265625
101469,0.0520172119140625,-0.3190765380859375,0.0679931640625
101470,-0.008087158203125,-0.3124847412109375,-0.059356689453125
101471,-0.043792724609375,-0.297454833984375,-0.1539459228515625
101472,-0.082733154296875,-0.2599945068359375,-0.1429595947265625
101473,-0.0889892578125,-0.218963623046875,-0.09033203125
101474,-0.1098785400390625,-0.203277587890625,-0.181121826171875
101475,-0.1693267822265625,-0.1823883056640625,-0.352081298828125
101476,-0.2250518798828125,-0.2306365966796875,-0.352142333984375
101477,-0.2643585205078125,-0.376312255859375,-0.175445556640625
101478,-0.2962646484375,-0.581329345703125,-0.0363922119140625
101479,-0.3177032470703125,-0.8372650146484375,0.0547027587890625
101480,-0.308135986328125,-1.140609741210938,0.04095458984375
101481,-0.315277099609375,-1.616012573242188,-0.0985260009765625
101482,-0.3937530517578125,-2.522857666015625,-0.271392822265625
101483,-0.5711669921875,-3.673171997070312,-0.4847869873046875
101484,-0.84100341796875,-4.448745727539062,-0.7039794921875
101485,-1.144241333007812,-4.41552734375,-0.4959869384765625
101486,-1.324691772460938,-3.649826049804688,-0.1547088623046875
101487,-1.235107421875,-2.809768676757812,0.051971435546875
101488,-0.7985992431640625,-2.377639770507812,0.2584075927734375
101489,-0.0318756103515625,-2.015716552734375,0.7535858154296875
101490,-0.0318756103515625,-2.015716552734375,0.7535858154296875
101491,0.1180572509765625,-1.995559692382812,0.862060546875
101492,0.15313720703125,-1.9981689453125,0.7508392333984375
101493,0.08990478515625,-1.944183349609375,0.522979736328125
101494,-0.0060882568359375,-1.845306396484375,0.3695831298828125
101495,-0.0778350830078125,-1.70855712890625,0.269012451171875
101496,-0.1261749267578125,-1.537307739257812,0.193328857421875
101497,-0.1294708251953125,-1.336776733398438,0.169464111328125
101498,-0.098358154296875,-1.143875122070312,0.1566925048828125
101499,-0.0697021484375,-0.9655609130859376,0.1289825439453125
101500,-0.042724609375,-0.7924346923828125,0.077239990234375
101501,0.02545166015625,-0.486572265625,0.0203704833984375
101502,0.076873779296875,-0.3670654296875,0.0446014404296875
101503,0.076873779296875,-0.3670654296875,0.0446014404296875
101504,0.139190673828125,-0.23504638671875,0.0813140869140625
101505,0.2001495361328125,-0.0026397705078125,0.068756103515625
101506,0.2001495361328125,-0.0026397705078125,0.068756103515625
101507,0.216583251953125,0.0853271484375,0.03656005859375
101508,0.2408599853515625,0.1671142578125,0.026275634765625
101509,0.2669525146484375,0.3510589599609375,0.054443359375
101510,0.2669525146484375,0.3510589599609375,0.054443359375
101511,0.2779083251953125,0.4376983642578125,0.0883026123046875
101512,0.266815185546875,0.4459381103515625,0.023529052734375
101513,0.250152587890625,0.3943023681640625,-0.01898193359375
101514,0.222381591796875,0.2755889892578125,0.0128631591796875
101515,0.13726806640625,0.03033447265625,0.088165283203125
101516,0.0489501953125,-0.20440673828125,0.1118927001953125
101517,0.0332489013671875,-0.4866485595703125,0.0001678466796875
101518,0.0332489013671875,-0.4866485595703125,0.0001678466796875
101519,0.05670166015625,-0.598175048828125,-0.1285400390625
101520,0.0350341796875,-0.7083740234375,-0.362762451171875
101521,-0.2532806396484375,-1.211746215820312,-0.802764892578125
101522,-0.2532806396484375,-1.211746215820312,-0.802764892578125
101523,-0.5137176513671875,-1.742568969726562,-0.7883758544921875
101524,-0.879486083984375,-2.405044555664062,-0.7501983642578125
101525,-1.674240112304688,-3.46722412109375,-0.84222412109375
101526,-1.674240112304688,-3.46722412109375,-0.84222412109375
101527,-1.852645874023438,-3.709884643554688,-0.747528076171875
101528,-1.60369873046875,-3.347244262695312,-0.57257080078125
101529,-0.6146240234375,-1.92559814453125,-0.287841796875
101530,-0.6146240234375,-1.92559814453125,-0.287841796875
101531,-0.3278350830078125,-1.525192260742188,-0.16326904296875
101532,-0.160064697265625,-1.156707763671875,0.001251220703125
101533,-0.385955810546875,-0.623046875,0.1429595947265625
101534,-0.385955810546875,-0.623046875,0.1429595947265625
101535,-0.5395050048828125,-0.551483154296875,0.1705780029296875
101536,-0.4924774169921875,-0.5614776611328125,0.1621246337890625
101537,-0.2395172119140625,-0.455078125,0.0766448974609375
101538,-0.2395172119140625,-0.455078125,0.0766448974609375
101539,-0.1086578369140625,-0.359619140625,0.0756988525390625
101540,0.011627197265625,-0.250335693359375,0.117218017578125
101541,0.174102783203125,-0.041107177734375,0.155364990234375
101542,0.174102783203125,-0.041107177734375,0.155364990234375
101543,0.2186737060546875,0.069915771484375,0.1595916748046875
101544,0.2537841796875,0.1677703857421875,0.195770263671875
101545,0.3437652587890625,0.389984130859375,0.242828369140625
101546,0.3437652587890625,0.389984130859375,0.242828369140625
101547,0.370574951171875,0.4409332275390625,0.2030181884765625
101548,0.3367919921875,0.310638427734375,0.2045745849609375
101549,0.1437225341796875,-0.0952301025390625,0.254364013671875
101550,0.1437225341796875,-0.0952301025390625,0.254364013671875
101551,0.0539398193359375,-0.2096099853515625,0.16558837890625
101552,-0.0178070068359375,-0.2805328369140625,0.0355682373046875
101553,-0.087921142578125,-0.311676025390625,-0.1622467041015625
101554,-0.1601104736328125,-0.354400634765625,-0.3325347900390625
101555,-0.210540771484375,-0.4384307861328125,-0.303314208984375
101556,-0.25830078125,-0.4906005859375,-0.232330322265625
101557,-0.39434814453125,-0.5273895263671875,-0.2487945556640625
101558,-0.39434814453125,-0.5273895263671875,-0.2487945556640625
101559,-0.4168243408203125,-0.54327392578125,-0.153533935546875
101560,-0.3859100341796875,-0.6523895263671875,0.103851318359375
101561,-0.335235595703125,-1.266143798828125,0.380157470703125
101562,-0.335235595703125,-1.266143798828125,0.380157470703125
101563,-0.3184051513671875,-1.82586669921875,0.2073822021484375
101564,-0.291290283203125,-2.669921875,0.0176544189453125
101565,-0.3709259033203125,-3.76861572265625,-0.1434173583984375
101566,-0.6606597900390625,-4.404693603515625,-0.2441864013671875
101567,-0.9645843505859376,-4.242080688476562,0.0764923095703125
101568,-1.1668701171875,-3.683120727539062,0.520294189453125
101569,-0.69000244140625,-2.640335083007812,0.62371826171875
101570,-0.69000244140625,-2.640335083007812,0.62371826171875
101571,-0.347259521484375,-2.248336791992188,0.8585052490234375
101572,-0.0958099365234375,-2.024673461914062,0.9788055419921876
101573,0.030609130859375,-1.86163330078125,0.888427734375
101574,0.0378875732421875,-1.719955444335938,0.638275146484375
101575,0.0171966552734375,-1.631576538085938,0.40728759765625
101576,-0.016510009765625,-1.557144165039062,0.311553955078125
101577,-0.06683349609375,-1.325164794921875,0.2500152587890625
101578,-0.06683349609375,-1.325164794921875,0.2500152587890625
101579,-0.0691986083984375,-1.142547607421875,0.1945343017578125
101580,-0.067626953125,-0.945281982421875,0.1331634521484375
101581,-0.04876708984375,-0.571441650390625,0.0186309814453125
101582,-0.04876708984375,-0.571441650390625,0.0186309814453125
101583,-0.020294189453125,-0.40631103515625,-0.016632080078125
101584,0.026947021484375,-0.2574462890625,0.008941650390625
101585,0.0868988037109375,-0.12054443359375,0.0640411376953125
101586,0.1423492431640625,-0.0067901611328125,0.122161865234375
101587,0.1841583251953125,0.108306884765625,0.151336669921875
101588,0.2164459228515625,0.22467041015625,0.15386962890625
101589,0.203216552734375,0.375030517578125,0.015716552734375
101590,0.203216552734375,0.375030517578125,0.015716552734375
101591,0.171905517578125,0.368743896484375,-0.0518341064453125
101592,0.1603546142578125,0.3026275634765625,-0.031219482421875
101593,0.1187744140625,0.08526611328125,-0.0328826904296875
101594,0.1187744140625,0.08526611328125,-0.0328826904296875
101595,0.0633544921875,-0.0395660400390625,-0.0124053955078125
101596,0.0006866455078125,-0.2059173583984375,0.0792388916015625
101597,-0.003570556640625,-0.568023681640625,0.079254150390625
101598,-0.003570556640625,-0.568023681640625,0.079254150390625
101599,0.0164794921875,-0.7262115478515625,0.0345916748046875
101600,0.0244140625,-0.8382110595703125,-0.049102783203125
101601,-0.1416778564453125,-1.074966430664062,-0.4344329833984375
101602,-0.1416778564453125,-1.074966430664062,-0.4344329833984375
101603,-0.1416778564453125,-1.074966430664062,-0.4344329833984375
101604,-0.510589599609375,-1.569168090820312,-0.79669189453125
101605,-0.738677978515625,-2.024795532226562,-0.83978271484375
101606,-0.9844512939453124,-2.631362915039062,-0.7997894287109375
101607,-1.155441284179688,-3.208114624023438,-0.683837890625
101608,-1.2054443359375,-3.511016845703125,-0.680419921875
101609,-0.7936553955078125,-2.597213745117188,-0.557220458984375
101610,-0.7936553955078125,-2.597213745117188,-0.557220458984375
101611,-0.448028564453125,-1.93572998046875,-0.251861572265625
101612,-0.2474517822265625,-1.481781005859375,-0.11077880859375
101613,-0.264251708984375,-0.887542724609375,0.1389312744140625
101614,-0.264251708984375,-0.887542724609375,0.1389312744140625
101615,-0.400482177734375,-0.7519378662109375,0.1017608642578125
101616,-0.4555206298828125,-0.7080078125,0.0072479248046875
101617,-0.4407806396484375,-0.62762451171875,0.0282440185546875
101618,-0.3871307373046875,-0.5007171630859375,0.1156158447265625
101619,-0.2972412109375,-0.36102294921875,0.1909027099609375
101620,-0.17919921875,-0.2371826171875,0.2392730712890625
101621,-0.0552825927734375,-0.1396484375,0.2639007568359375
101622,-0.0552825927734375,-0.1396484375,0.2639007568359375
101623,0.13360595703125,0.0237884521484375,0.2821044921875
101624,0.2039031982421875,0.10247802734375,0.29052734375
101625,0.28790283203125,0.15301513671875,0.314849853515625
101626,0.3943328857421875,0.1675872802734375,0.334747314453125
101627,0.47967529296875,0.1099700927734375,0.2922515869140625
101628,0.4929046630859375,-0.0341796875,0.24371337890625
101629,0.2870025634765625,-0.3055419921875,0.2283782958984375
101630,0.2870025634765625,-0.3055419921875,0.2283782958984375
101631,0.1983795166015625,-0.3482818603515625,0.115264892578125
101632,0.10137939453125,-0.3617706298828125,-0.0301361083984375
101633,-0.135467529296875,-0.395263671875,-0.017333984375
101634,-0.135467529296875,-0.395263671875,-0.017333984375
101635,-0.189422607421875,-0.3268585205078125,-0.1403656005859375
101636,-0.1977081298828125,-0.2176666259765625,-0.293365478515625
101637,-0.31304931640625,-0.2246246337890625,-0.1932220458984375
101638,-0.31304931640625,-0.2246246337890625,-0.1932220458984375
101639,-0.4064483642578125,-0.291351318359375,-0.1840972900390625
101640,-0.458709716796875,-0.4506683349609375,-0.057525634765625
101641,-0.4397125244140625,-1.082275390625,0.383331298828125
101642,-0.4397125244140625,-1.082275390625,0.383331298828125
101643,-0.423919677734375,-1.513519287109375,0.2817230224609375
101644,-0.415618896484375,-2.095794677734375,0.082061767578125
101645,-0.579833984375,-3.8944091796875,-0.2075958251953125
101646,-0.579833984375,-3.8944091796875,-0.2075958251953125
101647,-0.8535308837890625,-4.39178466796875,-0.32757568359375
101648,-1.092437744140625,-4.22894287109375,-0.0824432373046875
101649,-0.78125,-2.999160766601562,0.4128570556640625
101650,-0.78125,-2.999160766601562,0.4128570556640625
101651,-0.46075439453125,-2.465301513671875,0.5239105224609375
101652,-0.2440185546875,-2.129318237304688,0.78582763671875
101653,-0.003326416015625,-1.76910400390625,0.8632659912109375
101654,-0.003326416015625,-1.76910400390625,0.8632659912109375
101655,-0.0369415283203125,-1.63043212890625,0.692047119140625
101656,-0.1020050048828125,-1.553695678710938,0.47198486328125
101657,-0.11370849609375,-1.441864013671875,0.324798583984375
101658,-0.11370849609375,-1.441864013671875,0.324798583984375
101659,-0.049041748046875,-1.298553466796875,0.311431884765625
101660,-0.0006561279296875,-1.121490478515625,0.2900238037109375
101661,0.03924560546875,-0.92230224609375,0.2585906982421875
101662,0.03924560546875,-0.92230224609375,0.2585906982421875
101663,0.0855712890625,-0.56317138671875,0.143035888671875
101664,0.093353271484375,-0.3969268798828125,0.102447509765625
101665,0.114349365234375,-0.2573394775390625,0.1083831787109375
101666,0.114349365234375,-0.2573394775390625,0.1083831787109375
101667,0.1882476806640625,-0.04351806640625,0.179107666015625
101668,0.2416839599609375,0.07061767578125,0.2021484375
101669,0.327178955078125,0.26568603515625,0.1733245849609375
101670,0.327178955078125,0.26568603515625,0.1733245849609375
101671,0.3267669677734375,0.3183441162109375,0.101348876953125
101672,0.2925567626953125,0.3326416015625,0.0072479248046875
101673,0.2265777587890625,0.26507568359375,-0.102630615234375
101674,0.2265777587890625,0.26507568359375,-0.102630615234375
101675,0.2061767578125,0.2031097412109375,-0.09716796875
101676,0.172576904296875,0.122772216796875,-0.081695556640625
101677,0.0567779541015625,-0.22210693359375,-0.023345947265625
101678,0.0567779541015625,-0.22210693359375,-0.023345947265625
101679,0.06201171875,-0.4011993408203125,-0.0259857177734375
101680,0.0717010498046875,-0.5172882080078125,-0.0830535888671875
101681,0.0613250732421875,-0.7679595947265625,-0.307952880859375
101682,0.0613250732421875,-0.7679595947265625,-0.307952880859375
101683,-0.032562255859375,-0.9307098388671876,-0.4616546630859375
101684,-0.194183349609375,-1.156112670898438,-0.626708984375
101685,-0.673492431640625,-1.872604370117188,-1.0009765625
101686,-0.673492431640625,-1.872604370117188,-1.0009765625
101687,-0.9985504150390624,-2.373672485351562,-0.9831085205078124
101688,-1.370452880859375,-2.910552978515625,-0.7316131591796875
101689,-1.708877563476562,-3.368408203125,-0.616973876953125
101690,-1.708877563476562,-3.368408203125,-0.616973876953125
101691,-1.295562744140625,-2.98681640625,-0.5590057373046875
101692,-0.74505615234375,-2.283782958984375,-0.431243896484375
101693,-0.2190399169921875,-1.50311279296875,-0.2815093994140625
101694,-0.2190399169921875,-1.50311279296875,-0.2815093994140625
101695,-0.06500244140625,-1.209991455078125,-0.1224212646484375
101696,-0.0810699462890625,-0.9208984375,-0.0384674072265625
101697,-0.4053192138671875,-0.595001220703125,0.1523590087890625
101698,-0.4053192138671875,-0.595001220703125,0.1523590087890625
101699,-0.4319915771484375,-0.573272705078125,0.17572021484375
101700,-0.35162353515625,-0.513092041015625,0.1701202392578125
101701,-0.0504913330078125,-0.18072509765625,0.2261962890625
101702,-0.0504913330078125,-0.18072509765625,0.2261962890625
101703,-0.0504913330078125,-0.18072509765625,0.2261962890625
101704,0.019073486328125,-0.081085205078125,0.2169342041015625
101705,0.0795440673828125,-3.0517578125e-05,0.214874267578125
101706,0.0795440673828125,-3.0517578125e-05,0.214874267578125
101707,0.1197052001953125,0.14019775390625,0.271331787109375
101708,0.1574249267578125,0.1576080322265625,0.30120849609375
101709,0.2024078369140625,0.06011962890625,0.31219482421875
101710,0.2259368896484375,-0.09130859375,0.3114471435546875
101711,0.2376556396484375,-0.1830291748046875,0.271392822265625
101712,0.2315673828125,-0.2683868408203125,0.238739013671875
101713,0.1467742919921875,-0.3625946044921875,0.181365966796875
101714,0.1467742919921875,-0.3625946044921875,0.181365966796875
101715,0.0945892333984375,-0.3790130615234375,0.1029205322265625
101716,0.01806640625,-0.359039306640625,-0.0578155517578125
101717,-0.133056640625,-0.32818603515625,-0.0405731201171875
101718,-0.205810546875,-0.271942138671875,-0.1254425048828125
101719,-0.205810546875,-0.271942138671875,-0.1254425048828125
101720,-0.2815093994140625,-0.226593017578125,-0.2439727783203125
101721,-0.3590087890625,-0.282012939453125,-0.0225372314453125
101722,-0.3590087890625,-0.282012939453125,-0.0225372314453125
101723,-0.350372314453125,-0.4596099853515625,0.2208099365234375
101724,-0.282470703125,-0.7682952880859375,0.4120330810546875
101725,-0.25799560546875,-1.528289794921875,0.2957305908203125
101726,-0.25799560546875,-1.528289794921875,0.2957305908203125
101727,-0.3245849609375,-2.127670288085938,-0.0350494384765625
101728,-0.459869384765625,-3.122726440429688,-0.3089447021484375
101729,-0.73583984375,-4.179916381835938,-0.544769287109375
101730,-0.73583984375,-4.179916381835938,-0.544769287109375
101731,-1.366973876953125,-4.4906005859375,-0.134857177734375
101732,-1.471755981445312,-3.511810302734375,0.2672271728515625
101733,-1.060501098632812,-2.754547119140625,0.4416351318359375
101734,-1.060501098632812,-2.754547119140625,0.4416351318359375
101735,-0.1492919921875,-1.848220825195312,1.113845825195312
101736,0.01055908203125,-1.685409545898438,1.0321044921875
101737,0.012451171875,-1.5001220703125,0.4654541015625
101738,0.012451171875,-1.5001220703125,0.4654541015625
101739,-0.041107177734375,-1.497344970703125,0.3183441162109375
101740,-0.0603485107421875,-1.482254028320312,0.267974853515625
101741,-0.03912353515625,-1.40252685546875,0.304534912109375
101742,-0.0376129150390625,-1.290679931640625,0.3221893310546875
101743,-0.03070068359375,-1.15435791015625,0.3017425537109375
101744,-0.0306549072265625,-0.991973876953125,0.2470245361328125
101745,-0.024078369140625,-0.6603851318359375,0.069244384765625
101746,-0.024078369140625,-0.6603851318359375,0.069244384765625
101747,0.0169525146484375,-0.52008056640625,0.02593994140625
101748,0.072021484375,-0.378997802734375,0.0294647216796875
101749,0.1322021484375,-0.246429443359375,0.0624542236328125
101750,0.1870269775390625,-0.0951385498046875,0.099578857421875
101751,0.2329864501953125,0.0543365478515625,0.136962890625
101752,0.2606964111328125,0.1926422119140625,0.16064453125
101753,0.255462646484375,0.326171875,0.055755615234375
101754,0.255462646484375,0.326171875,0.055755615234375
101755,0.2307891845703125,0.3414459228515625,-0.02056884765625
101756,0.1943817138671875,0.334716796875,-0.044281005859375
101757,0.1385955810546875,0.3000946044921875,-0.0670013427734375
101758,0.0794830322265625,0.2176971435546875,-0.054779052734375
101759,0.01416015625,0.08660888671875,0.0098876953125
101760,-0.05889892578125,-0.0920867919921875,0.092071533203125
101761,-0.0972747802734375,-0.290618896484375,0.150634765625
101762,-0.0607757568359375,-0.461273193359375,0.162750244140625
101763,0.0074615478515625,-0.6031646728515625,0.15252685546875
101764,0.0810394287109375,-0.708831787109375,0.076690673828125
101765,0.07403564453125,-0.884857177734375,-0.25946044921875
101766,0.07403564453125,-0.884857177734375,-0.25946044921875
101767,-0.0335540771484375,-1.001739501953125,-0.5127716064453125
101768,-0.172515869140625,-1.166412353515625,-0.76690673828125
101769,-0.6640625,-2.174880981445312,-0.8756103515625
101770,-0.6640625,-2.174880981445312,-0.8756103515625
101771,-1.029129028320312,-3.055892944335938,-0.7584381103515625
101772,-1.337860107421875,-3.834426879882812,-0.544830322265625
101773,-1.376007080078125,-3.449356079101562,-0.76300048828125
101774,-1.376007080078125,-3.449356079101562,-0.76300048828125
101775,-0.8481597900390625,-2.60845947265625,-0.4073944091796875
101776,-0.434906005859375,-1.948654174804688,-0.1302490234375
101777,-0.2450103759765625,-1.4541015625,-0.0322418212890625
101778,-0.23992919921875,-1.085952758789062,0.017669677734375
101779,-0.354461669921875,-0.818206787109375,0.0615692138671875
101780,-0.4769287109375,-0.6702117919921875,0.05426025390625
101781,-0.5322723388671875,-0.51885986328125,0.138214111328125
101782,-0.5322723388671875,-0.51885986328125,0.138214111328125
101783,-0.4854278564453125,-0.42169189453125,0.1560821533203125
101784,-0.384490966796875,-0.300140380859375,0.1666717529296875
101785,-0.246002197265625,-0.1872100830078125,0.184600830078125
101786,-0.1062774658203125,-0.10882568359375,0.2102203369140625
101787,0.01318359375,-0.0371856689453125,0.237579345703125
101788,0.1118011474609375,0.02899169921875,0.2746734619140625
101789,0.1775665283203125,0.090362548828125,0.2967376708984375
101790,0.2368927001953125,0.1307830810546875,0.290130615234375
101791,0.336944580078125,0.1605072021484375,0.3073577880859375
101792,0.4517669677734375,0.1363677978515625,0.3169403076171875
101793,0.3892974853515625,-0.1719818115234375,0.274658203125
101794,0.3892974853515625,-0.1719818115234375,0.274658203125
101795,0.1794891357421875,-0.2919158935546875,0.285614013671875
101796,0.036346435546875,-0.3436737060546875,0.157928466796875
101797,-0.0189056396484375,-0.362518310546875,-0.001617431640625
101798,-0.039581298828125,-0.355438232421875,-0.089874267578125
101799,-0.0618743896484375,-0.3460693359375,-0.064117431640625
101800,-0.1019439697265625,-0.3477783203125,0.01324462890625
101801,-0.216461181640625,-0.31573486328125,-0.0564727783203125
101802,-0.216461181640625,-0.31573486328125,-0.0564727783203125
101803,-0.216461181640625,-0.31573486328125,-0.0564727783203125
101804,-0.210418701171875,-0.3494873046875,0.01556396484375
101805,-0.225616455078125,-0.5247955322265625,0.1649322509765625
101806,-0.225616455078125,-0.5247955322265625,0.1649322509765625
101807,-0.197479248046875,-0.7504119873046875,0.272796630859375
101808,-0.161163330078125,-1.00103759765625,0.352203369140625
101809,-0.1939239501953125,-1.287994384765625,0.2173919677734375
101810,-0.27587890625,-1.6748046875,-0.111785888671875
101811,-0.414581298828125,-2.292404174804688,-0.46795654296875
101812,-0.6771240234375,-3.241836547851562,-0.6918792724609375
101813,-1.043060302734375,-4.19140625,-0.6599578857421875
101814,-1.043060302734375,-4.19140625,-0.6599578857421875
101815,-1.621749877929688,-3.995086669921875,-0.0736846923828125
101816,-1.528823852539062,-3.116287231445312,0.19329833984375
101817,-0.269989013671875,-2.147293090820312,0.713409423828125
101818,-0.269989013671875,-2.147293090820312,0.713409423828125
101819,0.059844970703125,-1.913864135742188,0.9585723876953124
101820,0.2107391357421875,-1.791168212890625,0.9182281494140624
101821,0.186004638671875,-1.588790893554688,0.47454833984375
101822,0.186004638671875,-1.588790893554688,0.47454833984375
101823,0.135406494140625,-1.522628784179688,0.3700714111328125
101824,0.0860595703125,-1.440109252929688,0.329345703125
101825,0.0863189697265625,-1.166854858398438,0.311767578125
101826,0.0863189697265625,-1.166854858398438,0.311767578125
101827,0.073974609375,-0.9986724853515624,0.23675537109375
101828,0.0622406005859375,-0.8449554443359375,0.157196044921875
101829,0.0439605712890625,-0.696624755859375,0.079742431640625
101830,0.0238800048828125,-0.548858642578125,0.0232391357421875
101831,0.01519775390625,-0.4124755859375,0.0139617919921875
101832,0.0266876220703125,-0.2862091064453125,0.04058837890625
101833,0.0854644775390625,-0.0223236083984375,0.0667877197265625
101834,0.0854644775390625,-0.0223236083984375,0.0667877197265625
101835,0.1165924072265625,0.0885467529296875,0.0550079345703125
101836,0.143280029296875,0.1775970458984375,0.041656494140625
101837,0.158538818359375,0.280792236328125,-0.0518341064453125
101838,0.158538818359375,0.280792236328125,-0.0518341064453125
101839,0.14752197265625,0.3041229248046875,-0.08465576171875
101840,0.126068115234375,0.310943603515625,-0.0964813232421875
101841,0.1016082763671875,0.2876434326171875,-0.0997772216796875
101842,0.069976806640625,0.220550537109375,-0.054779052734375
101843,0.0048675537109375,0.0549774169921875,0.001251220703125
101844,-0.0694122314453125,-0.19854736328125,0.01416015625
101845,-0.09600830078125,-0.3916015625,0.000396728515625
101846,-0.087738037109375,-0.517852783203125,-0.0198211669921875
101847,-0.056365966796875,-0.6147918701171875,-0.0990142822265625
101848,-0.0459136962890625,-0.7115020751953125,-0.230438232421875
101849,-0.0941162109375,-0.84747314453125,-0.3634033203125
101850,-0.1854705810546875,-1.049636840820312,-0.468475341796875
101851,-0.3232574462890625,-1.337203979492188,-0.6339874267578125
101852,-0.51776123046875,-1.742965698242188,-0.8054046630859375
101853,-0.7093353271484375,-2.30682373046875,-0.8309326171875
101854,-0.8293914794921875,-2.928253173828125,-0.7464447021484375
101855,-0.8695220947265625,-3.441299438476562,-0.727264404296875
101856,-0.8262786865234375,-3.595245361328125,-0.8458099365234375
101857,-0.4668426513671875,-2.433883666992188,-0.63690185546875
101858,-0.4668426513671875,-2.433883666992188,-0.63690185546875
101859,-0.3089599609375,-1.811279296875,-0.452423095703125
101860,-0.2477569580078125,-1.423721313476562,-0.3189544677734375
101861,-0.292999267578125,-1.134994506835938,-0.1508941650390625
101862,-0.464874267578125,-0.869049072265625,0.013916015625
101863,-0.621856689453125,-0.7191619873046875,0.0947418212890625
101864,-0.6441802978515625,-0.659942626953125,0.1001129150390625
101865,-0.43060302734375,-0.50738525390625,0.10040283203125
101866,-0.43060302734375,-0.50738525390625,0.10040283203125
101867,-0.2911376953125,-0.409423828125,0.118133544921875
101868,-0.1532440185546875,-0.307708740234375,0.132659912109375
101869,0.0791015625,-0.121063232421875,0.1758880615234375
101870,0.0791015625,-0.121063232421875,0.1758880615234375
101871,0.15252685546875,-0.03546142578125,0.2186126708984375
101872,0.244964599609375,0.05029296875,0.27862548828125
101873,0.36956787109375,0.0950469970703125,0.3628387451171875
101874,0.36956787109375,0.0950469970703125,0.3628387451171875
101875,0.5380859375,-0.113250732421875,0.4107513427734375
101876,0.4935302734375,-0.26275634765625,0.362213134765625
101877,0.2713775634765625,-0.3082275390625,0.230438232421875
101878,0.2713775634765625,-0.3082275390625,0.230438232421875
101879,0.1362762451171875,-0.276763916015625,0.1491851806640625
101880,-0.014404296875,-0.267822265625,0.1464080810546875
101881,-0.150543212890625,-0.3233184814453125,0.026824951171875
101882,-0.150543212890625,-0.3233184814453125,0.026824951171875
101883,-0.1715087890625,-0.315673828125,-0.1613616943359375
101884,-0.18463134765625,-0.267913818359375,-0.2565765380859375
101885,-0.1915740966796875,-0.2132568359375,-0.2704925537109375
101886,-0.2026824951171875,-0.209930419921875,-0.1590728759765625
101887,-0.212310791015625,-0.208282470703125,-0.0699462890625
101888,-0.191650390625,-0.3319854736328125,0.08380126953125
101889,-0.1276702880859375,-0.6397247314453125,0.3590087890625
101890,-0.09027099609375,-1.11883544921875,0.51318359375
101891,-0.119171142578125,-1.730514526367188,0.41790771484375
101892,-0.236724853515625,-2.408309936523438,0.1093902587890625
101893,-0.371337890625,-3.02655029296875,-0.1568145751953125
101894,-0.371337890625,-3.02655029296875,-0.1568145751953125
101895,-0.721282958984375,-3.79327392578125,-0.3297882080078125
101896,-0.96954345703125,-3.665206909179688,-0.2393951416015625
101897,-1.096176147460938,-3.278091430664062,-0.056060791015625
101898,-1.027511596679688,-2.8341064453125,0.1183624267578125
101899,-0.6833343505859375,-2.405075073242188,0.3473968505859375
101900,-0.2967071533203125,-2.04010009765625,0.5761871337890625
101901,0.0654144287109375,-1.569442749023438,0.6108245849609375
101902,0.0654144287109375,-1.569442749023438,0.6108245849609375
101903,0.0010528564453125,-1.529754638671875,0.403289794921875
101904,0.0010528564453125,-1.529754638671875,0.403289794921875
101905,-0.0084686279296875,-1.489120483398438,0.341522216796875
101906,-0.0102081298828125,-1.407867431640625,0.2707672119140625
101907,0.010650634765625,-1.280120849609375,0.2019805908203125
101908,0.0695343017578125,-1.13543701171875,0.1799163818359375
101909,0.1315765380859375,-0.97674560546875,0.176727294921875
101910,0.1553192138671875,-0.81658935546875,0.161956787109375
101911,0.1451263427734375,-0.6580810546875,0.134185791015625
101912,0.132293701171875,-0.5035247802734375,0.115936279296875
101913,0.1257781982421875,-0.363433837890625,0.1152801513671875
101914,0.1324615478515625,-0.253631591796875,0.1220703125
101915,0.152618408203125,-0.1542510986328125,0.13824462890625
101916,0.1812591552734375,-0.053131103515625,0.1529693603515625
101917,0.20159912109375,0.03662109375,0.1441802978515625
