time_idx,accelerometerAccelerationX(G),accelerometerAccelerationY(G),accelerometerAccelerationZ(G)
300000,-0.174896240234375,-0.7858428955078125,0.0493621826171875
300001,-0.193267822265625,-0.82720947265625,0.0464324951171875
300002,-0.212127685546875,-0.873748779296875,0.04931640625
300003,-0.223480224609375,-0.9283447265625,0.0663909912109375
300004,-0.22418212890625,-0.9937744140625,0.086395263671875
300005,-0.217376708984375,-1.0679931640625,0.115142822265625
300006,-0.2022552490234375,-1.13092041015625,0.1615142822265625
300007,-0.1826324462890625,-1.148651123046875,0.2313385009765625
300008,-0.165802001953125,-1.16082763671875,0.310150146484375
300009,-0.14697265625,-1.15362548828125,0.3603973388671875
300010,-0.1243438720703125,-1.120391845703125,0.3659820556640625
300011,-0.09344482421875,-1.080413818359375,0.367919921875
300012,-0.038543701171875,-1.053314208984375,0.38177490234375
300013,0.0362091064453125,-1.047637939453125,0.4185028076171875
300014,0.11517333984375,-1.043426513671875,0.4506988525390625
300015,0.19537353515625,-1.034805297851562,0.518524169921875
300016,0.2537841796875,-1.039932250976562,0.615264892578125
300017,0.2758026123046875,-1.061737060546875,0.6976165771484375
300018,0.2599334716796875,-1.086807250976562,0.7654876708984375
300019,0.2319793701171875,-1.105209350585938,0.804534912109375
300020,0.160552978515625,-1.115951538085938,0.7987213134765625
300021,0.0584869384765625,-1.115524291992188,0.7779388427734375
300022,-0.030792236328125,-1.107589721679688,0.7491455078125
300023,-0.107391357421875,-1.10638427734375,0.69219970703125
300024,-0.1820526123046875,-1.10833740234375,0.6130523681640625
300025,-0.2472381591796875,-1.108230590820312,0.5361328125
300026,-0.289337158203125,-1.109527587890625,0.4531097412109375
300027,-0.3073883056640625,-1.108123779296875,0.36236572265625
300028,-0.30120849609375,-1.105545043945312,0.3011322021484375
300029,-0.2624053955078125,-1.102935791015625,0.2452392578125
300030,-0.1813201904296875,-1.096694946289062,0.1922607421875
300031,-0.0981292724609375,-1.076553344726562,0.123992919921875
300032,-0.0411224365234375,-1.04656982421875,0.0889892578125
300033,0.02191162109375,-1.02593994140625,0.094085693359375
300034,0.0840606689453125,-1.005859375,0.0855712890625
300035,0.1145172119140625,-0.98126220703125,0.0859375
300036,0.1117095947265625,-0.95697021484375,0.090545654296875
300037,0.109771728515625,-0.919219970703125,0.0866241455078125
300038,0.1242218017578125,-0.86285400390625,0.0999755859375
300039,0.1462249755859375,-0.7951202392578125,0.1183013916015625
300040,0.1540374755859375,-0.7183685302734375,0.11676025390625
300041,0.1592864990234375,-0.652923583984375,0.13134765625
300042,0.1685791015625,-0.605926513671875,0.174346923828125
300043,0.162811279296875,-0.5748443603515625,0.2138824462890625
300044,0.1461029052734375,-0.569488525390625,0.22930908203125
300045,0.1142425537109375,-0.5852813720703125,0.238372802734375
300046,0.059326171875,-0.6200714111328125,0.2379150390625
300047,-0.00653076171875,-0.6924285888671875,0.2207794189453125
300048,-0.0821533203125,-0.803680419921875,0.1771697998046875
300049,-0.155731201171875,-0.9485931396484376,0.10052490234375
300050,-0.2164154052734375,-1.107269287109375,0.01409912109375
300051,-0.2310943603515625,-1.25543212890625,-0.0551910400390625
300052,-0.2225341796875,-1.350860595703125,-0.0789794921875
300053,-0.21331787109375,-1.37139892578125,-0.0762939453125
300054,-0.222381591796875,-1.323333740234375,-0.0584564208984375
300055,-0.24371337890625,-1.231842041015625,-0.04449462890625
300056,-0.2536163330078125,-1.141494750976562,-0.0488433837890625
300057,-0.2595977783203125,-1.073944091796875,-0.0585784912109375
300058,-0.26654052734375,-1.03570556640625,-0.0590057373046875
300059,-0.2753753662109375,-1.026657104492188,-0.053558349609375
300060,-0.2848358154296875,-1.026596069335938,-0.0474853515625
300061,-0.2833709716796875,-1.024002075195312,-0.0209197998046875
300062,-0.271209716796875,-1.00933837890625,0.0220489501953125
300063,-0.2559051513671875,-0.981292724609375,0.0505523681640625
300064,-0.2436370849609375,-0.9497528076171876,0.077667236328125
300065,-0.2137603759765625,-0.9312591552734376,0.09259033203125
300066,-0.171722412109375,-0.9248809814453124,0.1158599853515625
300067,-0.1226806640625,-0.9445953369140624,0.167327880859375
300068,-0.094970703125,-0.9806060791015624,0.2235260009765625
300069,-0.1016082763671875,-1.038619995117188,0.28204345703125
300070,-0.084716796875,-1.109817504882812,0.3458709716796875
300071,-0.0475311279296875,-1.15679931640625,0.412841796875
300072,-0.0049896240234375,-1.165740966796875,0.488128662109375
300073,0.044952392578125,-1.153396606445312,0.5634307861328125
300074,0.09783935546875,-1.1201171875,0.6419525146484375
300075,0.15484619140625,-1.087127685546875,0.6986083984375
300076,0.2081146240234375,-1.068634033203125,0.7465362548828125
300077,0.2542266845703125,-1.073776245117188,0.7987060546875
300078,0.2774810791015625,-1.088973999023438,0.804168701171875
300079,0.2511444091796875,-1.121917724609375,0.7532958984375
300080,0.2244873046875,-1.150421142578125,0.700836181640625
300081,0.2232513427734375,-1.1795654296875,0.6619110107421875
300082,0.2162017822265625,-1.2274169921875,0.5934600830078125
300083,0.206207275390625,-1.289657592773438,0.5248870849609375
300084,0.196746826171875,-1.34686279296875,0.449249267578125
300085,0.187957763671875,-1.38983154296875,0.3412017822265625
300086,0.180694580078125,-1.390899658203125,0.254486083984375
300087,0.169952392578125,-1.349578857421875,0.2139739990234375
300088,0.14349365234375,-1.274185180664062,0.2042694091796875
300089,0.09967041015625,-1.166946411132812,0.2182464599609375
300090,0.04412841796875,-1.050155639648438,0.2272796630859375
300091,-0.0132293701171875,-0.9455108642578124,0.2107086181640625
300092,-0.0673828125,-0.861663818359375,0.1785888671875
300093,-0.108673095703125,-0.7972869873046875,0.1421966552734375
300094,-0.1397552490234375,-0.7473907470703125,0.102447509765625
300095,-0.1653594970703125,-0.700592041015625,0.068206787109375
300096,-0.1688232421875,-0.6814422607421875,0.0375213623046875
300097,-0.1726531982421875,-0.657379150390625,0.018096923828125
300098,-0.176971435546875,-0.6349639892578125,0.0150299072265625
300099,-0.16790771484375,-0.593994140625,0.0238189697265625
300100,-0.15386962890625,-0.5343017578125,0.042205810546875
300101,-0.12884521484375,-0.4744415283203125,0.084228515625
300102,-0.1086273193359375,-0.412811279296875,0.1302947998046875
300103,-0.0921173095703125,-0.3617706298828125,0.1657562255859375
300104,-0.0754547119140625,-0.357391357421875,0.1669921875
300105,-0.0443267822265625,-0.4158935546875,0.1419677734375
300106,-0.0139617919921875,-0.5341949462890625,0.10516357421875
300107,-0.000518798828125,-0.72412109375,0.0375823974609375
300108,-0.0375518798828125,-0.9872894287109376,-0.038665771484375
300109,-0.1038055419921875,-1.257110595703125,-0.1146087646484375
300110,-0.181396484375,-1.478561401367188,-0.20989990234375
300111,-0.2532501220703125,-1.589797973632812,-0.2914276123046875
300112,-0.2871551513671875,-1.564682006835938,-0.2993316650390625
300113,-0.29608154296875,-1.438949584960938,-0.2325439453125
300114,-0.308563232421875,-1.241973876953125,-0.1341705322265625
300115,-0.320648193359375,-1.045669555664062,-0.0626373291015625
300116,-0.3292388916015625,-0.8975677490234375,-0.0387115478515625
300117,-0.3368377685546875,-0.79974365234375,-0.029632568359375
300118,-0.3437652587890625,-0.7431640625,0.00506591796875
300119,-0.3333587646484375,-0.73150634765625,0.053924560546875
300120,-0.301239013671875,-0.7535858154296875,0.10906982421875
300121,-0.26702880859375,-0.7991943359375,0.1623992919921875
300122,-0.2336883544921875,-0.8680419921875,0.2088623046875
300123,-0.193817138671875,-0.9491729736328124,0.2555084228515625
300124,-0.16400146484375,-1.037033081054688,0.283905029296875
300125,-0.15545654296875,-1.12213134765625,0.2774810791015625
300126,-0.1584625244140625,-1.192672729492188,0.2802276611328125
300127,-0.1654510498046875,-1.224884033203125,0.3193206787109375
300128,-0.1646728515625,-1.21319580078125,0.382720947265625
300129,-0.124908447265625,-1.203414916992188,0.4235382080078125
300130,-0.049530029296875,-1.200393676757812,0.4421844482421875
300131,0.025543212890625,-1.177139282226562,0.4931640625
300132,0.094329833984375,-1.1400146484375,0.5549774169921875
300133,0.157012939453125,-1.111373901367188,0.61395263671875
300134,0.2123870849609375,-1.0963134765625,0.6697998046875
300135,0.2510833740234375,-1.09515380859375,0.705841064453125
300136,0.2532806396484375,-1.107757568359375,0.721954345703125
300137,0.2099456787109375,-1.13043212890625,0.73876953125
300138,0.1363525390625,-1.157806396484375,0.7211151123046875
300139,0.041168212890625,-1.170135498046875,0.6710205078125
300140,-0.0502777099609375,-1.172195434570312,0.6298065185546875
300141,-0.117401123046875,-1.158782958984375,0.6050262451171875
300142,-0.1625823974609375,-1.130325317382812,0.5654754638671875
300143,-0.186981201171875,-1.0858154296875,0.49578857421875
300144,-0.1806488037109375,-1.03436279296875,0.396392822265625
300145,-0.170166015625,-0.9964752197265624,0.2969512939453125
300146,-0.15869140625,-0.9764862060546876,0.2100677490234375
300147,-0.132293701171875,-0.968017578125,0.1438446044921875
300148,-0.093658447265625,-0.971282958984375,0.1088714599609375
300149,-0.03436279296875,-0.978912353515625,0.08941650390625
300150,0.0142822265625,-0.989776611328125,0.075653076171875
300151,0.0347442626953125,-0.99322509765625,0.05621337890625
300152,0.046142578125,-0.996551513671875,0.06304931640625
300153,0.053314208984375,-0.9863739013671876,0.075408935546875
300154,0.055419921875,-0.9426116943359376,0.0864410400390625
300155,0.05889892578125,-0.8786163330078125,0.1061248779296875
300156,0.0613861083984375,-0.79296875,0.12060546875
300157,0.0673370361328125,-0.705078125,0.1412811279296875
300158,0.0741424560546875,-0.6281890869140625,0.172119140625
300159,0.075927734375,-0.583099365234375,0.20330810546875
300160,0.0771331787109375,-0.5812530517578125,0.23858642578125
300161,0.0715179443359375,-0.633209228515625,0.271453857421875
300162,0.04071044921875,-0.7184600830078125,0.286834716796875
300163,-0.0189208984375,-0.8229217529296875,0.2613983154296875
300164,-0.101165771484375,-0.9334259033203124,0.19744873046875
300165,-0.214019775390625,-1.029556274414062,0.12518310546875
300166,-0.313079833984375,-1.118240356445312,0.0604400634765625
300167,-0.3768463134765625,-1.19854736328125,-0.011505126953125
300168,-0.405853271484375,-1.2657470703125,-0.042755126953125
300169,-0.3925933837890625,-1.289108276367188,-0.0541839599609375
300170,-0.3537445068359375,-1.266921997070312,-0.0612030029296875
300171,-0.313690185546875,-1.219879150390625,-0.049560546875
300172,-0.26776123046875,-1.154830932617188,-0.0414276123046875
300173,-0.2203216552734375,-1.090972900390625,-0.0519561767578125
300174,-0.1702117919921875,-1.048995971679688,-0.07745361328125
300175,-0.1291046142578125,-1.032623291015625,-0.084716796875
300176,-0.105682373046875,-1.045074462890625,-0.0810699462890625
300177,-0.0925445556640625,-1.069656372070312,-0.059661865234375
300178,-0.0921478271484375,-1.080490112304688,-0.0360870361328125
300179,-0.0995330810546875,-1.079788208007812,-0.026275634765625
300180,-0.105712890625,-1.060699462890625,-0.0220947265625
300181,-0.0954437255859375,-1.027359008789062,-0.023529052734375
300182,-0.0800628662109375,-0.994842529296875,-0.0039825439453125
300183,-0.0462799072265625,-0.965301513671875,0.0269317626953125
300184,0.0868377685546875,-0.937408447265625,0.1532135009765625
300185,0.0868377685546875,-0.937408447265625,0.1532135009765625
300186,0.1435394287109375,-0.9381866455078124,0.223358154296875
300187,0.1716156005859375,-0.95404052734375,0.3022918701171875
300188,0.1701507568359375,-1.000350952148438,0.3759307861328125
300189,0.1507720947265625,-1.0750732421875,0.4403228759765625
300190,0.12506103515625,-1.169967651367188,0.506011962890625
300191,0.0977935791015625,-1.234375,0.559906005859375
300192,0.080169677734375,-1.246185302734375,0.59814453125
300193,0.086700439453125,-1.201644897460938,0.631195068359375
300194,0.120880126953125,-1.093780517578125,0.6614990234375
300195,0.160308837890625,-0.9654693603515624,0.7363739013671875
300196,0.2131195068359375,-0.8641510009765625,0.8227386474609375
300197,0.2336883544921875,-0.813079833984375,0.82794189453125
300198,0.19586181640625,-0.81072998046875,0.7845916748046875
300199,0.1295623779296875,-0.8424530029296875,0.72259521484375
300200,0.0536346435546875,-0.894744873046875,0.628814697265625
300201,-0.0008087158203125,-0.9723358154296876,0.51593017578125
300202,-0.0160064697265625,-1.066314697265625,0.40997314453125
300203,-0.0152740478515625,-1.173721313476562,0.3094329833984375
300204,-0.0055084228515625,-1.277725219726562,0.2087860107421875
300205,0.0064239501953125,-1.339584350585938,0.13427734375
300206,0.0188751220703125,-1.364974975585938,0.1159210205078125
300207,0.0313873291015625,-1.353744506835938,0.1079864501953125
300208,0.0313873291015625,-1.353744506835938,0.1079864501953125
300209,0.02642822265625,-1.297821044921875,0.0730133056640625
300210,-0.0013580322265625,-1.226791381835938,0.051483154296875
300211,-0.0484771728515625,-1.13800048828125,0.04376220703125
300212,-0.0865936279296875,-1.041610717773438,0.040863037109375
300213,-0.105438232421875,-0.9783935546875,0.0531005859375
300214,-0.1016998291015625,-0.9417572021484376,0.0806121826171875
300215,-0.0751495361328125,-0.91845703125,0.1167144775390625
300216,-0.0411376953125,-0.880279541015625,0.169525146484375
300217,-0.0016632080078125,-0.819244384765625,0.2055511474609375
300218,0.0391845703125,-0.7295684814453125,0.23291015625
300219,0.0910797119140625,-0.6176300048828125,0.26910400390625
300220,0.1581268310546875,-0.5019683837890625,0.311492919921875
300221,0.22991943359375,-0.3881683349609375,0.3372344970703125
300222,0.286865234375,-0.310638427734375,0.33978271484375
300223,0.315582275390625,-0.29638671875,0.3198699951171875
300224,0.301971435546875,-0.3464508056640625,0.286407470703125
300225,0.2741546630859375,-0.4645233154296875,0.2513427734375
300226,0.212066650390625,-0.67095947265625,0.17657470703125
300227,0.0386810302734375,-0.94464111328125,0.0408782958984375
300228,-0.2026214599609375,-1.232818603515625,-0.1374969482421875
300229,-0.3946380615234375,-1.50970458984375,-0.335296630859375
300230,-0.5282440185546875,-1.673095703125,-0.436065673828125
300231,-0.64630126953125,-1.688079833984375,-0.4489288330078125
300232,-0.7479095458984375,-1.600906372070312,-0.394683837890625
300233,-0.7979736328125,-1.3673095703125,-0.2718048095703125
300234,-0.7871551513671875,-1.071075439453125,-0.190216064453125
300235,-0.706756591796875,-0.8646240234375,-0.19189453125
300236,-0.5886383056640625,-0.7516632080078125,-0.1865081787109375
300237,-0.4895782470703125,-0.6974945068359375,-0.16680908203125
300238,-0.4039154052734375,-0.697540283203125,-0.139129638671875
300239,-0.215911865234375,-0.7920684814453125,-0.0421295166015625
300240,-0.215911865234375,-0.7920684814453125,-0.0421295166015625
300241,-0.125335693359375,-0.85723876953125,-0.0134429931640625
300242,-0.0449981689453125,-0.903900146484375,0.0048370361328125
300243,0.0156402587890625,-0.949005126953125,0.0318756103515625
300244,0.0615081787109375,-0.9984130859375,0.075836181640625
300245,0.07489013671875,-1.040390014648438,0.1491851806640625
300246,0.0465240478515625,-1.082763671875,0.2525482177734375
300247,0.0095367431640625,-1.127166748046875,0.3335418701171875
300248,0.001129150390625,-1.193008422851562,0.397857666015625
300249,0.0285491943359375,-1.269546508789062,0.46051025390625
300250,0.0743408203125,-1.311874389648438,0.5109100341796875
300251,0.1217498779296875,-1.301742553710938,0.5507049560546875
300252,0.176605224609375,-1.242889404296875,0.562896728515625
300253,0.2323760986328125,-1.150833129882812,0.5404052734375
300254,0.273223876953125,-1.056732177734375,0.59149169921875
300255,0.3083953857421875,-0.9778289794921876,0.68377685546875
300256,0.3101043701171875,-0.928863525390625,0.7709503173828125
300257,0.25726318359375,-0.9212799072265624,0.814971923828125
300258,0.1670379638671875,-0.9458770751953124,0.826507568359375
300259,0.0796051025390625,-0.972900390625,0.8005523681640625
300260,0.0212554931640625,-0.97296142578125,0.76300048828125
300261,-0.01751708984375,-0.97161865234375,0.7179107666015625
300262,-0.0561981201171875,-0.9832305908203124,0.6594390869140625
300263,-0.1010589599609375,-1.005462646484375,0.5799560546875
300264,-0.1628570556640625,-1.0302734375,0.4598541259765625
300265,-0.241729736328125,-1.048355102539062,0.3128662109375
300266,-0.3016510009765625,-1.049423217773438,0.215057373046875
300267,-0.29534912109375,-1.011871337890625,0.0887908935546875
300268,-0.29534912109375,-1.011871337890625,0.0887908935546875
300269,-0.22119140625,-0.9842681884765624,0.0372161865234375
300270,-0.13360595703125,-0.968719482421875,0.0291290283203125
300271,-0.042999267578125,-0.9706878662109376,0.013519287109375
300272,0.02398681640625,-0.982940673828125,-0.014007568359375
300273,0.0613250732421875,-1.0023193359375,0.0048370361328125
300274,0.0846405029296875,-1.028793334960938,0.03887939453125
300275,0.0994110107421875,-1.048568725585938,0.066436767578125
300276,0.1013336181640625,-1.045166015625,0.10382080078125
300277,0.1013641357421875,-1.01806640625,0.1455841064453125
300278,0.0957489013671875,-0.9630279541015624,0.1706695556640625
300279,0.095855712890625,-0.8959197998046875,0.176513671875
300280,0.1064605712890625,-0.82110595703125,0.1781005859375
300281,0.127227783203125,-0.7555694580078125,0.1896514892578125
300282,0.1339569091796875,-0.7036285400390625,0.1975250244140625
300283,0.1203460693359375,-0.67645263671875,0.193603515625
300284,0.07647705078125,-0.6780242919921875,0.2034912109375
300285,-0.0012054443359375,-0.710205078125,0.1926116943359375
300286,-0.108734130859375,-0.7813873291015625,0.189056396484375
300287,-0.220672607421875,-0.9026336669921876,0.155029296875
300288,-0.288604736328125,-1.045883178710938,0.0851593017578125
300289,-0.3060150146484375,-1.170333862304688,0.01141357421875
300290,-0.301513671875,-1.261245727539062,-0.03887939453125
300291,-0.294342041015625,-1.311630249023438,-0.075897216796875
300292,-0.29327392578125,-1.323501586914062,-0.10162353515625
300293,-0.3004150390625,-1.302993774414062,-0.1373138427734375
300294,-0.3113250732421875,-1.2591552734375,-0.1750030517578125
300295,-0.3455963134765625,-1.16888427734375,-0.2022247314453125
300296,-0.3455963134765625,-1.16888427734375,-0.2022247314453125
300297,-0.36260986328125,-1.137176513671875,-0.15582275390625
300298,-0.3675994873046875,-1.108322143554688,-0.09149169921875
300299,-0.3675689697265625,-1.09307861328125,-0.0617218017578125
300300,-0.3431854248046875,-1.06048583984375,-0.047454833984375
300301,-0.3030853271484375,-1.014617919921875,-0.042694091796875
300302,-0.244110107421875,-0.9647369384765624,-0.046844482421875
300303,-0.100433349609375,-0.864837646484375,0.01690673828125
300304,-0.100433349609375,-0.864837646484375,0.01690673828125
300305,-0.022735595703125,-0.841033935546875,0.08599853515625
300306,0.0178070068359375,-0.839324951171875,0.14910888671875
300307,0.01922607421875,-0.864288330078125,0.1992950439453125
300308,0.0057525634765625,-0.9114990234375,0.2339935302734375
300309,-0.0023345947265625,-0.9692230224609376,0.2834320068359375
300310,-0.0035400390625,-1.028396606445312,0.354034423828125
300311,0.0265960693359375,-1.123214721679688,0.4860076904296875
300312,0.0265960693359375,-1.123214721679688,0.4860076904296875
300313,0.053863525390625,-1.148101806640625,0.5644378662109375
300314,0.0997161865234375,-1.155441284179688,0.66558837890625
300315,0.1717071533203125,-1.166061401367188,0.7645416259765625
300316,0.2479095458984375,-1.187301635742188,0.8323822021484375
300317,0.311798095703125,-1.20623779296875,0.8581390380859375
300318,0.3527984619140625,-1.20562744140625,0.824798583984375
300319,0.3114166259765625,-1.16070556640625,0.6999053955078125
300320,0.3114166259765625,-1.16070556640625,0.6999053955078125
300321,0.25262451171875,-1.160491943359375,0.621917724609375
300322,0.1956329345703125,-1.197769165039062,0.5445709228515625
300323,0.1199493408203125,-1.326324462890625,0.3680877685546875
300324,0.1199493408203125,-1.326324462890625,0.3680877685546875
300325,0.082305908203125,-1.3675537109375,0.2679290771484375
300326,0.0343475341796875,-1.374114990234375,0.1934661865234375
300327,-0.0887908935546875,-1.269317626953125,0.1495361328125
300328,-0.0887908935546875,-1.269317626953125,0.1495361328125
300329,-0.1517181396484375,-1.164230346679688,0.1242218017578125
300330,-0.20025634765625,-1.036895751953125,0.0981597900390625
300331,-0.2482147216796875,-0.823577880859375,0.0827484130859375
300332,-0.2482147216796875,-0.823577880859375,0.0827484130859375
300333,-0.2387542724609375,-0.7592315673828125,0.0915374755859375
300334,-0.2275390625,-0.7032928466796875,0.0933837890625
300335,-0.2138214111328125,-0.6593475341796875,0.0949554443359375
300336,-0.1910247802734375,-0.623992919921875,0.1049346923828125
300337,-0.163055419921875,-0.58551025390625,0.1227874755859375
300338,-0.1454010009765625,-0.5466156005859375,0.1353912353515625
300339,-0.1250152587890625,-0.4652557373046875,0.1977691650390625
300340,-0.1250152587890625,-0.4652557373046875,0.1977691650390625
300341,-0.122955322265625,-0.4220123291015625,0.227081298828125
300342,-0.1241912841796875,-0.4023284912109375,0.229278564453125
300343,-0.141510009765625,-0.4406890869140625,0.16925048828125
300344,-0.141510009765625,-0.4406890869140625,0.16925048828125
300345,-0.1489410400390625,-0.508026123046875,0.1073455810546875
300346,-0.1580047607421875,-0.639251708984375,0.0106201171875
300347,-0.2107086181640625,-0.859710693359375,-0.11181640625
300348,-0.31292724609375,-1.138748168945312,-0.2354888916015625
300349,-0.3842620849609375,-1.418594360351562,-0.34698486328125
300350,-0.4299468994140625,-1.606948852539062,-0.3981170654296875
300351,-0.478485107421875,-1.672775268554688,-0.3132476806640625
300352,-0.478485107421875,-1.672775268554688,-0.3132476806640625
300353,-0.4418182373046875,-1.4669189453125,-0.1665802001953125
300354,-0.389984130859375,-1.177505493164062,-0.067352294921875
300355,-0.2965545654296875,-0.765380859375,0.0373687744140625
300356,-0.2965545654296875,-0.765380859375,0.0373687744140625
300357,-0.2657470703125,-0.666351318359375,0.0693206787109375
300358,-0.229278564453125,-0.6317596435546875,0.0812530517578125
300359,-0.1416015625,-0.68719482421875,0.1072845458984375
300360,-0.1416015625,-0.68719482421875,0.1072845458984375
300361,-0.1092987060546875,-0.762664794921875,0.1237030029296875
300362,-0.0886383056640625,-0.8675537109375,0.13946533203125
300363,-0.0815277099609375,-1.110580444335938,0.1698760986328125
300364,-0.0815277099609375,-1.110580444335938,0.1698760986328125
300365,-0.101470947265625,-1.193267822265625,0.1975555419921875
300366,-0.122467041015625,-1.238540649414062,0.2390594482421875
300367,-0.146942138671875,-1.22906494140625,0.321136474609375
300368,-0.146942138671875,-1.22906494140625,0.321136474609375
300369,-0.1220855712890625,-1.214874267578125,0.362884521484375
300370,-0.06011962890625,-1.17919921875,0.385009765625
300371,0.0636138916015625,-1.079010009765625,0.482696533203125
300372,0.0636138916015625,-1.079010009765625,0.482696533203125
300373,0.1197662353515625,-1.06365966796875,0.6046295166015625
300374,0.1708984375,-1.090744018554688,0.701934814453125
300375,0.167755126953125,-1.134735107421875,0.73443603515625
300376,0.137054443359375,-1.16748046875,0.741119384765625
300377,0.0841827392578125,-1.177291870117188,0.7359619140625
300378,0.0072174072265625,-1.161529541015625,0.7157440185546875
300379,-0.10369873046875,-1.113235473632812,0.667816162109375
300380,-0.10369873046875,-1.113235473632812,0.667816162109375
300381,-0.1496429443359375,-1.099075317382812,0.6504058837890625
300382,-0.194183349609375,-1.0828857421875,0.6103057861328125
300383,-0.2803955078125,-1.016357421875,0.459259033203125
300384,-0.2803955078125,-1.016357421875,0.459259033203125
300385,-0.2972564697265625,-0.964935302734375,0.357452392578125
300386,-0.28436279296875,-0.9309844970703124,0.2668914794921875
300387,-0.20880126953125,-0.880523681640625,0.134796142578125
300388,-0.20880126953125,-0.880523681640625,0.134796142578125
300389,-0.1794891357421875,-0.87841796875,0.09576416015625
300390,-0.1529388427734375,-0.8931732177734375,0.0711669921875
300391,-0.1162261962890625,-0.962005615234375,0.0472259521484375
300392,-0.1162261962890625,-0.962005615234375,0.0472259521484375
300393,-0.09429931640625,-0.999603271484375,0.07537841796875
300394,-0.078369140625,-1.03466796875,0.0946807861328125
300395,-0.0559844970703125,-1.043869018554688,0.1102752685546875
300396,-0.0210418701171875,-1.0074462890625,0.1428680419921875
300397,0.008087158203125,-0.926483154296875,0.1779327392578125
300398,0.02728271484375,-0.82476806640625,0.190032958984375
300399,0.0611724853515625,-0.645111083984375,0.1576385498046875
300400,0.0611724853515625,-0.645111083984375,0.1576385498046875
300401,0.07965087890625,-0.6084136962890625,0.165374755859375
300402,0.079559326171875,-0.5920257568359375,0.17987060546875
300403,-0.0123138427734375,-0.6169281005859375,0.1490478515625
300404,-0.0123138427734375,-0.6169281005859375,0.1490478515625
300405,-0.1368865966796875,-0.695098876953125,0.117095947265625
300406,-0.30792236328125,-0.8580474853515625,0.061614990234375
300407,-0.30792236328125,-0.8580474853515625,0.061614990234375
300408,-0.4654388427734375,-1.241241455078125,-0.052093505859375
300409,-0.4498138427734375,-1.372848510742188,-0.0618743896484375
300410,-0.3905487060546875,-1.44000244140625,-0.0680389404296875
300411,-0.2823638916015625,-1.327987670898438,0.0298309326171875
300412,-0.2823638916015625,-1.327987670898438,0.0298309326171875
300413,-0.2342681884765625,-1.19537353515625,0.06915283203125
300414,-0.1756439208984375,-1.08642578125,0.0683441162109375
300415,-0.13067626953125,-1.024185180664062,0.0508575439453125
300416,-0.1104736328125,-1.00518798828125,0.034271240234375
300417,-0.1056671142578125,-1.018386840820312,0.0186309814453125
300418,-0.1233062744140625,-1.042190551757812,0.0088043212890625
300419,-0.1974639892578125,-1.056442260742188,-0.0133819580078125
300420,-0.1974639892578125,-1.056442260742188,-0.0133819580078125
300421,-0.2263336181640625,-1.030899047851562,-0.02655029296875
300422,-0.233551025390625,-0.9797210693359376,-0.0094451904296875
300423,-0.1930694580078125,-0.9035186767578124,0.0710906982421875
300424,-0.1930694580078125,-0.9035186767578124,0.0710906982421875
300425,-0.1632843017578125,-0.8834228515625,0.101104736328125
300426,-0.1315765380859375,-0.8682708740234375,0.141815185546875
300427,-0.0885772705078125,-0.8601531982421875,0.2055206298828125
300428,-0.0225677490234375,-0.876129150390625,0.2877960205078125
300429,0.0358428955078125,-0.903411865234375,0.3862457275390625
300430,0.0753173828125,-0.931365966796875,0.4918060302734375
300431,0.1326904296875,-1.071762084960938,0.610015869140625
300432,0.1326904296875,-1.071762084960938,0.610015869140625
300433,0.1507720947265625,-1.156906127929688,0.6461181640625
300434,0.17230224609375,-1.234542846679688,0.7502288818359375
300435,0.247100830078125,-1.325927734375,0.900787353515625
300436,0.247100830078125,-1.325927734375,0.900787353515625
300437,0.25274658203125,-1.329635620117188,0.873687744140625
300438,0.2504730224609375,-1.285858154296875,0.8164215087890625
300439,0.217041015625,-1.166336059570312,0.664886474609375
300440,0.217041015625,-1.166336059570312,0.664886474609375
300441,0.1727447509765625,-1.153976440429688,0.5851593017578125
300442,0.124481201171875,-1.16552734375,0.5086517333984375
300443,0.08404541015625,-1.188522338867188,0.4351348876953125
300444,0.054046630859375,-1.203903198242188,0.3689727783203125
300445,0.02386474609375,-1.204483032226562,0.3279876708984375
300446,-0.022857666015625,-1.189910888671875,0.2874603271484375
300447,-0.15087890625,-1.110794067382812,0.21832275390625
300448,-0.15087890625,-1.110794067382812,0.21832275390625
300449,-0.215240478515625,-1.037689208984375,0.19818115234375
300450,-0.2654876708984375,-0.965484619140625,0.18365478515625
300451,-0.299407958984375,-0.789398193359375,0.140350341796875
300452,-0.299407958984375,-0.789398193359375,0.140350341796875
300453,-0.2972564697265625,-0.70208740234375,0.104522705078125
300454,-0.2882843017578125,-0.63995361328125,0.064483642578125
300455,-0.2276611328125,-0.5688934326171875,-0.0013580322265625
300456,-0.2276611328125,-0.5688934326171875,-0.0013580322265625
300457,-0.1897430419921875,-0.5348968505859375,0.0135650634765625
300458,-0.171661376953125,-0.495452880859375,0.042572021484375
300459,-0.163421630859375,-0.44195556640625,0.165313720703125
300460,-0.163421630859375,-0.44195556640625,0.165313720703125
300461,-0.1672821044921875,-0.442352294921875,0.230377197265625
300462,-0.1668548583984375,-0.4593505859375,0.2828369140625
300463,-0.1073455810546875,-0.569244384765625,0.242218017578125
300464,-0.1073455810546875,-0.569244384765625,0.242218017578125
300465,-0.0655517578125,-0.679473876953125,0.1775970458984375
300466,-0.022674560546875,-0.855194091796875,0.1094970703125
300467,-0.0339813232421875,-1.277359008789062,0.0123443603515625
300468,-0.0339813232421875,-1.277359008789062,0.0123443603515625
300469,-0.078521728515625,-1.468994140625,-0.06243896484375
300470,-0.120361328125,-1.5999755859375,-0.1347198486328125
300471,-0.15325927734375,-1.610595703125,-0.1685028076171875
300472,-0.1683807373046875,-1.516921997070312,-0.1281585693359375
300473,-0.2015533447265625,-1.338623046875,-0.037384033203125
300474,-0.2475433349609375,-1.113510131835938,0.046112060546875
300475,-0.28857421875,-0.75555419921875,0.169921875
300476,-0.28857421875,-0.75555419921875,0.169921875
300477,-0.3026580810546875,-0.6665802001953125,0.1806640625
300478,-0.2982025146484375,-0.638641357421875,0.163360595703125
300479,-0.233642578125,-0.6955108642578125,0.1429595947265625
300480,-0.233642578125,-0.6955108642578125,0.1429595947265625
300481,-0.2014007568359375,-0.7502593994140625,0.1526947021484375
300482,-0.1812286376953125,-0.825042724609375,0.1765899658203125
300483,-0.1368255615234375,-1.043914794921875,0.279449462890625
300484,-0.1368255615234375,-1.043914794921875,0.279449462890625
300485,-0.126190185546875,-1.162551879882812,0.3249359130859375
300486,-0.1333465576171875,-1.251800537109375,0.338134765625
300487,-0.206878662109375,-1.262496948242188,0.4323883056640625
300488,-0.206878662109375,-1.262496948242188,0.4323883056640625
300489,-0.1953582763671875,-1.245834350585938,0.505279541015625
300490,-0.129150390625,-1.232406616210938,0.5356903076171875
300491,0.0582122802734375,-1.160598754882812,0.548309326171875
300492,0.0582122802734375,-1.160598754882812,0.548309326171875
300493,0.1331787109375,-1.107070922851562,0.588714599609375
300494,0.190155029296875,-1.054183959960938,0.6692962646484375
300495,0.2096405029296875,-1.019866943359375,0.73614501953125
300496,0.19281005859375,-0.9932098388671876,0.77899169921875
300497,0.1489715576171875,-0.973236083984375,0.7878265380859375
300498,0.08538818359375,-0.954559326171875,0.750732421875
300499,-0.0427093505859375,-0.964141845703125,0.66046142578125
300500,-0.0427093505859375,-0.964141845703125,0.66046142578125
300501,-0.085906982421875,-0.982757568359375,0.643280029296875
300502,-0.130889892578125,-1.000259399414062,0.608367919921875
300503,-0.1753692626953125,-1.022003173828125,0.5455169677734375
300504,-0.2270050048828125,-1.049041748046875,0.4501190185546875
300505,-0.2795257568359375,-1.0794677734375,0.3359527587890625
300506,-0.305145263671875,-1.09796142578125,0.226776123046875
300507,-0.2875518798828125,-1.096481323242188,0.0979461669921875
300508,-0.2875518798828125,-1.096481323242188,0.0979461669921875
300509,-0.2535858154296875,-1.06134033203125,0.0500640869140625
300510,-0.207733154296875,-1.014907836914062,0.016021728515625
300511,-0.164306640625,-0.9809722900390624,0.021728515625
300512,-0.135040283203125,-0.9646148681640624,0.016937255859375
300513,-0.108795166015625,-0.953369140625,-0.0005035400390625
300514,-0.0875244140625,-0.9501953125,0.0203704833984375
300515,-0.0345458984375,-0.901336669921875,0.1130218505859375
300516,-0.0345458984375,-0.901336669921875,0.1130218505859375
300517,-0.025146484375,-0.865936279296875,0.1720123291015625
300518,-0.0097503662109375,-0.8074798583984375,0.209747314453125
300519,0.047332763671875,-0.6679840087890625,0.30487060546875
300520,0.047332763671875,-0.6679840087890625,0.30487060546875
300521,0.0763397216796875,-0.6207122802734375,0.3386383056640625
300522,0.080657958984375,-0.6000823974609375,0.350982666015625
300523,0.0087738037109375,-0.64544677734375,0.2902679443359375
300524,0.0087738037109375,-0.64544677734375,0.2902679443359375
300525,-0.082000732421875,-0.7243194580078125,0.2250518798828125
300526,-0.1930999755859375,-0.8318328857421875,0.1385498046875
300527,-0.2781219482421875,-0.96783447265625,0.0350341796875
300528,-0.3237152099609375,-1.097732543945312,-0.0589447021484375
300529,-0.3324432373046875,-1.19232177734375,-0.105072021484375
300530,-0.3224334716796875,-1.243515014648438,-0.1144866943359375
300531,-0.3047332763671875,-1.214248657226562,-0.0801849365234375
300532,-0.3047332763671875,-1.214248657226562,-0.0801849365234375
300533,-0.2895050048828125,-1.160598754882812,-0.0702972412109375
300534,-0.2667388916015625,-1.114608764648438,-0.0614471435546875
300535,-0.2160186767578125,-1.08233642578125,-0.00604248046875
300536,-0.2160186767578125,-1.08233642578125,-0.00604248046875
300537,-0.19805908203125,-1.09002685546875,0.0099029541015625
300538,-0.1818084716796875,-1.104598999023438,-0.0017852783203125
300539,-0.1603546142578125,-1.11688232421875,-0.0105438232421875
300540,-0.1231231689453125,-1.142669677734375,0.043365478515625
300541,-0.0880126953125,-1.165740966796875,0.121978759765625
300542,-0.060272216796875,-1.136993408203125,0.1582489013671875
300543,-0.04901123046875,-1.087738037109375,0.1826629638671875
300544,-0.04901123046875,-1.087738037109375,0.1826629638671875
300545,0.0052337646484375,-1.0362548828125,0.316986083984375
300546,0.0318145751953125,-1.024139404296875,0.365325927734375
300547,0.124420166015625,-1.024734497070312,0.4432830810546875
300548,0.124420166015625,-1.024734497070312,0.4432830810546875
300549,0.1708831787109375,-1.025100708007812,0.4567718505859375
300550,0.201904296875,-1.023361206054688,0.4649810791015625
300551,0.220458984375,-1.02325439453125,0.497955322265625
300552,0.220458984375,-1.02325439453125,0.497955322265625
300553,0.239288330078125,-0.9962310791015624,0.6397552490234375
300554,0.2458648681640625,-0.9712982177734376,0.714324951171875
300555,0.2377471923828125,-0.9730682373046876,0.8072967529296875
300556,0.2377471923828125,-0.9730682373046876,0.8072967529296875
300557,0.1922607421875,-1.008056640625,0.759918212890625
300558,0.143402099609375,-1.072052001953125,0.6782989501953125
300559,0.0987091064453125,-1.157455444335938,0.5906829833984375
300560,0.052703857421875,-1.256500244140625,0.479278564453125
300561,0.0115966796875,-1.349853515625,0.370086669921875
300562,-0.02703857421875,-1.416549682617188,0.28997802734375
300563,-0.0601348876953125,-1.457290649414062,0.223419189453125
300564,-0.078338623046875,-1.46044921875,0.1818389892578125
300565,-0.0914306640625,-1.406036376953125,0.170928955078125
300566,-0.1099700927734375,-1.29376220703125,0.1864013671875
300567,-0.1387481689453125,-1.14044189453125,0.1971893310546875
300568,-0.1387481689453125,-1.14044189453125,0.1971893310546875
300569,-0.1804046630859375,-0.84130859375,0.208465576171875
300570,-0.18060302734375,-0.7385406494140625,0.1928253173828125
300571,-0.1754608154296875,-0.66546630859375,0.1723175048828125
300572,-0.1754608154296875,-0.66546630859375,0.1723175048828125
300573,-0.1583099365234375,-0.57861328125,0.1484832763671875
300574,-0.1434173583984375,-0.5504913330078125,0.151275634765625
300575,-0.0978240966796875,-0.51947021484375,0.17138671875
300576,-0.0978240966796875,-0.51947021484375,0.17138671875
300577,-0.0806884765625,-0.5030975341796875,0.18695068359375
300578,-0.0615386962890625,-0.490081787109375,0.192840576171875
300579,-0.053924560546875,-0.4799346923828125,0.1875762939453125
300580,-0.0526275634765625,-0.4814605712890625,0.1654510498046875
300581,-0.0481109619140625,-0.5135498046875,0.1373443603515625
300582,-0.0450592041015625,-0.5735321044921875,0.10467529296875
300583,-0.051177978515625,-0.81549072265625,-0.0041961669921875
300584,-0.051177978515625,-0.81549072265625,-0.0041961669921875
300585,-0.0796356201171875,-0.9673919677734376,-0.0926971435546875
300586,-0.1146392822265625,-1.096817016601562,-0.150238037109375
300587,-0.135467529296875,-1.173828125,-0.170440673828125
300588,-0.1493072509765625,-1.183364868164062,-0.167724609375
300589,-0.149749755859375,-1.121505737304688,-0.126068115234375
300590,-0.153472900390625,-1.026107788085938,-0.0787353515625
300591,-0.1697540283203125,-0.941436767578125,-0.055084228515625
300592,-0.198272705078125,-0.8907623291015625,-0.045440673828125
300593,-0.2259063720703125,-0.8860321044921875,-0.05145263671875
300594,-0.2564697265625,-0.91552734375,-0.0638275146484375
300595,-0.3060760498046875,-1.029220581054688,-0.08251953125
300596,-0.3060760498046875,-1.029220581054688,-0.08251953125
300597,-0.3261871337890625,-1.10223388671875,-0.071807861328125
300598,-0.349273681640625,-1.1854248046875,-0.0345306396484375
300599,-0.3562469482421875,-1.226318359375,0.0294036865234375
300600,-0.3562469482421875,-1.226318359375,0.0294036865234375
300601,-0.2995758056640625,-1.17340087890625,0.2080841064453125
300602,-0.233978271484375,-1.154388427734375,0.292266845703125
300603,-0.1788787841796875,-1.151840209960938,0.3711700439453125
300604,-0.1520843505859375,-1.171615600585938,0.4154815673828125
300605,-0.1207733154296875,-1.198089599609375,0.435577392578125
300606,-0.07427978515625,-1.212677001953125,0.4673919677734375
300607,0.0343475341796875,-1.204269409179688,0.5325164794921875
300608,0.0343475341796875,-1.204269409179688,0.5325164794921875
300609,0.1015472412109375,-1.178680419921875,0.5994110107421875
300610,0.1629638671875,-1.1602783203125,0.6887054443359375
300611,0.22039794921875,-1.161453247070312,0.7920379638671875
300612,0.2672882080078125,-1.189300537109375,0.8691864013671875
300613,0.2907562255859375,-1.229080200195312,0.91943359375
300614,0.29901123046875,-1.273162841796875,0.9424285888671876
300615,0.162353515625,-1.315658569335938,0.863433837890625
300616,0.162353515625,-1.315658569335938,0.863433837890625
300617,0.046875,-1.254852294921875,0.80926513671875
300618,-0.05535888671875,-1.15875244140625,0.7382049560546875
300619,-0.1347808837890625,-1.049209594726562,0.636871337890625
300620,-0.1906890869140625,-0.93780517578125,0.5283966064453125
300621,-0.2329864501953125,-0.8292236328125,0.435302734375
300622,-0.2643585205078125,-0.7369232177734375,0.367340087890625
300623,-0.2695770263671875,-0.666259765625,0.32073974609375
300624,-0.2394561767578125,-0.62152099609375,0.271697998046875
300625,-0.194427490234375,-0.61212158203125,0.2155914306640625
300626,-0.142364501953125,-0.6271820068359375,0.154754638671875
300627,-0.0442352294921875,-0.742919921875,0.0531768798828125
300628,-0.0442352294921875,-0.742919921875,0.0531768798828125
300629,-0.0068206787109375,-0.80902099609375,0.0061798095703125
300630,0.0289459228515625,-0.8630828857421875,-0.0158538818359375
300631,0.054168701171875,-0.9295501708984376,0.037322998046875
300632,0.054168701171875,-0.9295501708984376,0.037322998046875
300633,0.040435791015625,-0.932952880859375,0.0656890869140625
300634,0.0229949951171875,-0.902801513671875,0.1185302734375
300635,0.00885009765625,-0.8590087890625,0.169219970703125
300636,0.008544921875,-0.8157501220703125,0.192718505859375
300637,0.03436279296875,-0.776947021484375,0.2177886962890625
300638,0.09442138671875,-0.74285888671875,0.247283935546875
300639,0.1714935302734375,-0.7160797119140625,0.27874755859375
300640,0.2396087646484375,-0.6994171142578125,0.30816650390625
300641,0.2863616943359375,-0.7068023681640625,0.3300933837890625
300642,0.287750244140625,-0.7566070556640625,0.3362884521484375
300643,0.0489349365234375,-0.947113037109375,0.324676513671875
300644,0.0489349365234375,-0.947113037109375,0.324676513671875
300645,-0.0810699462890625,-1.062728881835938,0.25286865234375
300646,-0.1743011474609375,-1.151535034179688,0.1656341552734375
300647,-0.2531890869140625,-1.233078002929688,0.0756378173828125
300648,-0.2531890869140625,-1.233078002929688,0.0756378173828125
300649,-0.2802276611328125,-1.229507446289062,0.0647430419921875
300650,-0.3060302734375,-1.19940185546875,0.0527191162109375
300651,-0.358245849609375,-1.132217407226562,0.01275634765625
300652,-0.358245849609375,-1.132217407226562,0.01275634765625
300653,-0.3756256103515625,-1.129043579101562,0.00103759765625
300654,-0.381744384765625,-1.156814575195312,0.023651123046875
300655,-0.37347412109375,-1.200820922851562,0.0520172119140625
300656,-0.3753509521484375,-1.213943481445312,0.0545501708984375
300657,-0.3913726806640625,-1.186843872070312,0.04608154296875
300658,-0.3831939697265625,-1.128997802734375,0.054534912109375
300659,-0.285888671875,-0.9805145263671876,0.09967041015625
300660,-0.285888671875,-0.9805145263671876,0.09967041015625
300661,-0.189605712890625,-0.9475250244140624,0.1474151611328125
300662,-0.100860595703125,-0.9431304931640624,0.2140655517578125
300663,-0.0102386474609375,-1.004119873046875,0.2868194580078125
300664,-0.0102386474609375,-1.004119873046875,0.2868194580078125
300665,0.0230255126953125,-1.047088623046875,0.2867584228515625
300666,0.0508575439453125,-1.072463989257812,0.2940826416015625
300667,0.08837890625,-1.036865234375,0.347625732421875
300668,0.08837890625,-1.036865234375,0.347625732421875
300669,0.1059417724609375,-0.9929656982421876,0.388580322265625
300670,0.13153076171875,-0.946441650390625,0.4757843017578125
300671,0.19970703125,-0.8647003173828125,0.627105712890625
300672,0.19970703125,-0.8647003173828125,0.627105712890625
300673,0.238983154296875,-0.837738037109375,0.6843719482421875
300674,0.269744873046875,-0.85516357421875,0.7385711669921875
300675,0.27734375,-0.9041290283203124,0.759033203125
300676,0.261627197265625,-0.95880126953125,0.709014892578125
300677,0.2365264892578125,-1.0277099609375,0.6368255615234375
300678,0.2083740234375,-1.108322143554688,0.5830230712890625
300679,0.1542205810546875,-1.296798706054688,0.4896697998046875
300680,0.1542205810546875,-1.296798706054688,0.4896697998046875
300681,0.1409454345703125,-1.38177490234375,0.425689697265625
300682,0.1331329345703125,-1.432662963867188,0.3616485595703125
300683,0.1263580322265625,-1.446609497070312,0.3130950927734375
300684,0.1059112548828125,-1.423126220703125,0.2808685302734375
300685,0.0547027587890625,-1.355667114257812,0.2536163330078125
300686,-0.0161590576171875,-1.260055541992188,0.2333526611328125
300687,-0.085906982421875,-1.157989501953125,0.2185211181640625
300688,-0.14654541015625,-1.057540893554688,0.1985321044921875
300689,-0.18585205078125,-0.971923828125,0.163604736328125
300690,-0.1978302001953125,-0.9018402099609376,0.1302490234375
300691,-0.198944091796875,-0.829742431640625,0.118682861328125
300692,-0.1920623779296875,-0.7494354248046875,0.1154937744140625
300693,-0.16668701171875,-0.6666107177734375,0.1269073486328125
300694,-0.1358795166015625,-0.587890625,0.132049560546875
300695,-0.111907958984375,-0.5247802734375,0.12457275390625
300696,-0.091552734375,-0.47808837890625,0.1210174560546875
300697,-0.0758209228515625,-0.4391326904296875,0.12298583984375
300698,-0.0547027587890625,-0.41436767578125,0.122344970703125
300699,-0.0305023193359375,-0.386932373046875,0.1427001953125
300700,-0.0097808837890625,-0.369598388671875,0.1673583984375
300701,0.00042724609375,-0.378692626953125,0.1683807373046875
300702,-0.01031494140625,-0.4400634765625,0.130950927734375
300703,-0.0540771484375,-0.5755615234375,0.0508575439453125
300704,-0.1429443359375,-0.77398681640625,-0.048492431640625
300705,-0.245147705078125,-1.0162353515625,-0.1240081787109375
300706,-0.33056640625,-1.24639892578125,-0.1931304931640625
300707,-0.3941497802734375,-1.401138305664062,-0.2492218017578125
300708,-0.416046142578125,-1.467987060546875,-0.2648773193359375
300709,-0.4010162353515625,-1.442840576171875,-0.246307373046875
300710,-0.370941162109375,-1.347610473632812,-0.1955718994140625
300711,-0.3391265869140625,-1.223495483398438,-0.1282958984375
300712,-0.3094024658203125,-1.115219116210938,-0.06939697265625
300713,-0.2725982666015625,-1.050430297851562,-0.0374298095703125
300714,-0.2528839111328125,-1.020782470703125,-0.0069732666015625
300715,-0.2381591796875,-1.0185546875,0.001495361328125
300716,-0.2381591796875,-1.0185546875,0.001495361328125
300717,-0.2259979248046875,-1.022598266601562,0.02325439453125
300718,-0.22222900390625,-1.009811401367188,0.069366455078125
300719,-0.2157440185546875,-0.995269775390625,0.1208648681640625
300720,-0.2157440185546875,-0.995269775390625,0.1208648681640625
300721,-0.175628662109375,-0.9678802490234376,0.167327880859375
300722,-0.1564788818359375,-0.9666900634765624,0.165771484375
300723,-0.141357421875,-0.974884033203125,0.1927642822265625
300724,-0.141357421875,-0.974884033203125,0.1927642822265625
300725,-0.155670166015625,-1.006988525390625,0.329315185546875
300726,-0.1455230712890625,-1.050308227539062,0.3694915771484375
300727,-0.1356353759765625,-1.095230102539062,0.3848724365234375
300728,-0.1279449462890625,-1.12811279296875,0.4046173095703125
300729,-0.1059417724609375,-1.152114868164062,0.4427642822265625
300730,-0.0727691650390625,-1.17047119140625,0.4985198974609375
300731,-0.044769287109375,-1.168121337890625,0.580841064453125
300732,-0.044769287109375,-1.168121337890625,0.580841064453125
300733,0.0452117919921875,-1.1695556640625,0.7859954833984375
300734,0.0487213134765625,-1.192001342773438,0.7922515869140625
300735,0.0161895751953125,-1.201385498046875,0.7631683349609375
300736,-0.0185699462890625,-1.165237426757812,0.72320556640625
300737,-0.044769287109375,-1.1112060546875,0.6841583251953125
300738,-0.0730438232421875,-1.058685302734375,0.653076171875
300739,-0.111724853515625,-1.014755249023438,0.594451904296875
300740,-0.15606689453125,-0.9814300537109376,0.520477294921875
300741,-0.201904296875,-0.9627532958984376,0.4664306640625
300742,-0.2434844970703125,-0.9596099853515624,0.4195098876953125
300743,-0.2739410400390625,-0.9593505859375,0.35601806640625
300744,-0.281494140625,-0.95416259765625,0.2715911865234375
300745,-0.2589569091796875,-0.9458770751953124,0.184417724609375
300746,-0.1904449462890625,-0.93218994140625,0.1240234375
300747,-0.087982177734375,-0.910614013671875,0.082122802734375
300748,0.025970458984375,-0.89117431640625,0.042755126953125
300749,0.1187591552734375,-0.8898162841796875,0.0261077880859375
300750,0.176849365234375,-0.9061431884765624,0.0486602783203125
300751,0.2176971435546875,-0.9365692138671876,0.0834503173828125
300752,0.229736328125,-0.9746856689453124,0.1241607666015625
300753,0.2012786865234375,-1.011199951171875,0.156005859375
300754,0.154510498046875,-1.025619506835938,0.1820831298828125
300755,0.1089935302734375,-1.010910034179688,0.2119293212890625
300756,0.0912933349609375,-0.9742279052734376,0.2481536865234375
300757,0.0884246826171875,-0.9279022216796876,0.266021728515625
300758,0.0939788818359375,-0.89862060546875,0.2589263916015625
300759,0.08599853515625,-0.8801727294921875,0.24737548828125
300760,0.04345703125,-0.8652801513671875,0.2256011962890625
300761,-0.0269317626953125,-0.8662261962890625,0.190521240234375
300762,-0.1196746826171875,-0.8910980224609375,0.1522064208984375
300763,-0.2356109619140625,-0.9346466064453124,0.1024169921875
300764,-0.347686767578125,-1.0035400390625,0.030670166015625
300765,-0.4302215576171875,-1.1168212890625,-0.0628814697265625
300766,-0.439849853515625,-1.261154174804688,-0.1359405517578125
300767,-0.40057373046875,-1.361190795898438,-0.1492767333984375
300768,-0.40057373046875,-1.361190795898438,-0.1492767333984375
300769,-0.297454833984375,-1.327529907226562,-0.11968994140625
300770,-0.25201416015625,-1.228500366210938,-0.112518310546875
300771,-0.2030487060546875,-1.088516235351562,-0.1054840087890625
300772,-0.2030487060546875,-1.088516235351562,-0.1054840087890625
300773,-0.1866607666015625,-1.061248779296875,-0.09088134765625
300774,-0.18023681640625,-1.05035400390625,-0.0871429443359375
300775,-0.1929473876953125,-1.027023315429688,-0.099853515625
300776,-0.1929473876953125,-1.027023315429688,-0.099853515625
300777,-0.2003326416015625,-1.003387451171875,-0.0890350341796875
300778,-0.2010955810546875,-0.964813232421875,-0.0790252685546875
300779,-0.189605712890625,-0.916717529296875,-0.07708740234375
300780,-0.166412353515625,-0.8740692138671875,-0.0709991455078125
300781,-0.1356048583984375,-0.8303070068359375,-0.0511932373046875
300782,-0.0919342041015625,-0.79876708984375,-0.00250244140625
300783,-0.056915283203125,-0.775787353515625,0.0693359375
300784,-0.0311431884765625,-0.7792510986328125,0.131744384765625
300785,-0.0296173095703125,-0.8008575439453125,0.19439697265625
300786,-0.0384063720703125,-0.8271636962890625,0.252960205078125
300787,-0.0433349609375,-0.863250732421875,0.31689453125
300788,-0.046356201171875,-0.90350341796875,0.3828277587890625
300789,-0.0471038818359375,-0.9395599365234376,0.4331817626953125
300790,-0.0419769287109375,-0.967254638671875,0.473480224609375
300791,-0.023956298828125,-0.99542236328125,0.5398101806640625
300792,0.018280029296875,-1.019515991210938,0.5991058349609375
300793,0.0742340087890625,-1.037200927734375,0.6829833984375
300794,0.1367340087890625,-1.05322265625,0.7954559326171875
300795,0.20428466796875,-1.085662841796875,0.8619232177734375
300796,0.22845458984375,-1.129241943359375,0.8627471923828125
300797,0.210662841796875,-1.159881591796875,0.8225860595703125
300798,0.198150634765625,-1.164962768554688,0.7733001708984375
300799,0.1903228759765625,-1.166549682617188,0.7024078369140625
300800,0.1838836669921875,-1.197662353515625,0.6106719970703125
300801,0.1795654296875,-1.255111694335938,0.490325927734375
300802,0.185211181640625,-1.30718994140625,0.3898773193359375
300803,0.1946258544921875,-1.336441040039062,0.3303680419921875
300804,0.1909942626953125,-1.338577270507812,0.2946014404296875
300805,0.1673736572265625,-1.315933227539062,0.2827301025390625
300806,0.1157989501953125,-1.2666015625,0.2662200927734375
300807,0.0474700927734375,-1.2001953125,0.2417449951171875
300808,-0.028533935546875,-1.110076904296875,0.207855224609375
300809,-0.0983123779296875,-1.006790161132812,0.162353515625
300810,-0.153289794921875,-0.905548095703125,0.131072998046875
300811,-0.177093505859375,-0.8258514404296875,0.116180419921875
300812,-0.183868408203125,-0.7605133056640625,0.1086883544921875
300813,-0.1933746337890625,-0.709991455078125,0.07373046875
300814,-0.20001220703125,-0.6707916259765625,0.02520751953125
300815,-0.184295654296875,-0.642669677734375,-0.0179290771484375
300816,-0.153106689453125,-0.6196441650390625,-0.04254150390625
300817,-0.1175689697265625,-0.587493896484375,-0.0449371337890625
300818,-0.0911865234375,-0.5403900146484375,-0.009185791015625
300819,-0.0780792236328125,-0.4951629638671875,0.0383758544921875
300820,-0.0741729736328125,-0.4934539794921875,0.0741424560546875
300821,-0.0792694091796875,-0.5959014892578125,0.0881195068359375
300822,-0.102813720703125,-0.7849884033203125,0.058380126953125
300823,-0.1536865234375,-1.004074096679688,-0.0339202880859375
300824,-0.213623046875,-1.230453491210938,-0.146026611328125
300825,-0.275299072265625,-1.441375732421875,-0.2508697509765625
300826,-0.329193115234375,-1.584091186523438,-0.3313140869140625
300827,-0.3632659912109375,-1.660064697265625,-0.36041259765625
300828,-0.389495849609375,-1.643447875976562,-0.290252685546875
300829,-0.4045867919921875,-1.4676513671875,-0.16259765625
300830,-0.3742828369140625,-1.195907592773438,-0.0496978759765625
300831,-0.259521484375,-0.7878570556640625,0.046234130859375
300832,-0.259521484375,-0.7878570556640625,0.046234130859375
300833,-0.2326507568359375,-0.68316650390625,0.070404052734375
300834,-0.2152862548828125,-0.63201904296875,0.07305908203125
300835,-0.18951416015625,-0.622161865234375,0.0561981201171875
300836,-0.1649627685546875,-0.65667724609375,0.0392608642578125
300837,-0.171875,-0.7259521484375,0.0561676025390625
300838,-0.1875762939453125,-0.8482208251953125,0.0688629150390625
300839,-0.2204132080078125,-0.9763641357421876,0.065093994140625
300840,-0.2605438232421875,-1.09930419921875,0.0474700927734375
300841,-0.303131103515625,-1.177841186523438,0.0585174560546875
300842,-0.33441162109375,-1.209091186523438,0.0942535400390625
300843,-0.3345794677734375,-1.182373046875,0.152984619140625
300844,-0.269805908203125,-1.136947631835938,0.216033935546875
300845,-0.1560821533203125,-1.095169067382812,0.2847747802734375
300846,-0.0655975341796875,-1.053558349609375,0.3695526123046875
300847,0.0118255615234375,-1.023635864257812,0.426513671875
300848,0.089691162109375,-0.9934234619140624,0.4629058837890625
300849,0.1382904052734375,-0.96771240234375,0.4871826171875
300850,0.1686859130859375,-0.961639404296875,0.519378662109375
300851,0.1943359375,-0.9789886474609376,0.5756988525390625
300852,0.1943359375,-0.9789886474609376,0.5756988525390625
300853,0.154388427734375,-1.067611694335938,0.7408599853515625
300854,0.0849456787109375,-1.135757446289062,0.7470245361328125
300855,-0.0661163330078125,-1.24407958984375,0.6672821044921875
300856,-0.0661163330078125,-1.24407958984375,0.6672821044921875
300857,-0.1149749755859375,-1.265243530273438,0.6307830810546875
300858,-0.154571533203125,-1.269775390625,0.600341796875
300859,-0.1898956298828125,-1.25006103515625,0.544708251953125
300860,-0.2245330810546875,-1.204940795898438,0.4715118408203125
300861,-0.2551727294921875,-1.130584716796875,0.38201904296875
300862,-0.2809295654296875,-1.05181884765625,0.2908782958984375
300863,-0.291412353515625,-0.99237060546875,0.219482421875
300864,-0.2681427001953125,-0.9412078857421876,0.1807708740234375
300865,-0.2281494140625,-0.897735595703125,0.154266357421875
300866,-0.1834716796875,-0.8712005615234375,0.1196441650390625
300867,-0.0888671875,-0.87200927734375,0.0522003173828125
300868,-0.0888671875,-0.87200927734375,0.0522003173828125
300869,-0.0713958740234375,-0.8980255126953125,0.045135498046875
300870,-0.0729522705078125,-0.93389892578125,0.0634307861328125
300871,-0.076446533203125,-0.9689483642578124,0.067535400390625
300872,-0.0828857421875,-0.9775390625,0.0630645751953125
300873,-0.0853271484375,-0.951690673828125,0.082855224609375
300874,-0.0745086669921875,-0.8902740478515625,0.12591552734375
300875,-0.0442352294921875,-0.80560302734375,0.168121337890625
300876,-0.00970458984375,-0.7221527099609375,0.19744873046875
300877,0.014007568359375,-0.673431396484375,0.225311279296875
300878,0.023040771484375,-0.6758880615234375,0.2432098388671875
300879,0.0115509033203125,-0.733062744140625,0.237396240234375
300880,-0.0514068603515625,-0.844268798828125,0.2011871337890625
300881,-0.20611572265625,-0.9806671142578124,0.160064697265625
300882,-0.3589324951171875,-1.145294189453125,0.0600433349609375
300883,-0.4456329345703125,-1.285720825195312,-0.069671630859375
300884,-0.491180419921875,-1.377059936523438,-0.13720703125
300885,-0.4883575439453125,-1.403305053710938,-0.1642608642578125
300886,-0.4310150146484375,-1.31756591796875,-0.1504364013671875
300887,-0.2530059814453125,-0.9853973388671876,-0.0184173583984375
300888,-0.2530059814453125,-0.9853973388671876,-0.0184173583984375
300889,-0.174041748046875,-0.881561279296875,0.016632080078125
300890,-0.112823486328125,-0.846893310546875,0.0341796875
300891,-0.08062744140625,-0.8662109375,0.033447265625
300892,-0.0704803466796875,-0.9174652099609376,0.020538330078125
300893,-0.073974609375,-0.9810638427734376,-0.0076446533203125
300894,-0.0991668701171875,-1.038543701171875,-0.0399017333984375
300895,-0.1292266845703125,-1.08428955078125,-0.0630340576171875
300896,-0.1552581787109375,-1.091644287109375,-0.0680999755859375
300897,-0.168731689453125,-1.05963134765625,-0.04541015625
300898,-0.1697998046875,-1.00799560546875,0.01239013671875
300899,-0.1605377197265625,-0.9497833251953124,0.095550537109375
300900,-0.1414794921875,-0.909454345703125,0.18084716796875
300901,-0.1034698486328125,-0.8892364501953125,0.2489013671875
300902,-0.070068359375,-0.879150390625,0.2906341552734375
300903,-0.04669189453125,-0.885101318359375,0.3334808349609375
300904,-0.02093505859375,-0.8954315185546875,0.36962890625
300905,0.0016326904296875,-0.9126739501953124,0.3864593505859375
300906,0.019378662109375,-0.9289703369140624,0.39739990234375
300907,0.0363311767578125,-0.93359375,0.4262847900390625
300908,0.061981201171875,-0.9307861328125,0.4731597900390625
300909,0.0924835205078125,-0.929290771484375,0.5300140380859375
300910,0.1301727294921875,-0.9406280517578124,0.5999908447265625
300911,0.1696014404296875,-0.9788818359375,0.663726806640625
300912,0.207000732421875,-1.042221069335938,0.6804656982421875
300913,0.2383575439453125,-1.130325317382812,0.65570068359375
300914,0.267120361328125,-1.218734741210938,0.6081390380859375
300915,0.29168701171875,-1.287216186523438,0.55767822265625
300916,0.3094940185546875,-1.344192504882812,0.505462646484375
300917,0.317352294921875,-1.394744873046875,0.468170166015625
300918,0.304962158203125,-1.429244995117188,0.42327880859375
300919,0.2763671875,-1.443450927734375,0.3681793212890625
300920,0.2763671875,-1.443450927734375,0.3681793212890625
300921,0.1900482177734375,-1.35302734375,0.319122314453125
300922,0.1299591064453125,-1.250091552734375,0.3148193359375
300923,0.071502685546875,-1.119491577148438,0.32086181640625
300924,0.014892578125,-0.9854583740234376,0.3142547607421875
300925,-0.0359344482421875,-0.872650146484375,0.2883453369140625
300926,-0.071990966796875,-0.7728424072265625,0.2430267333984375
300927,-0.1386260986328125,-0.634368896484375,0.142791748046875
300928,-0.1386260986328125,-0.634368896484375,0.142791748046875
300929,-0.1711273193359375,-0.5924072265625,0.11212158203125
300930,-0.200836181640625,-0.5583038330078125,0.1042633056640625
300931,-0.2125091552734375,-0.551025390625,0.1168975830078125
300932,-0.2161102294921875,-0.5598297119140625,0.1333465576171875
300933,-0.2077484130859375,-0.5715789794921875,0.1601104736328125
300934,-0.1920318603515625,-0.58209228515625,0.1987152099609375
300935,-0.1892852783203125,-0.6014862060546875,0.2564239501953125
300936,-0.19757080078125,-0.651519775390625,0.2571258544921875
300937,-0.23699951171875,-0.7166595458984375,0.1844940185546875
300938,-0.2662811279296875,-0.80975341796875,0.0481719970703125
300939,-0.310272216796875,-1.115798950195312,-0.1865386962890625
300940,-0.310272216796875,-1.115798950195312,-0.1865386962890625
300941,-0.3178863525390625,-1.299728393554688,-0.198028564453125
300942,-0.29119873046875,-1.454437255859375,-0.1949310302734375
300943,-0.2527008056640625,-1.511093139648438,-0.162017822265625
300944,-0.2119903564453125,-1.438446044921875,-0.0914306640625
300945,-0.134613037109375,-1.275497436523438,-0.0384368896484375
300946,-0.080474853515625,-1.086593627929688,0.004669189453125
300947,-0.0716705322265625,-0.9158782958984376,0.0373382568359375
300948,-0.0477447509765625,-0.7975006103515625,0.0376129150390625
300949,-0.01580810546875,-0.73260498046875,0.047210693359375
300950,-0.0214080810546875,-0.7150726318359375,0.0782470703125
300951,-0.0238037109375,-0.728759765625,0.08184814453125
300952,-0.0213623046875,-0.764892578125,0.0594329833984375
300953,-0.0616607666015625,-0.8167266845703125,0.06396484375
300954,-0.116790771484375,-0.8726654052734375,0.05535888671875
300955,-0.1663055419921875,-0.9308929443359376,-0.000640869140625
300956,-0.2120819091796875,-1.003036499023438,-0.033905029296875
300957,-0.2653350830078125,-1.095382690429688,-0.019561767578125
300958,-0.3048553466796875,-1.144668579101562,0.006561279296875
300959,-0.3228607177734375,-1.162384033203125,0.04595947265625
300960,-0.332000732421875,-1.1473388671875,0.1212921142578125
300961,-0.3144683837890625,-1.086196899414062,0.1883544921875
300962,-0.2642822265625,-1.043548583984375,0.2279510498046875
300963,-0.2193756103515625,-1.0164794921875,0.28265380859375
300964,-0.182952880859375,-0.9785308837890624,0.3790435791015625
300965,-0.1456298828125,-0.9627838134765624,0.448455810546875
300966,-0.1219482421875,-0.9764404296875,0.508453369140625
300967,-0.04144287109375,-1.02325439453125,0.600128173828125
300968,-0.04144287109375,-1.02325439453125,0.600128173828125
300969,0.023284912109375,-1.06243896484375,0.6047821044921875
300970,0.044952392578125,-1.11273193359375,0.6390838623046875
300971,0.0741729736328125,-1.139556884765625,0.6602935791015625
300972,0.1096954345703125,-1.161712646484375,0.61639404296875
300973,0.080322265625,-1.186233520507812,0.5666046142578125
300974,0.046600341796875,-1.171127319335938,0.5347900390625
300975,0.0393218994140625,-1.144363403320312,0.483795166015625
300976,0.003753662109375,-1.120162963867188,0.4096832275390625
300977,-0.04217529296875,-1.08575439453125,0.353546142578125
300978,-0.062255859375,-1.062820434570312,0.303558349609375
300979,-0.0809783935546875,-1.065597534179688,0.256439208984375
300980,-0.1129150390625,-1.082763671875,0.1873321533203125
300981,-0.1338348388671875,-1.099822998046875,0.1031341552734375
300982,-0.128021240234375,-1.121292114257812,0.0607147216796875
300983,-0.109954833984375,-1.138412475585938,0.05572509765625
300984,-0.0927276611328125,-1.139083862304688,0.044525146484375
300985,-0.0661468505859375,-1.117904663085938,0.031280517578125
300986,-0.0285797119140625,-1.08123779296875,0.0396575927734375
300987,0.013031005859375,-1.037185668945312,0.05865478515625
300988,0.049468994140625,-0.98968505859375,0.087249755859375
300989,0.082305908203125,-0.9354095458984376,0.1146087646484375
300990,0.1022796630859375,-0.8887176513671875,0.1537933349609375
300991,0.086517333984375,-0.8266754150390625,0.1763916015625
300992,0.086517333984375,-0.8266754150390625,0.1763916015625
300993,0.0531005859375,-0.7906036376953125,0.174407958984375
300994,0.0143890380859375,-0.7532958984375,0.1626739501953125
300995,-0.021575927734375,-0.720855712890625,0.1431884765625
300996,-0.0497894287109375,-0.7022857666015625,0.1340179443359375
300997,-0.065277099609375,-0.7001800537109375,0.1379547119140625
300998,-0.0823974609375,-0.714263916015625,0.1624908447265625
300999,-0.1229705810546875,-0.7591552734375,0.17340087890625
301000,-0.22235107421875,-0.836456298828125,0.1508941650390625
301001,-0.319549560546875,-0.9577789306640624,0.068878173828125
301002,-0.3707427978515625,-1.082199096679688,-0.0379791259765625
301003,-0.380584716796875,-1.17657470703125,-0.1279449462890625
301004,-0.3521728515625,-1.226150512695312,-0.1737823486328125
301005,-0.299407958984375,-1.231292724609375,-0.1590118408203125
301006,-0.232666015625,-1.198898315429688,-0.105255126953125
301007,-0.17401123046875,-1.154830932617188,-0.05279541015625
301008,-0.1382598876953125,-1.10662841796875,-0.029815673828125
301009,-0.1181640625,-1.0643310546875,-0.0318450927734375
301010,-0.113525390625,-1.042861938476562,-0.0410614013671875
301011,-0.130584716796875,-1.043411254882812,-0.0597076416015625
301012,-0.1556549072265625,-1.042739868164062,-0.0659942626953125
301013,-0.18084716796875,-1.040298461914062,-0.0703582763671875
301014,-0.1999359130859375,-1.030441284179688,-0.081024169921875
301015,-0.218109130859375,-1.008270263671875,-0.0658416748046875
301016,-0.2103424072265625,-0.97296142578125,-0.026702880859375
301017,-0.1749114990234375,-0.93768310546875,0.007598876953125
301018,-0.1269989013671875,-0.9005584716796875,0.0303192138671875
301019,-0.0767822265625,-0.87603759765625,0.0567169189453125
301020,-0.02899169921875,-0.871978759765625,0.098358154296875
301021,0.0111846923828125,-0.89501953125,0.1605224609375
301022,0.0327301025390625,-0.951934814453125,0.223541259765625
301023,0.03680419921875,-1.034072875976562,0.2871246337890625
301024,0.03643798828125,-1.133895874023438,0.346588134765625
301025,0.0334930419921875,-1.242767333984375,0.3943328857421875
301026,0.008544921875,-1.333099365234375,0.446197509765625
301027,-0.034454345703125,-1.3740234375,0.5077972412109375
301028,-0.0575408935546875,-1.354766845703125,0.5764312744140625
301029,-0.0475311279296875,-1.290176391601562,0.650177001953125
301030,0.0047454833984375,-1.201934814453125,0.731781005859375
301031,0.1062774658203125,-1.11444091796875,0.8040313720703125
301032,0.2162933349609375,-1.076141357421875,0.8241424560546875
301033,0.2785186767578125,-1.085586547851562,0.7780303955078125
301034,0.30023193359375,-1.112594604492188,0.6990966796875
301035,0.3106689453125,-1.140945434570312,0.6176910400390625
301036,0.3023834228515625,-1.165359497070312,0.514404296875
301037,0.2778778076171875,-1.190093994140625,0.40301513671875
301038,0.239349365234375,-1.210968017578125,0.3187103271484375
301039,0.1967926025390625,-1.220108032226562,0.286346435546875
301040,0.1553955078125,-1.202774047851562,0.267486572265625
301041,0.1068572998046875,-1.166091918945312,0.2325592041015625
301042,0.0628662109375,-1.120498657226562,0.20867919921875
301043,0.02215576171875,-1.057571411132812,0.17913818359375
301044,-0.0203399658203125,-0.9881591796875,0.1537933349609375
301045,-0.0624847412109375,-0.9259185791015624,0.1452789306640625
301046,-0.1102142333984375,-0.8717803955078125,0.117828369140625
301047,-0.216339111328125,-0.8126068115234375,0.0432281494140625
301048,-0.216339111328125,-0.8126068115234375,0.0432281494140625
301049,-0.2602691650390625,-0.8026123046875,-0.013580322265625
301050,-0.280975341796875,-0.780364990234375,-0.03558349609375
301051,-0.285400390625,-0.7487335205078125,-0.0071563720703125
301052,-0.2825164794921875,-0.7081146240234375,0.0507965087890625
301053,-0.2696685791015625,-0.6548004150390625,0.121856689453125
301054,-0.2552490234375,-0.5916595458984375,0.1593170166015625
301055,-0.2333221435546875,-0.5258941650390625,0.167510986328125
301056,-0.2123870849609375,-0.4748992919921875,0.1571502685546875
301057,-0.1922760009765625,-0.4603424072265625,0.1457366943359375
301058,-0.1577606201171875,-0.510772705078125,0.1159820556640625
301059,-0.1526336669921875,-0.812164306640625,0.016693115234375
301060,-0.1526336669921875,-0.812164306640625,0.016693115234375
301061,-0.1683807373046875,-0.983734130859375,-0.0382080078125
301062,-0.1845855712890625,-1.118331909179688,-0.0932159423828125
301063,-0.1988677978515625,-1.194793701171875,-0.115142822265625
301064,-0.219970703125,-1.201568603515625,-0.098907470703125
301065,-0.2532958984375,-1.13909912109375,-0.06109619140625
301066,-0.281341552734375,-1.032516479492188,-0.0101776123046875
301067,-0.2964019775390625,-0.925811767578125,0.0380096435546875
301068,-0.2964019775390625,-0.925811767578125,0.0380096435546875
301069,-0.2950897216796875,-0.8037872314453125,0.0832977294921875
301070,-0.2740936279296875,-0.7957611083984375,0.0892486572265625
301071,-0.250335693359375,-0.817230224609375,0.108154296875
301072,-0.226226806640625,-0.8673095703125,0.123931884765625
301073,-0.203521728515625,-0.929962158203125,0.144134521484375
301074,-0.1743927001953125,-1.018417358398438,0.1644744873046875
301075,-0.150482177734375,-1.103912353515625,0.194915771484375
301076,-0.13372802734375,-1.173919677734375,0.228759765625
301077,-0.11138916015625,-1.22686767578125,0.2485504150390625
301078,-0.112030029296875,-1.249252319335938,0.2630767822265625
301079,-0.1185760498046875,-1.2481689453125,0.281707763671875
301080,-0.1290435791015625,-1.22479248046875,0.3013458251953125
301081,-0.1340179443359375,-1.187286376953125,0.304290771484375
301082,-0.1204681396484375,-1.135955810546875,0.3274993896484375
301083,-0.089263916015625,-1.077102661132812,0.3763885498046875
301084,-0.03887939453125,-1.038070678710938,0.4566497802734375
301085,0.0162811279296875,-1.029342651367188,0.5290985107421875
301086,0.059661865234375,-1.0572509765625,0.6052093505859375
301087,0.085205078125,-1.115524291992188,0.660980224609375
301088,0.08087158203125,-1.194869995117188,0.72332763671875
301089,0.041168212890625,-1.2755126953125,0.777923583984375
301090,-0.03118896484375,-1.332504272460938,0.7908172607421875
301091,-0.1175689697265625,-1.343231201171875,0.7447509765625
301092,-0.20159912109375,-1.322891235351562,0.6841583251953125
301093,-0.26025390625,-1.263778686523438,0.64013671875
301094,-0.2969970703125,-1.167587280273438,0.592987060546875
301095,-0.306854248046875,-1.049911499023438,0.5481719970703125
301096,-0.29534912109375,-0.931304931640625,0.507476806640625
301097,-0.2692413330078125,-0.815338134765625,0.462005615234375
301098,-0.2343597412109375,-0.7081756591796875,0.4062042236328125
301099,-0.185821533203125,-0.6354217529296875,0.3611907958984375
301100,-0.121002197265625,-0.590057373046875,0.3086395263671875
301101,-0.0511474609375,-0.5820159912109375,0.2490386962890625
301102,0.0134429931640625,-0.610595703125,0.202301025390625
301103,0.08880615234375,-0.6461944580078125,0.1895294189453125
301104,0.1547698974609375,-0.692901611328125,0.18597412109375
301105,0.19110107421875,-0.7470855712890625,0.1699371337890625
301106,0.2207794189453125,-0.791473388671875,0.1618194580078125
301107,0.234100341796875,-0.85943603515625,0.134033203125
301108,0.2171783447265625,-0.9374237060546876,0.0819854736328125
301109,0.186065673828125,-0.9926605224609376,0.04901123046875
301110,0.14581298828125,-1.01312255859375,0.0553131103515625
301111,0.0678558349609375,-0.9306640625,0.1208343505859375
301112,0.0678558349609375,-0.9306640625,0.1208343505859375
301113,0.04815673828125,-0.8628387451171875,0.1687469482421875
301114,0.02593994140625,-0.799835205078125,0.2222900390625
301115,-0.0160064697265625,-0.7669525146484375,0.24371337890625
301116,-0.0786590576171875,-0.7808990478515625,0.218353271484375
301117,-0.1757965087890625,-0.8405303955078125,0.1757049560546875
301118,-0.277557373046875,-0.95452880859375,0.1183013916015625
301119,-0.358245849609375,-1.103744506835938,0.0449066162109375
301120,-0.4029388427734375,-1.239837646484375,-0.015045166015625
301121,-0.392822265625,-1.337554931640625,-0.04266357421875
301122,-0.347900390625,-1.35955810546875,-0.0472869873046875
301123,-0.30816650390625,-1.3046875,-0.04827880859375
301124,-0.2837066650390625,-1.200027465820312,-0.043853759765625
301125,-0.26800537109375,-1.074691772460938,-0.038360595703125
301126,-0.2545928955078125,-0.9702606201171876,-0.0210418701171875
301127,-0.2425079345703125,-0.908843994140625,0.0082550048828125
301128,-0.2358551025390625,-0.9002685546875,0.029022216796875
301129,-0.2350006103515625,-0.9218597412109376,0.0435333251953125
301130,-0.23486328125,-0.9569244384765624,0.039581298828125
301131,-0.2386627197265625,-0.9932861328125,0.0257110595703125
301132,-0.2321624755859375,-1.027374267578125,0.012176513671875
301133,-0.2111358642578125,-1.042999267578125,0.0054473876953125
301134,-0.1739349365234375,-1.043121337890625,0.0083465576171875
301135,-0.138916015625,-1.041976928710938,0.03179931640625
301136,-0.0936126708984375,-1.0484619140625,0.0666656494140625
301137,-0.0500030517578125,-1.051986694335938,0.1131134033203125
301138,-0.02081298828125,-1.06939697265625,0.1765594482421875
301139,-0.012542724609375,-1.0947265625,0.2346038818359375
301140,-0.0103302001953125,-1.099899291992188,0.293670654296875
301141,-0.01141357421875,-1.079910278320312,0.3539886474609375
301142,9.1552734375e-05,-1.059951782226562,0.4328460693359375
301143,0.021087646484375,-1.030014038085938,0.506256103515625
301144,0.0420684814453125,-1.007003784179688,0.583770751953125
301145,0.0727081298828125,-1.013076782226562,0.6665802001953125
301146,0.1206512451171875,-1.043365478515625,0.7344970703125
301147,0.2159271240234375,-1.157089233398438,0.729644775390625
301148,0.2159271240234375,-1.157089233398438,0.729644775390625
301149,0.2382965087890625,-1.21881103515625,0.6676177978515625
301150,0.2493896484375,-1.27252197265625,0.581512451171875
301151,0.27960205078125,-1.313095092773438,0.4902496337890625
301152,0.299896240234375,-1.3546142578125,0.403472900390625
301153,0.3056793212890625,-1.397689819335938,0.3379364013671875
301154,0.2875213623046875,-1.420547485351562,0.3105316162109375
301155,0.2412567138671875,-1.401565551757812,0.29974365234375
301156,0.18194580078125,-1.337936401367188,0.3065948486328125
301157,0.11663818359375,-1.239349365234375,0.314117431640625
301158,0.044158935546875,-1.141464233398438,0.3238525390625
301159,-0.0286102294921875,-1.045257568359375,0.3314056396484375
301160,-0.0941162109375,-0.9466094970703124,0.305389404296875
301161,-0.1550445556640625,-0.8636016845703125,0.25775146484375
301162,-0.211334228515625,-0.8045501708984375,0.205322265625
301163,-0.26116943359375,-0.7707061767578125,0.14556884765625
301164,-0.308502197265625,-0.7418060302734375,0.0799560546875
301165,-0.3460540771484375,-0.7223052978515625,0.0206298828125
301166,-0.352569580078125,-0.6921844482421875,-0.013641357421875
301167,-0.324310302734375,-0.660369873046875,-0.01824951171875
301168,-0.2699432373046875,-0.6211700439453125,-0.001190185546875
301169,-0.20782470703125,-0.5602264404296875,0.0463104248046875
301170,-0.1652069091796875,-0.5006256103515625,0.09625244140625
301171,-0.1405792236328125,-0.4341888427734375,0.129425048828125
301172,-0.1405792236328125,-0.4341888427734375,0.129425048828125
301173,-0.108001708984375,-0.359130859375,0.1531829833984375
301174,-0.1058807373046875,-0.383758544921875,0.1298675537109375
301175,-0.1046295166015625,-0.4737396240234375,0.076507568359375
301176,-0.130828857421875,-0.6595611572265625,0.004547119140625
301177,-0.18212890625,-0.8958740234375,-0.092987060546875
301178,-0.216705322265625,-1.136123657226562,-0.182281494140625
301179,-0.2440185546875,-1.348297119140625,-0.250579833984375
301180,-0.2609405517578125,-1.478561401367188,-0.2750396728515625
301181,-0.2659912109375,-1.50885009765625,-0.2386627197265625
301182,-0.250274658203125,-1.4267578125,-0.1590423583984375
301183,-0.226043701171875,-1.251541137695312,-0.0675811767578125
301184,-0.1923675537109375,-1.037506103515625,0.0083465576171875
301185,-0.1647796630859375,-0.8524932861328125,0.04669189453125
301186,-0.14990234375,-0.718505859375,0.063812255859375
301187,-0.14013671875,-0.6578216552734375,0.0713958740234375
301188,-0.1414642333984375,-0.6599578857421875,0.0650787353515625
301189,-0.146148681640625,-0.7066497802734375,0.0566864013671875
301190,-0.1498870849609375,-0.7758941650390625,0.0692138671875
301191,-0.1461181640625,-0.879150390625,0.11224365234375
301192,-0.1292724609375,-1.011978149414062,0.1689300537109375
301193,-0.110382080078125,-1.138168334960938,0.24224853515625
301194,-0.107269287109375,-1.245559692382812,0.30865478515625
301195,-0.1202392578125,-1.309402465820312,0.3547821044921875
301196,-0.150726318359375,-1.337188720703125,0.395843505859375
301197,-0.1649627685546875,-1.33807373046875,0.4516754150390625
301198,-0.138397216796875,-1.329071044921875,0.519439697265625
301199,-0.0460968017578125,-1.301788330078125,0.552734375
301200,0.0572509765625,-1.261749267578125,0.5475311279296875
301201,0.134124755859375,-1.212051391601562,0.5388946533203125
301202,0.197967529296875,-1.16766357421875,0.5700225830078125
301203,0.25433349609375,-1.136306762695312,0.6026763916015625
301204,0.266082763671875,-1.115005493164062,0.620758056640625
301205,0.267547607421875,-1.093185424804688,0.6503448486328125
301206,0.2321014404296875,-1.072982788085938,0.67755126953125
301207,0.1440582275390625,-1.057174682617188,0.6775054931640625
301208,0.05657958984375,-1.057861328125,0.6651611328125
301209,-0.03515625,-1.07220458984375,0.6467742919921875
301210,-0.1269683837890625,-1.099288940429688,0.62548828125
301211,-0.2074737548828125,-1.13372802734375,0.5877838134765625
301212,-0.27166748046875,-1.16693115234375,0.5369873046875
301213,-0.3281707763671875,-1.1854248046875,0.440826416015625
301214,-0.3790740966796875,-1.180770874023438,0.3217010498046875
301215,-0.394073486328125,-1.16064453125,0.23040771484375
301216,-0.3570098876953125,-1.123184204101562,0.18231201171875
301217,-0.2789459228515625,-1.069931030273438,0.149078369140625
301218,-0.1943817138671875,-0.9922027587890624,0.1035614013671875
301219,-0.1142578125,-0.9206085205078124,0.0773773193359375
301220,-0.048309326171875,-0.8748016357421875,0.0908050537109375
301221,0.01275634765625,-0.8395538330078125,0.1067047119140625
301222,0.0672607421875,-0.8072052001953125,0.089324951171875
301223,0.1063690185546875,-0.7854766845703125,0.0742645263671875
301224,0.1275177001953125,-0.7898712158203125,0.0925445556640625
301225,0.13677978515625,-0.79852294921875,0.1017608642578125
301226,0.142242431640625,-0.787322998046875,0.1142730712890625
301227,0.150238037109375,-0.758148193359375,0.13922119140625
301228,0.1607208251953125,-0.7153778076171875,0.160064697265625
301229,0.168853759765625,-0.6671905517578125,0.1710052490234375
301230,0.162872314453125,-0.638580322265625,0.17620849609375
301231,0.0805511474609375,-0.65875244140625,0.178436279296875
301232,0.0805511474609375,-0.65875244140625,0.178436279296875
301233,-0.0090179443359375,-0.7270355224609375,0.1499786376953125
301234,-0.141082763671875,-0.84014892578125,0.13037109375
301235,-0.259490966796875,-0.9948272705078124,0.0923919677734375
301236,-0.309783935546875,-1.175445556640625,0.0250091552734375
301237,-0.31591796875,-1.340713500976562,-0.01556396484375
301238,-0.2864990234375,-1.484405517578125,-0.0211181640625
301239,-0.2112579345703125,-1.551589965820312,-0.02105712890625
301240,-0.129302978515625,-1.499404907226562,-0.0352325439453125
301241,-0.085235595703125,-1.340606689453125,-0.02935791015625
301242,-0.0670318603515625,-1.138870239257812,-0.037322998046875
301243,-0.0805206298828125,-0.9592437744140624,-0.0413360595703125
301244,-0.115264892578125,-0.840545654296875,-0.00604248046875
301245,-0.1539154052734375,-0.7870635986328125,0.012451171875
301246,-0.1876373291015625,-0.7900543212890625,0.0036773681640625
301247,-0.211517333984375,-0.830078125,-3.0517578125e-05
301248,-0.243682861328125,-0.87646484375,0.00823974609375
301249,-0.274932861328125,-0.92803955078125,0.0085296630859375
301250,-0.2896881103515625,-0.9635772705078124,0.0063934326171875
301251,-0.2733001708984375,-0.9827423095703124,0.004241943359375
301252,-0.2264404296875,-0.9788818359375,0.01849365234375
301253,-0.1496429443359375,-0.95654296875,0.0540771484375
301254,-0.0640411376953125,-0.9412689208984376,0.0869293212890625
301255,0.0235748291015625,-0.9525909423828124,0.2071075439453125
301256,0.0235748291015625,-0.9525909423828124,0.2071075439453125
301257,0.0146026611328125,-0.969451904296875,0.2873077392578125
301258,0.0089874267578125,-0.98553466796875,0.3617706298828125
301259,0.0122528076171875,-0.997802734375,0.420257568359375
301260,0.0263214111328125,-1.011199951171875,0.493743896484375
301261,0.0477142333984375,-1.01593017578125,0.5771026611328125
301262,0.076904296875,-1.025711059570312,0.63604736328125
301263,0.1224822998046875,-1.065444946289062,0.685638427734375
301264,0.1849822998046875,-1.12298583984375,0.7339019775390625
301265,0.239593505859375,-1.192047119140625,0.76165771484375
301266,0.26202392578125,-1.257461547851562,0.736907958984375
301267,0.266326904296875,-1.30352783203125,0.6810150146484375
301268,0.255950927734375,-1.363235473632812,0.5885772705078125
301269,0.20782470703125,-1.4422607421875,0.47589111328125
301270,0.149871826171875,-1.525009155273438,0.384307861328125
301271,0.0898895263671875,-1.603164672851562,0.318756103515625
301272,0.015716552734375,-1.62762451171875,0.2529144287109375
301273,-0.0565032958984375,-1.589508056640625,0.19305419921875
301274,-0.1148834228515625,-1.490585327148438,0.159149169921875
301275,-0.1610870361328125,-1.3634033203125,0.15234375
301276,-0.19696044921875,-1.218917846679688,0.1648101806640625
301277,-0.2200164794921875,-1.067169189453125,0.1666107177734375
301278,-0.2335052490234375,-0.9272613525390624,0.1494140625
301279,-0.237518310546875,-0.8077545166015625,0.1269989013671875
301280,-0.2222442626953125,-0.7144012451171875,0.1184539794921875
301281,-0.2020263671875,-0.636016845703125,0.1190185546875
301282,-0.18524169921875,-0.5765228271484375,0.123443603515625
301283,-0.1634674072265625,-0.52496337890625,0.12335205078125
301284,-0.1561279296875,-0.4733428955078125,0.1226043701171875
301285,-0.1484832763671875,-0.4447784423828125,0.117218017578125
301286,-0.1505889892578125,-0.418060302734375,0.121673583984375
301287,-0.1613616943359375,-0.3929443359375,0.128997802734375
301288,-0.16229248046875,-0.3814697265625,0.1386871337890625
301289,-0.1588897705078125,-0.376708984375,0.157989501953125
301290,-0.13580322265625,-0.3930206298828125,0.148590087890625
301291,-0.080047607421875,-0.431243896484375,0.126983642578125
301292,0.00079345703125,-0.5061798095703125,0.0960845947265625
301293,0.0915679931640625,-0.63958740234375,0.0312957763671875
301294,0.1456451416015625,-0.8269195556640625,-0.04644775390625
301295,0.1323394775390625,-1.063568115234375,-0.1390533447265625
301296,0.0555572509765625,-1.311309814453125,-0.2407989501953125
301297,-0.009368896484375,-1.526504516601562,-0.3390350341796875
301298,-0.035308837890625,-1.656494140625,-0.3748016357421875
301299,-0.046844482421875,-1.640670776367188,-0.3397979736328125
301300,-0.069061279296875,-1.45318603515625,-0.2237091064453125
301301,-0.1139678955078125,-1.196884155273438,-0.1183013916015625
301302,-0.1591796875,-0.9875640869140624,-0.0783538818359375
301303,-0.19659423828125,-0.85076904296875,-0.0706634521484375
301304,-0.23297119140625,-0.785003662109375,-0.0843963623046875
301305,-0.267578125,-0.776641845703125,-0.105499267578125
301306,-0.30303955078125,-0.8016357421875,-0.11859130859375
301307,-0.332275390625,-0.8403167724609375,-0.1220245361328125
301308,-0.3413543701171875,-0.883270263671875,-0.1214599609375
301309,-0.3378448486328125,-0.9111785888671876,-0.1016845703125
301310,-0.32757568359375,-0.9277496337890624,-0.0478515625
301311,-0.322418212890625,-0.946563720703125,0.04791259765625
301312,-0.3359832763671875,-0.964263916015625,0.15325927734375
301313,-0.3528289794921875,-0.98553466796875,0.2228851318359375
301314,-0.3513336181640625,-1.031600952148438,0.261993408203125
301315,-0.33612060546875,-1.093032836914062,0.293365478515625
301316,-0.312957763671875,-1.152267456054688,0.3499603271484375
301317,-0.2487945556640625,-1.2061767578125,0.4152984619140625
301318,-0.1476287841796875,-1.243850708007812,0.4397125244140625
301319,-0.0191802978515625,-1.250442504882812,0.4422454833984375
301320,0.096923828125,-1.236190795898438,0.4588775634765625
301321,0.204254150390625,-1.21588134765625,0.5023956298828125
301322,0.2969818115234375,-1.2147216796875,0.559173583984375
301323,0.3371124267578125,-1.227218627929688,0.6581878662109375
301324,0.3186798095703125,-1.256362915039062,0.7417755126953125
301325,0.2235260009765625,-1.266738891601562,0.739105224609375
301326,0.1164093017578125,-1.2313232421875,0.6930999755859375
301327,0.0380401611328125,-1.1646728515625,0.65576171875
301328,-0.0294189453125,-1.09710693359375,0.6230926513671875
301329,-0.1036224365234375,-1.038894653320312,0.570770263671875
301330,-0.16204833984375,-1.001007080078125,0.4963531494140625
301331,-0.2030792236328125,-0.990203857421875,0.4060211181640625
301332,-0.2217254638671875,-0.9908905029296876,0.3017578125
301333,-0.21270751953125,-0.9964599609375,0.1966400146484375
301334,-0.1799468994140625,-0.9981689453125,0.122772216796875
301335,-0.1291656494140625,-0.996337890625,0.0887298583984375
301336,-0.0911712646484375,-0.99505615234375,0.06610107421875
301337,-0.0599365234375,-1.000885009765625,0.0540771484375
301338,-0.04327392578125,-1.013946533203125,0.0662841796875
301339,-0.041259765625,-1.022109985351562,0.0892486572265625
301340,-0.04656982421875,-1.01123046875,0.098846435546875
301341,-0.05889892578125,-0.988250732421875,0.110565185546875
301342,-0.0612640380859375,-0.951019287109375,0.1375732421875
301343,-0.055267333984375,-0.8915863037109375,0.166290283203125
301344,-0.0390167236328125,-0.820281982421875,0.18829345703125
301345,-0.0037994384765625,-0.7486572265625,0.2183685302734375
301346,0.039398193359375,-0.6778411865234375,0.259490966796875
301347,0.07806396484375,-0.6214447021484375,0.288665771484375
301348,0.0854949951171875,-0.5895843505859375,0.3075714111328125
301349,0.059051513671875,-0.5961456298828125,0.3128509521484375
301350,0.01416015625,-0.64849853515625,0.29461669921875
301351,-0.0391693115234375,-0.734466552734375,0.245697021484375
301352,-0.1175079345703125,-0.8349151611328125,0.1728973388671875
301353,-0.2021942138671875,-0.945404052734375,0.057708740234375
301354,-0.27337646484375,-1.069137573242188,-0.072967529296875
301355,-0.32220458984375,-1.198898315429688,-0.1654815673828125
301356,-0.354522705078125,-1.322341918945312,-0.2265167236328125
301357,-0.3582305908203125,-1.392807006835938,-0.2547149658203125
301358,-0.3347930908203125,-1.384521484375,-0.2614898681640625
301359,-0.3188018798828125,-1.3182373046875,-0.244842529296875
301360,-0.313995361328125,-1.244857788085938,-0.2099151611328125
301361,-0.313568115234375,-1.190963745117188,-0.1809844970703125
301362,-0.304534912109375,-1.150772094726562,-0.158599853515625
301363,-0.2889251708984375,-1.118301391601562,-0.129730224609375
301364,-0.2767181396484375,-1.090255737304688,-0.1137542724609375
301365,-0.2581024169921875,-1.059707641601562,-0.1140289306640625
301366,-0.2251739501953125,-1.018035888671875,-0.1191253662109375
301367,-0.1908416748046875,-0.9650115966796876,-0.1088714599609375
301368,-0.1650390625,-0.9062042236328124,-0.08807373046875
301369,-0.13763427734375,-0.8474578857421875,-0.0547027587890625
301370,-0.1016693115234375,-0.8143768310546875,-0.00628662109375
301371,-0.077606201171875,-0.808135986328125,0.0402984619140625
301372,-0.061279296875,-0.8350982666015625,0.0832061767578125
301373,-0.0746002197265625,-0.88800048828125,0.1517181396484375
301374,-0.1104583740234375,-0.967132568359375,0.243408203125
301375,-0.133544921875,-1.065292358398438,0.3406982421875
301376,-0.141845703125,-1.1573486328125,0.4171600341796875
301377,-0.1378326416015625,-1.218963623046875,0.4722442626953125
301378,-0.1016693115234375,-1.251846313476562,0.5324859619140625
301379,-0.0355072021484375,-1.250579833984375,0.5852508544921875
301380,0.0413665771484375,-1.2181396484375,0.6416473388671875
301381,0.1306915283203125,-1.177490234375,0.741912841796875
301382,0.2271728515625,-1.142257690429688,0.805419921875
301383,0.29229736328125,-1.123291015625,0.8123626708984375
301384,0.324798583984375,-1.108810424804688,0.7977447509765625
301385,0.3399505615234375,-1.084976196289062,0.7562713623046875
301386,0.3314208984375,-1.072998046875,0.6914520263671875
301387,0.29779052734375,-1.081771850585938,0.611724853515625
301388,0.2504425048828125,-1.117630004882812,0.5279541015625
301389,0.1985321044921875,-1.1748046875,0.4351348876953125
301390,0.162353515625,-1.24688720703125,0.3652496337890625
301391,0.135894775390625,-1.304031372070312,0.31683349609375
301392,0.1097869873046875,-1.315475463867188,0.256622314453125
301393,0.08544921875,-1.278121948242188,0.1923675537109375
301394,0.0509796142578125,-1.2205810546875,0.1566162109375
301395,0.0059661865234375,-1.143814086914062,0.1463470458984375
301396,-0.0485076904296875,-1.043380737304688,0.1395263671875
301397,-0.1013946533203125,-0.93890380859375,0.11541748046875
301398,-0.1400146484375,-0.850616455078125,0.108642578125
301399,-0.1723785400390625,-0.78045654296875,0.1056365966796875
301400,-0.1942596435546875,-0.726531982421875,0.0880279541015625
301401,-0.2061614990234375,-0.68902587890625,0.0718841552734375
301402,-0.2115020751953125,-0.6536407470703125,0.062591552734375
301403,-0.2047271728515625,-0.626953125,0.0601654052734375
301404,-0.1932220458984375,-0.61199951171875,0.08074951171875
301405,-0.1899261474609375,-0.6020965576171875,0.102630615234375
301406,-0.182647705078125,-0.582244873046875,0.10662841796875
301407,-0.1853790283203125,-0.550567626953125,0.1175994873046875
301408,-0.19110107421875,-0.51702880859375,0.13055419921875
301409,-0.198089599609375,-0.494659423828125,0.1242828369140625
301410,-0.1863250732421875,-0.4957275390625,0.11737060546875
301411,-0.1592559814453125,-0.561309814453125,0.0906219482421875
301412,-0.1510009765625,-0.7097320556640625,0.022247314453125
301413,-0.18798828125,-0.9147186279296876,-0.0763397216796875
301414,-0.228790283203125,-1.146820068359375,-0.1732330322265625
301415,-0.2593994140625,-1.347671508789062,-0.24371337890625
301416,-0.2882080078125,-1.48541259765625,-0.2676239013671875
301417,-0.3096160888671875,-1.54315185546875,-0.25390625
301418,-0.3231048583984375,-1.47296142578125,-0.1741790771484375
301419,-0.3204498291015625,-1.276046752929688,-0.0496978759765625
301420,-0.2846832275390625,-1.049972534179688,0.01727294921875
301421,-0.2471923828125,-0.863006591796875,0.045166015625
301422,-0.214111328125,-0.73309326171875,0.066986083984375
301423,-0.1842803955078125,-0.668304443359375,0.0850067138671875
301424,-0.156280517578125,-0.6560211181640625,0.0818023681640625
301425,-0.1232147216796875,-0.67236328125,0.0656890869140625
301426,-0.087310791015625,-0.7217559814453125,0.0753021240234375
301427,-0.0640411376953125,-0.8098907470703125,0.1119232177734375
301428,-0.0659942626953125,-0.9308319091796876,0.1644287109375
301429,-0.0804290771484375,-1.06683349609375,0.216949462890625
301430,-0.1065673828125,-1.17742919921875,0.261444091796875
301431,-0.14398193359375,-1.2645263671875,0.2972564697265625
301432,-0.1847076416015625,-1.31280517578125,0.3283233642578125
301433,-0.206390380859375,-1.323333740234375,0.3527069091796875
301434,-0.19915771484375,-1.300704956054688,0.398651123046875
301435,-0.133392333984375,-1.272689819335938,0.42425537109375
301436,-0.02642822265625,-1.237625122070312,0.4352264404296875
301437,0.0780487060546875,-1.1923828125,0.466766357421875
301438,0.158966064453125,-1.1427001953125,0.502593994140625
301439,0.224212646484375,-1.099395751953125,0.556854248046875
301440,0.276519775390625,-1.060333251953125,0.600189208984375
301441,0.2935028076171875,-1.031845092773438,0.63006591796875
301442,0.2656402587890625,-1.022628784179688,0.6566009521484375
301443,0.2083282470703125,-1.025909423828125,0.6729278564453125
301444,0.1205902099609375,-1.039520263671875,0.6581573486328125
301445,0.026580810546875,-1.06634521484375,0.6274261474609375
301446,-0.062347412109375,-1.092483520507812,0.622528076171875
301447,-0.1511383056640625,-1.114517211914062,0.604644775390625
301448,-0.2322998046875,-1.139175415039062,0.5583343505859375
301449,-0.2886505126953125,-1.156005859375,0.47259521484375
301450,-0.326385498046875,-1.16357421875,0.37091064453125
301451,-0.3375244140625,-1.15264892578125,0.259185791015625
301452,-0.320526123046875,-1.123016357421875,0.183624267578125
301453,-0.2723388671875,-1.073760986328125,0.137786865234375
301454,-0.19561767578125,-1.011871337890625,0.092437744140625
301455,-0.116119384765625,-0.945068359375,0.04254150390625
301456,-0.0525360107421875,-0.89312744140625,0.0241851806640625
301457,-0.0184173583984375,-0.866485595703125,0.055816650390625
301458,-0.0074310302734375,-0.8580780029296875,0.0831298828125
301459,0.005218505859375,-0.8658294677734375,0.0789031982421875
301460,0.012176513671875,-0.8850555419921875,0.0970916748046875
301461,0.008270263671875,-0.900726318359375,0.12640380859375
301462,0.00189208984375,-0.8990478515625,0.134368896484375
301463,0.0023345947265625,-0.87322998046875,0.1407623291015625
301464,0.0211944580078125,-0.828765869140625,0.1544952392578125
301465,0.0552825927734375,-0.775146484375,0.158966064453125
301466,0.09515380859375,-0.7374114990234375,0.167388916015625
301467,0.1196441650390625,-0.7253570556640625,0.17742919921875
301468,0.1156768798828125,-0.737152099609375,0.1773223876953125
301469,0.0831146240234375,-0.7735595703125,0.17401123046875
301470,0.024993896484375,-0.83990478515625,0.1649627685546875
301471,-0.057891845703125,-0.9212188720703124,0.1514739990234375
301472,-0.15606689453125,-1.016555786132812,0.11175537109375
301473,-0.236724853515625,-1.127304077148438,0.0355224609375
301474,-0.25537109375,-1.230636596679688,-0.0500030517578125
301475,-0.230621337890625,-1.277130126953125,-0.097503662109375
301476,-0.1960601806640625,-1.26776123046875,-0.1087493896484375
301477,-0.184051513671875,-1.217071533203125,-0.1070098876953125
301478,-0.1855926513671875,-1.147750854492188,-0.108428955078125
301479,-0.1943206787109375,-1.095382690429688,-0.123626708984375
301480,-0.2009429931640625,-1.068984985351562,-0.1437530517578125
301481,-0.2067413330078125,-1.055908203125,-0.1536102294921875
301482,-0.2138519287109375,-1.04864501953125,-0.1504058837890625
301483,-0.227783203125,-1.033920288085938,-0.1462249755859375
301484,-0.25115966796875,-1.008056640625,-0.14300537109375
301485,-0.277435302734375,-0.981475830078125,-0.125244140625
301486,-0.291412353515625,-0.95068359375,-0.0938262939453125
301487,-0.2931671142578125,-0.9208831787109376,-0.05859375
301488,-0.26922607421875,-0.8950347900390625,-0.0244140625
301489,-0.217559814453125,-0.8741607666015625,0.0017547607421875
301490,-0.1566162109375,-0.8648529052734375,0.037841796875
301491,-0.0999908447265625,-0.8687591552734375,0.0818023681640625
301492,-0.05517578125,-0.8967132568359375,0.1413421630859375
301493,-0.0243682861328125,-0.9700775146484376,0.211090087890625
301494,-0.000640869140625,-1.048629760742188,0.2717742919921875
301495,0.0074310302734375,-1.110626220703125,0.337615966796875
301496,0.011688232421875,-1.17132568359375,0.37841796875
301497,0.0138702392578125,-1.199050903320312,0.39459228515625
301498,0.0101776123046875,-1.196701049804688,0.428955078125
301499,0.0021514892578125,-1.162078857421875,0.486785888671875
301500,-0.004669189453125,-1.112655639648438,0.560089111328125
301501,0.00311279296875,-1.076614379882812,0.6489410400390625
301502,0.04595947265625,-1.065216064453125,0.7316131591796875
301503,0.1037750244140625,-1.090286254882812,0.7615814208984375
301504,0.160491943359375,-1.161819458007812,0.7495574951171875
301505,0.206756591796875,-1.23828125,0.68426513671875
301506,0.2013397216796875,-1.296875,0.5739898681640625
301507,0.1570892333984375,-1.338577270507812,0.4555511474609375
301508,0.1263885498046875,-1.366043090820312,0.371429443359375
301509,0.1071014404296875,-1.38653564453125,0.313507080078125
301510,0.08746337890625,-1.404571533203125,0.2567901611328125
301511,0.067413330078125,-1.403411865234375,0.214324951171875
301512,0.04595947265625,-1.363296508789062,0.1766815185546875
301513,0.0229644775390625,-1.285354614257812,0.1563720703125
301514,-0.00531005859375,-1.1781005859375,0.1568756103515625
301515,-0.04522705078125,-1.050994873046875,0.1598052978515625
301516,-0.092041015625,-0.91485595703125,0.16510009765625
301517,-0.1373138427734375,-0.7947540283203125,0.1725006103515625
301518,-0.1762237548828125,-0.6986083984375,0.16595458984375
301519,-0.1989898681640625,-0.629119873046875,0.163360595703125
301520,-0.198272705078125,-0.5813140869140625,0.1673583984375
301521,-0.1876068115234375,-0.562835693359375,0.1725616455078125
301522,-0.1788787841796875,-0.5602264404296875,0.1685943603515625
301523,-0.166839599609375,-0.5697021484375,0.1531524658203125
301524,-0.160797119140625,-0.584991455078125,0.138427734375
301525,-0.1494140625,-0.5831146240234375,0.1464996337890625
301526,-0.140106201171875,-0.582183837890625,0.153961181640625
301527,-0.12835693359375,-0.5884552001953125,0.1302490234375
301528,-0.1309661865234375,-0.595855712890625,0.1008453369140625
301529,-0.1383056640625,-0.6154327392578125,0.0626068115234375
301530,-0.1236572265625,-0.6563720703125,-0.0014801025390625
301531,-0.09075927734375,-0.723297119140625,-0.0611724853515625
301532,-0.0723876953125,-0.8442535400390625,-0.1048126220703125
301533,-0.0825042724609375,-1.046585083007812,-0.1486968994140625
301534,-0.0861053466796875,-1.271530151367188,-0.21527099609375
301535,-0.0990753173828125,-1.45245361328125,-0.296051025390625
301536,-0.1165008544921875,-1.544540405273438,-0.3313751220703125
301537,-0.1364593505859375,-1.518661499023438,-0.3158111572265625
301538,-0.1641998291015625,-1.364501953125,-0.251190185546875
301539,-0.199310302734375,-1.139297485351562,-0.1639862060546875
301540,-0.242401123046875,-0.9343414306640624,-0.0857086181640625
301541,-0.27996826171875,-0.77801513671875,-0.012451171875
301542,-0.304351806640625,-0.689422607421875,0.039337158203125
301543,-0.31591796875,-0.6607513427734375,0.056243896484375
301544,-0.31591796875,-0.6785736083984375,0.0452423095703125
301545,-0.30413818359375,-0.7192535400390625,0.0346221923828125
301546,-0.2690277099609375,-0.7667999267578125,0.048004150390625
301547,-0.22882080078125,-0.8300323486328125,0.07537841796875
301548,-0.1865081787109375,-0.920257568359375,0.1027679443359375
301549,-0.151641845703125,-1.009780883789062,0.1394195556640625
301550,-0.12152099609375,-1.10089111328125,0.1704864501953125
301551,-0.12469482421875,-1.168991088867188,0.20953369140625
301552,-0.1497650146484375,-1.230239868164062,0.26007080078125
301553,-0.171722412109375,-1.278762817382812,0.3400421142578125
301554,-0.1884613037109375,-1.2955322265625,0.4378509521484375
301555,-0.1530303955078125,-1.302383422851562,0.4797515869140625
301556,-0.0781402587890625,-1.290618896484375,0.5016326904296875
301557,-0.0028076171875,-1.26043701171875,0.53253173828125
301558,0.0646209716796875,-1.235885620117188,0.5692596435546875
301559,0.115692138671875,-1.219741821289062,0.6052398681640625
301560,0.1577606201171875,-1.209152221679688,0.677978515625
301561,0.211883544921875,-1.185501098632812,0.7252655029296875
301562,0.2124481201171875,-1.153518676757812,0.72979736328125
301563,0.17559814453125,-1.09918212890625,0.7190704345703125
301564,0.132293701171875,-1.038909912109375,0.712982177734375
301565,0.0785675048828125,-0.9727630615234376,0.6941680908203125
301566,0.016693115234375,-0.9253387451171876,0.665863037109375
301567,-0.0435638427734375,-0.90765380859375,0.64373779296875
301568,-0.0965423583984375,-0.9200897216796876,0.59210205078125
301569,-0.142730712890625,-0.9477081298828124,0.501373291015625
301570,-0.19189453125,-0.9764556884765624,0.3985748291015625
301571,-0.2413787841796875,-0.9963226318359376,0.3125152587890625
301572,-0.277862548828125,-0.9957427978515624,0.248504638671875
301573,-0.2786407470703125,-0.979217529296875,0.2255096435546875
301574,-0.255889892578125,-0.9520263671875,0.2085113525390625
301575,-0.217681884765625,-0.9207763671875,0.160064697265625
301576,-0.150238037109375,-0.896820068359375,0.122222900390625
301577,-0.0978240966796875,-0.910064697265625,0.1330108642578125
301578,-0.076507568359375,-0.942840576171875,0.14544677734375
301579,-0.065673828125,-0.972503662109375,0.125701904296875
301580,-0.0561065673828125,-1.0079345703125,0.1380767822265625
301581,-0.0383453369140625,-1.023590087890625,0.1736907958984375
301582,-0.0161895751953125,-0.998687744140625,0.1984405517578125
301583,0.0089569091796875,-0.9393463134765624,0.210601806640625
301584,0.048126220703125,-0.8578338623046875,0.223175048828125
301585,0.10601806640625,-0.7790374755859375,0.2309417724609375
301586,0.1679534912109375,-0.70123291015625,0.2421112060546875
301587,0.205780029296875,-0.6417236328125,0.2596893310546875
301588,0.194000244140625,-0.624359130859375,0.2705078125
301589,0.132720947265625,-0.6518402099609375,0.2511138916015625
301590,0.0143280029296875,-0.717803955078125,0.2039947509765625
301591,-0.122344970703125,-0.81561279296875,0.1490631103515625
301592,-0.262847900390625,-0.9243927001953124,0.088226318359375
301593,-0.3685150146484375,-1.06512451171875,0.01800537109375
301594,-0.410980224609375,-1.185836791992188,-0.0335235595703125
301595,-0.4134368896484375,-1.232666015625,-0.0619659423828125
301596,-0.3782196044921875,-1.215682983398438,-0.086181640625
301597,-0.3317718505859375,-1.160598754882812,-0.0916595458984375
301598,-0.3016204833984375,-1.117782592773438,-0.0791473388671875
301599,-0.282623291015625,-1.121475219726562,-0.069976806640625
301600,-0.270172119140625,-1.171005249023438,-0.0709075927734375
301601,-0.25958251953125,-1.237564086914062,-0.0861053466796875
301602,-0.2413177490234375,-1.296401977539062,-0.1053619384765625
301603,-0.2259063720703125,-1.315887451171875,-0.1316375732421875
301604,-0.225738525390625,-1.284439086914062,-0.1548919677734375
301605,-0.2313690185546875,-1.213882446289062,-0.1505889892578125
301606,-0.232330322265625,-1.120010375976562,-0.104095458984375
301607,-0.2253570556640625,-0.9984283447265624,-0.0312347412109375
301608,-0.1913299560546875,-0.89898681640625,0.0201263427734375
301609,-0.1351470947265625,-0.840484619140625,0.0545501708984375
301610,-0.075439453125,-0.8157501220703125,0.1095428466796875
301611,-0.0488433837890625,-0.812896728515625,0.1780242919921875
301612,-0.0486297607421875,-0.847076416015625,0.235076904296875
301613,-0.05303955078125,-0.9188995361328124,0.29913330078125
301614,-0.05877685546875,-1.006271362304688,0.36737060546875
301615,-0.0677947998046875,-1.095306396484375,0.4066009521484375
301616,-0.064788818359375,-1.161727905273438,0.44287109375
301617,-0.0420684814453125,-1.203109741210938,0.49371337890625
301618,-0.0126190185546875,-1.202468872070312,0.526702880859375
301619,0.0291595458984375,-1.155487060546875,0.547119140625
301620,0.074615478515625,-1.075820922851562,0.5915679931640625
301621,0.11395263671875,-0.9969940185546876,0.6594390869140625
301622,0.14666748046875,-0.94354248046875,0.727783203125
301623,0.172027587890625,-0.937103271484375,0.7474517822265625
301624,0.183258056640625,-0.9691009521484376,0.718017578125
301625,0.16619873046875,-1.019363403320312,0.6714630126953125
301626,0.1352081298828125,-1.069625854492188,0.61083984375
301627,0.10107421875,-1.127578735351562,0.5175628662109375
301628,0.063751220703125,-1.189834594726562,0.414520263671875
301629,0.0413818359375,-1.257522583007812,0.322174072265625
301630,0.034454345703125,-1.326034545898438,0.26153564453125
301631,0.03167724609375,-1.378753662109375,0.22314453125
301632,0.0374298095703125,-1.388397216796875,0.1882781982421875
301633,0.053131103515625,-1.350784301757812,0.1519927978515625
301634,0.0619354248046875,-1.276718139648438,0.1125335693359375
301635,0.0497283935546875,-1.178085327148438,0.10321044921875
301636,0.0147247314453125,-1.052337646484375,0.096527099609375
301637,-0.03399658203125,-0.923675537109375,0.1005859375
301638,-0.0847015380859375,-0.8112945556640625,0.103240966796875
301639,-0.115447998046875,-0.73046875,0.118896484375
301640,-0.1324005126953125,-0.68951416015625,0.140625
301641,-0.1573333740234375,-0.6657867431640625,0.1513214111328125
301642,-0.18603515625,-0.657196044921875,0.1490325927734375
301643,-0.1998748779296875,-0.6512451171875,0.145782470703125
301644,-0.1998291015625,-0.6600799560546875,0.141815185546875
301645,-0.191986083984375,-0.6663970947265625,0.131256103515625
301646,-0.1873779296875,-0.6625518798828125,0.112457275390625
301647,-0.169769287109375,-0.6699981689453125,0.075653076171875
301648,-0.156494140625,-0.6639556884765625,0.031463623046875
301649,-0.1378631591796875,-0.6591033935546875,-0.019073486328125
301650,-0.112518310546875,-0.6765594482421875,-0.0645599365234375
301651,-0.0916748046875,-0.7392730712890625,-0.103759765625
301652,-0.09765625,-0.856201171875,-0.1463623046875
301653,-0.11846923828125,-1.007369995117188,-0.187591552734375
301654,-0.1343841552734375,-1.124526977539062,-0.212127685546875
301655,-0.1490936279296875,-1.178451538085938,-0.2025146484375
301656,-0.16143798828125,-1.159835815429688,-0.1559906005859375
301657,-0.1768646240234375,-1.0946044921875,-0.1040191650390625
301658,-0.201507568359375,-1.01995849609375,-0.06591796875
301659,-0.2180633544921875,-0.9556732177734376,-0.058441162109375
301660,-0.237701416015625,-0.9183807373046876,-0.0842437744140625
301661,-0.265045166015625,-0.91070556640625,-0.130645751953125
301662,-0.2921295166015625,-0.9212646484375,-0.168853759765625
301663,-0.3189697265625,-0.960723876953125,-0.1639862060546875
301664,-0.3429412841796875,-1.015472412109375,-0.1266632080078125
301665,-0.3666839599609375,-1.05419921875,-0.0590057373046875
301666,-0.364227294921875,-1.085433959960938,-0.0009918212890625
301667,-0.339202880859375,-1.099105834960938,0.02178955078125
301668,-0.2985687255859375,-1.095413208007812,0.0127716064453125
301669,-0.2623138427734375,-1.081329345703125,0.0079803466796875
301670,-0.2566070556640625,-1.05914306640625,0.048004150390625
301671,-0.2513580322265625,-1.05889892578125,0.13067626953125
301672,-0.22137451171875,-1.086273193359375,0.2386932373046875
301673,-0.1604461669921875,-1.12835693359375,0.3433380126953125
301674,-0.0935211181640625,-1.171218872070312,0.415313720703125
301675,-0.016021728515625,-1.207412719726562,0.4777374267578125
301676,0.06829833984375,-1.219940185546875,0.5285491943359375
301677,0.1367950439453125,-1.212432861328125,0.5584869384765625
301678,0.1979217529296875,-1.193923950195312,0.59881591796875
301679,0.2248382568359375,-1.193267822265625,0.6492767333984375
301680,0.2143707275390625,-1.205795288085938,0.6992034912109375
301681,0.1922454833984375,-1.213973999023438,0.76025390625
301682,0.1602783203125,-1.235992431640625,0.81011962890625
301683,0.080230712890625,-1.279617309570312,0.8013916015625
301684,-0.028900146484375,-1.287918090820312,0.72491455078125
301685,-0.12579345703125,-1.250579833984375,0.645843505859375
301686,-0.18218994140625,-1.182373046875,0.59283447265625
301687,-0.21728515625,-1.116241455078125,0.5512847900390625
301688,-0.2429962158203125,-1.05511474609375,0.501617431640625
301689,-0.257598876953125,-0.9990081787109376,0.4279022216796875
301690,-0.2655487060546875,-0.9509735107421876,0.3274383544921875
301691,-0.25762939453125,-0.918487548828125,0.226715087890625
301692,-0.2369842529296875,-0.898834228515625,0.1368560791015625
301693,-0.2018585205078125,-0.87799072265625,0.0744171142578125
301694,-0.1595458984375,-0.8563232421875,0.0289306640625
301695,-0.1175079345703125,-0.8283843994140625,-0.005584716796875
301696,-0.076416015625,-0.803802490234375,-0.0159454345703125
301697,-0.0513916015625,-0.7879486083984375,-0.011688232421875
301698,-0.031951904296875,-0.769744873046875,0.0039825439453125
301699,3.0517578125e-05,-0.7575531005859375,0.0331573486328125
301700,0.0254058837890625,-0.7628021240234375,0.0743408203125
301701,0.0338287353515625,-0.7917938232421875,0.105316162109375
301702,0.0397796630859375,-0.8320159912109375,0.1183013916015625
301703,0.0378570556640625,-0.860260009765625,0.1253204345703125
301704,0.0402679443359375,-0.879180908203125,0.1334381103515625
301705,0.04595947265625,-0.8997039794921875,0.1462249755859375
301706,0.0414276123046875,-0.90899658203125,0.157196044921875
301707,0.0250244140625,-0.91766357421875,0.1639404296875
301708,-0.017913818359375,-0.942413330078125,0.1484222412109375
301709,-0.084320068359375,-0.9780120849609376,0.1011810302734375
301710,-0.1828460693359375,-1.0167236328125,0.0458221435546875
301711,-0.3010406494140625,-1.053741455078125,0.0009918212890625
301712,-0.393310546875,-1.096908569335938,-0.054534912109375
301713,-0.4407196044921875,-1.131866455078125,-0.091339111328125
301714,-0.4391937255859375,-1.137435913085938,-0.083099365234375
301715,-0.383148193359375,-1.098037719726562,-0.0419464111328125
301716,-0.3094635009765625,-1.029296875,0.017242431640625
301717,-0.2549591064453125,-0.9653167724609376,0.070953369140625
301718,-0.21142578125,-0.931793212890625,0.09063720703125
301719,-0.1885528564453125,-0.933502197265625,0.0802764892578125
301720,-0.188446044921875,-0.963836669921875,0.0386962890625
301721,-0.2041168212890625,-1.011184692382812,-0.0172882080078125
301722,-0.219757080078125,-1.0587158203125,-0.0754852294921875
301723,-0.2354583740234375,-1.084442138671875,-0.099517822265625
301724,-0.246551513671875,-1.094955444335938,-0.0963897705078125
301725,-0.2530975341796875,-1.090499877929688,-0.0763397216796875
301726,-0.2567291259765625,-1.075607299804688,-0.0506744384765625
301727,-0.254669189453125,-1.050186157226562,-0.03021240234375
301728,-0.2377777099609375,-1.0211181640625,-0.0030517578125
301729,-0.190643310546875,-1.004791259765625,0.0348968505859375
301730,-0.146942138671875,-0.9895172119140624,0.0901336669921875
301731,-0.1164703369140625,-0.98529052734375,0.1291351318359375
301732,-0.1009063720703125,-1.000289916992188,0.1603240966796875
301733,-0.1061553955078125,-1.024612426757812,0.20684814453125
301734,-0.1237945556640625,-1.05316162109375,0.2713470458984375
301735,-0.1230316162109375,-1.099884033203125,0.3327789306640625
301736,-0.1142730712890625,-1.145065307617188,0.3839111328125
301737,-0.0864410400390625,-1.158721923828125,0.448944091796875
301738,-0.040069580078125,-1.123138427734375,0.533447265625
301739,0.0302734375,-1.058273315429688,0.5980682373046875
301740,0.1239471435546875,-0.983062744140625,0.63818359375
301741,0.230072021484375,-0.9303131103515624,0.6730194091796875
301742,0.303253173828125,-0.9137115478515624,0.6904449462890625
301743,0.3050079345703125,-0.9366607666015624,0.667266845703125
301744,0.2563323974609375,-0.9832763671875,0.6078338623046875
301745,0.2026519775390625,-1.05572509765625,0.541168212890625
301746,0.138336181640625,-1.151901245117188,0.45721435546875
301747,0.0611572265625,-1.25506591796875,0.3604583740234375
301748,-0.011474609375,-1.348312377929688,0.2603912353515625
301749,-0.0608062744140625,-1.414093017578125,0.1811676025390625
301750,-0.085357666015625,-1.450042724609375,0.1326446533203125
301751,-0.0915069580078125,-1.43505859375,0.1402587890625
301752,-0.103729248046875,-1.363250732421875,0.149078369140625
301753,-0.1245574951171875,-1.257965087890625,0.142974853515625
301754,-0.136993408203125,-1.136627197265625,0.154571533203125
301755,-0.1449127197265625,-1.008316040039062,0.17095947265625
301756,-0.1542510986328125,-0.8921356201171875,0.1877288818359375
301757,-0.1596221923828125,-0.7995147705078125,0.201385498046875
301758,-0.1565399169921875,-0.7228546142578125,0.2144775390625
301759,-0.138641357421875,-0.67633056640625,0.2310791015625
301760,-0.1350860595703125,-0.65826416015625,0.243377685546875
301761,-0.1302337646484375,-0.64654541015625,0.2354736328125
301762,-0.1281280517578125,-0.646331787109375,0.2210235595703125
301763,-0.1162109375,-0.643768310546875,0.19989013671875
301764,-0.1094512939453125,-0.6324310302734375,0.1905059814453125
301765,-0.10528564453125,-0.6227874755859375,0.1560516357421875
301766,-0.1151885986328125,-0.6421966552734375,0.0167388916015625
301767,-0.1151885986328125,-0.6421966552734375,0.0167388916015625
301768,-0.1226654052734375,-0.6737213134765625,-0.0433349609375
301769,-0.121246337890625,-0.7222747802734375,-0.095458984375
301770,-0.1316680908203125,-0.8009796142578125,-0.1370849609375
301771,-0.180816650390625,-0.9259033203125,-0.1598663330078125
301772,-0.2195892333984375,-1.088775634765625,-0.1572113037109375
301773,-0.227508544921875,-1.221160888671875,-0.1583251953125
301774,-0.226318359375,-1.292495727539062,-0.1678466796875
301775,-0.2171630859375,-1.295455932617188,-0.1620330810546875
301776,-0.2068328857421875,-1.226150512695312,-0.1222076416015625
301777,-0.1992034912109375,-1.111068725585938,-0.062835693359375
301778,-0.2037506103515625,-0.9942169189453124,-0.00335693359375
301779,-0.2169952392578125,-0.909393310546875,0.030181884765625
301780,-0.2230072021484375,-0.852630615234375,0.037689208984375
301781,-0.2252960205078125,-0.8213958740234375,0.0156097412109375
301782,-0.21746826171875,-0.8272247314453125,-0.0364532470703125
301783,-0.2127838134765625,-0.8440704345703125,-0.081756591796875
301784,-0.2161407470703125,-0.872100830078125,-0.0836029052734375
301785,-0.2229461669921875,-0.9046783447265624,-0.0530853271484375
301786,-0.2375335693359375,-0.9569854736328124,0.0775299072265625
301787,-0.2375335693359375,-0.9569854736328124,0.0775299072265625
301788,-0.2218475341796875,-0.9813385009765624,0.114227294921875
301789,-0.2130279541015625,-1.00286865234375,0.1293182373046875
301790,-0.2294769287109375,-1.036956787109375,0.187774658203125
301791,-0.2294769287109375,-1.036956787109375,0.187774658203125
301792,-0.2544097900390625,-1.04766845703125,0.250518798828125
301793,-0.2614593505859375,-1.06256103515625,0.30096435546875
301794,-0.1378326416015625,-1.110870361328125,0.3778839111328125
301795,-0.1378326416015625,-1.110870361328125,0.3778839111328125
301796,-0.041107177734375,-1.1197509765625,0.43585205078125
301797,0.0442047119140625,-1.12841796875,0.5070648193359375
301798,0.118011474609375,-1.141632080078125,0.5816192626953125
301799,0.1679229736328125,-1.16839599609375,0.674285888671875
301800,0.17852783203125,-1.220474243164062,0.744873046875
301801,0.150115966796875,-1.2569580078125,0.79595947265625
301802,0.098846435546875,-1.25885009765625,0.8095550537109375
301803,0.01727294921875,-1.24139404296875,0.78570556640625
301804,-0.0810699462890625,-1.19488525390625,0.7126312255859375
301805,-0.1534423828125,-1.135818481445312,0.6402435302734375
301806,-0.20587158203125,-1.085159301757812,0.575286865234375
301807,-0.25726318359375,-1.05657958984375,0.51019287109375
301808,-0.3019561767578125,-1.037155151367188,0.4272308349609375
301809,-0.3274993896484375,-1.02337646484375,0.3300933837890625
301810,-0.3205413818359375,-1.014266967773438,0.2437896728515625
301811,-0.2841644287109375,-0.9982147216796876,0.1964569091796875
301812,-0.228118896484375,-0.97503662109375,0.1988983154296875
301813,-0.1593017578125,-0.9450836181640624,0.1977691650390625
301814,-0.0495758056640625,-0.9263916015625,0.118804931640625
301815,-0.0495758056640625,-0.9263916015625,0.118804931640625
301816,-0.0319366455078125,-0.9442596435546876,0.0680389404296875
301817,-0.0221405029296875,-0.9610595703125,0.0339508056640625
301818,-0.015045166015625,-0.981842041015625,0.0331878662109375
301819,-0.02099609375,-1.004653930664062,0.052276611328125
301820,-0.033203125,-1.017120361328125,0.067108154296875
301821,-0.044586181640625,-1.0084228515625,0.080078125
301822,-0.047607421875,-0.90484619140625,0.1182861328125
301823,-0.047607421875,-0.90484619140625,0.1182861328125
301824,-0.0340576171875,-0.828033447265625,0.138641357421875
301825,-0.0046234130859375,-0.755126953125,0.162445068359375
301826,0.0391082763671875,-0.6888427734375,0.2061767578125
301827,0.0391082763671875,-0.6888427734375,0.2061767578125
301828,0.0376434326171875,-0.6979217529296875,0.233306884765625
301829,0.0152587890625,-0.74639892578125,0.257049560546875
301830,-0.12567138671875,-0.9240570068359376,0.19873046875
301831,-0.2470703125,-1.026199340820312,0.1314544677734375
301832,-0.2470703125,-1.026199340820312,0.1314544677734375
301833,-0.356903076171875,-1.134246826171875,0.0285491943359375
301834,-0.4396209716796875,-1.3233642578125,-0.1028289794921875
301835,-0.4396209716796875,-1.3233642578125,-0.1028289794921875
301836,-0.38055419921875,-1.372222900390625,-0.103485107421875
301837,-0.2721405029296875,-1.351791381835938,-0.09149169921875
301838,-0.14093017578125,-1.163894653320312,-0.0772857666015625
301839,-0.14093017578125,-1.163894653320312,-0.0772857666015625
301840,-0.1702117919921875,-1.067230224609375,-0.0799102783203125
301841,-0.2408447265625,-0.9845733642578124,-0.0914306640625
301842,-0.366668701171875,-0.9063568115234376,-0.0946197509765625
301843,-0.366668701171875,-0.9063568115234376,-0.0946197509765625
301844,-0.3692626953125,-0.917327880859375,-0.098724365234375
301845,-0.334197998046875,-0.93212890625,-0.1196746826171875
301846,-0.2698516845703125,-0.917724609375,-0.157470703125
301847,-0.2698516845703125,-0.917724609375,-0.157470703125
301848,-0.2507171630859375,-0.9024200439453124,-0.134185791015625
301849,-0.2381134033203125,-0.89996337890625,-0.085845947265625
301850,-0.2230072021484375,-0.9474639892578124,0.0262451171875
301851,-0.2230072021484375,-0.9474639892578124,0.0262451171875
301852,-0.2138671875,-0.9814300537109376,0.0652313232421875
301853,-0.189849853515625,-1.019134521484375,0.0966644287109375
301854,-0.148590087890625,-1.049591064453125,0.1553192138671875
301855,-0.148590087890625,-1.049591064453125,0.1553192138671875
301856,-0.1321868896484375,-1.00970458984375,0.2033233642578125
301857,-0.1099395751953125,-0.963165283203125,0.25457763671875
301858,-0.045684814453125,-0.8951873779296875,0.49591064453125
301859,-0.045684814453125,-0.8951873779296875,0.49591064453125
301860,-0.00048828125,-0.90606689453125,0.617950439453125
301861,0.0487518310546875,-0.9517974853515624,0.69384765625
301862,0.1967010498046875,-1.061294555664062,0.7680206298828125
301863,0.1967010498046875,-1.061294555664062,0.7680206298828125
301864,0.2578277587890625,-1.124542236328125,0.7510528564453125
301865,0.3095855712890625,-1.186965942382812,0.7059326171875
301866,0.3600311279296875,-1.30108642578125,0.5926055908203125
301867,0.3600311279296875,-1.30108642578125,0.5926055908203125
301868,0.34979248046875,-1.335556030273438,0.5002288818359375
301869,0.3245391845703125,-1.357223510742188,0.415313720703125
301870,0.278167724609375,-1.324630737304688,0.3098907470703125
301871,0.278167724609375,-1.324630737304688,0.3098907470703125
301872,0.25274658203125,-1.248748779296875,0.2992401123046875
301873,0.2096099853515625,-1.1688232421875,0.30291748046875
301874,0.0932159423828125,-0.998382568359375,0.2964324951171875
301875,0.0932159423828125,-0.998382568359375,0.2964324951171875
301876,0.0445709228515625,-0.926177978515625,0.260528564453125
301877,0.00372314453125,-0.8715667724609375,0.2239837646484375
301878,-0.0822601318359375,-0.80035400390625,0.1683349609375
301879,-0.0822601318359375,-0.80035400390625,0.1683349609375
301880,-0.1409759521484375,-0.770599365234375,0.142974853515625
301881,-0.1859588623046875,-0.744598388671875,0.104583740234375
301882,-0.250762939453125,-0.69122314453125,0.0941925048828125
301883,-0.250762939453125,-0.69122314453125,0.0941925048828125
301884,-0.2664642333984375,-0.6705474853515625,0.109130859375
301885,-0.2849273681640625,-0.64031982421875,0.133697509765625
301886,-0.2771453857421875,-0.5792083740234375,0.1484832763671875
301887,-0.2771453857421875,-0.5792083740234375,0.1484832763671875
301888,-0.2465362548828125,-0.5685272216796875,0.1387176513671875
301889,-0.1976165771484375,-0.5998077392578125,0.0997314453125
301890,-0.1107635498046875,-0.8109130859375,0.0360870361328125
301891,-0.1107635498046875,-0.8109130859375,0.0360870361328125
301892,-0.09051513671875,-0.9627838134765624,0.00152587890625
301893,-0.078125,-1.130401611328125,-0.03143310546875
301894,-0.067352294921875,-1.37774658203125,-0.137847900390625
301895,-0.067352294921875,-1.37774658203125,-0.137847900390625
301896,-0.0697021484375,-1.403244018554688,-0.172576904296875
301897,-0.0759735107421875,-1.32879638671875,-0.1514129638671875
301898,-0.119049072265625,-1.009552001953125,-0.0367279052734375
301899,-0.119049072265625,-1.009552001953125,-0.0367279052734375
301900,-0.142059326171875,-0.8661651611328125,0.0005340576171875
301901,-0.1634674072265625,-0.7655029296875,0.037445068359375
301902,-0.1592254638671875,-0.71612548828125,0.0442047119140625
301903,-0.1592254638671875,-0.71612548828125,0.0442047119140625
301904,-0.1643829345703125,-0.735687255859375,0.036651611328125
301905,-0.1736602783203125,-0.7794342041015625,0.031951904296875
301906,-0.1552886962890625,-0.9279937744140624,0.0440826416015625
301907,-0.1552886962890625,-0.9279937744140624,0.0440826416015625
301908,-0.147735595703125,-1.042083740234375,0.057037353515625
301909,-0.139251708984375,-1.1435546875,0.075592041015625
301910,-0.1560821533203125,-1.259033203125,0.11358642578125
301911,-0.1560821533203125,-1.259033203125,0.11358642578125
301912,-0.16314697265625,-1.261520385742188,0.121002197265625
301913,-0.18743896484375,-1.23040771484375,0.170501708984375
