time_idx,accelerometerAccelerationX(G),accelerometerAccelerationY(G),accelerometerAccelerationZ(G)
200000,0.1693572998046875,-1.098342895507812,0.65008544921875
200001,0.1278839111328125,-1.01092529296875,0.49444580078125
200002,0.0479736328125,-0.863800048828125,0.3314361572265625
200003,-0.067657470703125,-0.6877899169921875,0.1882171630859375
200004,-0.189361572265625,-0.5123748779296875,0.06207275390625
200005,-0.2653656005859375,-0.3327789306640625,-0.02862548828125
200006,-0.271087646484375,-0.1590576171875,-0.0569915771484375
200007,-0.2474517822265625,-0.0214385986328125,-0.0487060546875
200008,-0.2019805908203125,0.120880126953125,0.006805419921875
200009,-0.133636474609375,0.2497100830078125,0.0532073974609375
200010,-0.0647430419921875,0.37200927734375,0.1034698486328125
200011,0.00323486328125,0.46636962890625,0.1670074462890625
200012,0.0362396240234375,0.5363922119140625,0.1685791015625
200013,0.040679931640625,0.5886383056640625,0.1088409423828125
200014,0.028106689453125,0.6076812744140625,0.0106048583984375
200015,0.011322021484375,0.598541259765625,-0.08831787109375
200016,0.0130462646484375,0.57989501953125,-0.160919189453125
200017,0.0274505615234375,0.54071044921875,-0.22222900390625
200018,0.0492706298828125,0.5115814208984375,-0.2396392822265625
200019,0.069976806640625,0.4738311767578125,-0.2111663818359375
200020,0.0373687744140625,0.3263702392578125,-0.18255615234375
200021,-0.0599212646484375,0.1352996826171875,-0.1583251953125
200022,-0.1732635498046875,-0.0941925048828125,0.023162841796875
200023,-0.2789764404296875,-0.4500732421875,0.5314788818359375
200024,-0.393646240234375,-0.825164794921875,0.8428802490234375
200025,-0.5412750244140625,-1.195663452148438,0.7258758544921875
200026,-0.6858367919921875,-1.567520141601562,0.1873779296875
200027,-0.6662139892578125,-2.073776245117188,-0.1614532470703125
200028,-0.570648193359375,-3.006301879882812,-0.223358154296875
200029,-0.6166229248046875,-5.243759155273438,-0.0583953857421875
200030,-0.9187164306640624,-7.769317626953125,-0.4412994384765625
200031,-1.576828002929688,-7.110748291015625,-1.289306640625
200032,-1.85894775390625,-4.419692993164062,-0.3956298828125
200033,-1.218399047851562,-2.646636962890625,0.74676513671875
200034,-0.4925689697265625,-1.667495727539062,1.16802978515625
200035,0.001800537109375,-0.7047119140625,0.990081787109375
200036,0.001800537109375,-0.7047119140625,0.990081787109375
200037,0.0416717529296875,-0.52935791015625,0.67572021484375
200038,0.081756591796875,-0.44683837890625,0.484344482421875
200039,0.1545562744140625,-0.4045562744140625,0.4617156982421875
200040,0.2415008544921875,-0.42120361328125,0.40032958984375
200041,0.3238525390625,-0.48345947265625,0.3687896728515625
200042,0.3969573974609375,-0.5666656494140625,0.3646697998046875
200043,0.4510650634765625,-0.6352386474609375,0.3275146484375
200044,0.4539794921875,-0.690582275390625,0.2687835693359375
200045,0.3824005126953125,-0.6516876220703125,0.1560821533203125
200046,0.23236083984375,-0.5264434814453125,0.0299224853515625
200047,0.0693206787109375,-0.416717529296875,-0.085693359375
200048,-0.029510498046875,-0.2626190185546875,-0.1820068359375
200049,-0.0634765625,-0.0515289306640625,-0.2011871337890625
200050,-0.0040435791015625,0.32781982421875,-0.0700225830078125
200051,-0.0040435791015625,0.32781982421875,-0.0700225830078125
200052,0.047454833984375,0.4385223388671875,0.0067291259765625
200053,0.0630340576171875,0.4719085693359375,0.0682220458984375
200054,0.0380706787109375,0.4533843994140625,0.0551910400390625
200055,-0.0059967041015625,0.397216796875,-0.0129852294921875
200056,-0.073944091796875,0.3198699951171875,-0.0885162353515625
200057,-0.1536865234375,0.232757568359375,-0.1220703125
200058,-0.2186737060546875,0.1593170166015625,-0.1037445068359375
200059,-0.2782745361328125,0.114898681640625,-0.1238555908203125
200060,-0.3072357177734375,0.092926025390625,-0.187408447265625
200061,-0.286529541015625,0.0760498046875,-0.255645751953125
200062,-0.22442626953125,0.060028076171875,-0.2528076171875
200063,-0.1228790283203125,0.030120849609375,-0.14678955078125
200064,0.00579833984375,-0.009521484375,0.0328521728515625
200065,0.143829345703125,-0.0859222412109375,0.228759765625
200066,0.2516326904296875,-0.2819366455078125,0.5001373291015625
200067,0.2563629150390625,-0.729248046875,0.786163330078125
200068,-0.0195770263671875,-1.451705932617188,0.57928466796875
200069,-0.5146942138671875,-2.352935791015625,0.0388031005859375
200070,-0.7580108642578125,-3.291763305664062,-0.0394287109375
200071,-0.9070281982421876,-4.984115600585938,-0.1464691162109375
200072,-1.070419311523438,-6.1544189453125,-0.3388824462890625
200073,-1.351760864257812,-5.209503173828125,-0.9032135009765624
200074,-1.640060424804688,-3.555801391601562,-0.471527099609375
200075,-1.158767700195312,-2.484970092773438,0.2384033203125
200076,-0.514617919921875,-1.8111572265625,0.726043701171875
200077,-0.122589111328125,-1.27130126953125,1.3885498046875
200078,-0.1042327880859375,-0.997772216796875,0.8819732666015625
200079,-0.1042327880859375,-0.997772216796875,0.8819732666015625
200080,-0.0886383056640625,-0.9833526611328124,0.661224365234375
200081,-0.0505218505859375,-1.048263549804688,0.55120849609375
200082,-0.02581787109375,-1.11651611328125,0.50848388671875
200083,0.013397216796875,-1.1182861328125,0.56170654296875
200084,0.0172576904296875,-1.087203979492188,0.648162841796875
200085,-0.004241943359375,-1.064620971679688,0.6407470703125
200086,-0.0157470703125,-1.0101318359375,0.5252685546875
200087,-0.042572021484375,-0.88214111328125,0.373931884765625
200088,-0.0916290283203125,-0.692291259765625,0.2566070556640625
200089,-0.13909912109375,-0.490203857421875,0.1362152099609375
200090,-0.163116455078125,-0.286773681640625,0.035186767578125
200091,-0.162384033203125,-0.0821075439453125,-0.0525970458984375
200092,-0.11669921875,0.2230682373046875,-0.2287139892578125
200093,0.01531982421875,0.467620849609375,-0.1558685302734375
200094,0.1070098876953125,0.5616607666015625,0.082855224609375
200095,0.0677032470703125,0.5976104736328125,0.214569091796875
200096,-0.0369720458984375,0.6014251708984375,0.18896484375
200097,-0.138336181640625,0.578887939453125,0.05865478515625
200098,-0.1748046875,0.4865570068359375,-0.0217132568359375
200099,-0.1353912353515625,0.3435211181640625,-0.0143890380859375
200100,-0.0911865234375,0.1957550048828125,-0.023681640625
200101,-0.063873291015625,0.07275390625,-0.0531463623046875
200102,-0.04351806640625,0.0282135009765625,-0.096923828125
200103,-0.031097412109375,0.044830322265625,-0.153350830078125
200104,-0.0105133056640625,0.0810394287109375,-0.20013427734375
200105,0.043121337890625,0.0977630615234375,-0.223175048828125
200106,0.1086273193359375,0.0843963623046875,-0.1600189208984375
200107,0.08392333984375,-0.09686279296875,0.01544189453125
200108,-0.04132080078125,-0.412994384765625,0.276214599609375
200109,-0.1731719970703125,-0.756103515625,0.45635986328125
200110,-0.3857421875,-1.163070678710938,0.2655181884765625
200111,-0.579010009765625,-1.542282104492188,-0.21295166015625
200112,-0.673553466796875,-2.163238525390625,-0.8979034423828125
200113,-0.7400054931640625,-3.563385009765625,-1.348602294921875
200114,-0.84857177734375,-5.99407958984375,-0.9319610595703124
200115,-1.122421264648438,-6.802963256835938,-0.96856689453125
200116,-1.493759155273438,-5.010086059570312,-0.9057769775390624
200117,-1.235519409179688,-3.195693969726562,-0.0723419189453125
200118,-0.6161956787109375,-2.290603637695312,0.687225341796875
200119,-0.221771240234375,-1.548385620117188,1.564727783203125
200120,-0.11383056640625,-1.079849243164062,1.787353515625
200121,-0.0892333984375,-0.9714202880859376,0.9954071044921876
200122,0.1588592529296875,-1.010665893554688,0.774169921875
200123,0.3289794921875,-1.082733154296875,0.5843658447265625
200124,0.4282684326171875,-1.174880981445312,0.5077056884765625
200125,0.481903076171875,-1.300125122070312,0.463592529296875
200126,0.423248291015625,-1.354232788085938,0.4272613525390625
200127,0.30126953125,-1.314132690429688,0.4879302978515625
200128,0.231842041015625,-1.203567504882812,0.48028564453125
200129,0.207427978515625,-0.9989013671875,0.3757171630859375
200130,0.1769561767578125,-0.75018310546875,0.25677490234375
200131,0.1249847412109375,-0.5193939208984375,0.1561279296875
200132,0.030426025390625,-0.3303375244140625,0.0499420166015625
200133,-0.0698089599609375,-0.15673828125,-0.0451202392578125
200134,-0.104278564453125,0.1240234375,-0.0681915283203125
200135,-0.104278564453125,0.1240234375,-0.0681915283203125
200136,-0.0925750732421875,0.2500457763671875,-0.042083740234375
200137,-0.0699310302734375,0.3688812255859375,0.0039520263671875
200138,-0.0391387939453125,0.4577789306640625,0.02862548828125
200139,0.001556396484375,0.5280303955078125,0.039703369140625
200140,0.0376739501953125,0.5627288818359375,0.007232666015625
200141,0.07537841796875,0.5832061767578125,-0.0172271728515625
200142,0.1532135009765625,0.5847320556640625,0.0646514892578125
200143,0.233062744140625,0.486480712890625,0.0908355712890625
200144,0.257293701171875,0.279571533203125,0.0420074462890625
200145,0.1972198486328125,0.0572662353515625,0.034881591796875
200146,0.100372314453125,-0.0676116943359375,-0.0238189697265625
200147,0.017364501953125,-0.1407623291015625,-0.12420654296875
200148,-0.0276031494140625,-0.1988372802734375,-0.23809814453125
200149,-0.0386810302734375,-0.248504638671875,-0.2817840576171875
200150,-0.050048828125,-0.285430908203125,-0.2692718505859375
200151,-0.06591796875,-0.3193206787109375,-0.2050628662109375
200152,-0.088836669921875,-0.3974456787109375,-0.038604736328125
200153,-0.1513671875,-0.5596160888671875,0.2169342041015625
200154,-0.5281524658203125,-1.318130493164062,0.4180908203125
200155,-0.5281524658203125,-1.318130493164062,0.4180908203125
200156,-0.777099609375,-1.987380981445312,0.0287017822265625
200157,-1.010223388671875,-3.070114135742188,-0.3410186767578125
200158,-1.28277587890625,-5.10736083984375,-0.415679931640625
200159,-1.416763305664062,-5.91326904296875,-0.6352386474609375
200160,-1.7083740234375,-4.950836181640625,-0.6383209228515625
200161,-1.566482543945312,-3.492874145507812,0.2140350341796875
200162,-0.622955322265625,-2.505905151367188,0.8989105224609375
200163,-0.00567626953125,-1.807403564453125,1.2952880859375
200164,0.2216796875,-1.517242431640625,1.29388427734375
200165,0.3058013916015625,-1.364532470703125,1.043746948242188
200166,0.3814697265625,-1.260787963867188,0.908477783203125
200167,0.413055419921875,-1.1378173828125,0.8960723876953125
200168,0.2982940673828125,-1.007034301757812,0.87457275390625
200169,0.0843963623046875,-0.9411773681640624,0.7961883544921875
200170,-0.0638275146484375,-0.9437713623046876,0.7022247314453125
200171,-0.17608642578125,-0.948486328125,0.593841552734375
200172,-0.2369384765625,-0.921112060546875,0.49932861328125
200173,-0.2247772216796875,-0.8449859619140625,0.4480133056640625
200174,-0.1629791259765625,-0.5350494384765625,0.22442626953125
200175,-0.1629791259765625,-0.5350494384765625,0.22442626953125
200176,-0.14788818359375,-0.3694610595703125,0.0652923583984375
200177,-0.154510498046875,-0.2105560302734375,-0.0850830078125
200178,-0.169830322265625,-0.0530242919921875,-0.1685333251953125
200179,-0.1453704833984375,0.06964111328125,-0.127716064453125
200180,-0.0889129638671875,0.17059326171875,-0.0431060791015625
200181,-0.03717041015625,0.2794342041015625,0.03924560546875
200182,0.0052947998046875,0.3724365234375,0.0867767333984375
200183,0.03082275390625,0.4543304443359375,0.066650390625
200184,0.04632568359375,0.533050537109375,0.02813720703125
200185,0.0647125244140625,0.58465576171875,0.0133819580078125
200186,0.081390380859375,0.5988616943359375,-0.0066680908203125
200187,0.098541259765625,0.5529632568359375,-0.033233642578125
200188,0.113677978515625,0.4589385986328125,-0.0365447998046875
200189,0.0790863037109375,0.2770843505859375,-0.0278472900390625
200190,-0.014434814453125,0.063934326171875,-0.0438690185546875
200191,-0.117828369140625,-0.0487518310546875,-0.08416748046875
200192,-0.1815948486328125,-0.1343231201171875,-0.1212615966796875
200193,-0.2025604248046875,-0.2624664306640625,-0.0967864990234375
200194,-0.209136962890625,-0.4073028564453125,0.0468902587890625
200195,-0.2241973876953125,-0.5665130615234375,0.1668701171875
200196,-0.254669189453125,-0.7443695068359375,0.070343017578125
200197,-0.330963134765625,-1.055328369140625,-0.137451171875
200198,-0.4262847900390625,-1.751953125,-0.234466552734375
200199,-0.5743408203125,-3.415924072265625,-0.454254150390625
200200,-0.8900146484375,-6.391357421875,-0.4990692138671875
200201,-1.26727294921875,-6.9896240234375,-0.9255828857421876
200202,-1.746810913085938,-5.024124145507812,-0.2162017822265625
200203,-1.465377807617188,-3.0765380859375,0.5523681640625
200204,-0.495025634765625,-1.999526977539062,0.958251953125
200205,0.120513916015625,-1.270233154296875,1.39801025390625
200206,0.323638916015625,-1.041641235351562,1.1959228515625
200207,0.3916473388671875,-0.9976348876953124,0.8953857421875
200208,0.417144775390625,-1.015106201171875,0.8468475341796875
200209,0.31591796875,-1.085357666015625,0.812286376953125
200210,0.158599853515625,-1.181381225585938,0.6433563232421875
200211,0.158599853515625,-1.181381225585938,0.6433563232421875
200212,0.16119384765625,-1.206497192382812,0.6218719482421875
200213,0.16162109375,-1.204971313476562,0.5577239990234375
200214,0.2196197509765625,-0.9751129150390624,0.3201751708984375
200215,0.2196197509765625,-0.9751129150390624,0.3201751708984375
200216,0.2410125732421875,-0.77130126953125,0.2084503173828125
200217,0.21136474609375,-0.5650482177734375,0.088409423828125
200218,0.0625,-0.2779388427734375,-0.1006622314453125
200219,0.0625,-0.2779388427734375,-0.1006622314453125
200220,-0.0076446533203125,-0.1451873779296875,-0.1592559814453125
200221,-0.0785675048828125,-0.0088958740234375,-0.1908416748046875
200222,-0.1455078125,0.114166259765625,-0.227569580078125
200223,-0.2340850830078125,0.2355499267578125,-0.3162384033203125
200224,-0.298187255859375,0.3636474609375,-0.351837158203125
200225,-0.2980499267578125,0.4665985107421875,-0.275360107421875
200226,-0.2423858642578125,0.5288848876953125,-0.100006103515625
200227,-0.1581573486328125,0.5574798583984375,0.056121826171875
200228,-0.0601959228515625,0.5245361328125,0.0887298583984375
200229,0.0279541015625,0.344818115234375,0.0785980224609375
200230,0.056915283203125,-0.040283203125,0.055419921875
200231,0.056915283203125,-0.040283203125,0.055419921875
200232,0.035369873046875,-0.13763427734375,-0.0133056640625
200233,0.0058135986328125,-0.1772613525390625,-0.1168212890625
200234,-0.0069122314453125,-0.1900482177734375,-0.1710205078125
200235,-0.0319061279296875,-0.2464752197265625,0.0035247802734375
200236,-0.0319061279296875,-0.2464752197265625,0.0035247802734375
200237,-0.0663299560546875,-0.3072509765625,0.0841217041015625
200238,-0.1157073974609375,-0.427764892578125,0.148284912109375
200239,-0.19659423828125,-0.6680450439453125,0.3033905029296875
200240,-0.35870361328125,-1.142257690429688,0.5400390625
200241,-0.686065673828125,-1.898788452148438,0.2535247802734375
200242,-1.125030517578125,-5.057403564453125,-0.610107421875
200243,-1.125030517578125,-5.057403564453125,-0.610107421875
200244,-1.249114990234375,-6.039962768554688,-0.66278076171875
200245,-1.524383544921875,-5.04595947265625,-0.5130157470703125
200246,-0.3967437744140625,-2.460220336914062,0.7541351318359375
200247,-0.3967437744140625,-2.460220336914062,0.7541351318359375
200248,0.0904388427734375,-1.759292602539062,1.295623779296875
200249,0.3206939697265625,-1.467178344726562,1.459762573242188
200250,0.3899993896484375,-1.364105224609375,1.19927978515625
200251,0.42791748046875,-1.33642578125,0.995758056640625
200252,0.3695068359375,-1.341537475585938,0.8229217529296875
200253,0.221405029296875,-1.331314086914062,0.6959228515625
200254,0.0795135498046875,-1.306015014648438,0.6739349365234375
200255,-0.016021728515625,-1.268081665039062,0.6742095947265625
200256,-0.0844573974609375,-1.179351806640625,0.617218017578125
200257,-0.1115875244140625,-1.029251098632812,0.542755126953125
200258,-0.105377197265625,-0.617584228515625,0.294158935546875
200259,-0.105377197265625,-0.617584228515625,0.294158935546875
200260,-0.09228515625,-0.41363525390625,0.1695709228515625
200261,-0.081024169921875,-0.245361328125,0.0688934326171875
200262,-0.1119842529296875,0.0313720703125,-0.127349853515625
200263,-0.1119842529296875,0.0313720703125,-0.127349853515625
200264,-0.137451171875,0.149505615234375,-0.16790771484375
200265,-0.1276397705078125,0.266693115234375,-0.13238525390625
200266,-0.0306243896484375,0.4009857177734375,-0.0588836669921875
200267,-0.0306243896484375,0.4009857177734375,-0.0588836669921875
200268,0.0097808837890625,0.4610137939453125,-0.0638427734375
200269,0.0579071044921875,0.5278167724609375,-0.078369140625
200270,0.1177978515625,0.602935791015625,-0.1103057861328125
200271,0.1177978515625,0.602935791015625,-0.1103057861328125
200272,0.1409912109375,0.5899200439453125,-0.0839996337890625
200273,0.1754150390625,0.5302581787109375,-0.04937744140625
200274,0.13720703125,0.17926025390625,-0.09552001953125
200275,0.13720703125,0.17926025390625,-0.09552001953125
200276,0.0474853515625,0.0435943603515625,-0.140655517578125
200277,-0.0343475341796875,-0.03662109375,-0.142120361328125
200278,-0.131622314453125,-0.2694244384765625,-0.104949951171875
200279,-0.131622314453125,-0.2694244384765625,-0.104949951171875
200280,-0.140472412109375,-0.4100799560546875,0.02972412109375
200281,-0.1451263427734375,-0.55517578125,0.11602783203125
200282,-0.1422271728515625,-0.9814300537109376,-0.046600341796875
200283,-0.1422271728515625,-0.9814300537109376,-0.046600341796875
200284,-0.1197662353515625,-1.5101318359375,-0.0064697265625
200285,-0.2591705322265625,-2.63641357421875,-0.1006927490234375
200286,-1.067047119140625,-7.307632446289062,-0.46978759765625
200287,-1.067047119140625,-7.307632446289062,-0.46978759765625
200288,-1.609298706054688,-6.253677368164062,-0.455657958984375
200289,-1.930206298828125,-3.985855102539062,0.6138458251953125
200290,-0.1606292724609375,-1.706939697265625,1.609954833984375
200291,-0.1606292724609375,-1.706939697265625,1.609954833984375
200292,0.1121978759765625,-1.3485107421875,1.2825927734375
200293,0.2805938720703125,-1.248550415039062,0.969329833984375
200294,0.4296112060546875,-1.137725830078125,0.8451995849609375
200295,0.4296112060546875,-1.137725830078125,0.8451995849609375
200296,0.3009033203125,-1.015411376953125,0.7589569091796875
200297,0.1564483642578125,-0.9631805419921876,0.657073974609375
200298,0.1324615478515625,-0.96453857421875,0.5808563232421875
200299,0.17047119140625,-0.9325408935546876,0.5618438720703125
200300,0.2080078125,-0.8612060546875,0.5178070068359375
200301,0.248016357421875,-0.7463531494140625,0.388153076171875
200302,0.2216644287109375,-0.4183197021484375,0.082305908203125
200303,0.2216644287109375,-0.4183197021484375,0.082305908203125
200304,0.1957855224609375,-0.325958251953125,-0.0139617919921875
200305,0.1373291015625,-0.2596282958984375,-0.1142120361328125
200306,0.058990478515625,-0.0358428955078125,-0.1156768798828125
200307,0.058990478515625,-0.0358428955078125,-0.1156768798828125
200308,0.0065765380859375,0.0825958251953125,-0.1158599853515625
200309,-0.0566864013671875,0.1933441162109375,-0.1529541015625
200310,-0.12493896484375,0.3647918701171875,-0.201812744140625
200311,-0.12493896484375,0.3647918701171875,-0.201812744140625
200312,-0.1099395751953125,0.4128875732421875,-0.17779541015625
200313,-0.070556640625,0.4569854736328125,-0.0947418212890625
200314,0.0055999755859375,0.4962310791015625,0.0532379150390625
200315,0.0055999755859375,0.4962310791015625,0.0532379150390625
200316,0.046600341796875,0.38702392578125,0.021331787109375
200317,0.053070068359375,0.157501220703125,-0.0037384033203125
200318,0.0350494384765625,0.0156097412109375,-0.04754638671875
200319,0.0210418701171875,-0.0666046142578125,-0.092742919921875
200320,0.0241546630859375,-0.176422119140625,-0.0851593017578125
200321,0.033355712890625,-0.3046875,-0.0288238525390625
200322,-0.0301666259765625,-0.682830810546875,0.0890350341796875
200323,-0.0301666259765625,-0.682830810546875,0.0890350341796875
200324,-0.1563568115234375,-1.062103271484375,0.27288818359375
200325,-0.4510498046875,-1.703506469726562,0.359954833984375
200326,-1.316940307617188,-3.9039306640625,-0.0462493896484375
200327,-1.316940307617188,-3.9039306640625,-0.0462493896484375
200328,-1.45794677734375,-5.186508178710938,-0.0937652587890625
200329,-1.514602661132812,-5.075485229492188,-0.255523681640625
200330,-1.071380615234375,-3.0579833984375,0.154632568359375
200331,-1.071380615234375,-3.0579833984375,0.154632568359375
200332,-0.229888916015625,-2.291702270507812,0.595489501953125
200333,0.21875,-1.6917724609375,1.071746826171875
200334,0.3671875,-1.205963134765625,1.0621337890625
200335,0.3671875,-1.205963134765625,1.0621337890625
200336,0.3671875,-1.205963134765625,1.0621337890625
200337,0.2968597412109375,-1.198776245117188,0.889373779296875
200338,0.03814697265625,-1.250473022460938,0.6851348876953125
200339,0.03814697265625,-1.250473022460938,0.6851348876953125
200340,-0.0714874267578125,-1.246826171875,0.6622772216796875
200341,-0.185028076171875,-1.210678100585938,0.569854736328125
200342,-0.2393646240234375,-0.8996124267578125,0.4348297119140625
200343,-0.2393646240234375,-0.8996124267578125,0.4348297119140625
200344,-0.2150115966796875,-0.6719970703125,0.28924560546875
200345,-0.1768646240234375,-0.4489898681640625,0.1312103271484375
200346,-0.13006591796875,-0.0841217041015625,-0.1016998291015625
200347,-0.13006591796875,-0.0841217041015625,-0.1016998291015625
200348,-0.110107421875,0.0472564697265625,-0.0992584228515625
200349,-0.118377685546875,0.1840972900390625,-0.0980682373046875
200350,-0.1009521484375,0.350341796875,-0.1684417724609375
200351,-0.1009521484375,0.350341796875,-0.1684417724609375
200352,-0.0589447021484375,0.4173431396484375,-0.1638946533203125
200353,-0.0093231201171875,0.496917724609375,-0.1473388671875
200354,0.0394439697265625,0.553619384765625,-0.1196746826171875
200355,0.0394439697265625,0.553619384765625,-0.1196746826171875
200356,0.1668701171875,0.646484375,-0.0009765625
200357,0.2557220458984375,0.667755126953125,0.0335540771484375
200358,0.3342437744140625,0.4450531005859375,-0.0939178466796875
200359,0.3342437744140625,0.4450531005859375,-0.0939178466796875
200360,0.24609375,0.209228515625,-0.1236572265625
200361,0.1162872314453125,0.038909912109375,-0.1775054931640625
200362,-0.0843353271484375,-0.17132568359375,-0.1886444091796875
200363,-0.0843353271484375,-0.17132568359375,-0.1886444091796875
200364,-0.1811065673828125,-0.3122711181640625,-0.078460693359375
200365,-0.2743988037109375,-0.4599456787109375,0.0543975830078125
200366,-0.3921051025390625,-0.756103515625,0.2127227783203125
200367,-0.3921051025390625,-0.756103515625,0.2127227783203125
200368,-0.3335723876953125,-0.943450927734375,0.1872100830078125
200369,-0.2562255859375,-1.243789672851562,0.043975830078125
200370,-0.486053466796875,-3.04193115234375,-0.264129638671875
200371,-0.486053466796875,-3.04193115234375,-0.264129638671875
200372,-0.6663970947265625,-5.36114501953125,-0.183624267578125
200373,-1.010345458984375,-7.294082641601562,-0.5018768310546875
200374,-1.39605712890625,-6.250091552734375,-0.4340972900390625
200375,-1.39605712890625,-6.250091552734375,-0.4340972900390625
200376,-0.35113525390625,-2.562545776367188,1.42694091796875
200377,0.2288970947265625,-1.73895263671875,1.886993408203125
200378,0.195098876953125,-1.428131103515625,0.9673919677734376
200379,0.195098876953125,-1.428131103515625,0.9673919677734376
200380,0.1132354736328125,-1.351211547851562,0.7017974853515625
200381,-0.0204010009765625,-1.26153564453125,0.498199462890625
200382,0.0420684814453125,-1.117706298828125,0.3593902587890625
200383,0.0420684814453125,-1.117706298828125,0.3593902587890625
200384,0.1556854248046875,-0.9918365478515624,0.3651123046875
200385,0.23974609375,-0.82281494140625,0.3578338623046875
200386,0.3408355712890625,-0.4632720947265625,0.152099609375
200387,0.3408355712890625,-0.4632720947265625,0.152099609375
200388,0.3516387939453125,-0.298126220703125,0.044464111328125
200389,0.323486328125,-0.1739044189453125,-0.035125732421875
200390,0.193389892578125,0.0679168701171875,-0.0986175537109375
200391,0.193389892578125,0.0679168701171875,-0.0986175537109375
200392,0.1458587646484375,0.152130126953125,-0.0778961181640625
200393,0.0716705322265625,0.2265472412109375,-0.1045989990234375
200394,-0.0673675537109375,0.3738250732421875,-0.1627655029296875
200395,-0.0673675537109375,0.3738250732421875,-0.1627655029296875
200396,-0.07269287109375,0.4280853271484375,-0.1400604248046875
200397,-0.0605316162109375,0.445068359375,-0.096923828125
200398,-0.006072998046875,0.3754425048828125,0.0864410400390625
200399,-0.006072998046875,0.3754425048828125,0.0864410400390625
200400,-0.00787353515625,0.2808837890625,-0.0042877197265625
200401,-0.0042877197265625,0.1614837646484375,-0.111663818359375
200402,0.0765228271484375,-0.0942535400390625,-0.15399169921875
200403,0.0765228271484375,-0.0942535400390625,-0.15399169921875
200404,0.099822998046875,-0.1674346923828125,-0.1712493896484375
200405,0.1250152587890625,-0.2252349853515625,-0.1395721435546875
200406,0.1299591064453125,-0.4683990478515625,0.1550140380859375
200407,0.1299591064453125,-0.4683990478515625,0.1550140380859375
200408,0.0683746337890625,-0.6924591064453125,0.3369598388671875
200409,-0.0292205810546875,-1.027816772460938,0.522491455078125
200410,-0.2358245849609375,-1.500320434570312,0.487823486328125
200411,-0.475982666015625,-2.116180419921875,0.195098876953125
200412,-0.652130126953125,-3.065658569335938,-0.334503173828125
200413,-0.7573699951171875,-4.257568359375,-0.6731414794921875
200414,-0.9888763427734376,-5.538925170898438,-0.6846160888671875
200415,-0.9888763427734376,-5.538925170898438,-0.6846160888671875
200416,-1.728652954101562,-3.443115234375,-0.3531646728515625
200417,-1.250473022460938,-2.44268798828125,0.42132568359375
200418,-0.550811767578125,-1.763351440429688,1.102981567382812
200419,-0.550811767578125,-1.763351440429688,1.102981567382812
200420,-0.0738525390625,-1.3516845703125,1.172714233398438
200421,0.08551025390625,-1.438751220703125,0.99566650390625
200422,0.2375030517578125,-1.460128784179688,0.879852294921875
200423,0.2375030517578125,-1.460128784179688,0.879852294921875
200424,0.200439453125,-1.393157958984375,0.8963165283203125
200425,0.14166259765625,-1.2818603515625,0.902496337890625
200426,0.0901031494140625,-1.002700805664062,0.8396759033203125
200427,0.0901031494140625,-1.002700805664062,0.8396759033203125
200428,0.1291961669921875,-0.8291015625,0.67962646484375
200429,0.1526336669921875,-0.638916015625,0.4564666748046875
200430,0.1561279296875,-0.4793701171875,0.2624053955078125
200431,0.1255035400390625,-0.3365325927734375,0.0732879638671875
200432,0.0709381103515625,-0.1775054931640625,-0.0727081298828125
200433,0.0118865966796875,-0.0597381591796875,-0.1436004638671875
200434,-0.0706634521484375,0.174468994140625,-0.11285400390625
200435,-0.0706634521484375,0.174468994140625,-0.11285400390625
200436,-0.0706634521484375,0.174468994140625,-0.11285400390625
200437,-0.0877227783203125,0.3209991455078125,-0.085968017578125
200438,-0.0494537353515625,0.4319610595703125,-0.1224212646484375
200439,-0.0494537353515625,0.4319610595703125,-0.1224212646484375
200440,-0.0030517578125,0.48797607421875,-0.0434112548828125
200441,0.0496826171875,0.546112060546875,0.06353759765625
200442,0.072479248046875,0.6058349609375,0.0912933349609375
200443,0.056671142578125,0.63519287109375,0.0132598876953125
200444,0.0348663330078125,0.6068878173828125,-0.1071929931640625
200445,-0.005615234375,0.418731689453125,-0.2000274658203125
200446,-0.1780242919921875,0.018768310546875,-0.2257843017578125
200447,-0.1780242919921875,0.018768310546875,-0.2257843017578125
200448,-0.2421112060546875,-0.1647491455078125,-0.2153778076171875
200449,-0.306610107421875,-0.427886962890625,-0.091339111328125
200450,-0.38592529296875,-0.7829132080078125,0.0782928466796875
200451,-0.500335693359375,-1.070098876953125,0.048614501953125
200452,-0.6380615234375,-1.402114868164062,-0.1884765625
200453,-0.7362060546875,-1.956619262695312,-0.3204498291015625
200454,-1.028610229492188,-4.485885620117188,-0.21649169921875
200455,-1.028610229492188,-4.485885620117188,-0.21649169921875
200456,-1.312393188476562,-5.66668701171875,-0.277740478515625
200457,-1.559600830078125,-5.089035034179688,-0.0622100830078125
200458,-1.194351196289062,-3.772247314453125,0.8119659423828125
200459,-0.49200439453125,-2.649429321289062,1.3980712890625
200460,-0.1182098388671875,-1.9149169921875,1.720291137695312
200461,0.1176300048828125,-1.609420776367188,1.684707641601562
200462,0.4186859130859375,-1.27825927734375,1.205856323242188
200463,0.4186859130859375,-1.27825927734375,1.205856323242188
200464,0.5215301513671875,-1.06292724609375,1.052001953125
200465,0.527252197265625,-0.897430419921875,0.9887847900390624
200466,0.2965545654296875,-0.8027496337890625,0.5904541015625
200467,0.2965545654296875,-0.8027496337890625,0.5904541015625
200468,0.1551361083984375,-0.8180999755859375,0.3077239990234375
200469,0.03192138671875,-0.84918212890625,0.0977325439453125
200470,-0.0406341552734375,-0.8507080078125,-0.0319976806640625
200471,-0.0406341552734375,-0.8507080078125,-0.0319976806640625
200472,-0.060089111328125,-0.724761962890625,-0.05926513671875
200473,-0.0590362548828125,-0.6311798095703125,-0.0952606201171875
200474,-0.054351806640625,-0.523834228515625,-0.13592529296875
200475,-0.0464324951171875,-0.4087677001953125,-0.127197265625
200476,-0.021942138671875,-0.3126220703125,-0.06182861328125
200477,-0.0528717041015625,-0.244964599609375,-0.0641021728515625
200478,-0.1845245361328125,-0.2067413330078125,-0.1658782958984375
200479,-0.4050445556640625,-0.234283447265625,-0.3286895751953125
200480,-0.599578857421875,-0.3543701171875,-0.476715087890625
200481,-0.7217559814453125,-0.5024566650390625,-0.562896728515625
200482,-0.782073974609375,-0.6288299560546875,-0.5923614501953125
200483,-0.782073974609375,-0.6288299560546875,-0.5923614501953125
200484,-0.7811279296875,-0.9027252197265624,-0.477813720703125
200485,-0.6898193359375,-0.9519195556640624,-0.422882080078125
200486,-0.5170745849609375,-0.9337005615234376,-0.4322967529296875
200487,-0.2921295166015625,-0.847625732421875,-0.432220458984375
200488,-0.0890350341796875,-0.6622467041015625,-0.3339996337890625
200489,0.0752410888671875,-0.4609527587890625,-0.153106689453125
200490,0.2187042236328125,-0.2768402099609375,0.0916748046875
200491,0.346588134765625,-0.128936767578125,0.3422393798828125
200492,0.437957763671875,0.00225830078125,0.4777374267578125
200493,0.432281494140625,0.16943359375,0.5372467041015625
200494,0.31396484375,0.3176116943359375,0.5663909912109375
200495,0.31396484375,0.3176116943359375,0.5663909912109375
200496,0.16796875,0.2096405029296875,0.328826904296875
200497,0.0700225830078125,0.128143310546875,0.220245361328125
200498,-0.18743896484375,-0.0137786865234375,0.22991943359375
200499,-0.18743896484375,-0.0137786865234375,0.22991943359375
200500,-0.327606201171875,-0.1325225830078125,0.4051971435546875
200501,-0.44134521484375,-0.314178466796875,0.6295166015625
200502,-0.476715087890625,-0.54840087890625,0.8611907958984375
200503,-0.4047698974609375,-0.8665924072265625,1.14874267578125
200504,-0.1514434814453125,-1.35797119140625,1.538116455078125
200505,0.0746612548828125,-1.948150634765625,1.723068237304688
200506,0.135101318359375,-2.359771728515625,1.360244750976562
200507,0.135101318359375,-2.359771728515625,1.360244750976562
200508,0.0002593994140625,-2.327133178710938,0.469482421875
200509,0.1544342041015625,-2.066146850585938,0.3438720703125
200510,0.132659912109375,-1.843246459960938,0.241363525390625
200511,0.132659912109375,-1.843246459960938,0.241363525390625
200512,-0.055633544921875,-1.827377319335938,0.123565673828125
200513,-0.2166748046875,-1.984848022460938,0.0134735107421875
200514,-0.40350341796875,-2.239303588867188,-0.3032684326171875
200515,-0.40350341796875,-2.239303588867188,-0.3032684326171875
200516,-0.8817291259765625,-3.156051635742188,-0.200927734375
200517,-1.127487182617188,-3.424972534179688,-0.016815185546875
200518,-1.013595581054688,-2.588226318359375,0.4434967041015625
200519,-1.013595581054688,-2.588226318359375,0.4434967041015625
200520,-0.4165496826171875,-2.16314697265625,0.7594451904296875
200521,-0.038177490234375,-1.803924560546875,0.7316131591796875
200522,0.11517333984375,-1.571014404296875,0.572021484375
200523,0.2036590576171875,-1.407699584960938,0.4378204345703125
200524,0.25408935546875,-1.237503051757812,0.3347625732421875
200525,0.28350830078125,-1.125045776367188,0.3160247802734375
200526,0.21502685546875,-1.053329467773438,0.2587432861328125
200527,0.077545166015625,-1.000503540039062,0.2081146240234375
200528,-0.0489044189453125,-0.93560791015625,0.1297454833984375
200529,-0.1457672119140625,-0.8312225341796875,0.0271453857421875
200530,-0.2322540283203125,-0.7243194580078125,-0.058013916015625
200531,-0.3329010009765625,-0.563751220703125,-0.34136962890625
200532,-0.37591552734375,-0.2493438720703125,-0.7926788330078125
200533,-0.243927001953125,-0.086883544921875,-0.223724365234375
200534,-0.3562164306640625,-0.03521728515625,-0.057647705078125
200535,-0.3562164306640625,-0.03521728515625,-0.057647705078125
200536,-0.4045257568359375,-0.0804901123046875,-0.0189666748046875
200537,-0.4014739990234375,-0.218963623046875,-0.0552825927734375
200538,-0.39764404296875,-0.66143798828125,-0.340728759765625
200539,-0.39764404296875,-0.66143798828125,-0.340728759765625
200540,-0.4641876220703125,-0.9397125244140624,-0.48614501953125
200541,-0.5556793212890625,-1.211624145507812,-0.4907989501953125
200542,-0.7781982421875,-1.673324584960938,-0.5978851318359375
200543,-0.7781982421875,-1.673324584960938,-0.5978851318359375
200544,-0.81427001953125,-1.821456909179688,-0.70037841796875
200545,-0.75604248046875,-1.857513427734375,-0.6704864501953125
200546,-0.6458587646484375,-1.683120727539062,-0.50958251953125
200547,-0.5136871337890625,-1.341583251953125,-0.3228759765625
200548,-0.3604736328125,-0.984893798828125,-0.1363983154296875
200549,-0.1499176025390625,-0.6584930419921875,0.049957275390625
200550,0.0765838623046875,-0.4008636474609375,0.2291717529296875
200551,0.2622833251953125,-0.1873626708984375,0.337799072265625
200552,0.413116455078125,0.044097900390625,0.4458160400390625
200553,0.5207061767578125,0.3100738525390625,0.5146636962890625
200554,0.572967529296875,0.6027679443359375,0.40203857421875
200555,0.572967529296875,0.6027679443359375,0.40203857421875
200556,0.5810089111328125,0.59002685546875,0.302337646484375
200557,0.576141357421875,0.541168212890625,0.2542266845703125
200558,0.5552215576171875,0.496551513671875,0.2294769287109375
200559,0.5114593505859375,0.448272705078125,0.191680908203125
200560,0.409759521484375,0.3218231201171875,0.1517486572265625
200561,0.2648162841796875,0.1982574462890625,0.1431884765625
200562,0.1327056884765625,0.1028900146484375,0.168548583984375
200563,0.029266357421875,-0.0098876953125,0.22601318359375
200564,-0.042236328125,-0.0867462158203125,0.24578857421875
200565,-0.08636474609375,-0.1311187744140625,0.3130035400390625
200566,-0.120086669921875,-0.2052459716796875,0.4755401611328125
200567,-0.1572723388671875,-0.381195068359375,0.6973876953125
200568,-0.19830322265625,-0.756256103515625,0.8840484619140625
200569,-0.1870269775390625,-1.388229370117188,1.134735107421875
200570,0.1780548095703125,-2.7274169921875,1.514846801757812
200571,0.1780548095703125,-2.7274169921875,1.514846801757812
200572,0.2747802734375,-3.100173950195312,1.334518432617188
200573,0.131988525390625,-3.165695190429688,1.173980712890625
200574,-0.5445404052734375,-2.482086181640625,0.28814697265625
200575,-0.5445404052734375,-2.482086181640625,0.28814697265625
200576,-0.567413330078125,-2.323822021484375,0.277313232421875
200577,-0.4739990234375,-2.343154907226562,0.4041900634765625
200578,-0.377532958984375,-2.388259887695312,0.2517852783203125
200579,-0.4075775146484375,-2.487579345703125,0.0585784912109375
200580,-0.5121612548828125,-2.53515625,-0.1641082763671875
200581,-0.680816650390625,-2.516632080078125,-0.383941650390625
200582,-0.84954833984375,-2.446029663085938,-0.38128662109375
200583,-0.84954833984375,-2.446029663085938,-0.38128662109375
200584,-1.073883056640625,-1.972747802734375,0.157440185546875
200585,-0.9641265869140624,-1.6292724609375,0.2402191162109375
200586,-0.6323394775390625,-1.311477661132812,0.276885986328125
200587,-0.35546875,-1.076004028320312,0.419586181640625
200588,-0.1907806396484375,-0.920989990234375,0.488128662109375
200589,-0.0617523193359375,-0.85064697265625,0.4538421630859375
200590,0.0376434326171875,-0.8867950439453125,0.3657073974609375
200591,0.0744476318359375,-0.9824981689453124,0.256805419921875
200592,0.0554962158203125,-1.060745239257812,0.135528564453125
200593,0.0200347900390625,-1.06512451171875,0.0597991943359375
200594,0.0248870849609375,-0.9943084716796876,0.0827178955078125
200595,0.0248870849609375,-0.9943084716796876,0.0827178955078125
200596,0.063140869140625,-0.86181640625,0.215484619140625
200597,0.050628662109375,-0.78631591796875,0.2256622314453125
200598,0.0072021484375,-0.6793975830078125,0.179107666015625
200599,0.0072021484375,-0.6793975830078125,0.179107666015625
200600,-0.052276611328125,-0.5523529052734375,0.1410369873046875
200601,-0.03411865234375,-0.530364990234375,0.1093902587890625
200602,0.0433502197265625,-0.7277679443359375,0.0569610595703125
200603,0.0433502197265625,-0.7277679443359375,0.0569610595703125
200604,0.0420379638671875,-0.907135009765625,-0.011077880859375
200605,0.0125732421875,-1.115249633789062,-0.080352783203125
200606,-0.036285400390625,-1.325042724609375,-0.1131591796875
200607,-0.1184844970703125,-1.477157592773438,-0.1767120361328125
200608,-0.207611083984375,-1.554306030273438,-0.2631378173828125
200609,-0.2868804931640625,-1.554412841796875,-0.3271331787109375
200610,-0.366729736328125,-1.468032836914062,-0.3964080810546875
200611,-0.43896484375,-1.312286376953125,-0.4326171875
200612,-0.467559814453125,-1.076309204101562,-0.380401611328125
200613,-0.4263458251953125,-0.78717041015625,-0.2451629638671875
200614,-0.3288116455078125,-0.5375823974609375,-0.127105712890625
200615,-0.24505615234375,-0.348388671875,-0.0850372314453125
200616,-0.1794281005859375,-0.158935546875,0.0096435546875
200617,-0.094970703125,0.04974365234375,0.139678955078125
200618,0.012054443359375,0.269195556640625,0.2198944091796875
200619,0.1272430419921875,0.4590911865234375,0.2855987548828125
200620,0.2376708984375,0.5918426513671875,0.324676513671875
200621,0.3367462158203125,0.67669677734375,0.3319854736328125
200622,0.4352569580078125,0.6939239501953125,0.2575531005859375
200623,0.4352569580078125,0.6939239501953125,0.2575531005859375
200624,0.427947998046875,0.6375732421875,0.2244110107421875
200625,0.35284423828125,0.496551513671875,0.210784912109375
200626,0.1979522705078125,0.26263427734375,0.21966552734375
200627,0.04425048828125,0.0889892578125,0.1831817626953125
200628,-0.0787811279296875,-0.067474365234375,0.1790008544921875
200629,-0.177459716796875,-0.1772308349609375,0.1836090087890625
200630,-0.2493133544921875,-0.2452239990234375,0.209564208984375
200631,-0.3055877685546875,-0.3199005126953125,0.3463592529296875
200632,-0.33154296875,-0.3718414306640625,0.4766998291015625
200633,-0.292327880859375,-0.417266845703125,0.62750244140625
200634,-0.205596923828125,-0.5344696044921875,0.8828887939453125
200635,-0.205596923828125,-0.5344696044921875,0.8828887939453125
200636,0.1302490234375,-1.15704345703125,1.423431396484375
200637,0.34271240234375,-1.624008178710938,1.501983642578125
200638,0.3515777587890625,-2.248611450195312,1.391403198242188
200639,0.2873687744140625,-3.008819580078125,1.025985717773438
200640,0.06011962890625,-3.78143310546875,0.392852783203125
200641,-0.316070556640625,-4.479446411132812,-0.15673828125
200642,-0.70147705078125,-4.75811767578125,-0.4517059326171875
200643,-0.9409332275390624,-4.238250732421875,-0.4452056884765625
200644,-0.9409332275390624,-3.56646728515625,-0.2461700439453125
200645,-0.854949951171875,-2.991500854492188,-0.1541900634765625
200646,-0.68609619140625,-2.490676879882812,-0.1114349365234375
200647,-0.68609619140625,-2.490676879882812,-0.1114349365234375
200648,-0.5961151123046875,-1.760269165039062,0.320709228515625
200649,-0.60980224609375,-1.47113037109375,0.4672088623046875
200650,-0.4949798583984375,-1.23565673828125,0.4719696044921875
200651,-0.365814208984375,-1.0191650390625,0.42193603515625
200652,-0.190704345703125,-0.8551177978515625,0.3990478515625
200653,-0.0100250244140625,-0.7796783447265625,0.4053497314453125
200654,0.1363983154296875,-0.761932373046875,0.3740692138671875
200655,0.2243194580078125,-0.7672882080078125,0.3022308349609375
200656,0.2469940185546875,-0.7870941162109375,0.2780609130859375
200657,0.224273681640625,-0.8109283447265625,0.2989959716796875
200658,0.137542724609375,-0.7868804931640625,0.335418701171875
200659,0.0523681640625,-0.704132080078125,0.3097076416015625
200660,0.0107269287109375,-0.5977325439453125,0.2319793701171875
200661,0.012298583984375,-0.474945068359375,0.15728759765625
200662,0.0468902587890625,-0.34326171875,0.131866455078125
200663,0.095794677734375,-0.2076263427734375,0.1710357666015625
200664,0.1322784423828125,-0.09088134765625,0.1805419921875
200665,0.121307373046875,-7.62939453125e-05,0.1945953369140625
200666,0.0951385498046875,0.0435638427734375,0.214813232421875
200667,0.0726776123046875,-0.0517730712890625,0.204925537109375
200668,0.0319671630859375,-0.383544921875,0.22216796875
200669,-0.0413360595703125,-0.7624969482421875,0.1556549072265625
200670,-0.1732177734375,-1.5360107421875,-0.307464599609375
200671,-0.1732177734375,-1.5360107421875,-0.307464599609375
200672,-0.2577972412109375,-1.908935546875,-0.4712982177734375
200673,-0.3580169677734375,-2.180816650390625,-0.5543060302734375
200674,-0.4937286376953125,-2.399581909179688,-0.5408477783203125
200675,-0.6636962890625,-2.516250610351562,-0.5114288330078125
200676,-0.758697509765625,-2.32989501953125,-0.4456787109375
200677,-0.6884307861328125,-1.844635009765625,-0.351318359375
200678,-0.525543212890625,-1.347122192382812,-0.2547607421875
200679,-0.4147796630859375,-0.9404754638671876,-0.1525115966796875
200680,-0.3469390869140625,-0.5970306396484375,-0.0720977783203125
200681,-0.274749755859375,-0.3317108154296875,-0.0192108154296875
200682,-0.211883544921875,-0.1260833740234375,-0.0409393310546875
200683,-0.1319580078125,0.02978515625,-0.0298004150390625
200684,-0.0230712890625,0.19384765625,0.06378173828125
200685,0.1012420654296875,0.348419189453125,0.17340087890625
200686,0.20684814453125,0.465972900390625,0.20098876953125
200687,0.2968597412109375,0.5624237060546875,0.2090606689453125
200688,0.3857269287109375,0.640533447265625,0.248321533203125
200689,0.4532928466796875,0.674591064453125,0.2833404541015625
200690,0.4550323486328125,0.6656646728515625,0.27099609375
200691,0.398681640625,0.6267242431640625,0.2140350341796875
200692,0.254486083984375,0.4655609130859375,0.1695709228515625
200693,0.0897064208984375,0.2280426025390625,0.18109130859375
200694,-0.0416412353515625,0.0572662353515625,0.187225341796875
200695,-0.1449127197265625,-0.0617218017578125,0.1691131591796875
200696,-0.2135009765625,-0.14556884765625,0.164154052734375
200697,-0.24517822265625,-0.2081146240234375,0.13897705078125
200698,-0.2242279052734375,-0.256622314453125,0.1456146240234375
200699,-0.174591064453125,-0.3316802978515625,0.3090362548828125
200700,-0.14453125,-0.390289306640625,0.464447021484375
200701,-0.0971527099609375,-0.4697113037109375,0.601165771484375
200702,0.0312957763671875,-0.6283416748046875,0.773162841796875
200703,0.1789703369140625,-0.9039764404296876,0.9853973388671876
200704,0.29351806640625,-1.244338989257812,1.141708374023438
200705,0.3555755615234375,-1.652130126953125,1.132125854492188
200706,0.234222412109375,-3.687088012695312,0.2046661376953125
200707,0.234222412109375,-3.687088012695312,0.2046661376953125
200708,-0.178375244140625,-4.91302490234375,-0.068206787109375
200709,-0.8273162841796875,-5.428375244140625,-0.1165924072265625
200710,-1.484100341796875,-4.991226196289062,-0.2272186279296875
200711,-1.830963134765625,-3.948028564453125,0.0050201416015625
200712,-1.54644775390625,-2.938568115234375,0.400054931640625
200713,-1.047119140625,-2.4620361328125,0.531585693359375
200714,-0.8140411376953125,-2.067840576171875,0.530609130859375
200715,-0.8333740234375,-1.77923583984375,0.3649749755859375
200716,-0.8347015380859375,-1.524917602539062,0.2056427001953125
200717,-0.726837158203125,-1.281784057617188,0.176177978515625
200718,-0.59478759765625,-1.0845947265625,0.1877899169921875
200719,-0.414215087890625,-0.9276123046875,0.20953369140625
200720,-0.196014404296875,-0.834228515625,0.2549285888671875
200721,-0.0299835205078125,-0.775909423828125,0.2851715087890625
200722,0.1059112548828125,-0.7132110595703125,0.3091278076171875
200723,0.186553955078125,-0.664031982421875,0.305389404296875
200724,0.21771240234375,-0.6165618896484375,0.22296142578125
200725,0.2080535888671875,-0.6014251708984375,0.1838836669921875
200726,0.1568450927734375,-0.61199951171875,0.2159271240234375
200727,0.1568450927734375,-0.61199951171875,0.2159271240234375
200728,-0.023223876953125,-0.5872344970703125,0.158782958984375
200729,-0.0850372314453125,-0.4984283447265625,0.1215057373046875
200730,-0.09222412109375,-0.4018707275390625,0.1501312255859375
200731,-0.0477752685546875,-0.300048828125,0.16162109375
200732,0.003509521484375,-0.19561767578125,0.1652984619140625
200733,0.021759033203125,-0.114349365234375,0.1665802001953125
200734,0.0133209228515625,-0.0852203369140625,0.1248016357421875
200735,0.0109710693359375,-0.0993194580078125,0.0864410400390625
200736,0.0306854248046875,-0.2047576904296875,0.0604248046875
200737,0.002349853515625,-0.4312896728515625,0.106353759765625
200738,-0.0459136962890625,-0.693817138671875,0.1815032958984375
200739,-0.1186981201171875,-0.9693756103515624,0.15374755859375
200740,-0.2161712646484375,-1.243820190429688,0.087554931640625
200741,-0.3332061767578125,-1.505859375,0.0516357421875
200742,-0.4428558349609375,-1.759857177734375,0.0138397216796875
200743,-0.4428558349609375,-1.759857177734375,0.0138397216796875
200744,-0.58935546875,-2.299942016601562,-1.037261962890625
200745,-0.6236114501953125,-2.175338745117188,-0.7659149169921875
200746,-0.7799835205078125,-1.633956909179688,0.18975830078125
200747,-0.8255767822265625,-1.190780639648438,0.428466796875
200748,-0.5021820068359375,-0.870452880859375,0.0994415283203125
200749,-0.271270751953125,-0.4233551025390625,0.24200439453125
200750,-0.091064453125,0.058807373046875,0.2113800048828125
200751,-0.091064453125,0.058807373046875,0.2113800048828125
200752,-0.0164031982421875,0.163970947265625,0.0596466064453125
200753,0.073577880859375,0.233306884765625,-0.0170440673828125
200754,0.17913818359375,0.2950439453125,0.0067596435546875
200755,0.262420654296875,0.331512451171875,0.0185394287109375
200756,0.328369140625,0.3646697998046875,0.0076446533203125
200757,0.3987274169921875,0.3968353271484375,0.0662078857421875
200758,0.3573455810546875,0.4488525390625,0.3328704833984375
200759,0.3573455810546875,0.4488525390625,0.3328704833984375
200760,0.1909332275390625,0.2949981689453125,0.4582061767578125
200761,0.1350555419921875,0.1514739990234375,0.4912261962890625
200762,0.12677001953125,0.027862548828125,0.4189910888671875
200763,0.123260498046875,-0.0783233642578125,0.3014068603515625
200764,0.1104583740234375,-0.144683837890625,0.1831512451171875
200765,0.0946044921875,-0.19598388671875,0.168853759765625
200766,0.052520751953125,-0.27947998046875,0.2953033447265625
200767,0.003448486328125,-0.370513916015625,0.430267333984375
200768,-0.01727294921875,-0.5041351318359375,0.649322509765625
200769,-0.0730743408203125,-0.757904052734375,0.99237060546875
200770,-0.0655059814453125,-1.149139404296875,1.2998046875
200771,0.1364593505859375,-1.662811279296875,1.580856323242188
200772,0.2251434326171875,-2.190032958984375,1.493682861328125
200773,0.107940673828125,-2.837661743164062,1.02349853515625
200774,-0.2608489990234375,-3.659286499023438,0.40960693359375
200775,-0.74017333984375,-4.31890869140625,-0.2364044189453125
200776,-1.0003662109375,-4.371490478515625,-0.521331787109375
200777,-1.0228271484375,-3.967742919921875,-0.4755096435546875
200778,-0.7446136474609375,-3.002151489257812,0.028167724609375
200779,-0.7446136474609375,-3.002151489257812,0.028167724609375
200780,-0.691925048828125,-2.578521728515625,0.0119781494140625
200781,-0.631500244140625,-2.104751586914062,0.037872314453125
200782,-0.5671539306640625,-1.63739013671875,0.27459716796875
200783,-0.515960693359375,-1.295822143554688,0.5448455810546875
200784,-0.46392822265625,-1.076629638671875,0.6656036376953125
200785,-0.3701629638671875,-0.923095703125,0.6077117919921875
200786,-0.2310791015625,-0.8373260498046875,0.4911956787109375
200787,-0.088104248046875,-0.7960357666015625,0.349884033203125
200788,0.0406951904296875,-0.7818756103515625,0.2526397705078125
200789,0.1495208740234375,-0.765869140625,0.2490997314453125
200790,0.222198486328125,-0.7497100830078125,0.273590087890625
200791,0.2015838623046875,-0.7255401611328125,0.2874603271484375
200792,0.0814361572265625,-0.6873321533203125,0.283233642578125
200793,-0.0431976318359375,-0.6718902587890625,0.256195068359375
200794,-0.0992431640625,-0.6647186279296875,0.2327728271484375
200795,-0.1193389892578125,-0.6316070556640625,0.1906890869140625
200796,-0.120574951171875,-0.5680694580078125,0.13922119140625
200797,-0.100830078125,-0.49371337890625,0.189361572265625
200798,-0.1046600341796875,-0.431121826171875,0.2551116943359375
200799,-0.1067657470703125,-0.391143798828125,0.19915771484375
200800,-0.0839691162109375,-0.397705078125,0.130035400390625
200801,-0.05889892578125,-0.497039794921875,0.1221923828125
200802,-0.0699310302734375,-0.684051513671875,0.12652587890625
200803,-0.112060546875,-0.852752685546875,0.0672454833984375
200804,-0.170562744140625,-1.013717651367188,-0.005706787109375
200805,-0.242889404296875,-1.190200805664062,-0.0698699951171875
200806,-0.3245697021484375,-1.3865966796875,-0.12518310546875
200807,-0.4079132080078125,-1.559173583984375,-0.1934814453125
200808,-0.4699554443359375,-1.665695190429688,-0.2642669677734375
200809,-0.517059326171875,-1.677490234375,-0.2810516357421875
200810,-0.5006866455078125,-1.572402954101562,-0.2457427978515625
200811,-0.4262847900390625,-1.358551025390625,-0.2103271484375
200812,-0.344879150390625,-1.0931396484375,-0.2030487060546875
200813,-0.2728424072265625,-0.831939697265625,-0.1910858154296875
200814,-0.213653564453125,-0.59051513671875,-0.166351318359375
200815,-0.1493682861328125,-0.3790740966796875,-0.1346282958984375
200816,-0.0786590576171875,-0.1902008056640625,-0.0565948486328125
200817,-0.0263519287109375,-0.03570556640625,0.044586181640625
200818,0.026580810546875,0.1043548583984375,0.1388702392578125
200819,0.0800018310546875,0.225311279296875,0.1667633056640625
200820,0.1316680908203125,0.320068359375,0.1569061279296875
200821,0.17828369140625,0.3961639404296875,0.1395721435546875
200822,0.2359771728515625,0.44854736328125,0.136322021484375
200823,0.2942657470703125,0.474761962890625,0.1472930908203125
200824,0.3295440673828125,0.46844482421875,0.1546783447265625
200825,0.30523681640625,0.4218292236328125,0.165435791015625
200826,0.0689544677734375,0.191619873046875,0.1739501953125
200827,0.0689544677734375,0.191619873046875,0.1739501953125
200828,-0.0328369140625,0.1029052734375,0.152435302734375
200829,-0.0997772216796875,0.038238525390625,0.1553192138671875
200830,-0.151824951171875,-0.050811767578125,0.2604827880859375
200831,-0.2108001708984375,-0.192840576171875,0.378387451171875
200832,-0.2629547119140625,-0.3340606689453125,0.4889068603515625
200833,-0.2491455078125,-0.496551513671875,0.691436767578125
200834,-0.2096099853515625,-0.79901123046875,0.97479248046875
200835,-0.1487579345703125,-1.24798583984375,1.327880859375
200836,-0.0378265380859375,-1.807373046875,1.488723754882812
200837,0.0980072021484375,-2.423904418945312,1.333847045898438
200838,0.1814422607421875,-3.193588256835938,1.064529418945312
200839,0.12359619140625,-3.962478637695312,0.6858367919921875
200840,-0.2099761962890625,-4.477890014648438,0.1056671142578125
200841,-0.6042327880859375,-4.190231323242188,-0.396270751953125
200842,-0.66864013671875,-3.40655517578125,-0.3190460205078125
200843,-0.5069580078125,-2.906814575195312,-0.1571197509765625
200844,-0.4288177490234375,-2.573532104492188,-0.082183837890625
200845,-0.495330810546875,-2.318206787109375,-0.091400146484375
200846,-0.56903076171875,-2.01580810546875,-0.150177001953125
200847,-0.596343994140625,-1.74200439453125,-0.0808868408203125
200848,-0.58209228515625,-1.519775390625,0.025909423828125
200849,-0.521575927734375,-1.320510864257812,0.121063232421875
200850,-0.4578399658203125,-1.15216064453125,0.1854248046875
200851,-0.371368408203125,-1.016860961914062,0.2350006103515625
200852,-0.264007568359375,-0.93255615234375,0.246734619140625
200853,-0.161895751953125,-0.878997802734375,0.2368927001953125
200854,-0.0718841552734375,-0.8102569580078125,0.2025146484375
200855,0.0159454345703125,-0.754302978515625,0.15362548828125
200856,0.071929931640625,-0.766082763671875,0.1519012451171875
200857,0.07891845703125,-0.827850341796875,0.206024169921875
200858,0.0467987060546875,-0.879241943359375,0.2508544921875
200859,0.0179595947265625,-0.9051055908203124,0.2867431640625
200860,0.00732421875,-0.88690185546875,0.33575439453125
200861,-0.019256591796875,-0.840301513671875,0.345458984375
200862,-0.0576629638671875,-0.757232666015625,0.2971343994140625
200863,-0.0802459716796875,-0.64666748046875,0.2514801025390625
200864,-0.1037445068359375,-0.5496826171875,0.2322845458984375
200865,-0.113922119140625,-0.447265625,0.199554443359375
200866,-0.03826904296875,-0.306884765625,0.074981689453125
200867,-0.03826904296875,-0.306884765625,0.074981689453125
200868,0.0318145751953125,-0.3367767333984375,0.013885498046875
200869,0.101348876953125,-0.510009765625,0.0546722412109375
200870,0.1075592041015625,-0.98504638671875,0.065948486328125
200871,0.1075592041015625,-0.98504638671875,0.065948486328125
200872,0.0799102783203125,-1.252166748046875,0.0401458740234375
200873,0.01708984375,-1.485946655273438,-0.0199737548828125
200874,-0.0686187744140625,-1.66864013671875,-0.105682373046875
200875,-0.176483154296875,-1.77386474609375,-0.2215423583984375
200876,-0.3054046630859375,-1.7799072265625,-0.3563232421875
200877,-0.4023284912109375,-1.700347900390625,-0.442352294921875
200878,-0.441375732421875,-1.355987548828125,-0.4258575439453125
200879,-0.441375732421875,-1.355987548828125,-0.4258575439453125
200880,-0.41339111328125,-1.059783935546875,-0.3442840576171875
200881,-0.3293609619140625,-0.767120361328125,-0.2322235107421875
200882,-0.22088623046875,-0.51300048828125,-0.10064697265625
200883,-0.13006591796875,-0.2710723876953125,0.0185394287109375
200884,-0.049652099609375,-0.0812530517578125,0.1053009033203125
200885,0.0320281982421875,0.069854736328125,0.182220458984375
200886,0.111053466796875,0.2239837646484375,0.25177001953125
200887,0.17718505859375,0.3378143310546875,0.276336669921875
200888,0.2256927490234375,0.41168212890625,0.232513427734375
200889,0.2614898681640625,0.4509429931640625,0.1927337646484375
200890,0.29339599609375,0.48345947265625,0.1880950927734375
200891,0.2896270751953125,0.505279541015625,0.1850128173828125
200892,0.2579498291015625,0.518646240234375,0.169952392578125
200893,0.198486328125,0.5275115966796875,0.1477813720703125
200894,0.0951995849609375,0.50335693359375,0.1029205322265625
200895,-0.039093017578125,0.406005859375,0.12060546875
200896,-0.179443359375,0.245513916015625,0.1682891845703125
200897,-0.2786865234375,0.08282470703125,0.220855712890625
200898,-0.4060211181640625,-0.197967529296875,0.51800537109375
200899,-0.4060211181640625,-0.197967529296875,0.51800537109375
200900,-0.5021514892578125,-0.4278106689453125,0.7840728759765625
200901,-0.568359375,-0.8739166259765625,1.03564453125
200902,-0.3898773193359375,-1.562652587890625,1.140060424804688
200903,-0.0808868408203125,-2.363525390625,1.241607666015625
200904,0.1730804443359375,-3.01202392578125,1.280990600585938
200905,0.1981201171875,-3.77642822265625,1.314254760742188
200906,-0.073486328125,-4.25555419921875,0.7710418701171875
200907,-0.418304443359375,-4.259994506835938,-0.051727294921875
200908,-0.584808349609375,-3.917144775390625,-0.488067626953125
200909,-0.507537841796875,-3.58221435546875,-0.035308837890625
200910,-0.523529052734375,-3.179672241210938,0.23004150390625
200911,-0.60577392578125,-2.782913208007812,0.2920379638671875
200912,-0.72760009765625,-2.503646850585938,0.2872467041015625
200913,-0.8533172607421875,-2.157196044921875,0.2416534423828125
200914,-0.903472900390625,-1.746795654296875,0.2866058349609375
200915,-0.780059814453125,-1.402236938476562,0.340087890625
200916,-0.5401763916015625,-1.161819458007812,0.2950897216796875
200917,-0.3298187255859375,-0.980865478515625,0.2317352294921875
200918,-0.15374755859375,-0.8519439697265625,0.2462005615234375
200919,0.01470947265625,-0.766754150390625,0.2760009765625
200920,0.1529693603515625,-0.722991943359375,0.25518798828125
200921,0.2611541748046875,-0.703460693359375,0.203887939453125
200922,0.3329620361328125,-0.6932373046875,0.14837646484375
200923,0.35089111328125,-0.6974639892578125,0.1273040771484375
200924,0.3013916015625,-0.68780517578125,0.1092681884765625
200925,0.1981353759765625,-0.6499786376953125,0.0601348876953125
200926,-0.045440673828125,-0.523956298828125,-0.09515380859375
200927,-0.045440673828125,-0.523956298828125,-0.09515380859375
200928,-0.1148681640625,-0.4517669677734375,-0.1303863525390625
200929,-0.1448974609375,-0.37261962890625,-0.081268310546875
200930,-0.1634674072265625,-0.2818450927734375,-0.00970458984375
200931,-0.16796875,-0.1988983154296875,0.02557373046875
200932,-0.1515045166015625,-0.162322998046875,-0.0053253173828125
200933,-0.104248046875,-0.199920654296875,-0.035491943359375
200934,-0.092132568359375,-0.4398040771484375,0.020050048828125
200935,-0.092132568359375,-0.4398040771484375,0.020050048828125
200936,-0.18463134765625,-1.015335083007812,-0.06591796875
200937,-0.2586669921875,-1.296737670898438,-0.151153564453125
200938,-0.3405609130859375,-1.535125732421875,-0.2376708984375
200939,-0.439453125,-1.757736206054688,-0.403778076171875
200940,-0.551422119140625,-1.962448120117188,-0.647979736328125
200941,-0.66033935546875,-2.092864990234375,-0.82806396484375
200942,-0.7299346923828125,-2.078598022460938,-0.785186767578125
200943,-0.7397613525390625,-1.82501220703125,-0.60430908203125
200944,-0.6776123046875,-1.375442504882812,-0.42926025390625
200945,-0.5022735595703125,-0.9629974365234376,-0.2870941162109375
200946,-0.252288818359375,-0.6104278564453125,-0.101348876953125
200947,-0.0375823974609375,-0.2602996826171875,0.121307373046875
200948,0.1236572265625,0.0118865966796875,0.2920989990234375
200949,0.2434234619140625,0.2190704345703125,0.4178619384765625
200950,0.3380584716796875,0.386993408203125,0.501556396484375
200951,0.4168853759765625,0.4816436767578125,0.5293121337890625
200952,0.463653564453125,0.5242767333984375,0.51153564453125
200953,0.4814453125,0.5491790771484375,0.4619293212890625
200954,0.46966552734375,0.5349578857421875,0.3870697021484375
200955,0.42578125,0.466461181640625,0.303558349609375
200956,0.3499298095703125,0.369293212890625,0.23065185546875
200957,0.241180419921875,0.25732421875,0.1817169189453125
200958,0.12890625,0.1653289794921875,0.18157958984375
200959,0.023040771484375,0.09686279296875,0.2035064697265625
200960,-0.084228515625,0.011138916015625,0.2446746826171875
200961,-0.199676513671875,-0.0828857421875,0.3167724609375
200962,-0.3048248291015625,-0.18756103515625,0.436279296875
200963,-0.4024658203125,-0.333251953125,0.622222900390625
200964,-0.455230712890625,-0.575042724609375,0.8561248779296875
200965,-0.339324951171875,-0.9975128173828124,1.0780029296875
200966,0.1769866943359375,-2.425811767578125,1.485458374023438
200967,0.1769866943359375,-2.425811767578125,1.485458374023438
200968,0.2794647216796875,-2.780075073242188,1.095779418945312
200969,0.1500396728515625,-3.03472900390625,0.8681182861328125
200970,-0.2077789306640625,-3.034912109375,0.3205718994140625
200971,-0.3691558837890625,-2.911834716796875,-0.016082763671875
200972,-0.318115234375,-2.93585205078125,0.2855072021484375
200973,-0.2902679443359375,-3.041839599609375,0.489105224609375
200974,-0.36260986328125,-3.049362182617188,0.3496246337890625
200975,-0.4652099609375,-2.998641967773438,0.0778045654296875
200976,-0.5817413330078125,-2.900711059570312,-0.096710205078125
200977,-0.7231597900390625,-2.64654541015625,-0.1744842529296875
200978,-0.84027099609375,-2.279525756835938,-0.0389251708984375
200979,-0.87347412109375,-1.916748046875,0.1785736083984375
200980,-0.751861572265625,-1.604736328125,0.2752227783203125
200981,-0.5400238037109375,-1.337722778320312,0.22064208984375
200982,-0.37603759765625,-1.141159057617188,0.1677703857421875
200983,-0.230316162109375,-0.9803619384765624,0.1714630126953125
200984,-0.0855560302734375,-0.85064697265625,0.190643310546875
200985,0.052215576171875,-0.7752838134765625,0.2086639404296875
200986,0.177032470703125,-0.73077392578125,0.22857666015625
200987,0.2668304443359375,-0.681182861328125,0.2190399169921875
200988,0.3127288818359375,-0.6247711181640625,0.188262939453125
200989,0.32232666015625,-0.58050537109375,0.1866912841796875
200990,0.3190155029296875,-0.575408935546875,0.2048492431640625
200991,0.2986907958984375,-0.5890655517578125,0.2231597900390625
200992,0.2313385009765625,-0.60528564453125,0.200775146484375
200993,0.116607666015625,-0.5871734619140625,0.1144561767578125
200994,0.00048828125,-0.5366363525390625,0.065399169921875
200995,-0.0521697998046875,-0.47918701171875,0.03070068359375
200996,-0.0475006103515625,-0.4760589599609375,-0.0335693359375
200997,-0.028045654296875,-0.513214111328125,-0.085693359375
200998,-0.0356292724609375,-0.626678466796875,-0.1168212890625
200999,-0.1037750244140625,-0.850921630859375,-0.13262939453125
201000,-0.2110748291015625,-1.093154907226562,-0.1547088623046875
201001,-0.3107147216796875,-1.343978881835938,-0.166046142578125
201002,-0.4032745361328125,-1.549728393554688,-0.1993408203125
201003,-0.480255126953125,-1.658920288085938,-0.2691650390625
201004,-0.5366363525390625,-1.672958374023438,-0.356689453125
201005,-0.586395263671875,-1.599075317382812,-0.4169464111328125
201006,-0.5880889892578125,-1.437118530273438,-0.42193603515625
201007,-0.511016845703125,-1.230575561523438,-0.35845947265625
201008,-0.4208831787109375,-1.016769409179688,-0.3219757080078125
201009,-0.349578857421875,-0.787261962890625,-0.267822265625
201010,-0.1739654541015625,-0.35235595703125,-0.0771026611328125
201011,-0.1739654541015625,-0.35235595703125,-0.0771026611328125
201012,-0.06939697265625,-0.1387786865234375,0.039215087890625
201013,0.05462646484375,0.0612335205078125,0.188690185546875
201014,0.197174072265625,0.2420501708984375,0.3491058349609375
201015,0.3187255859375,0.381622314453125,0.4123992919921875
201016,0.4072113037109375,0.4720611572265625,0.377227783203125
201017,0.4659271240234375,0.5107879638671875,0.3125457763671875
201018,0.497894287109375,0.4986572265625,0.218658447265625
201019,0.497894287109375,0.4986572265625,0.218658447265625
201020,0.4661712646484375,0.4599609375,0.161865234375
201021,0.37225341796875,0.3722686767578125,0.092498779296875
201022,0.19464111328125,0.18560791015625,0.0699005126953125
201023,0.0184783935546875,0.0425567626953125,0.090850830078125
201024,-0.1198883056640625,-0.0457611083984375,0.1182861328125
201025,-0.2142791748046875,-0.140289306640625,0.1436614990234375
201026,-0.30828857421875,-0.40386962890625,0.3012237548828125
201027,-0.30828857421875,-0.40386962890625,0.3012237548828125
201028,-0.3301849365234375,-0.511505126953125,0.3660888671875
201029,-0.3232269287109375,-0.6539306640625,0.583099365234375
201030,-0.1053466796875,-1.404144287109375,1.24700927734375
201031,-0.1053466796875,-1.404144287109375,1.24700927734375
201032,0.1814727783203125,-1.97528076171875,1.599212646484375
201033,0.370758056640625,-2.4107666015625,1.61663818359375
201034,0.1579742431640625,-3.04278564453125,1.049362182617188
201035,-0.179107666015625,-3.020675659179688,0.416412353515625
201036,-0.179107666015625,-3.020675659179688,0.416412353515625
201037,-0.32177734375,-2.980255126953125,0.2505950927734375
201038,-0.282867431640625,-3.037750244140625,0.5623931884765625
201039,-0.3325958251953125,-3.067138671875,0.4766387939453125
201040,-0.4307098388671875,-2.979232788085938,0.168304443359375
201041,-0.564788818359375,-2.861526489257812,-0.076507568359375
201042,-0.7759552001953125,-2.613876342773438,-0.280181884765625
201043,-1.0091552734375,-2.249237060546875,-0.2289886474609375
201044,-1.229339599609375,-1.839004516601562,0.0446319580078125
201045,-1.353958129882812,-1.4852294921875,0.332244873046875
201046,-1.18402099609375,-1.255889892578125,0.3553009033203125
201047,-0.8128662109375,-1.028411865234375,0.2428436279296875
201048,-0.5000762939453125,-0.81109619140625,0.272979736328125
201049,-0.247222900390625,-0.68572998046875,0.312652587890625
201050,-0.03289794921875,-0.6403045654296875,0.3211517333984375
201051,0.1613311767578125,-0.6558990478515625,0.2877655029296875
201052,0.3064422607421875,-0.7249755859375,0.22735595703125
201053,0.3773193359375,-0.834442138671875,0.1976165771484375
201054,0.3793792724609375,-0.969757080078125,0.1767730712890625
201055,0.3477783203125,-1.071319580078125,0.180908203125
201056,0.3047637939453125,-1.116424560546875,0.2373809814453125
201057,0.216461181640625,-1.133926391601562,0.2855377197265625
201058,0.067169189453125,-1.06964111328125,0.2427215576171875
201059,-0.1118927001953125,-0.919281005859375,0.1326904296875
201060,-0.2360382080078125,-0.7259368896484375,0.113739013671875
201061,-0.302825927734375,-0.5596466064453125,0.1547698974609375
201062,-0.3415374755859375,-0.445709228515625,0.140350341796875
201063,-0.334808349609375,-0.4170989990234375,0.0735321044921875
201064,-0.2979888916015625,-0.492218017578125,-0.029083251953125
201065,-0.2316436767578125,-0.6706695556640625,-0.067535400390625
201066,-0.17022705078125,-0.927398681640625,-0.0595245361328125
201067,-0.1401824951171875,-1.179595947265625,-0.1365966796875
201068,-0.1486968994140625,-1.4212646484375,-0.200042724609375
201069,-0.200042724609375,-1.615097045898438,-0.25115966796875
201070,-0.2776947021484375,-1.707611083984375,-0.34259033203125
201071,-0.35687255859375,-1.653076171875,-0.385101318359375
201072,-0.381622314453125,-1.44677734375,-0.3833160400390625
201073,-0.3671417236328125,-1.175262451171875,-0.3513336181640625
201074,-0.3264312744140625,-0.8868408203125,-0.2967987060546875
201075,-0.2723541259765625,-0.5985565185546875,-0.1978912353515625
201076,-0.2115325927734375,-0.341400146484375,-0.0570526123046875
201077,-0.142974853515625,-0.1200103759765625,0.0906524658203125
201078,-0.0685882568359375,0.063262939453125,0.175567626953125
201079,0.0217437744140625,0.2061767578125,0.192413330078125
201080,0.1223602294921875,0.323974609375,0.2049407958984375
201081,0.2159881591796875,0.4056396484375,0.2039031982421875
201082,0.3317108154296875,0.46502685546875,0.16259765625
201083,0.3317108154296875,0.46502685546875,0.16259765625
201084,0.3523406982421875,0.463043212890625,0.1314849853515625
201085,0.33740234375,0.43914794921875,0.098114013671875
201086,0.261688232421875,0.3602294921875,0.097808837890625
201087,0.1253509521484375,0.178985595703125,0.1467742919921875
201088,0.007843017578125,0.0287933349609375,0.1950836181640625
201089,-0.089935302734375,-0.0710906982421875,0.222259521484375
201090,-0.169677734375,-0.1440582275390625,0.2272491455078125
201091,-0.22882080078125,-0.1860809326171875,0.1914825439453125
201092,-0.270233154296875,-0.2372589111328125,0.2634124755859375
201093,-0.2998809814453125,-0.2946929931640625,0.379241943359375
201094,-0.2786102294921875,-0.358245849609375,0.5113677978515625
201095,-0.14410400390625,-0.4788360595703125,0.708343505859375
201096,0.0461883544921875,-0.7911834716796875,0.931671142578125
201097,0.253143310546875,-1.340728759765625,1.211288452148438
201098,0.3542327880859375,-2.044601440429688,1.262557983398438
201099,0.241973876953125,-2.639495849609375,0.8915863037109375
201100,-0.0263214111328125,-3.0958251953125,0.604949951171875
201101,-0.33050537109375,-3.398712158203125,0.5034027099609375
201102,-0.5462188720703125,-3.4405517578125,0.3729705810546875
201103,-0.530914306640625,-3.249526977539062,0.2628326416015625
201104,-0.3624420166015625,-3.040695190429688,0.23822021484375
201105,-0.3027801513671875,-2.872573852539062,0.18402099609375
201106,-0.32415771484375,-2.7320556640625,-0.0672454833984375
201107,-0.3880462646484375,-2.625076293945312,-0.25146484375
201108,-0.54052734375,-2.44384765625,-0.29705810546875
201109,-0.721710205078125,-2.16815185546875,-0.1268157958984375
201110,-0.8405914306640625,-1.871902465820312,0.192352294921875
201111,-0.7704620361328125,-1.582489013671875,0.3249969482421875
201112,-0.5919342041015625,-1.360824584960938,0.3010101318359375
201113,-0.4474945068359375,-1.170608520507812,0.26910400390625
201114,-0.284210205078125,-1.011993408203125,0.23675537109375
201115,-0.1283416748046875,-0.8788604736328125,0.205047607421875
201116,0.0172882080078125,-0.763275146484375,0.1999053955078125
201117,0.169219970703125,-0.6717681884765625,0.2259063720703125
201118,0.29278564453125,-0.6101226806640625,0.2640228271484375
201119,0.3453216552734375,-0.5998992919921875,0.2701416015625
201120,0.3111114501953125,-0.636077880859375,0.2816162109375
201121,0.18121337890625,-0.7075347900390625,0.3250732421875
201122,0.0283355712890625,-0.7702178955078125,0.2939910888671875
201123,-0.0724945068359375,-0.7985076904296875,0.2125244140625
201124,-0.182891845703125,-0.7688751220703125,0.1466064453125
201125,-0.2987823486328125,-0.683929443359375,0.09942626953125
201126,-0.357452392578125,-0.5777740478515625,0.103485107421875
201127,-0.385894775390625,-0.4849853515625,0.0940093994140625
201128,-0.3826446533203125,-0.4264373779296875,0.0727996826171875
201129,-0.319305419921875,-0.4168701171875,0.0637054443359375
201130,-0.230255126953125,-0.520477294921875,0.0565338134765625
201131,-0.173492431640625,-0.732452392578125,0.015350341796875
201132,-0.145416259765625,-0.9705657958984376,-0.0442962646484375
201133,-0.13604736328125,-1.226974487304688,-0.1062774658203125
201134,-0.1428375244140625,-1.476425170898438,-0.1793670654296875
201135,-0.197265625,-1.670654296875,-0.2666473388671875
201136,-0.28497314453125,-1.778976440429688,-0.34771728515625
201137,-0.37127685546875,-1.769729614257812,-0.400390625
201138,-0.4150543212890625,-1.649261474609375,-0.3828582763671875
201139,-0.410247802734375,-1.434326171875,-0.3183441162109375
201140,-0.3875274658203125,-1.159378051757812,-0.2755584716796875
201141,-0.3571319580078125,-0.863037109375,-0.233001708984375
201142,-0.3061981201171875,-0.58038330078125,-0.180877685546875
201143,-0.20220947265625,-0.31072998046875,-0.0691070556640625
201144,-0.1022186279296875,-0.0477447509765625,0.058929443359375
201145,9.1552734375e-05,0.1844482421875,0.1757659912109375
201146,0.1028594970703125,0.3987579345703125,0.3318023681640625
201147,0.1826629638671875,0.5665283203125,0.397064208984375
201148,0.23211669921875,0.6699371337890625,0.3312835693359375
201149,0.271881103515625,0.7212677001953125,0.237091064453125
201150,0.321441650390625,0.7266998291015625,0.1833038330078125
201151,0.3581085205078125,0.6820526123046875,0.16259765625
201152,0.350738525390625,0.5825653076171875,0.1395111083984375
201153,0.2447967529296875,0.341156005859375,0.1867218017578125
201154,0.1060333251953125,0.1375885009765625,0.2650299072265625
201155,-0.015777587890625,-0.00250244140625,0.30926513671875
201156,-0.1081695556640625,-0.10186767578125,0.2844696044921875
201157,-0.159515380859375,-0.165863037109375,0.3155670166015625
201158,-0.1753692626953125,-0.229766845703125,0.3833465576171875
201159,-0.1682891845703125,-0.3018035888671875,0.4175262451171875
201160,-0.1441497802734375,-0.3856658935546875,0.5012969970703125
201161,-0.0927734375,-0.5374603271484375,0.6371612548828125
201162,-0.0905303955078125,-0.9346923828125,0.8565826416015625
201163,0.031768798828125,-1.522689819335938,1.151138305664062
201164,0.111785888671875,-2.352142333984375,1.416549682617188
201165,-0.0236053466796875,-3.132537841796875,1.137725830078125
201166,-0.23419189453125,-3.895278930664062,0.78955078125
201167,-0.42877197265625,-4.521957397460938,0.71112060546875
201168,-0.6696014404296875,-4.569976806640625,0.3572235107421875
201169,-0.795440673828125,-3.862747192382812,-0.05096435546875
201170,-0.731719970703125,-3.298385620117188,-0.0179595947265625
201171,-0.6237335205078125,-2.896591186523438,0.1461334228515625
201172,-0.6069488525390625,-2.551971435546875,0.2757568359375
201173,-0.6669464111328125,-2.223098754882812,0.397918701171875
201174,-0.71246337890625,-1.821121215820312,0.521636962890625
201175,-0.65228271484375,-1.403717041015625,0.4915618896484375
201176,-0.541351318359375,-1.101104736328125,0.3576507568359375
201177,-0.3970947265625,-0.916015625,0.2893218994140625
201178,-0.235198974609375,-0.812713623046875,0.3095550537109375
201179,-0.0630645751953125,-0.7289581298828125,0.3590087890625
201180,0.089202880859375,-0.6839141845703125,0.4173431396484375
201181,0.2245635986328125,-0.6570281982421875,0.4220123291015625
201182,0.3297882080078125,-0.5940399169921875,0.327178955078125
201183,0.3826904296875,-0.5243682861328125,0.2161407470703125
201184,0.3692626953125,-0.49542236328125,0.1329803466796875
201185,0.3122406005859375,-0.515380859375,0.10894775390625
201186,0.20989990234375,-0.5655364990234375,0.1494903564453125
201187,0.06048583984375,-0.6277618408203125,0.1594390869140625
201188,-0.102935791015625,-0.66107177734375,0.1290283203125
201189,-0.208831787109375,-0.6378326416015625,0.08160400390625
201190,-0.2352752685546875,-0.576568603515625,0.054229736328125
201191,-0.2381134033203125,-0.5208587646484375,0.0317840576171875
201192,-0.1983184814453125,-0.48260498046875,0.0366668701171875
201193,-0.1744537353515625,-0.5225830078125,0.0404510498046875
201194,-0.2126312255859375,-0.6840362548828125,0.028472900390625
201195,-0.292633056640625,-0.90643310546875,0.0182647705078125
201196,-0.3721160888671875,-1.199310302734375,-0.001312255859375
201197,-0.4504852294921875,-1.52105712890625,-0.05059814453125
201198,-0.526092529296875,-1.804718017578125,-0.159881591796875
201199,-0.5919342041015625,-1.98333740234375,-0.29058837890625
201200,-0.6727752685546875,-1.998611450195312,-0.40802001953125
201201,-0.7017669677734375,-1.8389892578125,-0.434051513671875
201202,-0.577789306640625,-1.490188598632812,-0.3235931396484375
201203,-0.400482177734375,-1.102981567382812,-0.2522430419921875
201204,-0.2475433349609375,-0.7476959228515625,-0.159820556640625
201205,-0.1285247802734375,-0.418121337890625,0.0012664794921875
201206,-0.0439910888671875,-0.1447296142578125,0.1273040771484375
201207,0.0282440185546875,0.0711669921875,0.211181640625
201208,0.1254119873046875,0.2591705322265625,0.3074951171875
201209,0.2188262939453125,0.44873046875,0.34588623046875
201210,0.286041259765625,0.5865936279296875,0.319610595703125
201211,0.3261566162109375,0.680206298828125,0.2770233154296875
201212,0.3673095703125,0.74090576171875,0.2631683349609375
201213,0.3998260498046875,0.7605133056640625,0.24041748046875
201214,0.4035797119140625,0.7324981689453125,0.1978759765625
201215,0.3620147705078125,0.6354522705078125,0.1651458740234375
201216,0.2435150146484375,0.417236328125,0.1998748779296875
201217,0.1104278564453125,0.228973388671875,0.228790283203125
201218,-0.0022735595703125,0.1327972412109375,0.18170166015625
201219,-0.075714111328125,0.0511322021484375,0.145782470703125
201220,-0.1126556396484375,-0.044769287109375,0.2183074951171875
201221,-0.1405181884765625,-0.1373443603515625,0.239471435546875
201222,-0.1322174072265625,-0.196624755859375,0.26068115234375
201223,-0.1013946533203125,-0.2815399169921875,0.4756317138671875
201224,-0.0804901123046875,-0.516326904296875,0.800262451171875
201225,0.033660888671875,-1.0157470703125,1.037109375
201226,0.178131103515625,-1.835220336914062,1.303848266601562
201227,0.18450927734375,-2.900833129882812,1.531402587890625
201228,0.1615447998046875,-3.791946411132812,1.249801635742188
201229,0.0864715576171875,-4.101974487304688,1.053207397460938
201230,-0.2367706298828125,-3.70355224609375,0.568817138671875
201231,-0.3723297119140625,-3.096405029296875,0.0423583984375
201232,-0.284027099609375,-2.746444702148438,-0.14471435546875
201233,-0.199188232421875,-2.716278076171875,0.1837921142578125
201234,-0.1798553466796875,-2.782608032226562,0.44287109375
201235,-0.1798553466796875,-2.782608032226562,0.44287109375
201236,-0.3052520751953125,-2.61737060546875,0.0164337158203125
201237,-0.5474853515625,-2.443740844726562,-0.1245269775390625
201238,-0.749542236328125,-2.191558837890625,0.025543212890625
201239,-0.8825225830078125,-1.917388916015625,0.30517578125
201240,-0.85772705078125,-1.656387329101562,0.457275390625
201241,-0.64093017578125,-1.404998779296875,0.355010986328125
201242,-0.4686279296875,-1.178451538085938,0.2538604736328125
201243,-0.326995849609375,-0.998748779296875,0.2680511474609375
201244,-0.1810302734375,-0.8375396728515625,0.28509521484375
201245,-0.08062744140625,-0.719970703125,0.2762908935546875
201246,-0.0298309326171875,-0.645904541015625,0.2089080810546875
201247,-0.0373687744140625,-0.610809326171875,0.133575439453125
201248,-0.0992584228515625,-0.652618408203125,0.1108856201171875
201249,-0.1683197021484375,-0.7750396728515625,0.12060546875
201250,-0.18994140625,-0.8980255126953125,0.118896484375
201251,-0.164794921875,-0.9846343994140624,0.136749267578125
201252,-0.1477813720703125,-1.014373779296875,0.1884765625
201253,-0.153961181640625,-0.949554443359375,0.1612701416015625
201254,-0.2004547119140625,-0.735809326171875,-0.000335693359375
201255,-0.23211669921875,-0.5327301025390625,-0.043792724609375
201256,-0.2361907958984375,-0.4549713134765625,0.0735321044921875
201257,-0.231109619140625,-0.4372406005859375,0.140777587890625
201258,-0.23309326171875,-0.5494232177734375,0.1425933837890625
201259,-0.26434326171875,-0.747528076171875,0.0571441650390625
201260,-0.30059814453125,-0.9540252685546876,-0.0539398193359375
201261,-0.3400115966796875,-1.170181274414062,-0.1700439453125
201262,-0.395599365234375,-1.372207641601562,-0.295013427734375
201263,-0.453125,-1.5048828125,-0.3872833251953125
201264,-0.5002593994140625,-1.533615112304688,-0.4415740966796875
201265,-0.51605224609375,-1.46209716796875,-0.4384307861328125
201266,-0.465423583984375,-1.284317016601562,-0.37261962890625
201267,-0.391021728515625,-1.037948608398438,-0.2950592041015625
201268,-0.3152923583984375,-0.7505645751953125,-0.165374755859375
201269,-0.2008819580078125,-0.431396484375,0.02105712890625
201270,-0.0855865478515625,-0.1725616455078125,0.1398162841796875
201271,-0.0047149658203125,0.061553955078125,0.196044921875
201272,0.037384033203125,0.2248687744140625,0.199432373046875
201273,0.08197021484375,0.3314361572265625,0.19403076171875
201274,0.1817169189453125,0.4471893310546875,0.236541748046875
201275,0.295501708984375,0.5373687744140625,0.243804931640625
201276,0.3726043701171875,0.60162353515625,0.23150634765625
201277,0.4021759033203125,0.636627197265625,0.241424560546875
201278,0.393646240234375,0.6374053955078125,0.2291717529296875
201279,0.3374786376953125,0.59637451171875,0.1867523193359375
201280,0.2233123779296875,0.4497528076171875,0.2190399169921875
201281,0.1083984375,0.2356719970703125,0.300811767578125
201282,0.017425537109375,0.09552001953125,0.3045501708984375
201283,-0.0699615478515625,-0.02813720703125,0.2276153564453125
201284,-0.1317596435546875,-0.14361572265625,0.1781768798828125
201285,-0.1725616455078125,-0.2286376953125,0.1760711669921875
201286,-0.20550537109375,-0.3101654052734375,0.2678985595703125
201287,-0.2293243408203125,-0.3875274658203125,0.3875885009765625
201288,-0.21844482421875,-0.4802093505859375,0.4511871337890625
201289,-0.14971923828125,-0.6495819091796875,0.5139312744140625
201290,-0.0102081298828125,-0.9873809814453124,0.7213897705078125
201291,0.1518707275390625,-1.509231567382812,1.056259155273438
201292,0.1144866943359375,-2.213607788085938,1.328323364257812
201293,-0.0817718505859375,-2.961257934570312,1.15533447265625
201294,-0.157989501953125,-3.43048095703125,0.89337158203125
201295,-0.257568359375,-3.426406860351562,0.7004241943359375
201296,-0.4060211181640625,-3.197738647460938,0.624267578125
201297,-0.4571380615234375,-2.907684326171875,0.635040283203125
201298,-0.3923492431640625,-2.7708740234375,0.59832763671875
201299,-0.30596923828125,-2.776565551757812,0.52532958984375
201300,-0.25067138671875,-2.697250366210938,0.274932861328125
201301,-0.4123382568359375,-2.685394287109375,-0.11383056640625
201302,-0.6518402099609375,-2.697113037109375,-0.40692138671875
201303,-0.7304840087890625,-2.447158813476562,-0.29364013671875
201304,-0.6771392822265625,-2.065231323242188,0.0128326416015625
201305,-0.5482330322265625,-1.7386474609375,0.242462158203125
201306,-0.374969482421875,-1.447418212890625,0.4250946044921875
201307,-0.24908447265625,-1.21697998046875,0.5483245849609375
201308,-0.1790924072265625,-1.032913208007812,0.5517425537109375
201309,-0.12127685546875,-0.8825225830078125,0.476806640625
201310,-0.0518646240234375,-0.7657012939453125,0.39666748046875
201311,-0.004791259765625,-0.7013092041015625,0.2954254150390625
201312,-0.0038909912109375,-0.6669464111328125,0.2110137939453125
201313,-0.0413818359375,-0.6905975341796875,0.1947174072265625
201314,-0.102935791015625,-0.7855987548828125,0.1907806396484375
201315,-0.15167236328125,-0.8968353271484375,0.13665771484375
201316,-0.181488037109375,-0.9588775634765624,0.1263885498046875
201317,-0.22314453125,-0.95440673828125,0.0931396484375
201318,-0.294219970703125,-0.84423828125,-0.0168914794921875
201319,-0.3252716064453125,-0.6424560546875,-0.02777099609375
201320,-0.3509368896484375,-0.55364990234375,0.101715087890625
201321,-0.3682861328125,-0.5355987548828125,0.145050048828125
201322,-0.34039306640625,-0.5919036865234375,0.1541290283203125
201323,-0.26953125,-0.749603271484375,0.144439697265625
201324,-0.2349395751953125,-0.9607696533203124,0.0135345458984375
201325,-0.2164764404296875,-1.18475341796875,-0.1415252685546875
201326,-0.2606964111328125,-1.6331787109375,-0.312835693359375
201327,-0.2606964111328125,-1.6331787109375,-0.312835693359375
201328,-0.3500518798828125,-1.7689208984375,-0.375152587890625
201329,-0.437164306640625,-1.755966186523438,-0.4193115234375
201330,-0.4813385009765625,-1.578903198242188,-0.440399169921875
201331,-0.4437408447265625,-1.298553466796875,-0.4387969970703125
201332,-0.3485870361328125,-0.987579345703125,-0.3651123046875
201333,-0.2615814208984375,-0.6643524169921875,-0.2410125732421875
201334,-0.1018829345703125,-0.0599517822265625,0.1267852783203125
201335,-0.1018829345703125,-0.0599517822265625,0.1267852783203125
201336,-0.0274505615234375,0.1413726806640625,0.2476043701171875
201337,0.03582763671875,0.3065032958984375,0.28936767578125
201338,0.101104736328125,0.4137420654296875,0.2670745849609375
201339,0.175201416015625,0.487274169921875,0.2453765869140625
201340,0.2681884765625,0.5609893798828125,0.219940185546875
201341,0.3535614013671875,0.62554931640625,0.2292022705078125
201342,0.3835906982421875,0.6771087646484375,0.2239227294921875
201343,0.3619842529296875,0.706207275390625,0.1979827880859375
201344,0.2977142333984375,0.6647796630859375,0.1619415283203125
201345,0.1596527099609375,0.4320068359375,0.1847381591796875
201346,0.030120849609375,0.177947998046875,0.2840576171875
201347,-0.0556488037109375,0.00469970703125,0.309326171875
201348,-0.127227783203125,-0.1103515625,0.1929779052734375
201349,-0.153656005859375,-0.14801025390625,0.0827484130859375
201350,-0.119171142578125,-0.16796875,0.1713409423828125
201351,-0.084197998046875,-0.1636505126953125,0.26177978515625
201352,-0.048492431640625,-0.131439208984375,0.2638702392578125
201353,-0.0069732666015625,-0.1427459716796875,0.34820556640625
201354,0.0106964111328125,-0.2528533935546875,0.54669189453125
201355,0.0125579833984375,-0.5630340576171875,0.8592987060546875
201356,0.01629638671875,-1.144256591796875,1.12359619140625
201357,-0.0186614990234375,-1.961776733398438,1.23651123046875
201358,-0.0814056396484375,-2.866500854492188,1.212509155273438
201359,-0.0724334716796875,-3.598159790039062,1.128189086914062
201360,-0.128997802734375,-3.914077758789062,0.99810791015625
201361,-0.4877471923828125,-3.762191772460938,0.423858642578125
201362,-0.7259368896484375,-3.30157470703125,-0.123870849609375
201363,-0.632049560546875,-2.98797607421875,-0.2388763427734375
201364,-0.38909912109375,-2.852325439453125,-0.0833892822265625
201365,-0.2485198974609375,-2.752777099609375,0.0401763916015625
201366,-0.2889404296875,-2.615966796875,-0.051239013671875
201367,-0.512939453125,-2.418304443359375,-0.1974945068359375
201368,-0.753570556640625,-2.1702880859375,-0.1170501708984375
201369,-0.8532867431640625,-1.929824829101562,0.1407470703125
201370,-0.7865142822265625,-1.690872192382812,0.3397674560546875
201371,-0.53533935546875,-1.4537353515625,0.407379150390625
201372,-0.2921295166015625,-1.2879638671875,0.466094970703125
201373,-0.1611175537109375,-1.1463623046875,0.4859466552734375
201374,-0.1028900146484375,-0.9965057373046876,0.396514892578125
201375,-0.03851318359375,-0.84027099609375,0.2774505615234375
201376,0.0066375732421875,-0.7523345947265625,0.17291259765625
201377,-0.0112457275390625,-0.736328125,0.09234619140625
201378,-0.0735321044921875,-0.7746734619140625,0.118194580078125
201379,-0.140625,-0.837860107421875,0.1929473876953125
201380,-0.1672210693359375,-0.950958251953125,0.2691802978515625
201381,-0.14239501953125,-1.072906494140625,0.35516357421875
201382,-0.076629638671875,-1.137680053710938,0.397369384765625
201383,-0.049285888671875,-1.1217041015625,0.3281707763671875
201384,-0.0469970703125,-0.993927001953125,0.168548583984375
201385,-0.05108642578125,-0.8056488037109375,0.05426025390625
201386,-0.02496337890625,-0.62677001953125,0.0309600830078125
201387,-0.032958984375,-0.497344970703125,-0.1135406494140625
201388,-0.022918701171875,-0.4994964599609375,-0.0834503173828125
201389,-0.0033111572265625,-0.69024658203125,-0.007781982421875
201390,-0.0654449462890625,-0.950592041015625,-0.0838470458984375
201391,-0.1514739990234375,-1.230010986328125,-0.211029052734375
201392,-0.2567901611328125,-1.526992797851562,-0.3341217041015625
201393,-0.3821563720703125,-1.73980712890625,-0.4452056884765625
201394,-0.5015716552734375,-1.78753662109375,-0.5306854248046875
201395,-0.57421875,-1.63897705078125,-0.5400543212890625
201396,-0.576934814453125,-1.356170654296875,-0.4969635009765625
201397,-0.5189361572265625,-1.022674560546875,-0.447845458984375
201398,-0.41943359375,-0.697418212890625,-0.351409912109375
201399,-0.2927703857421875,-0.3981170654296875,-0.1967926025390625
201400,-0.183135986328125,-0.1605072021484375,-0.100250244140625
201401,-0.1233978271484375,0.00970458984375,-0.0480499267578125
201402,-0.08306884765625,0.157806396484375,0.0400848388671875
201403,-0.0406646728515625,0.310577392578125,0.1126556396484375
201404,0.0361480712890625,0.4572906494140625,0.182342529296875
201405,0.1328277587890625,0.5667877197265625,0.234527587890625
201406,0.2234649658203125,0.65289306640625,0.2384490966796875
201407,0.3050689697265625,0.6983184814453125,0.236907958984375
201408,0.356964111328125,0.71771240234375,0.2198486328125
201409,0.3614501953125,0.6937713623046875,0.1719818115234375
201410,0.307220458984375,0.601165771484375,0.1508331298828125
201411,0.151763916015625,0.3988494873046875,0.1975555419921875
201412,0.0021209716796875,0.2467041015625,0.227935791015625
201413,-0.1109466552734375,0.1249847412109375,0.240753173828125
201414,-0.1883697509765625,-0.0003814697265625,0.2523651123046875
201415,-0.2362823486328125,-0.092071533203125,0.1849822998046875
201416,-0.2478485107421875,-0.1643829345703125,0.1628265380859375
201417,-0.2281494140625,-0.22186279296875,0.1956634521484375
201418,-0.1760101318359375,-0.274658203125,0.2612152099609375
201419,-0.0932464599609375,-0.3414306640625,0.3785858154296875
201420,0.0186614990234375,-0.4827423095703125,0.6300811767578125
201421,0.1664276123046875,-0.800689697265625,0.987548828125
201422,0.36126708984375,-1.355484008789062,1.366790771484375
201423,0.4115753173828125,-2.108795166015625,1.671783447265625
201424,0.3488922119140625,-2.890304565429688,1.551437377929688
201425,0.224365234375,-3.619613647460938,1.297271728515625
201426,-0.0999908447265625,-3.960189819335938,0.7764892578125
201427,-0.3729705810546875,-3.975311279296875,0.394256591796875
201428,-0.535858154296875,-3.84375,0.2700653076171875
201429,-0.5799560546875,-3.6180419921875,0.2570037841796875
201430,-0.4634857177734375,-3.31976318359375,0.19586181640625
201431,-0.4562835693359375,-2.977447509765625,-0.1466064453125
201432,-0.5370941162109375,-2.642684936523438,-0.37896728515625
201433,-0.6492767333984375,-2.415908813476562,-0.2232208251953125
201434,-0.7767333984375,-2.135467529296875,0.0009918212890625
201435,-0.8480682373046875,-1.822189331054688,0.1907958984375
201436,-0.8075103759765625,-1.590438842773438,0.3581085205078125
201437,-0.6116943359375,-1.407394409179688,0.429840087890625
201438,-0.4175872802734375,-1.228851318359375,0.4388885498046875
201439,-0.30084228515625,-1.045974731445312,0.3984375
201440,-0.1949005126953125,-0.9034423828125,0.3502044677734375
201441,-0.1004791259765625,-0.8173675537109375,0.3221588134765625
201442,-0.0391082763671875,-0.776123046875,0.295318603515625
201443,-0.00177001953125,-0.75738525390625,0.2576904296875
201444,0.025482177734375,-0.76226806640625,0.25213623046875
201445,0.021942138671875,-0.809783935546875,0.24163818359375
201446,0.0207977294921875,-0.859405517578125,0.231658935546875
201447,0.0184783935546875,-0.87371826171875,0.2629241943359375
201448,-0.0458221435546875,-0.853729248046875,0.2600860595703125
201449,-0.164642333984375,-0.761505126953125,0.1096038818359375
201450,-0.2686309814453125,-0.6111297607421875,0.0144195556640625
201451,-0.3438568115234375,-0.513519287109375,-0.061767578125
201452,-0.36834716796875,-0.490478515625,-0.1135711669921875
201453,-0.377593994140625,-0.5608673095703125,-0.0218505859375
201454,-0.4147796630859375,-0.7238006591796875,-0.0766754150390625
201455,-0.40631103515625,-0.9775543212890624,-0.2516326904296875
201456,-0.3819122314453125,-1.279373168945312,-0.4745635986328125
201457,-0.39434814453125,-1.543746948242188,-0.5937347412109375
201458,-0.4478912353515625,-1.696502685546875,-0.5834503173828125
201459,-0.525360107421875,-1.691375732421875,-0.508148193359375
201460,-0.564971923828125,-1.540603637695312,-0.4123687744140625
201461,-0.484100341796875,-1.285537719726562,-0.3311004638671875
201462,-0.34228515625,-0.96197509765625,-0.3165740966796875
201463,-0.2252349853515625,-0.6211090087890625,-0.2509613037109375
201464,-0.1313629150390625,-0.3202972412109375,-0.1058807373046875
201465,-0.0440216064453125,-0.0881195068359375,0.04217529296875
201466,0.04833984375,0.083099365234375,0.1203155517578125
201467,0.1505126953125,0.1985626220703125,0.171966552734375
201468,0.237701416015625,0.292877197265625,0.1942138671875
201469,0.3009490966796875,0.3942108154296875,0.201019287109375
201470,0.364166259765625,0.478851318359375,0.19305419921875
201471,0.415069580078125,0.5245513916015625,0.2074432373046875
201472,0.4248199462890625,0.55987548828125,0.22283935546875
201473,0.40045166015625,0.5889129638671875,0.23284912109375
201474,0.3470458984375,0.585418701171875,0.2321624755859375
201475,0.2620697021484375,0.5011138916015625,0.218475341796875
201476,0.1545867919921875,0.2978515625,0.197052001953125
201477,0.0642242431640625,0.127105712890625,0.1843719482421875
201478,-0.0104522705078125,0.0006561279296875,0.194091796875
201479,-0.067108154296875,-0.1029815673828125,0.229248046875
201480,-0.1238250732421875,-0.17071533203125,0.206268310546875
201481,-0.1617431640625,-0.213165283203125,0.2102508544921875
201482,-0.1722412109375,-0.235748291015625,0.2728118896484375
201483,-0.157470703125,-0.2551422119140625,0.3644561767578125
201484,-0.123046875,-0.2639923095703125,0.4545745849609375
201485,-0.098236083984375,-0.3248748779296875,0.6039886474609375
201486,-0.1006927490234375,-0.5748138427734375,0.8123931884765625
201487,-0.024505615234375,-1.1336669921875,1.02593994140625
201488,0.0922698974609375,-1.982498168945312,1.256881713867188
201489,0.07965087890625,-2.950881958007812,1.154647827148438
201490,-0.055938720703125,-3.677886962890625,0.81982421875
201491,-0.37237548828125,-4.222625732421875,0.5986175537109375
201492,-0.8794097900390625,-4.331069946289062,0.103363037109375
201493,-1.009765625,-3.25732421875,-0.2601776123046875
201494,-1.009765625,-3.25732421875,-0.2601776123046875
201495,-0.5994110107421875,-3.04833984375,0.07000732421875
201496,-0.3940582275390625,-2.680953979492188,-0.00030517578125
201497,-0.472686767578125,-2.421722412109375,0.0308990478515625
201498,-0.579315185546875,-2.151809692382812,0.20452880859375
201499,-0.6682891845703125,-1.85345458984375,0.2887420654296875
201500,-0.6934051513671875,-1.619094848632812,0.33624267578125
201501,-0.6429901123046875,-1.466766357421875,0.392669677734375
201502,-0.5558624267578125,-1.34088134765625,0.42022705078125
201503,-0.4895782470703125,-1.219635009765625,0.432586669921875
201504,-0.4184722900390625,-1.121383666992188,0.4075469970703125
201505,-0.3464813232421875,-1.06170654296875,0.3598785400390625
201506,-0.2934112548828125,-1.003875732421875,0.290557861328125
201507,-0.2224273681640625,-0.9476470947265624,0.209991455078125
201508,-0.14569091796875,-0.8876495361328125,0.1689910888671875
201509,-0.0949859619140625,-0.839813232421875,0.115325927734375
201510,-0.0644989013671875,-0.8295135498046875,0.08038330078125
201511,-0.0399932861328125,-0.8354339599609375,0.0941162109375
201512,-0.024200439453125,-0.8309478759765625,0.082122802734375
201513,-0.05853271484375,-0.7855224609375,-0.022857666015625
201514,-0.120635986328125,-0.7183990478515625,-0.09759521484375
201515,-0.180450439453125,-0.653106689453125,0.003692626953125
201516,-0.219635009765625,-0.6222076416015625,0.1819610595703125
201517,-0.1618804931640625,-0.6250762939453125,0.2242279052734375
201518,-0.10565185546875,-0.68048095703125,0.198272705078125
201519,-0.1343841552734375,-0.7961883544921875,0.007904052734375
201520,-0.1753997802734375,-1.000808715820312,-0.1383056640625
201521,-0.2645721435546875,-1.260696411132812,-0.292266845703125
201522,-0.40069580078125,-1.48577880859375,-0.455230712890625
201523,-0.5176239013671875,-1.636322021484375,-0.50408935546875
201524,-0.5980072021484375,-1.671463012695312,-0.535064697265625
201525,-0.603363037109375,-1.545562744140625,-0.50494384765625
201526,-0.5446319580078125,-1.31884765625,-0.4153900146484375
201527,-0.44134521484375,-1.042434692382812,-0.344818115234375
201528,-0.3142547607421875,-0.740966796875,-0.248565673828125
201529,-0.1936187744140625,-0.4720916748046875,-0.13043212890625
201530,-0.1125030517578125,-0.2432861328125,-0.0644073486328125
201531,-0.0513916015625,-0.0300750732421875,0.017852783203125
201532,0.0164337158203125,0.1631622314453125,0.126312255859375
201533,0.0970458984375,0.30926513671875,0.187530517578125
201534,0.28704833984375,0.558074951171875,0.245819091796875
201535,0.28704833984375,0.558074951171875,0.245819091796875
201536,0.357086181640625,0.635345458984375,0.247100830078125
201537,0.3958740234375,0.6862030029296875,0.23162841796875
201538,0.3893585205078125,0.711273193359375,0.1841583251953125
201539,0.3344268798828125,0.697052001953125,0.1174468994140625
201540,0.20867919921875,0.5873565673828125,0.0780487060546875
201541,0.04595947265625,0.3682861328125,0.097076416015625
201542,-0.0859832763671875,0.19805908203125,0.137725830078125
201543,-0.1974639892578125,0.0806732177734375,0.1686859130859375
201544,-0.2751312255859375,-0.01800537109375,0.2076568603515625
201545,-0.3289642333984375,-0.1081390380859375,0.2023162841796875
201546,-0.3591766357421875,-0.184356689453125,0.201507568359375
201547,-0.3391265869140625,-0.223968505859375,0.26873779296875
201548,-0.2781219482421875,-0.276580810546875,0.4049530029296875
201549,-0.185760498046875,-0.3837738037109375,0.5002593994140625
201550,-0.0434112548828125,-0.6032562255859375,0.647186279296875
201551,0.1319122314453125,-0.9538726806640624,0.937103271484375
201552,0.313751220703125,-1.398941040039062,1.206649780273438
201553,0.4508209228515625,-1.8289794921875,1.349151611328125
201554,0.3663482666015625,-2.411911010742188,1.221633911132812
201555,0.1139373779296875,-3.203536987304688,0.9709625244140624
201556,-0.165985107421875,-3.868972778320312,0.6570892333984375
201557,-0.572906494140625,-4.3406982421875,0.3675079345703125
201558,-0.915740966796875,-4.25543212890625,0.08856201171875
201559,-1.002716064453125,-3.774749755859375,0.1240386962890625
201560,-0.8370513916015625,-3.25433349609375,0.2143402099609375
201561,-0.7452239990234375,-2.816879272460938,0.029388427734375
201562,-0.6958160400390625,-2.472076416015625,-0.05657958984375
201563,-0.6634368896484375,-2.15509033203125,-0.04345703125
201564,-0.6677093505859375,-1.885147094726562,0.1451568603515625
201565,-0.6534881591796875,-1.653472900390625,0.355621337890625
201566,-0.5110931396484375,-1.49566650390625,0.441192626953125
201567,-0.3295745849609375,-1.410171508789062,0.4906463623046875
201568,-0.3129119873046875,-1.323013305664062,0.5035247802734375
201569,-0.35479736328125,-1.187286376953125,0.469879150390625
201570,-0.3275604248046875,-1.064620971679688,0.4443817138671875
201571,-0.216400146484375,-0.984375,0.4474334716796875
201572,-0.070526123046875,-0.8878936767578125,0.40277099609375
201573,0.031829833984375,-0.77838134765625,0.3400421142578125
201574,0.066986083984375,-0.68328857421875,0.2830963134765625
201575,0.0514373779296875,-0.6262664794921875,0.2212066650390625
201576,0.0357666015625,-0.557037353515625,0.2071380615234375
201577,-0.1254119873046875,-0.4189453125,0.0149993896484375
201578,-0.1254119873046875,-0.4189453125,0.0149993896484375
201579,-0.2168121337890625,-0.3611297607421875,-0.074951171875
201580,-0.2932281494140625,-0.331878662109375,-0.0199432373046875
201581,-0.3474578857421875,-0.378692626953125,0.0846710205078125
201582,-0.3495025634765625,-0.470184326171875,0.167633056640625
201583,-0.29217529296875,-0.623382568359375,0.1975250244140625
201584,-0.2476959228515625,-0.8061370849609375,0.083251953125
201585,-0.24725341796875,-1.013534545898438,-0.1017608642578125
201586,-0.2711639404296875,-1.274307250976562,-0.25482177734375
201587,-0.3319854736328125,-1.532974243164062,-0.37420654296875
201588,-0.407745361328125,-1.71697998046875,-0.4871673583984375
201589,-0.4765167236328125,-1.813140869140625,-0.5320892333984375
201590,-0.5280914306640625,-1.787368774414062,-0.51617431640625
201591,-0.5469207763671875,-1.581314086914062,-0.4738006591796875
201592,-0.5001373291015625,-1.287979125976562,-0.3911285400390625
201593,-0.4031829833984375,-0.9560546875,-0.2535400390625
201594,-0.3063812255859375,-0.630279541015625,-0.1113433837890625
201595,-0.198272705078125,-0.3276824951171875,0.017333984375
201596,-0.0796966552734375,-0.0610198974609375,0.1483917236328125
201597,0.034423828125,0.1526031494140625,0.209991455078125
201598,0.1417236328125,0.3116607666015625,0.229736328125
201599,0.227264404296875,0.41705322265625,0.22900390625
201600,0.2840118408203125,0.4985198974609375,0.2286529541015625
201601,0.3172760009765625,0.532867431640625,0.214996337890625
201602,0.342315673828125,0.5538177490234375,0.1994171142578125
201603,0.3493499755859375,0.5875396728515625,0.156524658203125
201604,0.3358917236328125,0.619415283203125,0.090972900390625
201605,0.2879486083984375,0.639190673828125,0.0245819091796875
201606,0.1706085205078125,0.5312957763671875,0.050506591796875
201607,0.0011138916015625,0.263671875,0.1691741943359375
201608,-0.11083984375,0.0582733154296875,0.2533721923828125
201609,-0.1710662841796875,-0.1021881103515625,0.27178955078125
201610,-0.2103729248046875,-0.239410400390625,0.237548828125
201611,-0.2265625,-0.3210601806640625,0.2032318115234375
201612,-0.196014404296875,-0.3365020751953125,0.2473297119140625
201613,-0.1468048095703125,-0.322479248046875,0.360015869140625
201614,-0.115936279296875,-0.3203887939453125,0.5000762939453125
201615,-0.0559844970703125,-0.4065093994140625,0.6652984619140625
201616,0.055419921875,-0.679351806640625,0.8770294189453125
201617,0.264068603515625,-1.886886596679688,1.214675903320312
201618,0.264068603515625,-1.886886596679688,1.214675903320312
201619,0.226348876953125,-2.582656860351562,1.011978149414062
201620,0.1358642578125,-3.266021728515625,0.801055908203125
201621,-0.022735595703125,-3.790115356445312,0.6175537109375
201622,-0.3020477294921875,-3.977188110351562,0.039337158203125
201623,-0.5508880615234375,-3.810302734375,-0.4113311767578125
201624,-0.6623382568359375,-3.531646728515625,-0.4295654296875
201625,-0.800384521484375,-3.25079345703125,-0.4078521728515625
201626,-0.9095458984375,-2.964859008789062,-0.4079742431640625
201627,-0.9559326171875,-2.728271484375,-0.31500244140625
201628,-0.9476318359375,-2.499359130859375,-0.115478515625
201629,-0.8864593505859375,-2.20220947265625,0.1286468505859375
201630,-0.798736572265625,-1.874542236328125,0.3160552978515625
201631,-0.6473846435546875,-1.599807739257812,0.396087646484375
201632,-0.4379425048828125,-1.411148071289062,0.4364776611328125
201633,-0.204193115234375,-1.252365112304688,0.42535400390625
201634,-0.03631591796875,-1.11846923828125,0.3550262451171875
201635,0.0605316162109375,-1.020462036132812,0.3142852783203125
201636,0.1156005859375,-0.9516754150390624,0.3231658935546875
201637,0.14617919921875,-0.896331787109375,0.368011474609375
201638,0.170867919921875,-0.806976318359375,0.4093017578125
201639,0.1687164306640625,-0.7007904052734375,0.3890533447265625
201640,0.1364898681640625,-0.6138763427734375,0.329437255859375
201641,0.0750732421875,-0.585723876953125,0.253387451171875
201642,-0.009124755859375,-0.549896240234375,0.1011810302734375
201643,-0.102996826171875,-0.482269287109375,-0.014617919921875
201644,-0.227020263671875,-0.4657745361328125,0.034576416015625
201645,-0.338043212890625,-0.463592529296875,0.1157684326171875
201646,-0.427459716796875,-0.434600830078125,0.1357421875
201647,-0.4254608154296875,-0.4358367919921875,0.133056640625
201648,-0.3249969482421875,-0.5378570556640625,0.177093505859375
201649,-0.1739044189453125,-0.676055908203125,0.1708221435546875
201650,-0.10455322265625,-0.84808349609375,-0.0030059814453125
201651,-0.07861328125,-1.089187622070312,-0.1719818115234375
201652,-0.1332855224609375,-1.382080078125,-0.361297607421875
201653,-0.232269287109375,-1.65069580078125,-0.4387969970703125
201654,-0.3772430419921875,-1.864974975585938,-0.536285400390625
201655,-0.5319061279296875,-1.977554321289062,-0.6314849853515625
201656,-0.6502685546875,-1.980056762695312,-0.6190185546875
201657,-0.714874267578125,-1.822967529296875,-0.5410308837890625
201658,-0.68829345703125,-1.487716674804688,-0.4055633544921875
201659,-0.5925140380859375,-1.075271606445312,-0.2920379638671875
201660,-0.43341064453125,-0.681121826171875,-0.17303466796875
201661,-0.244659423828125,-0.347869873046875,-0.0389251708984375
201662,-0.10687255859375,-0.1107025146484375,0.049957275390625
201663,-0.012237548828125,0.07000732421875,0.0973968505859375
201664,0.0952606201171875,0.199249267578125,0.1500396728515625
201665,0.20074462890625,0.3317108154296875,0.21490478515625
201666,0.287750244140625,0.4803314208984375,0.2555999755859375
201667,0.3589935302734375,0.5918121337890625,0.2505950927734375
201668,0.42156982421875,0.6849212646484375,0.2649993896484375
201669,0.4642181396484375,0.7516937255859375,0.294036865234375
201670,0.4671783447265625,0.7798919677734375,0.26861572265625
201671,0.422149658203125,0.76055908203125,0.215728759765625
201672,0.32061767578125,0.6643829345703125,0.1611785888671875
201673,0.1490020751953125,0.3815765380859375,0.1608428955078125
201674,0.0230255126953125,0.125091552734375,0.1833038330078125
201675,-0.064361572265625,-0.0549774169921875,0.2235870361328125
201676,-0.1322784423828125,-0.2146148681640625,0.260528564453125
201677,-0.171844482421875,-0.3374786376953125,0.2376556396484375
201678,-0.1839599609375,-0.413726806640625,0.1926116943359375
201679,-0.1721649169921875,-0.4612274169921875,0.227630615234375
201680,-0.151153564453125,-0.4801483154296875,0.355560302734375
201681,-0.104034423828125,-0.5651397705078125,0.5634613037109375
201682,-0.016021728515625,-0.813201904296875,0.8533172607421875
201683,0.068328857421875,-1.104080200195312,0.91424560546875
201684,0.1611175537109375,-1.408584594726562,1.078018188476562
201685,0.1939239501953125,-1.809356689453125,1.520904541015625
201686,0.0909423828125,-2.310226440429688,1.4549560546875
201687,-0.127105712890625,-2.950119018554688,1.138229370117188
201688,-0.3202667236328125,-3.414657592773438,0.64984130859375
201689,-0.4564361572265625,-3.76153564453125,0.1038360595703125
201690,-0.5904388427734375,-4.0135498046875,-0.193939208984375
201691,-0.7124786376953125,-4.23272705078125,-0.3248443603515625
201692,-0.8096160888671875,-4.147994995117188,-0.49951171875
201693,-1.152511596679688,-2.789566040039062,-0.2696075439453125
201694,-1.152511596679688,-2.789566040039062,-0.2696075439453125
201695,-1.213180541992188,-2.09857177734375,0.1197509765625
201696,-1.12847900390625,-1.5679931640625,0.5238189697265625
201697,-0.87799072265625,-1.212905883789062,0.9066162109375
201698,-0.5206756591796875,-1.037826538085938,0.8245849609375
201699,-0.28277587890625,-0.9166107177734376,0.53558349609375
201700,-0.1639251708984375,-0.802276611328125,0.3776397705078125
201701,-0.065216064453125,-0.6991424560546875,0.3525848388671875
201702,0.0303802490234375,-0.633697509765625,0.3524169921875
201703,0.084381103515625,-0.6332550048828125,0.3374786376953125
201704,0.1082305908203125,-0.6701202392578125,0.29888916015625
201705,0.1067962646484375,-0.697509765625,0.2662353515625
201706,0.07220458984375,-0.7054595947265625,0.26898193359375
201707,0.0227203369140625,-0.754241943359375,0.26409912109375
201708,-0.027374267578125,-0.818511962890625,0.21783447265625
201709,-0.0897216796875,-0.87548828125,0.169464111328125
201710,-0.2091217041015625,-0.8750457763671875,0.1405181884765625
201711,-0.2818756103515625,-0.7733612060546875,0.1125030517578125
201712,-0.32635498046875,-0.6356201171875,-0.135345458984375
201713,-0.3043975830078125,-0.5293731689453125,-0.22528076171875
201714,-0.272247314453125,-0.52239990234375,0.04150390625
201715,-0.2689666748046875,-0.5941162109375,0.2274169921875
201716,-0.2152252197265625,-0.7130584716796875,0.1857757568359375
201717,-0.134521484375,-0.869720458984375,0.0048065185546875
201718,-0.1163787841796875,-1.093109130859375,-0.2114715576171875
201719,-0.19061279296875,-1.33673095703125,-0.3747406005859375
201720,-0.32110595703125,-1.582015991210938,-0.483428955078125
201721,-0.441162109375,-1.77392578125,-0.546875
201722,-0.5343475341796875,-1.864898681640625,-0.6037750244140625
201723,-0.56927490234375,-1.901626586914062,-0.6436767578125
201724,-0.530517578125,-1.711563110351562,-0.5753173828125
201725,-0.4677886962890625,-1.310302734375,-0.40228271484375
201726,-0.3730926513671875,-0.8720855712890625,-0.2354583740234375
201727,-0.249603271484375,-0.46209716796875,-0.0527496337890625
201728,-0.129241943359375,-0.089447021484375,0.1871337890625
201729,-0.010711669921875,0.205810546875,0.3765869140625
201730,0.11669921875,0.419708251953125,0.428802490234375
201731,0.2359161376953125,0.5792083740234375,0.42919921875
201732,0.3448638916015625,0.682342529296875,0.405426025390625
201733,0.442047119140625,0.7315673828125,0.3354644775390625
201734,0.5135345458984375,0.738311767578125,0.2675628662109375
201735,0.5135345458984375,0.738311767578125,0.2675628662109375
201736,0.5302734375,0.6800994873046875,0.0907135009765625
201737,0.313934326171875,0.316009521484375,0.1126708984375
201738,0.313934326171875,0.316009521484375,0.1126708984375
201739,0.1464385986328125,0.1079559326171875,0.1924896240234375
201740,0.0044097900390625,-0.0151824951171875,0.2683258056640625
201741,-0.1173553466796875,-0.100799560546875,0.2693939208984375
201742,-0.21246337890625,-0.16375732421875,0.264373779296875
201743,-0.2720489501953125,-0.2086639404296875,0.2933197021484375
201744,-0.2793121337890625,-0.2261199951171875,0.362457275390625
201745,-0.2527923583984375,-0.2790679931640625,0.4794158935546875
201746,-0.2371978759765625,-0.3493194580078125,0.6144866943359375
201747,-0.174041748046875,-0.49334716796875,0.7615203857421875
201748,-0.0357818603515625,-0.8624725341796875,1.039474487304688
201749,0.1914215087890625,-1.875091552734375,1.126495361328125
201750,0.1914215087890625,-1.875091552734375,1.126495361328125
201751,0.081817626953125,-2.581634521484375,0.7860107421875
201752,-0.1383819580078125,-3.515625,0.4627685546875
201753,-0.7872314453125,-4.616485595703125,-0.130645751953125
201754,-0.7872314453125,-4.616485595703125,-0.130645751953125
201755,-0.8180389404296875,-4.100692749023438,-0.3450469970703125
201756,-0.7017059326171875,-3.47686767578125,-0.4698486328125
201757,-0.5444793701171875,-3.040878295898438,-0.396881103515625
201758,-0.6282501220703125,-2.65899658203125,-0.3523101806640625
201759,-0.834991455078125,-2.320907592773438,-0.1884613037109375
201760,-0.9525146484375,-1.968002319335938,0.1204376220703125
201761,-0.8070526123046875,-1.524917602539062,0.385467529296875
201762,-0.8070526123046875,-1.524917602539062,0.385467529296875
201763,-0.572174072265625,-1.40313720703125,0.40045166015625
201764,-0.3517303466796875,-1.258468627929688,0.3615570068359375
201765,-0.0444488525390625,-1.010177612304688,0.2703094482421875
201766,-0.0444488525390625,-1.010177612304688,0.2703094482421875
201767,0.0427398681640625,-0.9184112548828124,0.2920379638671875
201768,0.061492919921875,-0.845184326171875,0.3458709716796875
201769,0.0169830322265625,-0.8112030029296875,0.28643798828125
201770,0.0169830322265625,-0.8112030029296875,0.28643798828125
201771,-0.0099639892578125,-0.794342041015625,0.2624969482421875
201772,-0.0453643798828125,-0.7768096923828125,0.267852783203125
201773,-0.12127685546875,-0.7133026123046875,0.208770751953125
201774,-0.12127685546875,-0.7133026123046875,0.208770751953125
201775,-0.1288299560546875,-0.6490936279296875,0.2281341552734375
201776,-0.176513671875,-0.5936279296875,0.194091796875
201777,-0.22161865234375,-0.4972991943359375,0.07415771484375
201778,-0.2598724365234375,-0.3976898193359375,-0.1843719482421875
201779,-0.2498016357421875,-0.356231689453125,-0.2107391357421875
201780,-0.2071533203125,-0.4278106689453125,0.0619354248046875
201781,-0.1566314697265625,-0.8354644775390625,0.046051025390625
201782,-0.1566314697265625,-0.8354644775390625,0.046051025390625
201783,-0.1878204345703125,-1.078140258789062,-0.123992919921875
201784,-0.26263427734375,-1.315567016601562,-0.2637939453125
201785,-0.49163818359375,-1.67230224609375,-0.53704833984375
201786,-0.49163818359375,-1.67230224609375,-0.53704833984375
201787,-0.6031494140625,-1.73016357421875,-0.670318603515625
201788,-0.688323974609375,-1.75323486328125,-0.66192626953125
201789,-0.61810302734375,-1.3529052734375,-0.3216552734375
201790,-0.61810302734375,-1.3529052734375,-0.3216552734375
201791,-0.484619140625,-0.9954986572265624,-0.2391510009765625
201792,-0.325531005859375,-0.64434814453125,-0.1358795166015625
201793,-0.0340576171875,-0.051605224609375,0.08917236328125
201794,-0.0340576171875,-0.051605224609375,0.08917236328125
201795,0.1083526611328125,0.1645660400390625,0.1407470703125
201796,0.2454986572265625,0.3257598876953125,0.173675537109375
201797,0.3496856689453125,0.45404052734375,0.212066650390625
201798,0.42657470703125,0.5623321533203125,0.2405548095703125
201799,0.477081298828125,0.6396331787109375,0.2529754638671875
201800,0.4911041259765625,0.6889801025390625,0.2550811767578125
201801,0.453125,0.6891632080078125,0.2440185546875
201802,0.3439788818359375,0.6336517333984375,0.221527099609375
201803,0.169403076171875,0.4959869384765625,0.1998443603515625
201804,0.027374267578125,0.3366546630859375,0.2112274169921875
201805,-0.1248779296875,0.073394775390625,0.330963134765625
201806,-0.1248779296875,0.073394775390625,0.330963134765625
201807,-0.1846923828125,-0.0626373291015625,0.3659820556640625
201808,-0.2391357421875,-0.1830291748046875,0.3546142578125
201809,-0.2365264892578125,-0.3679656982421875,0.4707183837890625
201810,-0.2365264892578125,-0.3679656982421875,0.4707183837890625
201811,-0.166412353515625,-0.50762939453125,0.644195556640625
201812,-0.0136260986328125,-0.7762451171875,0.88568115234375
201813,0.4361114501953125,-2.014297485351562,1.516647338867188
201814,0.4361114501953125,-2.014297485351562,1.516647338867188
201815,0.3820037841796875,-2.577362060546875,1.4393310546875
201816,0.251708984375,-2.922149658203125,1.318145751953125
201817,-0.0082550048828125,-2.961593627929688,0.9525146484375
201818,-0.0082550048828125,-2.961593627929688,0.9525146484375
201819,-0.3853302001953125,-2.590316772460938,0.2408599853515625
201820,-0.383331298828125,-2.657867431640625,0.347381591796875
201821,-0.326171875,-2.961517333984375,0.098907470703125
201822,-0.326171875,-2.961517333984375,0.098907470703125
201823,-0.45257568359375,-2.970001220703125,-0.3430023193359375
201824,-0.66510009765625,-2.9344482421875,-0.45709228515625
201825,-1.168701171875,-2.368850708007812,-0.2239532470703125
201826,-1.168701171875,-2.368850708007812,-0.2239532470703125
201827,-1.35186767578125,-1.943893432617188,0.189910888671875
201828,-1.329559326171875,-1.595504760742188,0.44830322265625
201829,-0.4966583251953125,-1.14495849609375,0.4452667236328125
201830,-0.4966583251953125,-1.14495849609375,0.4452667236328125
201831,-0.2423248291015625,-0.988372802734375,0.468414306640625
201832,-0.041839599609375,-0.9019775390625,0.4734954833984375
201833,0.3223419189453125,-0.88775634765625,0.455780029296875
201834,0.3223419189453125,-0.88775634765625,0.455780029296875
201835,0.3223419189453125,-0.88775634765625,0.455780029296875
201836,0.3489532470703125,-0.8031463623046875,0.432525634765625
201837,0.22918701171875,-0.5695648193359375,0.3101806640625
201838,0.22918701171875,-0.5695648193359375,0.3101806640625
201839,0.126708984375,-0.4724578857421875,0.3066558837890625
201840,-0.0102081298828125,-0.3706207275390625,0.3027496337890625
201841,-0.3329620361328125,-0.2235107421875,0.13702392578125
201842,-0.3329620361328125,-0.2235107421875,0.13702392578125
201843,-0.4459381103515625,-0.2073974609375,0.1436309814453125
201844,-0.454833984375,-0.2962493896484375,0.168487548828125
201845,-0.3823089599609375,-0.68035888671875,0.169586181640625
201846,-0.3823089599609375,-0.68035888671875,0.169586181640625
201847,-0.373779296875,-0.9238128662109376,0.027252197265625
201848,-0.373748779296875,-1.212799072265625,-0.119171142578125
201849,-0.458953857421875,-1.874282836914062,-0.3495330810546875
201850,-0.458953857421875,-1.874282836914062,-0.3495330810546875
201851,-0.5733795166015625,-2.086135864257812,-0.495697021484375
201852,-0.685882568359375,-2.188613891601562,-0.602447509765625
201853,-0.81402587890625,-1.84716796875,-0.5177154541015625
201854,-0.81402587890625,-1.84716796875,-0.5177154541015625
201855,-0.7444915771484375,-1.48565673828125,-0.3763427734375
201856,-0.634033203125,-1.11883544921875,-0.3035888671875
201857,-0.3378143310546875,-0.4288177490234375,-0.09259033203125
201858,-0.3378143310546875,-0.4288177490234375,-0.09259033203125
201859,-0.2002410888671875,-0.10064697265625,0.074554443359375
201860,-0.0614166259765625,0.13421630859375,0.2164154052734375
201861,0.191741943359375,0.469757080078125,0.3358306884765625
201862,0.191741943359375,0.469757080078125,0.3358306884765625
201863,0.29315185546875,0.576202392578125,0.324493408203125
201864,0.376129150390625,0.6353302001953125,0.2632904052734375
201865,0.4990997314453125,0.674346923828125,0.2025909423828125
201866,0.4990997314453125,0.674346923828125,0.2025909423828125
201867,0.4861602783203125,0.6441802978515625,0.1854400634765625
201868,0.431396484375,0.5786895751953125,0.16351318359375
201869,0.1648712158203125,0.2840118408203125,0.1399383544921875
201870,0.1648712158203125,0.2840118408203125,0.1399383544921875
201871,0.023956298828125,0.1658935546875,0.1451873779296875
201872,-0.0786285400390625,0.0566864013671875,0.1982574462890625
201873,-0.1836090087890625,-0.1397247314453125,0.229705810546875
201874,-0.1836090087890625,-0.1397247314453125,0.229705810546875
201875,-0.1684417724609375,-0.1566009521484375,0.2447662353515625
201876,-0.1044921875,-0.1655426025390625,0.370574951171875
201877,0.049774169921875,-0.2629241943359375,0.65533447265625
201878,0.049774169921875,-0.2629241943359375,0.65533447265625
201879,0.1661376953125,-0.585235595703125,0.8770294189453125
201880,0.2640838623046875,-1.10687255859375,1.152069091796875
201881,0.340728759765625,-2.382125854492188,1.477584838867188
201882,0.340728759765625,-2.382125854492188,1.477584838867188
201883,0.06756591796875,-3.476028442382812,1.40875244140625
201884,-0.3255615234375,-4.438446044921875,0.9133148193359376
201885,-0.7232513427734375,-4.300247192382812,-0.188079833984375
201886,-0.7232513427734375,-4.300247192382812,-0.188079833984375
201887,-0.57708740234375,-3.643020629882812,-0.0031280517578125
201888,-0.3855743408203125,-3.073104858398438,-0.0623626708984375
201889,-0.7357635498046875,-2.4046630859375,-0.3328857421875
201890,-0.7357635498046875,-2.4046630859375,-0.3328857421875
201891,-1.021408081054688,-2.125076293945312,-0.27215576171875
201892,-1.19293212890625,-1.814041137695312,-0.0474395751953125
201893,-1.201171875,-1.593429565429688,0.2334747314453125
201894,-0.9889373779296876,-1.435226440429688,0.337066650390625
201895,-0.567779541015625,-1.250091552734375,0.2996673583984375
201896,-0.2637939453125,-1.101425170898438,0.321990966796875
201897,0.0362091064453125,-0.9464111328125,0.3578033447265625
201898,0.0362091064453125,-0.9464111328125,0.3578033447265625
201899,0.079376220703125,-0.902099609375,0.3000640869140625
201900,0.088348388671875,-0.8326873779296875,0.2427825927734375
201901,0.009613037109375,-0.639251708984375,0.164306640625
201902,0.009613037109375,-0.639251708984375,0.164306640625
201903,-0.0468292236328125,-0.538818359375,0.1164398193359375
201904,-0.059783935546875,-0.3758697509765625,-0.1475830078125
201905,0.0207061767578125,-0.4202880859375,0.2291412353515625
201906,0.0207061767578125,-0.4202880859375,0.2291412353515625
201907,-0.133758544921875,-0.57781982421875,0.5057220458984375
201908,-0.270355224609375,-0.6255950927734375,0.5031585693359375
201909,-0.369903564453125,-0.6451568603515625,0.1722259521484375
201910,-0.369903564453125,-0.6451568603515625,0.1722259521484375
201911,-0.33111572265625,-0.72930908203125,0.091766357421875
201912,-0.285675048828125,-0.7814178466796875,-0.0012054443359375
201913,-0.2755584716796875,-1.07904052734375,-0.2031707763671875
201914,-0.2755584716796875,-1.07904052734375,-0.2031707763671875
