time_idx,accelerometerAccelerationX(G),accelerometerAccelerationY(G),accelerometerAccelerationZ(G)
40000,-0.97406005859375,0.0335693359375,-0.197113037109375
40001,-0.973876953125,0.032379150390625,-0.1950836181640625
40002,-0.9744415283203124,0.0312347412109375,-0.1941986083984375
40003,-0.9748992919921876,0.0297088623046875,-0.19329833984375
40004,-0.9753265380859376,0.0295257568359375,-0.1917724609375
40005,-0.97650146484375,0.0271453857421875,-0.19091796875
40006,-0.97845458984375,0.0263519287109375,-0.18994140625
40007,-0.98052978515625,0.027618408203125,-0.19073486328125
40008,-0.9803009033203124,0.029937744140625,-0.191009521484375
40009,-0.978057861328125,0.0329742431640625,-0.19219970703125
40010,-0.9781341552734376,0.0344085693359375,-0.1926727294921875
40011,-0.9789581298828124,0.0333099365234375,-0.1941070556640625
40012,-0.979705810546875,0.033111572265625,-0.1947021484375
40013,-0.9795379638671876,0.0332183837890625,-0.195098876953125
40014,-0.97723388671875,0.033355712890625,-0.1955718994140625
40015,-0.9754638671875,0.0340576171875,-0.1941680908203125
40016,-0.9756622314453124,0.0357513427734375,-0.19293212890625
40017,-0.9759368896484376,0.036346435546875,-0.1927032470703125
40018,-0.97686767578125,0.0363616943359375,-0.192230224609375
40019,-0.9787750244140624,0.0360260009765625,-0.1937255859375
40020,-0.982086181640625,0.03485107421875,-0.192718505859375
40021,-0.98248291015625,0.0345916748046875,-0.1918182373046875
40022,-0.982574462890625,0.03179931640625,-0.19036865234375
40023,-0.982574462890625,0.03179931640625,-0.19036865234375
40024,-0.980743408203125,0.032073974609375,-0.188934326171875
40025,-0.978851318359375,0.0325164794921875,-0.1878662109375
40026,-0.9776763916015624,0.0348663330078125,-0.1860809326171875
40027,-0.9779205322265624,0.03594970703125,-0.1855621337890625
40028,-0.9791259765625,0.0349273681640625,-0.185760498046875
40029,-0.98162841796875,0.0315093994140625,-0.1851806640625
40030,-0.9830169677734376,0.030609130859375,-0.1840362548828125
40031,-0.98211669921875,0.029449462890625,-0.1828155517578125
40032,-0.98040771484375,0.0291290283203125,-0.1826629638671875
40033,-0.9814910888671876,0.028564453125,-0.18170166015625
40034,-0.980712890625,0.0318450927734375,-0.1803436279296875
40035,-0.980712890625,0.0318450927734375,-0.1803436279296875
40036,-0.9801788330078124,0.03460693359375,-0.1799468994140625
40037,-0.9804840087890624,0.0362396240234375,-0.1812744140625
40038,-0.9801177978515624,0.0346221923828125,-0.180267333984375
40039,-0.9801177978515624,0.0346221923828125,-0.180267333984375
40040,-0.978363037109375,0.034942626953125,-0.177581787109375
40041,-0.9792327880859376,0.0348358154296875,-0.1781005859375
40042,-0.9790496826171876,0.0383453369140625,-0.176727294921875
40043,-0.9790496826171876,0.0383453369140625,-0.176727294921875
40044,-0.9780426025390624,0.0399322509765625,-0.177093505859375
40045,-0.977752685546875,0.0427398681640625,-0.176971435546875
40046,-0.97650146484375,0.0454254150390625,-0.176513671875
40047,-0.9774627685546876,0.05194091796875,-0.17578125
40048,-0.982818603515625,0.0571136474609375,-0.1757049560546875
40049,-0.985687255859375,0.0575408935546875,-0.1736602783203125
40050,-0.9883270263671876,0.0543060302734375,-0.174591064453125
40051,-0.9899749755859376,0.044342041015625,-0.1739349365234375
40052,-0.9890899658203124,0.0308837890625,-0.1739959716796875
40053,-0.986083984375,0.0208740234375,-0.173980712890625
40054,-0.9748077392578124,0.00396728515625,-0.174774169921875
40055,-0.9748077392578124,0.00396728515625,-0.174774169921875
40056,-0.97235107421875,-0.0034027099609375,-0.17529296875
40057,-0.97308349609375,-0.0166778564453125,-0.1796112060546875
40058,-0.968017578125,-0.0292816162109375,-0.183929443359375
40059,-0.96636962890625,-0.03900146484375,-0.188323974609375
40060,-0.9677276611328124,-0.0510406494140625,-0.197113037109375
40061,-0.969085693359375,-0.059600830078125,-0.2033843994140625
40062,-0.9777069091796876,-0.068206787109375,-0.208526611328125
40063,-0.9815521240234376,-0.0797119140625,-0.215301513671875
40064,-0.986328125,-0.081573486328125,-0.217987060546875
40065,-0.9868927001953124,-0.0837554931640625,-0.222259521484375
40066,-0.98284912109375,-0.084014892578125,-0.2183685302734375
40067,-0.98272705078125,-0.0762939453125,-0.21533203125
40068,-0.984100341796875,-0.065948486328125,-0.212890625
40069,-0.9929656982421876,-0.0525360107421875,-0.2131500244140625
40070,-1.001785278320312,-0.039703369140625,-0.2151336669921875
40071,-1.008804321289062,-0.02545166015625,-0.2168731689453125
40072,-1.011749267578125,-0.013031005859375,-0.2173919677734375
40073,-1.015716552734375,-0.0064544677734375,-0.213043212890625
40074,-1.015380859375,-0.0168914794921875,-0.2237548828125
40075,-1.006546020507812,-0.00830078125,-0.2369232177734375
40076,-1.001556396484375,-3.0517578125e-05,-0.220306396484375
40077,-0.990478515625,-0.0107879638671875,-0.206573486328125
40078,-0.9668426513671876,-0.01715087890625,-0.21343994140625
40079,-0.9507904052734376,-0.00048828125,-0.219085693359375
40080,-0.9576416015625,0.014739990234375,-0.2255859375
40081,-0.9509124755859376,0.0205535888671875,-0.22149658203125
40082,-0.9542388916015624,0.027191162109375,-0.217010498046875
40083,-0.9580078125,0.027069091796875,-0.216522216796875
40084,-0.9648895263671876,0.0293426513671875,-0.2130279541015625
40085,-0.97393798828125,0.035491943359375,-0.205108642578125
40086,-0.981414794921875,0.041534423828125,-0.200439453125
40087,-0.9879608154296876,0.0476837158203125,-0.1947021484375
40088,-0.9907684326171876,0.0509490966796875,-0.1871337890625
40089,-0.9918060302734376,0.0499114990234375,-0.178741455078125
40090,-0.9915924072265624,0.0450897216796875,-0.1731719970703125
40091,-0.99041748046875,0.0418243408203125,-0.16839599609375
40092,-0.9861297607421876,0.0393524169921875,-0.1653594970703125
40093,-0.98956298828125,0.035614013671875,-0.16217041015625
40094,-0.996978759765625,0.0265045166015625,-0.161590576171875
40095,-0.998321533203125,0.0117340087890625,-0.1613616943359375
40096,-1.00079345703125,-0.0030364990234375,-0.1609649658203125
40097,-1.00384521484375,-0.016265869140625,-0.16461181640625
40098,-1.00433349609375,-0.028411865234375,-0.1709747314453125
40099,-1.0064697265625,-0.0372314453125,-0.1767730712890625
40100,-1.011962890625,-0.04620361328125,-0.182220458984375
40101,-1.01324462890625,-0.0542144775390625,-0.189697265625
40102,-1.016799926757812,-0.0570831298828125,-0.1975860595703125
40103,-1.018203735351562,-0.0577239990234375,-0.1997528076171875
40104,-1.008102416992188,-0.0541839599609375,-0.198211669921875
40105,-0.9940948486328124,-0.044769287109375,-0.19720458984375
40106,-0.9806976318359376,-0.0350341796875,-0.1962432861328125
40107,-0.9727020263671876,-0.026397705078125,-0.1935882568359375
40108,-0.971832275390625,-0.0209808349609375,-0.1925811767578125
40109,-0.97528076171875,-0.0169525146484375,-0.1952667236328125
40110,-0.984893798828125,-0.0199127197265625,-0.1986846923828125
40111,-0.9990234375,-0.0254974365234375,-0.199920654296875
40112,-1.003173828125,-0.0258331298828125,-0.2034454345703125
40113,-1.007461547851562,-0.0274505615234375,-0.2081756591796875
40114,-1.009475708007812,-0.031036376953125,-0.2114715576171875
40115,-1.00640869140625,-0.0304412841796875,-0.2116241455078125
40116,-1.0078125,-0.0309906005859375,-0.211090087890625
40117,-1.005615234375,-0.0290069580078125,-0.2109222412109375
40118,-1.00567626953125,-0.0233306884765625,-0.209136962890625
40119,-1.007888793945312,-0.02044677734375,-0.2081451416015625
40120,-1.006729125976562,-0.023895263671875,-0.2031707763671875
40121,-0.9993896484375,-0.0327911376953125,-0.1956024169921875
40122,-0.9999237060546876,-0.0421295166015625,-0.1907806396484375
40123,-1.00250244140625,-0.0517120361328125,-0.1882171630859375
40124,-0.9985809326171876,-0.0583038330078125,-0.18292236328125
40125,-0.9898681640625,-0.0643310546875,-0.1774749755859375
40126,-0.9814453125,-0.0680389404296875,-0.1741485595703125
40127,-0.9766693115234376,-0.071624755859375,-0.173614501953125
40128,-0.9765777587890624,-0.075531005859375,-0.176788330078125
40129,-0.9779815673828124,-0.0770416259765625,-0.1790771484375
40130,-0.985565185546875,-0.0711517333984375,-0.1830596923828125
40131,-1.003189086914062,-0.0577850341796875,-0.1894378662109375
40132,-1.03570556640625,-0.0433807373046875,-0.2001953125
40133,-1.074462890625,-0.02740478515625,-0.2157745361328125
40134,-1.105072021484375,-0.01055908203125,-0.227783203125
40135,-1.123672485351562,0.0089874267578125,-0.236419677734375
40136,-1.116058349609375,0.034515380859375,-0.2403717041015625
40137,-1.082962036132812,0.063232421875,-0.236114501953125
40138,-1.039291381835938,0.09429931640625,-0.22210693359375
40139,-0.994140625,0.125244140625,-0.20855712890625
40140,-0.955230712890625,0.1534576416015625,-0.2016143798828125
40141,-0.9214630126953124,0.1792755126953125,-0.196075439453125
40142,-0.89898681640625,0.2039947509765625,-0.1918792724609375
40143,-0.891693115234375,0.229736328125,-0.1933746337890625
40144,-0.897857666015625,0.253204345703125,-0.199249267578125
40145,-0.911041259765625,0.27667236328125,-0.2039031982421875
40146,-0.933441162109375,0.295928955078125,-0.203338623046875
40147,-0.95782470703125,0.3116607666015625,-0.19854736328125
40148,-0.9766693115234376,0.315399169921875,-0.189727783203125
40149,-0.99200439453125,0.303009033203125,-0.175506591796875
40150,-1.00469970703125,0.2911834716796875,-0.170745849609375
40151,-1.014724731445312,0.2660675048828125,-0.153228759765625
40152,-1.0205078125,0.235565185546875,-0.13641357421875
40153,-1.020767211914062,0.21142578125,-0.1175994873046875
40154,-1.015548706054688,0.1944580078125,-0.0975341796875
40155,-1.001617431640625,0.1873931884765625,-0.080535888671875
40156,-0.980621337890625,0.1885986328125,-0.0532379150390625
40157,-0.9690093994140624,0.1894378662109375,-0.042510986328125
40158,-0.9588775634765624,0.19281005859375,-0.03851318359375
40159,-0.9533538818359376,0.201751708984375,-0.0298614501953125
40160,-0.9483489990234376,0.20751953125,-0.023681640625
40161,-0.941986083984375,0.2139434814453125,-0.0177001953125
40162,-0.9369964599609376,0.2204437255859375,-0.011962890625
40163,-0.9328765869140624,0.2286376953125,-0.01544189453125
40164,-0.932647705078125,0.2343597412109375,-0.01806640625
40165,-0.930755615234375,0.2364654541015625,-0.023284912109375
40166,-0.9302520751953124,0.240478515625,-0.03363037109375
40167,-0.929229736328125,0.2454376220703125,-0.0449066162109375
40168,-0.9229888916015624,0.2505950927734375,-0.0563812255859375
40169,-0.9146881103515624,0.2564849853515625,-0.063446044921875
40170,-0.90899658203125,0.2598876953125,-0.06939697265625
40171,-0.905853271484375,0.258758544921875,-0.0757904052734375
40172,-0.904754638671875,0.2551116943359375,-0.079803466796875
40173,-0.9045257568359376,0.2507171630859375,-0.0831451416015625
40174,-0.9015350341796876,0.2442474365234375,-0.08514404296875
40175,-0.8985137939453125,0.2385711669921875,-0.0853424072265625
40176,-0.8986663818359375,0.2367706298828125,-0.0852813720703125
40177,-0.9046478271484376,0.23651123046875,-0.08587646484375
40178,-0.9140625,0.23992919921875,-0.086517333984375
40179,-0.9235992431640624,0.240570068359375,-0.0829010009765625
40180,-0.9293975830078124,0.2408294677734375,-0.076934814453125
40181,-0.9356842041015624,0.240631103515625,-0.070770263671875
40182,-0.94366455078125,0.2371368408203125,-0.063751220703125
40183,-0.9503631591796876,0.233154296875,-0.05828857421875
40184,-0.95013427734375,0.22943115234375,-0.055023193359375
40185,-0.949493408203125,0.22564697265625,-0.0518646240234375
40186,-0.94683837890625,0.2229766845703125,-0.0457611083984375
40187,-0.94805908203125,0.2196807861328125,-0.0414581298828125
40188,-0.94970703125,0.217010498046875,-0.03802490234375
40189,-0.942626953125,0.2129364013671875,-0.037017822265625
40190,-0.928619384765625,0.2116546630859375,-0.0350341796875
40191,-0.9247894287109376,0.2100677490234375,-0.027557373046875
40192,-0.9279022216796876,0.209747314453125,-0.0298919677734375
40193,-0.9274139404296876,0.2111053466796875,-0.03839111328125
40194,-0.9179840087890624,0.215850830078125,-0.04302978515625
40195,-0.9179840087890624,0.215850830078125,-0.04302978515625
40196,-0.9134063720703124,0.2260284423828125,-0.04107666015625
40197,-0.9159088134765624,0.23370361328125,-0.0448455810546875
40198,-0.92724609375,0.2381134033203125,-0.05328369140625
40199,-0.934722900390625,0.2431640625,-0.0645599365234375
40200,-0.9427490234375,0.249267578125,-0.0715484619140625
40201,-0.945770263671875,0.2534027099609375,-0.0765533447265625
40202,-0.938201904296875,0.2614288330078125,-0.0820770263671875
40203,-0.938201904296875,0.2614288330078125,-0.0820770263671875
40204,-0.9345245361328124,0.264678955078125,-0.084991455078125
40205,-0.9300537109375,0.2662353515625,-0.0867767333984375
40206,-0.9260101318359376,0.2669525146484375,-0.0887603759765625
40207,-0.92633056640625,0.266143798828125,-0.0913543701171875
40208,-0.930755615234375,0.265655517578125,-0.094757080078125
40209,-0.9362030029296876,0.263885498046875,-0.09942626953125
40210,-0.940643310546875,0.26239013671875,-0.10333251953125
40211,-0.9459381103515624,0.260284423828125,-0.106170654296875
40212,-0.9503631591796876,0.257293701171875,-0.1081390380859375
40213,-0.9534759521484376,0.25439453125,-0.108978271484375
40214,-0.9542083740234376,0.2488861083984375,-0.11041259765625
40215,-0.9542083740234376,0.2450103759765625,-0.1099395751953125
40216,-0.956756591796875,0.2385711669921875,-0.1103668212890625
40217,-0.9597930908203124,0.2322845458984375,-0.1114501953125
40218,-0.96331787109375,0.2325286865234375,-0.1126251220703125
40219,-0.9660797119140624,0.23504638671875,-0.11474609375
40220,-0.9687957763671876,0.2392730712890625,-0.1151885986328125
40221,-0.968658447265625,0.2436370849609375,-0.11572265625
40222,-0.972564697265625,0.2479095458984375,-0.117889404296875
40223,-0.972564697265625,0.2479095458984375,-0.117889404296875
40224,-0.974334716796875,0.254547119140625,-0.121978759765625
40225,-0.9734039306640624,0.2593536376953125,-0.124267578125
40226,-0.9726104736328124,0.2615966796875,-0.1266021728515625
40227,-0.965972900390625,0.259552001953125,-0.1255340576171875
40228,-0.9601593017578124,0.259674072265625,-0.1244049072265625
40229,-0.9605255126953124,0.26031494140625,-0.12640380859375
40230,-0.959259033203125,0.2602081298828125,-0.1287841796875
40231,-0.961090087890625,0.2610931396484375,-0.129058837890625
40232,-0.9653167724609376,0.262054443359375,-0.130340576171875
40233,-0.9654541015625,0.2628021240234375,-0.13165283203125
40234,-0.9647674560546876,0.261962890625,-0.1304473876953125
40235,-0.96368408203125,0.2595062255859375,-0.12774658203125
40236,-0.96490478515625,0.25579833984375,-0.125640869140625
40237,-0.9673004150390624,0.251739501953125,-0.1242828369140625
40238,-0.968170166015625,0.2473297119140625,-0.121673583984375
40239,-0.9714508056640624,0.2442169189453125,-0.118438720703125
40240,-0.97784423828125,0.24444580078125,-0.118194580078125
40241,-0.9788970947265624,0.24554443359375,-0.1161956787109375
40242,-0.9781951904296876,0.2459869384765625,-0.11297607421875
40243,-0.9781951904296876,0.2459869384765625,-0.11297607421875
40244,-0.9810333251953124,0.239898681640625,-0.1101226806640625
40245,-0.9797210693359376,0.23223876953125,-0.109710693359375
40246,-0.9771575927734376,0.2218475341796875,-0.1081085205078125
40247,-0.9781646728515624,0.21221923828125,-0.10943603515625
40248,-0.98114013671875,0.20635986328125,-0.1137237548828125
40249,-0.9804534912109376,0.2044219970703125,-0.1185150146484375
40250,-0.9743499755859376,0.2091064453125,-0.1189117431640625
40251,-0.9698486328125,0.21942138671875,-0.119354248046875
40252,-0.96954345703125,0.2319793701171875,-0.1230621337890625
40253,-0.97027587890625,0.242340087890625,-0.1264190673828125
40254,-0.9721527099609376,0.2518768310546875,-0.129425048828125
40255,-0.9727630615234376,0.2575531005859375,-0.13055419921875
40256,-0.9705047607421876,0.2571868896484375,-0.1294097900390625
40257,-0.9667205810546876,0.2486724853515625,-0.12689208984375
40258,-0.9618988037109376,0.219512939453125,-0.117828369140625
40259,-0.9618988037109376,0.219512939453125,-0.117828369140625
40260,-0.96075439453125,0.2066497802734375,-0.11102294921875
40261,-0.9627838134765624,0.1996917724609375,-0.1055145263671875
40262,-0.965118408203125,0.1950225830078125,-0.1007080078125
40263,-0.9681854248046876,0.1953582763671875,-0.0973968505859375
40264,-0.970123291015625,0.197174072265625,-0.0942535400390625
40265,-0.97137451171875,0.2005615234375,-0.0926361083984375
40266,-0.970550537109375,0.200225830078125,-0.0921630859375
40267,-0.9695587158203124,0.1955413818359375,-0.090606689453125
40268,-0.9726715087890624,0.190277099609375,-0.0910797119140625
40269,-0.9765472412109376,0.1845855712890625,-0.0938720703125
40270,-0.977203369140625,0.1793060302734375,-0.09320068359375
40271,-0.9779205322265624,0.17633056640625,-0.09173583984375
40272,-0.9788818359375,0.175567626953125,-0.092437744140625
40273,-0.977630615234375,0.1771697998046875,-0.0938873291015625
40274,-0.9758148193359376,0.18182373046875,-0.094268798828125
40275,-0.9752044677734376,0.1876220703125,-0.0948944091796875
40276,-0.9746246337890624,0.19329833984375,-0.09625244140625
40277,-0.97576904296875,0.198150634765625,-0.097259521484375
40278,-0.9759063720703124,0.199432373046875,-0.098388671875
40279,-0.97479248046875,0.20098876953125,-0.097686767578125
40280,-0.9719696044921876,0.19964599609375,-0.0996246337890625
40281,-0.96917724609375,0.2020416259765625,-0.1005706787109375
40282,-0.9676513671875,0.2040863037109375,-0.10308837890625
40283,-0.9658660888671876,0.2083892822265625,-0.10357666015625
40284,-0.964752197265625,0.2139739990234375,-0.1053009033203125
40285,-0.9642486572265624,0.21868896484375,-0.107208251953125
40286,-0.9641571044921876,0.22344970703125,-0.1096954345703125
40287,-0.9641571044921876,0.22344970703125,-0.1096954345703125
40288,-0.967529296875,0.21990966796875,-0.109344482421875
40289,-0.97198486328125,0.213470458984375,-0.1089935302734375
40290,-0.977783203125,0.205810546875,-0.1069183349609375
40291,-0.97900390625,0.201751708984375,-0.103271484375
40292,-0.9806365966796876,0.198272705078125,-0.1023101806640625
40293,-0.9827117919921876,0.197479248046875,-0.102203369140625
40294,-0.9824981689453124,0.1978302001953125,-0.100982666015625
40295,-0.9808807373046876,0.1985015869140625,-0.1012725830078125
40296,-0.9810028076171876,0.19781494140625,-0.102081298828125
40297,-0.9806060791015624,0.1980133056640625,-0.1019287109375
40298,-0.9824981689453124,0.1968841552734375,-0.1042938232421875
40299,-0.983154296875,0.1945343017578125,-0.1051025390625
40300,-0.9815826416015624,0.190643310546875,-0.1048736572265625
40301,-0.978485107421875,0.187164306640625,-0.102294921875
40302,-0.9779815673828124,0.182891845703125,-0.1013031005859375
40303,-0.9779510498046876,0.179290771484375,-0.0998687744140625
40304,-0.979034423828125,0.1776885986328125,-0.098968505859375
40305,-0.9775390625,0.177276611328125,-0.0970916748046875
40306,-0.97576904296875,0.17730712890625,-0.0953216552734375
40307,-0.9742279052734376,0.1768646240234375,-0.095458984375
40308,-0.9727935791015624,0.179656982421875,-0.0963592529296875
40309,-0.9707489013671876,0.1839447021484375,-0.097412109375
40310,-0.967559814453125,0.191650390625,-0.100189208984375
40311,-0.9661407470703124,0.1993560791015625,-0.1027984619140625
40312,-0.967681884765625,0.2074127197265625,-0.106689453125
40313,-0.9684295654296876,0.21087646484375,-0.109405517578125
40314,-0.968292236328125,0.2070465087890625,-0.110260009765625
40315,-0.968292236328125,0.2070465087890625,-0.110260009765625
40316,-0.96661376953125,0.20050048828125,-0.11053466796875
40317,-0.9652557373046876,0.1928253173828125,-0.1080474853515625
40318,-0.96258544921875,0.1852874755859375,-0.10589599609375
40319,-0.9618377685546876,0.1800079345703125,-0.1047821044921875
40320,-0.963531494140625,0.1766510009765625,-0.104522705078125
40321,-0.9650421142578124,0.1752166748046875,-0.1040496826171875
40322,-0.9604949951171876,0.181304931640625,-0.1005859375
40323,-0.9604949951171876,0.181304931640625,-0.1005859375
40324,-0.9605712890625,0.1859130859375,-0.098388671875
40325,-0.963104248046875,0.190765380859375,-0.0970001220703125
40326,-0.9670867919921876,0.1947021484375,-0.0975494384765625
40327,-0.9737396240234376,0.1965484619140625,-0.0968170166015625
40328,-0.9774322509765624,0.1944122314453125,-0.0955810546875
40329,-0.97772216796875,0.191131591796875,-0.093994140625
40330,-0.97894287109375,0.1862030029296875,-0.0926513671875
40331,-0.982879638671875,0.1820831298828125,-0.0929718017578125
40332,-0.9858856201171876,0.1792144775390625,-0.092498779296875
40333,-0.987030029296875,0.17938232421875,-0.0933685302734375
40334,-0.98486328125,0.1876373291015625,-0.0962982177734375
40335,-0.98486328125,0.1876373291015625,-0.0962982177734375
40336,-0.9826507568359376,0.1940155029296875,-0.0985107421875
40337,-0.9794464111328124,0.198760986328125,-0.099822998046875
40338,-0.9762115478515624,0.20098876953125,-0.1005706787109375
40339,-0.9734954833984376,0.2007904052734375,-0.102386474609375
40340,-0.9694976806640624,0.198089599609375,-0.101806640625
40341,-0.9664306640625,0.195037841796875,-0.09991455078125
40342,-0.9641876220703124,0.1910552978515625,-0.096099853515625
40343,-0.9641876220703124,0.1910552978515625,-0.096099853515625
40344,-0.964508056640625,0.1912841796875,-0.09283447265625
40345,-0.968536376953125,0.1919708251953125,-0.090576171875
40346,-0.9711151123046876,0.192626953125,-0.0888671875
40347,-0.97247314453125,0.1932373046875,-0.0855865478515625
40348,-0.9734039306640624,0.1947479248046875,-0.083465576171875
40349,-0.9735565185546876,0.1906890869140625,-0.0821685791015625
40350,-0.9757537841796876,0.1884613037109375,-0.0844268798828125
40351,-0.97503662109375,0.189697265625,-0.08612060546875
40352,-0.976104736328125,0.1894073486328125,-0.088287353515625
40353,-0.9793701171875,0.1964874267578125,-0.0916290283203125
40354,-0.981903076171875,0.201202392578125,-0.0968475341796875
40355,-0.9818267822265624,0.2054443359375,-0.1000518798828125
40356,-0.981903076171875,0.209808349609375,-0.102203369140625
40357,-0.9818115234375,0.2078857421875,-0.1035308837890625
40358,-0.9806976318359376,0.2049560546875,-0.1053924560546875
40359,-0.9801177978515624,0.2014617919921875,-0.104766845703125
40360,-0.9785919189453124,0.199615478515625,-0.10308837890625
40361,-0.977325439453125,0.20062255859375,-0.1023101806640625
40362,-0.9742584228515624,0.204833984375,-0.1007843017578125
40363,-0.9722442626953124,0.2130279541015625,-0.100341796875
40364,-0.9729461669921876,0.2224884033203125,-0.10052490234375
40365,-0.972503662109375,0.2276611328125,-0.1000213623046875
40366,-0.96844482421875,0.227447509765625,-0.099029541015625
40367,-0.9620513916015624,0.2222137451171875,-0.097381591796875
40368,-0.960723876953125,0.2139892578125,-0.0969085693359375
40369,-0.9622955322265624,0.2090301513671875,-0.100372314453125
40370,-0.9629669189453124,0.2053070068359375,-0.10357666015625
40371,-0.9636077880859376,0.205841064453125,-0.1058197021484375
40372,-0.9651947021484376,0.206634521484375,-0.1072845458984375
40373,-0.964447021484375,0.2075347900390625,-0.109893798828125
40374,-0.963470458984375,0.2081451416015625,-0.1107635498046875
40375,-0.962310791015625,0.2063140869140625,-0.1091156005859375
40376,-0.9638671875,0.2038726806640625,-0.108154296875
40377,-0.9667510986328124,0.1996917724609375,-0.10791015625
40378,-0.9703216552734376,0.197479248046875,-0.1083526611328125
40379,-0.9737396240234376,0.201263427734375,-0.108428955078125
40380,-0.9756011962890624,0.2093353271484375,-0.1105499267578125
40381,-0.9766082763671876,0.2198028564453125,-0.112548828125
40382,-0.97149658203125,0.228790283203125,-0.112060546875
40383,-0.962310791015625,0.23614501953125,-0.1103363037109375
40384,-0.956329345703125,0.2410888671875,-0.1080474853515625
40385,-0.9564208984375,0.2433929443359375,-0.1076507568359375
40386,-0.9600677490234376,0.241241455078125,-0.1085052490234375
40387,-0.9652252197265624,0.2386932373046875,-0.10791015625
40388,-0.9682464599609376,0.2376251220703125,-0.1061248779296875
40389,-0.969573974609375,0.236602783203125,-0.1055755615234375
40390,-0.97052001953125,0.235321044921875,-0.104217529296875
40391,-0.9713287353515624,0.23468017578125,-0.10205078125
40392,-0.972320556640625,0.233184814453125,-0.101654052734375
40393,-0.97125244140625,0.2291259765625,-0.1013946533203125
40394,-0.9685821533203124,0.2260284423828125,-0.098785400390625
40395,-0.9658203125,0.222381591796875,-0.0969085693359375
40396,-0.965240478515625,0.21795654296875,-0.0955657958984375
40397,-0.965911865234375,0.2177276611328125,-0.094940185546875
40398,-0.9616241455078124,0.2228240966796875,-0.0924072265625
40399,-0.9616241455078124,0.2228240966796875,-0.0924072265625
40400,-0.9621734619140624,0.2244110107421875,-0.09027099609375
40401,-0.96380615234375,0.224395751953125,-0.088104248046875
40402,-0.962371826171875,0.22021484375,-0.0876007080078125
40403,-0.9610137939453124,0.2157440185546875,-0.087066650390625
40404,-0.9595184326171876,0.2097930908203125,-0.0870208740234375
40405,-0.95855712890625,0.2058563232421875,-0.0863800048828125
40406,-0.957855224609375,0.2036895751953125,-0.0871124267578125
40407,-0.9595489501953124,0.20513916015625,-0.0883636474609375
40408,-0.9620819091796876,0.20941162109375,-0.0925140380859375
40409,-0.963531494140625,0.213531494140625,-0.0943145751953125
40410,-0.9644317626953124,0.2167510986328125,-0.0960235595703125
40411,-0.9653778076171876,0.21795654296875,-0.0963592529296875
40412,-0.9683380126953124,0.2174530029296875,-0.09906005859375
40413,-0.9725341796875,0.2152557373046875,-0.099395751953125
40414,-0.973785400390625,0.2147369384765625,-0.0980682373046875
40415,-0.9749755859375,0.2147979736328125,-0.0970916748046875
40416,-0.9763946533203124,0.2148895263671875,-0.0961456298828125
40417,-0.97735595703125,0.2166900634765625,-0.094940185546875
40418,-0.9761505126953124,0.21844482421875,-0.0948638916015625
40419,-0.9734649658203124,0.22064208984375,-0.0949554443359375
40420,-0.97076416015625,0.2231292724609375,-0.095855712890625
40421,-0.9685516357421876,0.2234649658203125,-0.09808349609375
40422,-0.9654998779296876,0.2221832275390625,-0.1000823974609375
40423,-0.9657745361328124,0.2216796875,-0.1013336181640625
40424,-0.965911865234375,0.22119140625,-0.1046905517578125
40425,-0.96612548828125,0.220947265625,-0.10797119140625
40426,-0.9660186767578124,0.2225189208984375,-0.108642578125
40427,-0.9650115966796876,0.222259521484375,-0.1094512939453125
40428,-0.9633331298828124,0.2216796875,-0.10882568359375
40429,-0.963348388671875,0.221405029296875,-0.108245849609375
40430,-0.965362548828125,0.2201080322265625,-0.106964111328125
40431,-0.9675140380859376,0.2183990478515625,-0.1040191650390625
40432,-0.968963623046875,0.21533203125,-0.101898193359375
40433,-0.970733642578125,0.2126617431640625,-0.100433349609375
40434,-0.970794677734375,0.21087646484375,-0.099639892578125
40435,-0.9707183837890624,0.2105865478515625,-0.0981597900390625
40436,-0.9698028564453124,0.2105560302734375,-0.0980377197265625
40437,-0.9705352783203124,0.210418701171875,-0.0987396240234375
40438,-0.970947265625,0.210113525390625,-0.1004638671875
40439,-0.9687957763671876,0.210662841796875,-0.1007843017578125
40440,-0.9673919677734376,0.2100982666015625,-0.1004791259765625
40441,-0.967041015625,0.210113525390625,-0.1008758544921875
40442,-0.967681884765625,0.2119903564453125,-0.1010894775390625
40443,-0.967681884765625,0.2119903564453125,-0.1010894775390625
40444,-0.9674072265625,0.2121124267578125,-0.1012115478515625
40445,-0.96697998046875,0.2108001708984375,-0.1011962890625
40446,-0.9666748046875,0.212615966796875,-0.1005706787109375
40447,-0.9673919677734376,0.211669921875,-0.0994110107421875
40448,-0.9677734375,0.212860107421875,-0.10015869140625
40449,-0.96710205078125,0.213165283203125,-0.10015869140625
40450,-0.966461181640625,0.2145843505859375,-0.0999755859375
40451,-0.965301513671875,0.21484375,-0.100341796875
40452,-0.965850830078125,0.2140655517578125,-0.1004180908203125
40453,-0.9676513671875,0.2127685546875,-0.0999755859375
40454,-0.969024658203125,0.21075439453125,-0.0991973876953125
40455,-0.9712371826171876,0.209503173828125,-0.0988922119140625
40456,-0.971649169921875,0.2078857421875,-0.09906005859375
40457,-0.97015380859375,0.2088165283203125,-0.098480224609375
40458,-0.967041015625,0.2095184326171875,-0.0991973876953125
40459,-0.9647369384765624,0.2109222412109375,-0.099853515625
40460,-0.9656524658203124,0.210540771484375,-0.100250244140625
40461,-0.9664764404296876,0.2099151611328125,-0.100372314453125
40462,-0.9668426513671876,0.2100830078125,-0.0990753173828125
40463,-0.966461181640625,0.2116546630859375,-0.0979156494140625
40464,-0.9696197509765624,0.2142333984375,-0.100677490234375
40465,-0.9693756103515624,0.2159576416015625,-0.10162353515625
40466,-0.9693603515625,0.2173614501953125,-0.102386474609375
40467,-0.96954345703125,0.2187347412109375,-0.101104736328125
40468,-0.96923828125,0.2197113037109375,-0.102081298828125
40469,-0.967864990234375,0.2204132080078125,-0.1016693115234375
40470,-0.9654998779296876,0.220367431640625,-0.0992279052734375
40471,-0.964141845703125,0.2192535400390625,-0.095977783203125
40472,-0.9641876220703124,0.2176971435546875,-0.0937652587890625
40473,-0.967529296875,0.217254638671875,-0.0949859619140625
40474,-0.969451904296875,0.216583251953125,-0.0951080322265625
40475,-0.9697113037109376,0.2171630859375,-0.097320556640625
40476,-0.9696197509765624,0.2173614501953125,-0.0965423583984375
40477,-0.9686737060546876,0.21832275390625,-0.09649658203125
40478,-0.9677886962890624,0.221160888671875,-0.0969696044921875
40479,-0.968048095703125,0.2205810546875,-0.09613037109375
40480,-0.9686431884765624,0.222808837890625,-0.0970458984375
40481,-0.969879150390625,0.2225189208984375,-0.0971221923828125
40482,-0.9683074951171876,0.222015380859375,-0.0971832275390625
40483,-0.9687652587890624,0.2217864990234375,-0.097564697265625
40484,-0.9671478271484376,0.2203521728515625,-0.09930419921875
40485,-0.9649658203125,0.2197113037109375,-0.0987396240234375
40486,-0.965606689453125,0.2174224853515625,-0.100189208984375
40487,-0.9681854248046876,0.217864990234375,-0.1007232666015625
40488,-0.970458984375,0.2204132080078125,-0.1024932861328125
40489,-0.9723358154296876,0.222503662109375,-0.1025543212890625
40490,-0.97265625,0.2225494384765625,-0.1018524169921875
40491,-0.970947265625,0.223785400390625,-0.1012420654296875
40492,-0.96832275390625,0.2251434326171875,-0.0999908447265625
40493,-0.9667816162109376,0.22637939453125,-0.0983734130859375
40494,-0.96624755859375,0.2285919189453125,-0.0992584228515625
40495,-0.9658966064453124,0.22918701171875,-0.0980987548828125
40496,-0.9653167724609376,0.2281036376953125,-0.09722900390625
40497,-0.96453857421875,0.2260284423828125,-0.098419189453125
40498,-0.9646453857421876,0.2258148193359375,-0.0992279052734375
40499,-0.9639892578125,0.22369384765625,-0.100433349609375
40500,-0.9634857177734376,0.223388671875,-0.1019744873046875
40501,-0.9657135009765624,0.2227325439453125,-0.1019287109375
40502,-0.9656219482421876,0.2221832275390625,-0.1014251708984375
40503,-0.967132568359375,0.2217254638671875,-0.1022796630859375
40504,-0.968109130859375,0.2216339111328125,-0.1026153564453125
40505,-0.969390869140625,0.219482421875,-0.103271484375
40506,-0.9681549072265624,0.218231201171875,-0.100555419921875
40507,-0.9668426513671876,0.2197265625,-0.0997161865234375
40508,-0.9655609130859376,0.22113037109375,-0.0999298095703125
40509,-0.9666595458984376,0.22308349609375,-0.0995635986328125
40510,-0.9665069580078124,0.2234954833984375,-0.0995025634765625
40511,-0.9667816162109376,0.223236083984375,-0.099639892578125
40512,-0.9665679931640624,0.2212066650390625,-0.0999603271484375
40513,-0.966644287109375,0.2206268310546875,-0.1005096435546875
40514,-0.9667205810546876,0.2215118408203125,-0.1035003662109375
40515,-0.9665069580078124,0.2242584228515625,-0.10479736328125
40516,-0.96624755859375,0.22613525390625,-0.1065216064453125
40517,-0.9638824462890624,0.2272186279296875,-0.107330322265625
40518,-0.961578369140625,0.2273712158203125,-0.105194091796875
40519,-0.9615325927734376,0.2263641357421875,-0.102691650390625
40520,-0.963409423828125,0.2245330810546875,-0.1024627685546875
40521,-0.9661102294921876,0.2235260009765625,-0.1028289794921875
40522,-0.970703125,0.2238922119140625,-0.102935791015625
40523,-0.9703369140625,0.2225494384765625,-0.103485107421875
40524,-0.9697418212890624,0.2225799560546875,-0.102813720703125
40525,-0.970062255859375,0.2231292724609375,-0.1034088134765625
40526,-0.9689178466796876,0.2230224609375,-0.10504150390625
40527,-0.9649505615234376,0.2219390869140625,-0.106231689453125
40528,-0.9620361328125,0.2209320068359375,-0.1054534912109375
40529,-0.9620361328125,0.2195281982421875,-0.1059722900390625
40530,-0.9644317626953124,0.2158966064453125,-0.10626220703125
40531,-0.9686126708984376,0.21527099609375,-0.104705810546875
40532,-0.9739532470703124,0.2160797119140625,-0.1029205322265625
40533,-0.976409912109375,0.216888427734375,-0.1009521484375
40534,-0.9755401611328124,0.2198333740234375,-0.0985565185546875
40535,-0.971771240234375,0.2242279052734375,-0.0984039306640625
40536,-0.9710540771484376,0.2261962890625,-0.09967041015625
40537,-0.9715576171875,0.2260894775390625,-0.10400390625
40538,-0.971221923828125,0.2260284423828125,-0.1063232421875
40539,-0.9687652587890624,0.2238616943359375,-0.1098480224609375
40540,-0.9662933349609376,0.2230987548828125,-0.1119232177734375
40541,-0.9628448486328124,0.2219390869140625,-0.1109466552734375
40542,-0.9588470458984376,0.221923828125,-0.1096954345703125
40543,-0.9588470458984376,0.221923828125,-0.1096954345703125
40544,-0.9560699462890624,0.220947265625,-0.103546142578125
40545,-0.957061767578125,0.217071533203125,-0.0983123779296875
40546,-0.9582672119140624,0.2147216796875,-0.0941314697265625
40547,-0.961456298828125,0.2166900634765625,-0.092315673828125
40548,-0.9626922607421876,0.220306396484375,-0.092254638671875
40549,-0.963531494140625,0.2242279052734375,-0.0935211181640625
40550,-0.9661407470703124,0.2273712158203125,-0.098388671875
40551,-0.9668426513671876,0.2290191650390625,-0.1025543212890625
40552,-0.96502685546875,0.2274627685546875,-0.1053466796875
40553,-0.9624481201171876,0.2282562255859375,-0.105987548828125
40554,-0.96063232421875,0.2273101806640625,-0.107666015625
40555,-0.9609527587890624,0.226654052734375,-0.108489990234375
40556,-0.9618072509765624,0.226715087890625,-0.1073760986328125
40557,-0.963134765625,0.226409912109375,-0.1056671142578125
40558,-0.9659271240234376,0.228179931640625,-0.1041717529296875
40559,-0.967193603515625,0.229248046875,-0.101806640625
40560,-0.968994140625,0.22833251953125,-0.0984649658203125
40561,-0.969879150390625,0.2288055419921875,-0.097015380859375
40562,-0.9695587158203124,0.228363037109375,-0.096710205078125
40563,-0.9684295654296876,0.227783203125,-0.096405029296875
40564,-0.9679412841796876,0.2285614013671875,-0.098236083984375
40565,-0.96636962890625,0.229339599609375,-0.10150146484375
40566,-0.9655303955078124,0.2291412353515625,-0.1035003662109375
40567,-0.9644927978515624,0.229461669921875,-0.1045379638671875
40568,-0.9618988037109376,0.2298583984375,-0.1052093505859375
40569,-0.9603729248046876,0.2298431396484375,-0.10400390625
40570,-0.9605255126953124,0.2300262451171875,-0.1041259765625
40571,-0.9605865478515624,0.2289886474609375,-0.10382080078125
40572,-0.96234130859375,0.22686767578125,-0.1026153564453125
40573,-0.962982177734375,0.2253265380859375,-0.102996826171875
40574,-0.9636077880859376,0.2243804931640625,-0.10272216796875
40575,-0.9628143310546876,0.223876953125,-0.102508544921875
40576,-0.961669921875,0.2235260009765625,-0.103973388671875
40577,-0.961761474609375,0.224761962890625,-0.104461669921875
40578,-0.9639129638671876,0.2269287109375,-0.1050872802734375
40579,-0.96490478515625,0.2286834716796875,-0.1055450439453125
40580,-0.9659576416015624,0.2303619384765625,-0.1062164306640625
40581,-0.96844482421875,0.230438232421875,-0.1067047119140625
40582,-0.968505859375,0.2276763916015625,-0.1048126220703125
40583,-0.969024658203125,0.2277984619140625,-0.1040496826171875
40584,-0.968902587890625,0.2268524169921875,-0.104339599609375
40585,-0.96881103515625,0.2279510498046875,-0.1047821044921875
40586,-0.96783447265625,0.2291717529296875,-0.1041107177734375
40587,-0.96929931640625,0.230072021484375,-0.103240966796875
40588,-0.969635009765625,0.2312469482421875,-0.105377197265625
40589,-0.9670867919921876,0.231719970703125,-0.106842041015625
40590,-0.9637603759765624,0.2291259765625,-0.10589599609375
40591,-0.9611663818359376,0.2265472412109375,-0.10394287109375
40592,-0.961700439453125,0.224365234375,-0.10546875
40593,-0.9619293212890624,0.2242889404296875,-0.107391357421875
40594,-0.963165283203125,0.2261505126953125,-0.1080474853515625
40595,-0.965057373046875,0.2281341552734375,-0.1089630126953125
40596,-0.9677276611328124,0.2304229736328125,-0.110321044921875
40597,-0.968048095703125,0.23175048828125,-0.1114044189453125
40598,-0.96856689453125,0.2323760986328125,-0.111175537109375
40599,-0.967742919921875,0.232391357421875,-0.111785888671875
40600,-0.968017578125,0.2332305908203125,-0.1106414794921875
40601,-0.9655914306640624,0.2330322265625,-0.110992431640625
40602,-0.962646484375,0.2308502197265625,-0.10858154296875
40603,-0.9592437744140624,0.228302001953125,-0.106719970703125
40604,-0.95806884765625,0.2264404296875,-0.1050567626953125
40605,-0.9568328857421876,0.2248992919921875,-0.104949951171875
40606,-0.955780029296875,0.224212646484375,-0.104461669921875
40607,-0.9573974609375,0.2276611328125,-0.10443115234375
40608,-0.9581146240234376,0.2290191650390625,-0.1058807373046875
40609,-0.9574432373046876,0.229248046875,-0.1063232421875
40610,-0.9575653076171876,0.2281951904296875,-0.1054534912109375
40611,-0.958526611328125,0.2240753173828125,-0.1055755615234375
40612,-0.959716796875,0.2200164794921875,-0.10662841796875
40613,-0.9623260498046876,0.2159423828125,-0.107269287109375
40614,-0.966064453125,0.21356201171875,-0.106964111328125
40615,-0.968719482421875,0.211822509765625,-0.1073150634765625
40616,-0.97021484375,0.2127838134765625,-0.1079864501953125
40617,-0.971405029296875,0.2127532958984375,-0.1064453125
40618,-0.9739837646484376,0.2130889892578125,-0.105560302734375
40619,-0.974761962890625,0.214385986328125,-0.105377197265625
40620,-0.975372314453125,0.2154541015625,-0.1027984619140625
40621,-0.9749298095703124,0.2153778076171875,-0.1016998291015625
40622,-0.9730072021484376,0.2161102294921875,-0.1006011962890625
40623,-0.9718780517578124,0.21783447265625,-0.099578857421875
40624,-0.9708099365234376,0.2181243896484375,-0.09869384765625
40625,-0.9740447998046876,0.2149810791015625,-0.0991363525390625
40626,-0.976654052734375,0.2123260498046875,-0.10009765625
40627,-0.9755706787109376,0.20819091796875,-0.10113525390625
40628,-0.9748687744140624,0.20379638671875,-0.1007080078125
40629,-0.9734649658203124,0.19927978515625,-0.1010284423828125
40630,-0.969146728515625,0.19598388671875,-0.100341796875
40631,-0.966644287109375,0.1927337646484375,-0.0999603271484375
40632,-0.96685791015625,0.18939208984375,-0.101593017578125
40633,-0.96563720703125,0.184906005859375,-0.1034393310546875
40634,-0.9634857177734376,0.184539794921875,-0.1033172607421875
40635,-0.961334228515625,0.1836090087890625,-0.1037445068359375
40636,-0.9627227783203124,0.18328857421875,-0.10491943359375
40637,-0.9687347412109376,0.1907196044921875,-0.1127471923828125
40638,-0.9687347412109376,0.1907196044921875,-0.1127471923828125
40639,-0.970550537109375,0.1952667236328125,-0.113067626953125
40640,-0.970001220703125,0.2052459716796875,-0.112457275390625
40641,-0.963043212890625,0.228729248046875,-0.111907958984375
40642,-0.963043212890625,0.228729248046875,-0.111907958984375
40643,-0.963043212890625,0.228729248046875,-0.111907958984375
40644,-0.9669647216796876,0.2325897216796875,-0.1072845458984375
40645,-0.971649169921875,0.2257843017578125,-0.106231689453125
40646,-0.9730987548828124,0.217376708984375,-0.1049652099609375
40647,-0.9755096435546876,0.203460693359375,-0.1029052734375
40648,-0.974853515625,0.1923370361328125,-0.09820556640625
40649,-0.9718780517578124,0.18890380859375,-0.0956268310546875
40650,-0.9718780517578124,0.18890380859375,-0.0956268310546875
40651,-0.96826171875,0.188140869140625,-0.0947113037109375
40652,-0.9684295654296876,0.1875762939453125,-0.0924835205078125
40653,-0.9711151123046876,0.1895294189453125,-0.090667724609375
40654,-0.97393798828125,0.18914794921875,-0.092132568359375
40655,-0.971099853515625,0.1818389892578125,-0.0941009521484375
40656,-0.9685821533203124,0.1800994873046875,-0.0908660888671875
40657,-0.9676055908203124,0.1890716552734375,-0.0865478515625
40658,-0.97406005859375,0.191558837890625,-0.0961456298828125
40659,-0.9805450439453124,0.1945343017578125,-0.102203369140625
40660,-0.975250244140625,0.2044677734375,-0.0948638916015625
40661,-0.9620208740234376,0.2191925048828125,-0.095672607421875
40662,-0.9620208740234376,0.2191925048828125,-0.095672607421875
40663,-0.9680938720703124,0.221282958984375,-0.0987548828125
40664,-0.96807861328125,0.2245330810546875,-0.098052978515625
40665,-0.9674224853515624,0.231292724609375,-0.0970001220703125
40666,-0.969268798828125,0.2327117919921875,-0.09906005859375
40667,-0.9712677001953124,0.2332916259765625,-0.1001434326171875
40668,-0.9683837890625,0.23370361328125,-0.1022796630859375
40669,-0.9694061279296876,0.2274017333984375,-0.104949951171875
40670,-0.9694061279296876,0.2274017333984375,-0.104949951171875
40671,-0.9734344482421876,0.2240753173828125,-0.10699462890625
40672,-0.97576904296875,0.2191162109375,-0.109344482421875
40673,-0.9748687744140624,0.2147369384765625,-0.107757568359375
40674,-0.9730682373046876,0.209747314453125,-0.1044158935546875
40675,-0.9710845947265624,0.2048187255859375,-0.1023406982421875
40676,-0.970855712890625,0.200408935546875,-0.0994415283203125
40677,-0.9732818603515624,0.19586181640625,-0.0926055908203125
40678,-0.9732818603515624,0.19586181640625,-0.0926055908203125
40679,-0.97509765625,0.197418212890625,-0.091766357421875
40680,-0.9768829345703124,0.1961517333984375,-0.0899658203125
40681,-0.9770355224609376,0.191162109375,-0.09100341796875
40682,-0.9770355224609376,0.191162109375,-0.09100341796875
40683,-0.9768524169921876,0.1891632080078125,-0.0917205810546875
40684,-0.9770660400390624,0.186798095703125,-0.095123291015625
40685,-0.97235107421875,0.18634033203125,-0.098358154296875
40686,-0.97235107421875,0.18634033203125,-0.098358154296875
40687,-0.9716644287109376,0.1877593994140625,-0.0987396240234375
40688,-0.97003173828125,0.1898651123046875,-0.1002349853515625
40689,-0.9728546142578124,0.191375732421875,-0.107879638671875
40690,-0.9728546142578124,0.191375732421875,-0.107879638671875
40691,-0.9727935791015624,0.196044921875,-0.1079254150390625
40692,-0.9734344482421876,0.2039337158203125,-0.1086883544921875
40693,-0.9665374755859376,0.2183990478515625,-0.109100341796875
40694,-0.9665374755859376,0.2183990478515625,-0.109100341796875
40695,-0.9669342041015624,0.2221527099609375,-0.1098175048828125
40696,-0.9699249267578124,0.2198028564453125,-0.11126708984375
40697,-0.9676666259765624,0.2006378173828125,-0.1076507568359375
40698,-0.9676666259765624,0.2006378173828125,-0.1076507568359375
40699,-0.9673919677734376,0.19781494140625,-0.10626220703125
40700,-0.9692230224609376,0.195404052734375,-0.1071624755859375
40701,-0.9714202880859376,0.196197509765625,-0.1089630126953125
40702,-0.977294921875,0.193939208984375,-0.110443115234375
40703,-0.977294921875,0.193939208984375,-0.110443115234375
40704,-0.9743499755859376,0.1932525634765625,-0.1113433837890625
40705,-0.9760284423828124,0.19390869140625,-0.1047821044921875
40706,-0.9760284423828124,0.19390869140625,-0.1047821044921875
40707,-0.9721527099609376,0.1960906982421875,-0.10711669921875
40708,-0.9680938720703124,0.2029571533203125,-0.1022186279296875
40709,-0.9668426513671876,0.2057952880859375,-0.1015472412109375
40710,-0.967559814453125,0.2070159912109375,-0.104278564453125
40711,-0.9663543701171876,0.207244873046875,-0.1053314208984375
40712,-0.9657440185546876,0.205474853515625,-0.104278564453125
40713,-0.9761199951171876,0.2010650634765625,-0.107177734375
40714,-0.9761199951171876,0.2010650634765625,-0.107177734375
40715,-0.976776123046875,0.2019805908203125,-0.1090850830078125
40716,-0.9777374267578124,0.2052764892578125,-0.1098480224609375
40717,-0.9813079833984376,0.2106475830078125,-0.10858154296875
40718,-0.9837188720703124,0.187713623046875,-0.1172332763671875
40719,-0.9837188720703124,0.187713623046875,-0.1172332763671875
40720,-0.968292236328125,0.1923828125,-0.1071014404296875
40721,-0.9658966064453124,0.211883544921875,-0.117584228515625
40722,-0.9658966064453124,0.211883544921875,-0.117584228515625
40723,-0.972808837890625,0.214508056640625,-0.123443603515625
40724,-0.969818115234375,0.211669921875,-0.1206817626953125
40725,-0.9658355712890624,0.1973876953125,-0.117034912109375
40726,-0.9658355712890624,0.1973876953125,-0.117034912109375
40727,-0.9670867919921876,0.190521240234375,-0.1155548095703125
40728,-0.9666595458984376,0.1869964599609375,-0.1132965087890625
40729,-0.972930908203125,0.1888885498046875,-0.115142822265625
40730,-0.972930908203125,0.1888885498046875,-0.115142822265625
40731,-0.97412109375,0.1923828125,-0.116363525390625
40732,-0.974365234375,0.193695068359375,-0.11529541015625
40733,-0.9699249267578124,0.2006072998046875,-0.1176605224609375
40734,-0.9699249267578124,0.2006072998046875,-0.1176605224609375
40735,-0.96612548828125,0.2050323486328125,-0.1163482666015625
40736,-0.9663848876953124,0.208251953125,-0.116119384765625
40737,-0.96844482421875,0.200042724609375,-0.11041259765625
40738,-0.96844482421875,0.200042724609375,-0.11041259765625
40739,-0.9694366455078124,0.196197509765625,-0.107177734375
40740,-0.9716339111328124,0.1942596435546875,-0.1070709228515625
40741,-0.9708709716796876,0.198394775390625,-0.1078948974609375
40742,-0.9708709716796876,0.198394775390625,-0.1078948974609375
40743,-0.9708709716796876,0.198394775390625,-0.1078948974609375
40744,-0.9678955078125,0.2008819580078125,-0.110107421875
40745,-0.965545654296875,0.20538330078125,-0.1134033203125
40746,-0.965545654296875,0.20538330078125,-0.1134033203125
40747,-0.9665985107421876,0.2039642333984375,-0.1145782470703125
40748,-0.968231201171875,0.2003631591796875,-0.11553955078125
40749,-0.9718017578125,0.196319580078125,-0.1163482666015625
40750,-0.9718017578125,0.196319580078125,-0.1163482666015625
40751,-0.9736328125,0.196380615234375,-0.1138458251953125
40752,-0.9749298095703124,0.196258544921875,-0.1119537353515625
40753,-0.9729461669921876,0.196563720703125,-0.1060333251953125
40754,-0.9729461669921876,0.196563720703125,-0.1060333251953125
40755,-0.9725494384765624,0.1968536376953125,-0.104461669921875
40756,-0.9726715087890624,0.1972808837890625,-0.1044158935546875
40757,-0.972381591796875,0.1971435546875,-0.1053314208984375
40758,-0.97052001953125,0.198028564453125,-0.1060028076171875
40759,-0.9681549072265624,0.197723388671875,-0.1066741943359375
40760,-0.96710205078125,0.197418212890625,-0.107696533203125
40761,-0.966339111328125,0.1937255859375,-0.1080780029296875
40762,-0.966339111328125,0.1937255859375,-0.1080780029296875
40763,-0.9665069580078124,0.191070556640625,-0.1078948974609375
40764,-0.969024658203125,0.19122314453125,-0.108123779296875
40765,-0.9741058349609376,0.193634033203125,-0.1068267822265625
40766,-0.9741058349609376,0.193634033203125,-0.1068267822265625
40767,-0.9752960205078124,0.197021484375,-0.1036224365234375
40768,-0.97509765625,0.2014617919921875,-0.1014251708984375
40769,-0.97491455078125,0.2090606689453125,-0.10028076171875
40770,-0.97491455078125,0.2090606689453125,-0.10028076171875
40771,-0.9748687744140624,0.212249755859375,-0.1013946533203125
40772,-0.9761810302734376,0.2130889892578125,-0.1036224365234375
40773,-0.9776763916015624,0.2081756591796875,-0.1085052490234375
40774,-0.9776763916015624,0.2081756591796875,-0.1085052490234375
40775,-0.9760589599609376,0.205078125,-0.108489990234375
40776,-0.9765472412109376,0.2007293701171875,-0.109161376953125
40777,-0.9754791259765624,0.1955108642578125,-0.105926513671875
40778,-0.9754791259765624,0.1955108642578125,-0.105926513671875
40779,-0.9728240966796876,0.1945037841796875,-0.104644775390625
40780,-0.9713592529296876,0.1927947998046875,-0.1021881103515625
40781,-0.9685821533203124,0.19329833984375,-0.100555419921875
40782,-0.9685821533203124,0.19329833984375,-0.100555419921875
40783,-0.9689178466796876,0.19378662109375,-0.102508544921875
40784,-0.9692535400390624,0.194488525390625,-0.1041412353515625
40785,-0.9681243896484376,0.194793701171875,-0.105377197265625
40786,-0.9681243896484376,0.194793701171875,-0.105377197265625
40787,-0.967620849609375,0.1956634521484375,-0.1074676513671875
40788,-0.9709625244140624,0.1963348388671875,-0.108184814453125
40789,-0.974029541015625,0.199615478515625,-0.1049041748046875
40790,-0.974029541015625,0.199615478515625,-0.1049041748046875
40791,-0.974029541015625,0.199615478515625,-0.1049041748046875
40792,-0.974029541015625,0.199615478515625,-0.1049041748046875
40793,-0.9710845947265624,0.19879150390625,-0.102569580078125
40794,-0.9710845947265624,0.19879150390625,-0.102569580078125
40795,-0.9696807861328124,0.19781494140625,-0.1026458740234375
40796,-0.9700927734375,0.19488525390625,-0.1024627685546875
40797,-0.970703125,0.19415283203125,-0.10418701171875
40798,-0.970703125,0.19415283203125,-0.10418701171875
40799,-0.9677581787109376,0.1959381103515625,-0.103851318359375
40800,-0.96826171875,0.1969757080078125,-0.1047210693359375
40801,-0.971588134765625,0.1974639892578125,-0.1038665771484375
40802,-0.971588134765625,0.1974639892578125,-0.1038665771484375
40803,-0.973114013671875,0.1948394775390625,-0.1019287109375
40804,-0.9752044677734376,0.19195556640625,-0.100341796875
40805,-0.9757232666015624,0.1911163330078125,-0.0977020263671875
40806,-0.974090576171875,0.191680908203125,-0.0944366455078125
40807,-0.9718017578125,0.1938018798828125,-0.0919036865234375
40808,-0.969635009765625,0.196563720703125,-0.0893402099609375
40809,-0.9743194580078124,0.1983795166015625,-0.088714599609375
40810,-0.9743194580078124,0.1983795166015625,-0.088714599609375
40811,-0.973541259765625,0.1974029541015625,-0.08807373046875
40812,-0.9750213623046876,0.1973876953125,-0.0887908935546875
40813,-0.9781951904296876,0.199005126953125,-0.0914459228515625
40814,-0.9781951904296876,0.199005126953125,-0.0914459228515625
40815,-0.978057861328125,0.19903564453125,-0.0924224853515625
40816,-0.978271484375,0.1988983154296875,-0.0952301025390625
40817,-0.977813720703125,0.201568603515625,-0.096099853515625
40818,-0.977813720703125,0.201568603515625,-0.096099853515625
40819,-0.9773101806640624,0.2003936767578125,-0.0944976806640625
40820,-0.9770050048828124,0.1958465576171875,-0.093414306640625
40821,-0.975067138671875,0.1926422119140625,-0.0912933349609375
40822,-0.975067138671875,0.1926422119140625,-0.0912933349609375
40823,-0.9756622314453124,0.187103271484375,-0.0906829833984375
40824,-0.9738006591796876,0.1807403564453125,-0.089202880859375
40825,-0.971893310546875,0.1716156005859375,-0.086517333984375
40826,-0.971893310546875,0.1716156005859375,-0.086517333984375
40827,-0.972076416015625,0.1649322509765625,-0.089111328125
40828,-0.9734954833984376,0.1636505126953125,-0.0884552001953125
40829,-0.9764862060546876,0.15557861328125,-0.094146728515625
40830,-0.9764862060546876,0.15557861328125,-0.094146728515625
40831,-0.973724365234375,0.1563873291015625,-0.0931549072265625
40832,-0.9731903076171876,0.1568603515625,-0.092376708984375
40833,-0.977325439453125,0.15740966796875,-0.093658447265625
40834,-0.977325439453125,0.15740966796875,-0.093658447265625
40835,-0.977294921875,0.163848876953125,-0.0912017822265625
40836,-0.977203369140625,0.170867919921875,-0.088531494140625
40837,-0.9786834716796876,0.1766204833984375,-0.0875091552734375
40838,-0.9784088134765624,0.18438720703125,-0.0861053466796875
40839,-0.979217529296875,0.191680908203125,-0.084686279296875
40840,-0.9803619384765624,0.194915771484375,-0.086334228515625
40841,-0.9813690185546876,0.198028564453125,-0.0867156982421875
40842,-0.9813690185546876,0.198028564453125,-0.0867156982421875
40843,-0.9800262451171876,0.198486328125,-0.09136962890625
40844,-0.9773712158203124,0.1990203857421875,-0.0929718017578125
40845,-0.97442626953125,0.1986846923828125,-0.093048095703125
40846,-0.97442626953125,0.1986846923828125,-0.093048095703125
40847,-0.9717559814453124,0.1945037841796875,-0.0915679931640625
40848,-0.9673614501953124,0.192230224609375,-0.0889739990234375
40849,-0.965972900390625,0.1906280517578125,-0.0872650146484375
40850,-0.965972900390625,0.1906280517578125,-0.0872650146484375
40851,-0.9657135009765624,0.192413330078125,-0.0879364013671875
40852,-0.9657745361328124,0.1953277587890625,-0.0885467529296875
40853,-0.9683990478515624,0.1979827880859375,-0.094024658203125
40854,-0.9683990478515624,0.1979827880859375,-0.094024658203125
40855,-0.9708404541015624,0.19757080078125,-0.0945281982421875
40856,-0.9724884033203124,0.2007904052734375,-0.0963134765625
40857,-0.9776153564453124,0.2083740234375,-0.095001220703125
40858,-0.9801025390625,0.21026611328125,-0.093658447265625
40859,-0.9801025390625,0.21026611328125,-0.093658447265625
40860,-0.9819488525390624,0.209930419921875,-0.0932769775390625
40861,-0.987091064453125,0.2045135498046875,-0.091766357421875
40862,-0.987091064453125,0.2045135498046875,-0.091766357421875
40863,-0.986297607421875,0.2031707763671875,-0.0915985107421875
40864,-0.98577880859375,0.202880859375,-0.09210205078125
40865,-0.9798583984375,0.20538330078125,-0.095245361328125
40866,-0.9798583984375,0.20538330078125,-0.095245361328125
40867,-0.9754486083984376,0.203277587890625,-0.0955047607421875
40868,-0.9733123779296876,0.200225830078125,-0.0966796875
40869,-0.969146728515625,0.2007598876953125,-0.0964813232421875
40870,-0.965606689453125,0.200897216796875,-0.0958099365234375
40871,-0.9640655517578124,0.200653076171875,-0.0967864990234375
40872,-0.9640655517578124,0.2019500732421875,-0.095367431640625
40873,-0.96197509765625,0.1991119384765625,-0.0916290283203125
40874,-0.96197509765625,0.1991119384765625,-0.0916290283203125
40875,-0.9632415771484376,0.19464111328125,-0.0894622802734375
40876,-0.9648590087890624,0.1906280517578125,-0.087799072265625
40877,-0.9669952392578124,0.18939208984375,-0.0855560302734375
40878,-0.9669952392578124,0.18939208984375,-0.0855560302734375
40879,-0.970733642578125,0.1873321533203125,-0.0854339599609375
40880,-0.9714508056640624,0.1877899169921875,-0.085845947265625
40881,-0.9744415283203124,0.1852264404296875,-0.0865936279296875
40882,-0.9744415283203124,0.1852264404296875,-0.0865936279296875
40883,-0.9779205322265624,0.1757965087890625,-0.0835418701171875
40884,-0.978424072265625,0.1700592041015625,-0.08184814453125
40885,-0.9815673828125,0.1635284423828125,-0.0816802978515625
40886,-0.9817047119140624,0.1605377197265625,-0.08087158203125
40887,-0.982086181640625,0.1613616943359375,-0.08099365234375
40888,-0.9823455810546876,0.165313720703125,-0.0825653076171875
40889,-0.9819183349609376,0.168792724609375,-0.0839691162109375
40890,-0.9819183349609376,0.168792724609375,-0.0839691162109375
40891,-0.978057861328125,0.1757659912109375,-0.0863800048828125
40892,-0.975982666015625,0.1797027587890625,-0.087158203125
40893,-0.9744720458984376,0.1822052001953125,-0.088775634765625
40894,-0.9744720458984376,0.1822052001953125,-0.088775634765625
40895,-0.9703521728515624,0.1859893798828125,-0.08856201171875
40896,-0.9690093994140624,0.1879730224609375,-0.0884246826171875
40897,-0.970916748046875,0.1884918212890625,-0.088958740234375
40898,-0.97381591796875,0.19110107421875,-0.0923004150390625
40899,-0.9740753173828124,0.1942291259765625,-0.09130859375
40900,-0.973876953125,0.19476318359375,-0.0902557373046875
40901,-0.9722900390625,0.19427490234375,-0.090667724609375
40902,-0.9722900390625,0.19427490234375,-0.090667724609375
40903,-0.971710205078125,0.186767578125,-0.091461181640625
40904,-0.9721221923828124,0.1837921142578125,-0.092193603515625
40905,-0.9735260009765624,0.1822052001953125,-0.0927581787109375
40906,-0.9756317138671876,0.18072509765625,-0.094635009765625
40907,-0.9773406982421876,0.1813812255859375,-0.0959320068359375
40908,-0.9781494140625,0.18231201171875,-0.0954132080078125
40909,-0.9808807373046876,0.184661865234375,-0.0927734375
40910,-0.9808807373046876,0.184661865234375,-0.0927734375
40911,-0.98052978515625,0.1861419677734375,-0.091461181640625
40912,-0.980377197265625,0.189544677734375,-0.0907440185546875
40913,-0.9776153564453124,0.1932220458984375,-0.0896148681640625
40914,-0.9776153564453124,0.1932220458984375,-0.0896148681640625
40915,-0.978424072265625,0.191619873046875,-0.0881500244140625
40916,-0.9784698486328124,0.1891937255859375,-0.0873565673828125
40917,-0.9775543212890624,0.188629150390625,-0.0861968994140625
40918,-0.9762420654296876,0.1867523193359375,-0.08673095703125
40919,-0.976806640625,0.1840362548828125,-0.08831787109375
40920,-0.9757232666015624,0.1822509765625,-0.089996337890625
40921,-0.9720611572265624,0.18316650390625,-0.0902862548828125
40922,-0.9720611572265624,0.18316650390625,-0.0902862548828125
40923,-0.972015380859375,0.185577392578125,-0.089813232421875
40924,-0.972900390625,0.1869049072265625,-0.089447021484375
40925,-0.9769287109375,0.1822509765625,-0.0869140625
40926,-0.9769287109375,0.1822509765625,-0.0869140625
40927,-0.9784698486328124,0.180908203125,-0.086181640625
40928,-0.9806671142578124,0.1814117431640625,-0.0869598388671875
40929,-0.9816436767578124,0.187591552734375,-0.0887603759765625
40930,-0.9816436767578124,0.187591552734375,-0.0887603759765625
40931,-0.9771728515625,0.18890380859375,-0.0864105224609375
40932,-0.97564697265625,0.19000244140625,-0.0858154296875
40933,-0.9739532470703124,0.1868743896484375,-0.0868988037109375
40934,-0.9739532470703124,0.1868743896484375,-0.0868988037109375
40935,-0.9704437255859376,0.1856689453125,-0.088836669921875
40936,-0.968353271484375,0.1894683837890625,-0.0882415771484375
40937,-0.9720306396484376,0.19085693359375,-0.0888214111328125
40938,-0.973388671875,0.1904296875,-0.08782958984375
40939,-0.9731292724609376,0.189788818359375,-0.0833282470703125
40940,-0.97369384765625,0.1884002685546875,-0.0818328857421875
40941,-0.977142333984375,0.1838836669921875,-0.083251953125
40942,-0.975830078125,0.182952880859375,-0.0833740234375
40943,-0.975830078125,0.182952880859375,-0.0833740234375
40944,-0.97491455078125,0.1837310791015625,-0.08538818359375
40945,-0.9763031005859376,0.1858978271484375,-0.08599853515625
40946,-0.9771270751953124,0.1873321533203125,-0.087310791015625
40947,-0.9773712158203124,0.1870574951171875,-0.0868988037109375
40948,-0.9781646728515624,0.1850433349609375,-0.0849609375
40949,-0.9783172607421876,0.1836090087890625,-0.08465576171875
40950,-0.97857666015625,0.18511962890625,-0.0850830078125
40951,-0.9786224365234376,0.18695068359375,-0.0848846435546875
40952,-0.9775543212890624,0.1879119873046875,-0.0858154296875
40953,-0.9725494384765624,0.188568115234375,-0.08721923828125
40954,-0.9725494384765624,0.188568115234375,-0.08721923828125
40955,-0.9725189208984376,0.1900634765625,-0.087860107421875
40956,-0.973388671875,0.19000244140625,-0.089263916015625
40957,-0.970916748046875,0.18853759765625,-0.0902862548828125
40958,-0.970916748046875,0.18853759765625,-0.0902862548828125
40959,-0.9738311767578124,0.18603515625,-0.0916900634765625
40960,-0.9745025634765624,0.185516357421875,-0.092376708984375
40961,-0.9722900390625,0.1862030029296875,-0.08892822265625
40962,-0.9722900390625,0.1862030029296875,-0.08892822265625
40963,-0.9719696044921876,0.1881103515625,-0.0877685546875
40964,-0.973114013671875,0.189300537109375,-0.0865936279296875
40965,-0.97454833984375,0.1883392333984375,-0.0858001708984375
40966,-0.9755859375,0.1868896484375,-0.085235595703125
40967,-0.9759368896484376,0.1856689453125,-0.0862274169921875
40968,-0.9759368896484376,0.185699462890625,-0.08819580078125
40969,-0.9765777587890624,0.1905364990234375,-0.090789794921875
40970,-0.9765777587890624,0.1905364990234375,-0.090789794921875
40971,-0.976470947265625,0.1924896240234375,-0.0932159423828125
40972,-0.9759521484375,0.191650390625,-0.09130859375
40973,-0.9749908447265624,0.188720703125,-0.0888519287109375
40974,-0.97320556640625,0.186767578125,-0.0860137939453125
40975,-0.9736785888671876,0.1849365234375,-0.0848236083984375
40976,-0.9738006591796876,0.184112548828125,-0.085662841796875
40977,-0.9736480712890624,0.18548583984375,-0.086669921875
40978,-0.9745941162109376,0.186065673828125,-0.0875396728515625
40979,-0.97674560546875,0.1861114501953125,-0.089599609375
40980,-0.977630615234375,0.1863250732421875,-0.0890045166015625
40981,-0.9782257080078124,0.1861572265625,-0.088714599609375
40982,-0.9782562255859376,0.1858673095703125,-0.0894622802734375
40983,-0.9766845703125,0.1848602294921875,-0.0881500244140625
40984,-0.9727630615234376,0.1847076416015625,-0.087493896484375
40985,-0.970611572265625,0.1863250732421875,-0.08697509765625
40986,-0.9697113037109376,0.187286376953125,-0.0878753662109375
40987,-0.971710205078125,0.186767578125,-0.0889892578125
40988,-0.9760894775390624,0.18682861328125,-0.0898284912109375
40989,-0.978240966796875,0.186676025390625,-0.0909271240234375
40990,-0.978240966796875,0.186676025390625,-0.0909271240234375
40991,-0.978240966796875,0.186676025390625,-0.0909271240234375
40992,-0.9793701171875,0.18707275390625,-0.09027099609375
40993,-0.976654052734375,0.18402099609375,-0.089263916015625
40994,-0.976654052734375,0.18402099609375,-0.089263916015625
40995,-0.97198486328125,0.1852569580078125,-0.0894012451171875
40996,-0.9698638916015624,0.1862335205078125,-0.089874267578125
40997,-0.9700775146484376,0.1877288818359375,-0.090576171875
40998,-0.9700775146484376,0.1877288818359375,-0.090576171875
40999,-0.9710540771484376,0.187164306640625,-0.09039306640625
41000,-0.97088623046875,0.1859130859375,-0.089996337890625
41001,-0.9720306396484376,0.1858978271484375,-0.0901031494140625
41002,-0.9734649658203124,0.1869964599609375,-0.0908660888671875
41003,-0.975006103515625,0.1884307861328125,-0.09075927734375
41004,-0.9771881103515624,0.188934326171875,-0.091644287109375
41005,-0.9739227294921876,0.1890411376953125,-0.089111328125
41006,-0.9739227294921876,0.1890411376953125,-0.089111328125
41007,-0.974609375,0.1880035400390625,-0.088714599609375
41008,-0.976287841796875,0.1856536865234375,-0.0890350341796875
41009,-0.97735595703125,0.18548583984375,-0.0889434814453125
41010,-0.9762115478515624,0.1862640380859375,-0.090179443359375
41011,-0.9779052734375,0.1865692138671875,-0.0912322998046875
41012,-0.9782562255859376,0.1861724853515625,-0.0929412841796875
41013,-0.9732208251953124,0.184814453125,-0.093231201171875
41014,-0.9732208251953124,0.184814453125,-0.093231201171875
41015,-0.9731292724609376,0.184326171875,-0.093505859375
41016,-0.9752044677734376,0.1862640380859375,-0.09393310546875
41017,-0.9750213623046876,0.1900787353515625,-0.0900115966796875
41018,-0.9750213623046876,0.1900787353515625,-0.0900115966796875
41019,-0.9737548828125,0.1890869140625,-0.0897216796875
41020,-0.9727783203125,0.188629150390625,-0.0904083251953125
41021,-0.974273681640625,0.187530517578125,-0.09228515625
41022,-0.974273681640625,0.187530517578125,-0.09228515625
41023,-0.976898193359375,0.1867828369140625,-0.0951080322265625
41024,-0.977783203125,0.1885833740234375,-0.097076416015625
41025,-0.9792022705078124,0.191619873046875,-0.096466064453125
41026,-0.9792022705078124,0.191619873046875,-0.096466064453125
41027,-0.97857666015625,0.190338134765625,-0.0960235595703125
41028,-0.9771575927734376,0.1900634765625,-0.09356689453125
41029,-0.9761810302734376,0.18994140625,-0.0916290283203125
41030,-0.9761810302734376,0.18994140625,-0.0916290283203125
41031,-0.976104736328125,0.1901092529296875,-0.091094970703125
41032,-0.9731597900390624,0.18988037109375,-0.0909576416015625
41033,-0.973052978515625,0.19012451171875,-0.0917205810546875
41034,-0.972381591796875,0.1905975341796875,-0.09442138671875
41035,-0.9720306396484376,0.1895599365234375,-0.096771240234375
41036,-0.97149658203125,0.1853790283203125,-0.0955810546875
41037,-0.97161865234375,0.1816253662109375,-0.0945892333984375
41038,-0.97161865234375,0.1816253662109375,-0.0945892333984375
41039,-0.9733428955078124,0.18255615234375,-0.09478759765625
41040,-0.9745635986328124,0.183746337890625,-0.096038818359375
41041,-0.977294921875,0.1922607421875,-0.0969390869140625
41042,-0.977294921875,0.1922607421875,-0.0969390869140625
41043,-0.9750823974609376,0.19195556640625,-0.0941925048828125
41044,-0.9750823974609376,0.19195556640625,-0.0941925048828125
41045,-0.971527099609375,0.1877593994140625,-0.0896148681640625
41046,-0.971527099609375,0.1877593994140625,-0.0896148681640625
41047,-0.9714508056640624,0.18572998046875,-0.0905303955078125
41048,-0.9723358154296876,0.184967041015625,-0.092010498046875
41049,-0.9710693359375,0.185394287109375,-0.0935516357421875
41050,-0.9710693359375,0.185394287109375,-0.0935516357421875
41051,-0.9719085693359376,0.183685302734375,-0.09375
41052,-0.97100830078125,0.1818389892578125,-0.094268798828125
41053,-0.9702301025390624,0.18048095703125,-0.0944976806640625
41054,-0.9686737060546876,0.179962158203125,-0.094207763671875
41055,-0.9689788818359376,0.181060791015625,-0.094451904296875
41056,-0.9697113037109376,0.18072509765625,-0.0939178466796875
41057,-0.9669036865234376,0.180877685546875,-0.096038818359375
41058,-0.9669036865234376,0.180877685546875,-0.096038818359375
41059,-0.9662017822265624,0.18548583984375,-0.0984954833984375
41060,-0.9652862548828124,0.186981201171875,-0.0986175537109375
41061,-0.9647216796875,0.186981201171875,-0.097076416015625
41062,-0.9647216796875,0.186981201171875,-0.097076416015625
41063,-0.961395263671875,0.1874237060546875,-0.0950927734375
41064,-0.9609832763671876,0.1852874755859375,-0.09588623046875
41065,-0.9624481201171876,0.1838836669921875,-0.096771240234375
41066,-0.9624481201171876,0.1838836669921875,-0.096771240234375
41067,-0.9596405029296876,0.1813812255859375,-0.095428466796875
41068,-0.955596923828125,0.1784820556640625,-0.091461181640625
41069,-0.9510498046875,0.1746978759765625,-0.0899505615234375
41070,-0.9536285400390624,0.170806884765625,-0.089324951171875
41071,-0.9599456787109376,0.16619873046875,-0.0913238525390625
41072,-0.9625396728515624,0.16107177734375,-0.0903472900390625
41073,-0.9609832763671876,0.143646240234375,-0.08331298828125
41074,-0.9609832763671876,0.143646240234375,-0.08331298828125
41075,-0.9616546630859376,0.1373138427734375,-0.0814361572265625
41076,-0.9561767578125,0.1336212158203125,-0.080810546875
41077,-0.946441650390625,0.1250457763671875,-0.0787811279296875
41078,-0.946441650390625,0.1250457763671875,-0.0787811279296875
41079,-0.9495391845703124,0.1227264404296875,-0.080596923828125
41080,-0.954559326171875,0.1197357177734375,-0.0856475830078125
41081,-0.955963134765625,0.1180877685546875,-0.08917236328125
41082,-0.9535980224609376,0.118408203125,-0.089569091796875
41083,-0.9573516845703124,0.12091064453125,-0.0897674560546875
41084,-0.9643707275390624,0.1268310546875,-0.0953216552734375
41085,-0.969818115234375,0.137786865234375,-0.099090576171875
41086,-0.974853515625,0.144195556640625,-0.097381591796875
41087,-0.9813232421875,0.144805908203125,-0.09490966796875
41088,-0.98651123046875,0.1418304443359375,-0.093902587890625
41089,-0.98724365234375,0.1234283447265625,-0.0869140625
41090,-0.98724365234375,0.1234283447265625,-0.0869140625
41091,-0.980377197265625,0.106964111328125,-0.080596923828125
41092,-0.97808837890625,0.09429931640625,-0.076080322265625
41093,-0.978057861328125,0.082794189453125,-0.0741729736328125
41094,-0.978057861328125,0.082794189453125,-0.0741729736328125
41095,-0.983367919921875,0.0641326904296875,-0.0731048583984375
41096,-0.9822845458984376,0.064361572265625,-0.074798583984375
41097,-0.9842681884765624,0.0808868408203125,-0.0795440673828125
41098,-0.9960479736328124,0.1028289794921875,-0.0926971435546875
41099,-1.007888793945312,0.1162872314453125,-0.1009674072265625
41100,-1.012496948242188,0.123504638671875,-0.0994415283203125
41101,-1.019989013671875,0.1278228759765625,-0.095611572265625
41102,-1.019989013671875,0.1278228759765625,-0.095611572265625
41103,-1.022003173828125,0.1295623779296875,-0.106658935546875
41104,-1.012161254882812,0.135223388671875,-0.1056060791015625
41105,-0.97113037109375,0.1298370361328125,-0.103302001953125
41106,-0.97113037109375,0.1298370361328125,-0.103302001953125
41107,-0.94940185546875,0.1458740234375,-0.098907470703125
41108,-0.948883056640625,0.166046142578125,-0.1020050048828125
41109,-0.9696044921875,0.1695404052734375,-0.1324462890625
41110,-0.9696044921875,0.1695404052734375,-0.1324462890625
41111,-0.9755096435546876,0.1597747802734375,-0.1397705078125
41112,-0.9705657958984376,0.14501953125,-0.143585205078125
41113,-0.9672393798828124,0.1438751220703125,-0.146636962890625
41114,-0.9672393798828124,0.1438751220703125,-0.146636962890625
41115,-0.969573974609375,0.153045654296875,-0.1468048095703125
41116,-0.984649658203125,0.1613006591796875,-0.1522674560546875
41117,-0.9958038330078124,0.1662139892578125,-0.1551666259765625
41118,-0.9997711181640624,0.1732940673828125,-0.1559906005859375
41119,-1.001617431640625,0.1768035888671875,-0.1573638916015625
41120,-1.004074096679688,0.180267333984375,-0.16204833984375
41121,-1.000518798828125,0.1883087158203125,-0.1671295166015625
41122,-0.990753173828125,0.193328857421875,-0.16973876953125
41123,-0.9874420166015624,0.196533203125,-0.1719512939453125
41124,-0.9881439208984376,0.1952972412109375,-0.17706298828125
41125,-0.9873504638671876,0.1792144775390625,-0.1833648681640625
41126,-0.9828643798828124,0.1559600830078125,-0.1857452392578125
41127,-0.9778594970703124,0.136260986328125,-0.1842498779296875
41128,-0.97802734375,0.1211090087890625,-0.1855621337890625
41129,-0.984283447265625,0.117950439453125,-0.194061279296875
41130,-0.9894256591796876,0.127227783203125,-0.201934814453125
41131,-0.9903717041015624,0.140411376953125,-0.208526611328125
41132,-0.9888916015625,0.155059814453125,-0.2127532958984375
41133,-0.98626708984375,0.1674346923828125,-0.213653564453125
41134,-0.98626708984375,0.1674346923828125,-0.213653564453125
41135,-0.9856719970703124,0.1813507080078125,-0.217010498046875
41136,-0.9779510498046876,0.1812286376953125,-0.2162322998046875
41137,-0.9678802490234376,0.1822662353515625,-0.2134857177734375
41138,-0.9635772705078124,0.187530517578125,-0.2130279541015625
41139,-0.9680938720703124,0.1958465576171875,-0.2128448486328125
41140,-0.9754180908203124,0.20477294921875,-0.2143707275390625
41141,-0.97711181640625,0.211395263671875,-0.2162933349609375
41142,-0.97711181640625,0.211395263671875,-0.2162933349609375
41143,-0.9722442626953124,0.225494384765625,-0.216796875
41144,-0.97418212890625,0.230255126953125,-0.21893310546875
41145,-0.980133056640625,0.23553466796875,-0.2227020263671875
41146,-0.988739013671875,0.2331085205078125,-0.2298431396484375
41147,-0.9988250732421876,0.220916748046875,-0.2390289306640625
41148,-0.9955291748046876,0.1962432861328125,-0.2442626953125
41149,-0.982025146484375,0.1675567626953125,-0.242828369140625
41150,-0.96148681640625,0.1348419189453125,-0.2387542724609375
41151,-0.931427001953125,0.10040283203125,-0.2321319580078125
41152,-0.899169921875,0.073211669921875,-0.22216796875
41153,-0.8856658935546875,0.0515594482421875,-0.21759033203125
41154,-0.8782501220703125,0.0253448486328125,-0.2173309326171875
41155,-0.87469482421875,-0.005584716796875,-0.2144927978515625
41156,-0.86968994140625,-0.031219482421875,-0.219085693359375
41157,-0.866058349609375,-0.04693603515625,-0.2242889404296875
41158,-0.8719940185546875,-0.0518951416015625,-0.2356109619140625
41159,-0.89520263671875,-0.05303955078125,-0.25164794921875
41160,-0.9347991943359376,-0.048614501953125,-0.268646240234375
41161,-0.9546356201171876,-0.0465850830078125,-0.2796478271484375
41162,-0.965606689453125,-0.03399658203125,-0.28424072265625
41163,-0.967987060546875,-0.0178070068359375,-0.285400390625
41164,-0.9598846435546876,-0.002838134765625,-0.281463623046875
41165,-0.9406280517578124,-0.004241943359375,-0.2769317626953125
41166,-0.9244537353515624,0.0063934326171875,-0.2726898193359375
41167,-0.9173126220703124,0.015472412109375,-0.2693023681640625
41168,-0.918853759765625,0.0200042724609375,-0.2609405517578125
41169,-0.9266357421875,0.0215606689453125,-0.2529449462890625
41170,-0.9266357421875,0.0215606689453125,-0.2529449462890625
41171,-0.976348876953125,0.020263671875,-0.215484619140625
41172,-1.021774291992188,0.0212249755859375,-0.1800079345703125
41173,-1.087188720703125,0.0202178955078125,-0.08685302734375
41174,-1.087188720703125,0.0202178955078125,-0.08685302734375
41175,-1.12396240234375,0.0267333984375,-0.076324462890625
41176,-1.1258544921875,0.0408782958984375,-0.0597381591796875
41177,-1.098724365234375,0.03765869140625,-0.0736083984375
41178,-1.065216064453125,0.0287933349609375,-0.139678955078125
41179,-1.040695190429688,0.004974365234375,-0.2068939208984375
41180,-1.031753540039062,-0.0194549560546875,-0.2553863525390625
41181,-1.030532836914062,-0.039886474609375,-0.27886962890625
41182,-1.0350341796875,-0.0543365478515625,-0.272918701171875
41183,-1.040603637695312,-0.0561676025390625,-0.2535400390625
41184,-1.043914794921875,-0.0445404052734375,-0.2353057861328125
41185,-1.048873901367188,-0.024505615234375,-0.2164306640625
41186,-1.05303955078125,-0.009979248046875,-0.20306396484375
41187,-1.0482177734375,-0.0041961669921875,-0.2014312744140625
41188,-1.031997680664062,-0.0029144287109375,-0.2090606689453125
41189,-1.011856079101562,-0.0044403076171875,-0.2206268310546875
41190,-0.99188232421875,-0.0092315673828125,-0.2330322265625
41191,-0.975372314453125,-0.0098419189453125,-0.2427978515625
41192,-0.9652252197265624,-0.01104736328125,-0.24951171875
41193,-0.9631195068359376,-0.011566162109375,-0.2560882568359375
41194,-0.9609527587890624,-0.013641357421875,-0.2666015625
41195,-0.960418701171875,-0.015838623046875,-0.2751617431640625
41196,-0.955902099609375,-0.0185394287109375,-0.2771453857421875
41197,-0.95233154296875,-0.02178955078125,-0.2745361328125
41198,-0.9481201171875,-0.0277557373046875,-0.2728271484375
41199,-0.94549560546875,-0.030059814453125,-0.2713775634765625
41200,-0.939666748046875,-0.0279541015625,-0.276275634765625
41201,-0.923126220703125,-0.0216217041015625,-0.2799835205078125
41202,-0.923126220703125,-0.0216217041015625,-0.2799835205078125
41203,-0.921966552734375,-0.018524169921875,-0.2808685302734375
41204,-0.9270782470703124,-0.01141357421875,-0.2782745361328125
41205,-0.93560791015625,-0.0040740966796875,-0.2704315185546875
41206,-0.93560791015625,-0.0040740966796875,-0.2704315185546875
41207,-0.9484405517578124,-0.010986328125,-0.2562103271484375
41208,-0.949066162109375,-0.0237579345703125,-0.26123046875
41209,-0.9378509521484376,-0.057891845703125,-0.2850799560546875
41210,-0.9378509521484376,-0.057891845703125,-0.2850799560546875
41211,-0.928680419921875,-0.077911376953125,-0.3038787841796875
41212,-0.921966552734375,-0.0937957763671875,-0.31585693359375
41213,-0.9181060791015624,-0.1106414794921875,-0.3320770263671875
41214,-0.911712646484375,-0.125885009765625,-0.34649658203125
41215,-0.90777587890625,-0.1395111083984375,-0.3519439697265625
41216,-0.9079132080078124,-0.1549072265625,-0.3616180419921875
41217,-0.911346435546875,-0.1645965576171875,-0.3667755126953125
41218,-0.9210662841796876,-0.1674652099609375,-0.3636474609375
41219,-0.934295654296875,-0.164337158203125,-0.3601531982421875
41220,-0.9446258544921876,-0.1520538330078125,-0.3544158935546875
41221,-0.9479522705078124,-0.141845703125,-0.355865478515625
41222,-0.9444732666015624,-0.1391448974609375,-0.36407470703125
41223,-0.9365997314453124,-0.140716552734375,-0.3804168701171875
41224,-0.927093505859375,-0.145263671875,-0.400360107421875
41225,-0.9197845458984376,-0.1494140625,-0.423126220703125
41226,-0.9182586669921876,-0.15203857421875,-0.443634033203125
41227,-0.9172821044921876,-0.1541900634765625,-0.4637908935546875
41228,-0.9144134521484376,-0.1548309326171875,-0.4533843994140625
41229,-0.91961669921875,-0.1667938232421875,-0.479644775390625
41230,-0.91961669921875,-0.1667938232421875,-0.479644775390625
41231,-0.92041015625,-0.171630859375,-0.4862823486328125
41232,-0.9271392822265624,-0.16754150390625,-0.4989776611328125
41233,-0.944122314453125,-0.127166748046875,-0.50665283203125
41234,-0.944122314453125,-0.127166748046875,-0.50665283203125
41235,-0.9434967041015624,-0.10565185546875,-0.4989471435546875
41236,-0.9459686279296876,-0.0779571533203125,-0.4937591552734375
41237,-0.957611083984375,-0.050079345703125,-0.498260498046875
41238,-0.973724365234375,-0.024566650390625,-0.5024261474609375
41239,-0.9943695068359376,0.0034942626953125,-0.508880615234375
41240,-0.9868011474609376,0.0186920166015625,-0.515167236328125
41241,-0.97100830078125,0.02642822265625,-0.503509521484375
41242,-0.97100830078125,0.02642822265625,-0.503509521484375
41243,-0.97100830078125,0.02642822265625,-0.503509521484375
41244,-0.9141387939453124,0.00189208984375,-0.492095947265625
41245,-0.9232025146484376,-0.0098114013671875,-0.46490478515625
41246,-0.946380615234375,-0.0035552978515625,-0.4279632568359375
41247,-0.9860382080078124,0.0387725830078125,-0.365325927734375
41248,-1.033767700195312,0.09295654296875,-0.3211669921875
41249,-1.054229736328125,0.178375244140625,-0.259063720703125
41250,-1.058349609375,0.25048828125,-0.1876678466796875
41251,-1.067596435546875,0.2894134521484375,-0.115692138671875
41252,-1.108383178710938,0.285614013671875,-0.0775909423828125
41253,-1.168212890625,0.2236175537109375,-0.0473175048828125
41254,-1.168212890625,0.2236175537109375,-0.0473175048828125
41255,-1.141998291015625,0.192474365234375,0.0768280029296875
41256,-1.130691528320312,0.1813812255859375,0.03216552734375
41257,-1.132568359375,0.19329833984375,-0.003204345703125
41258,-1.124771118164062,0.1964874267578125,-0.0558013916015625
41259,-1.130813598632812,0.220916748046875,-0.131439208984375
41260,-1.133590698242188,0.2490997314453125,-0.2225341796875
41261,-1.112884521484375,0.221527099609375,-0.2243499755859375
41262,-1.085693359375,0.210784912109375,-0.25372314453125
41263,-1.069412231445312,0.223663330078125,-0.2999267578125
41264,-1.023910522460938,0.24322509765625,-0.32421875
41265,-0.9700775146484376,0.282501220703125,-0.38671875
41266,-0.8784027099609375,0.3007354736328125,-0.4103240966796875
41267,-0.82135009765625,0.27252197265625,-0.4756622314453125
41268,-0.7979278564453125,0.245574951171875,-0.5143890380859375
41269,-0.794342041015625,0.2300567626953125,-0.5112152099609375
41270,-0.7904510498046875,0.2180938720703125,-0.4711456298828125
41271,-0.779632568359375,0.201568603515625,-0.3697357177734375
41272,-0.792083740234375,0.1817626953125,-0.3148956298828125
41273,-0.856231689453125,0.1636810302734375,-0.2899169921875
41274,-0.856231689453125,0.1636810302734375,-0.2899169921875
41275,-0.952117919921875,0.0571746826171875,-0.08489990234375
41276,-0.9900665283203124,0.004180908203125,-0.02398681640625
41277,-1.012603759765625,-0.0516357421875,0.0452117919921875
41278,-0.9962615966796876,-0.0714569091796875,0.0954437255859375
41279,-0.963348388671875,-0.063507080078125,0.095855712890625
41280,-0.9060516357421876,-0.050537109375,0.05419921875
41281,-0.887969970703125,-0.0602569580078125,-0.015411376953125
41282,-0.88006591796875,-0.0775299072265625,-0.1128387451171875
41283,-0.874847412109375,-0.0755767822265625,-0.2057037353515625
41284,-0.873626708984375,-0.0740203857421875,-0.2576904296875
41285,-0.86090087890625,-0.068145751953125,-0.270782470703125
41286,-0.8595428466796875,-0.05682373046875,-0.2593841552734375
41287,-0.8473663330078125,-0.05889892578125,-0.2115325927734375
41288,-0.853790283203125,-0.05670166015625,-0.157379150390625
41289,-0.86358642578125,-0.0442962646484375,-0.1161651611328125
41290,-0.8663330078125,-0.0289459228515625,-0.09014892578125
41291,-0.8538818359375,0.0092315673828125,-0.0817413330078125
41292,-0.808685302734375,0.076812744140625,-0.0863800048828125
41293,-0.774749755859375,0.173614501953125,-0.041900634765625
41294,-0.774749755859375,0.173614501953125,-0.041900634765625
41295,-0.8253021240234375,0.1650390625,-0.0541229248046875
41296,-0.8873138427734375,0.14837646484375,-0.0763092041015625
41297,-0.96710205078125,0.1136016845703125,-0.0237884521484375
41298,-0.96710205078125,0.1136016845703125,-0.0237884521484375
41299,-0.9882049560546876,0.089141845703125,0.032806396484375
41300,-1.011581420898438,0.05194091796875,0.0806884765625
41301,-1.051376342773438,0.006317138671875,0.1220703125
41302,-1.095565795898438,-0.038238525390625,0.155853271484375
41303,-1.126068115234375,-0.075469970703125,0.180694580078125
41304,-1.141830444335938,-0.1029205322265625,0.18231201171875
41305,-1.15142822265625,-0.1233062744140625,0.1569366455078125
41306,-1.162322998046875,-0.143341064453125,0.1056976318359375
41307,-1.185623168945312,-0.1542205810546875,0.06195068359375
41308,-1.225555419921875,-0.1739501953125,0.0295257568359375
41309,-1.310882568359375,-0.1694183349609375,0.00152587890625
41310,-1.46826171875,-0.1149139404296875,-9.1552734375e-05
41311,-1.62646484375,-0.0075225830078125,-0.035125732421875
41312,-1.62493896484375,0.10943603515625,-0.1889801025390625
41313,-1.444854736328125,0.2383880615234375,-0.3417510986328125
41314,-1.158096313476562,0.3558349609375,-0.4220428466796875
41315,-0.913665771484375,0.40765380859375,-0.45489501953125
41316,-0.8067474365234375,0.377685546875,-0.4211578369140625
41317,-0.86138916015625,0.29644775390625,-0.3431396484375
41318,-0.938720703125,0.2140960693359375,-0.23065185546875
41319,-0.9901885986328124,0.0894775390625,-0.161529541015625
41320,-0.93829345703125,0.005340576171875,-0.2017974853515625
41321,-0.85614013671875,-0.0192718505859375,-0.37091064453125
41322,-0.79412841796875,-0.0222320556640625,-0.4596099853515625
41323,-0.7530059814453125,-0.028411865234375,-0.5531768798828125
41324,-0.7653045654296875,-0.031646728515625,-0.57196044921875
41325,-0.795135498046875,-0.048614501953125,-0.5618743896484375
41326,-0.8380279541015625,-0.0616607666015625,-0.5487060546875
41327,-0.915557861328125,-0.0630035400390625,-0.5052032470703125
41328,-0.9701995849609376,-0.055908203125,-0.4217681884765625
41329,-1.007278442382812,-0.02117919921875,-0.304473876953125
41330,-1.030517578125,0.0295257568359375,-0.18096923828125
41331,-1.048187255859375,0.0912628173828125,-0.0760040283203125
41332,-1.047225952148438,0.1265106201171875,-0.0152587890625
41333,-1.031219482421875,0.127227783203125,-0.0254058837890625
41334,-1.02813720703125,0.1057281494140625,-0.0699920654296875
41335,-1.003936767578125,0.0673675537109375,-0.1392059326171875
41336,-0.9552459716796876,-0.0046234130859375,-0.1808624267578125
41337,-0.900238037109375,-0.04656982421875,-0.2317962646484375
41338,-0.8639984130859375,-0.04058837890625,-0.2536468505859375
41339,-0.8264007568359375,-0.0377349853515625,-0.2560882568359375
41340,-0.8121795654296875,-0.0369415283203125,-0.262115478515625
41341,-0.8351898193359375,-0.041534423828125,-0.2538909912109375
41342,-0.8351898193359375,-0.041534423828125,-0.2538909912109375
41343,-0.84124755859375,-0.0296630859375,-0.2303009033203125
41344,-0.8544921875,-0.017913818359375,-0.215606689453125
41345,-0.86468505859375,-0.01202392578125,-0.1969451904296875
41346,-0.8707427978515625,-0.0028228759765625,-0.1782684326171875
41347,-0.8768463134765625,0.013885498046875,-0.160400390625
41348,-0.88232421875,0.0299072265625,-0.1384124755859375
41349,-0.8878173828125,0.039825439453125,-0.1224822998046875
41350,-0.8870086669921875,0.0446929931640625,-0.125579833984375
41351,-0.8765716552734375,0.04400634765625,-0.1278228759765625
41352,-0.862091064453125,0.03179931640625,-0.1309661865234375
41353,-0.854339599609375,0.0107421875,-0.140106201171875
41354,-0.8466644287109375,-0.019500732421875,-0.156524658203125
41355,-0.84820556640625,-0.049163818359375,-0.17138671875
41356,-0.8644561767578125,-0.079864501953125,-0.1814117431640625
41357,-0.8780670166015625,-0.1029205322265625,-0.1890869140625
41358,-0.897674560546875,-0.1169281005859375,-0.1937408447265625
41359,-0.9127655029296876,-0.1265411376953125,-0.2070770263671875
41360,-0.933441162109375,-0.127960205078125,-0.221893310546875
41361,-0.9615478515625,-0.13250732421875,-0.2320709228515625
41362,-0.9739990234375,-0.1404266357421875,-0.239990234375
41363,-0.981597900390625,-0.1400146484375,-0.239349365234375
41364,-0.9988555908203124,-0.134735107421875,-0.2481231689453125
41365,-1.012985229492188,-0.1236114501953125,-0.25592041015625
41366,-1.038772583007812,-0.1094970703125,-0.267059326171875
41367,-1.072265625,-0.098602294921875,-0.2751617431640625
41368,-1.10308837890625,-0.0952301025390625,-0.2747039794921875
41369,-1.125045776367188,-0.1167144775390625,-0.2696380615234375
41370,-1.127609252929688,-0.1531829833984375,-0.263427734375
41371,-1.117813110351562,-0.180328369140625,-0.246002197265625
41372,-1.114242553710938,-0.2067108154296875,-0.2293853759765625
41373,-1.128936767578125,-0.2235870361328125,-0.2266998291015625
41374,-1.180267333984375,-0.228271484375,-0.244293212890625
41375,-1.278549194335938,-0.227264404296875,-0.280975341796875
41376,-1.396484375,-0.2235870361328125,-0.334320068359375
41377,-1.474899291992188,-0.225311279296875,-0.3850555419921875
41378,-1.484756469726562,-0.223968505859375,-0.4075469970703125
41379,-1.428131103515625,-0.1926422119140625,-0.4061279296875
41380,-1.321853637695312,-0.1298065185546875,-0.3842010498046875
41381,-1.167282104492188,-0.047943115234375,-0.3374786376953125
41382,-0.9910125732421876,0.0473785400390625,-0.320159912109375
41383,-0.8281707763671875,0.1451416015625,-0.314361572265625
41384,-0.6989898681640625,0.2230987548828125,-0.28704833984375
41385,-0.6235198974609375,0.3068389892578125,-0.2704620361328125
41386,-0.60418701171875,0.3970184326171875,-0.276947021484375
41387,-0.6454010009765625,0.4668426513671875,-0.279754638671875
41388,-0.70318603515625,0.5558624267578125,-0.2920989990234375
41389,-0.7790985107421875,0.6607513427734375,-0.3340911865234375
41390,-0.8626708984375,0.7397003173828125,-0.3925628662109375
41391,-0.9456634521484376,0.7595672607421875,-0.4711761474609375
41392,-0.9872283935546876,0.68603515625,-0.530792236328125
41393,-1.023056030273438,0.3968963623046875,-0.537384033203125
41394,-1.023056030273438,0.3968963623046875,-0.537384033203125
41395,-1.065826416015625,0.2452239990234375,-0.48138427734375
41396,-1.065109252929688,0.0749664306640625,-0.396942138671875
41397,-1.058151245117188,0.009735107421875,-0.3280029296875
41398,-1.135818481445312,0.0001220703125,-0.466217041015625
41399,-1.1798095703125,-0.0452880859375,0.0529327392578125
41400,-1.162673950195312,-0.1899871826171875,0.0689697265625
41401,-1.118942260742188,-0.3272247314453125,0.159027099609375
41402,-1.118942260742188,-0.3272247314453125,0.159027099609375
41403,-0.9904327392578124,-0.2635650634765625,0.3189697265625
41404,-0.9298248291015624,-0.1750335693359375,0.3024139404296875
41405,-0.856231689453125,-0.100860595703125,0.246917724609375
41406,-0.8002471923828125,-0.0107879638671875,0.1164093017578125
41407,-0.78094482421875,0.0716094970703125,-0.0064544677734375
41408,-0.7658233642578125,0.1434326171875,-0.132415771484375
41409,-0.75347900390625,0.223541259765625,-0.243896484375
41410,-0.742462158203125,0.27197265625,-0.3296966552734375
41411,-0.7210693359375,0.2643890380859375,-0.3727874755859375
41412,-0.6882171630859375,0.23968505859375,-0.360382080078125
41413,-0.6822967529296875,0.102294921875,-0.2194366455078125
41414,-0.6822967529296875,0.102294921875,-0.2194366455078125
41415,-0.71746826171875,0.03948974609375,-0.1768951416015625
41416,-0.75714111328125,0.0104522705078125,-0.1455230712890625
41417,-0.8953094482421875,-0.0023193359375,-0.0650634765625
41418,-0.8953094482421875,-0.0023193359375,-0.0650634765625
41419,-0.994964599609375,-0.0425262451171875,-0.0420074462890625
41420,-1.0716552734375,-0.0719757080078125,0.0021209716796875
41421,-1.1024169921875,-0.0894317626953125,0.0412445068359375
41422,-1.160888671875,-0.0985107421875,0.08642578125
41423,-1.152099609375,-0.1285552978515625,0.116455078125
41424,-1.100662231445312,-0.1514434814453125,0.1105499267578125
41425,-1.062362670898438,-0.1721038818359375,0.12548828125
41426,-1.055679321289062,-0.1763763427734375,0.138916015625
41427,-1.053497314453125,-0.175628662109375,0.1479034423828125
41428,-1.056838989257812,-0.165618896484375,0.152984619140625
41429,-1.057693481445312,-0.14666748046875,0.1513824462890625
41430,-1.057693481445312,-0.14666748046875,0.1513824462890625
41431,-1.056716918945312,-0.0954742431640625,0.1328887939453125
41432,-1.044906616210938,-0.0723114013671875,0.113739013671875
41433,-1.036972045898438,-0.0615692138671875,0.0941925048828125
41434,-1.029052734375,-0.054351806640625,0.0513153076171875
41435,-1.0386962890625,-0.0391082763671875,-0.0023040771484375
41436,-1.07781982421875,-0.015716552734375,-0.072998046875
41437,-1.143356323242188,0.03851318359375,-0.18048095703125
41438,-1.220748901367188,0.1151580810546875,-0.2719879150390625
41439,-1.256317138671875,0.219573974609375,-0.3635406494140625
41440,-1.2747802734375,0.2408905029296875,-0.3529815673828125
41441,-1.221969604492188,0.278076171875,-0.3645477294921875
41442,-1.134368896484375,0.2928466796875,-0.31988525390625
41443,-1.055038452148438,0.2884674072265625,-0.2908782958984375
41444,-0.999786376953125,0.2827911376953125,-0.242401123046875
41445,-0.97198486328125,0.2675628662109375,-0.20587158203125
41446,-0.960296630859375,0.24609375,-0.1621551513671875
41447,-0.954925537109375,0.2220611572265625,-0.1168975830078125
41448,-0.9421234130859376,0.1863555908203125,-0.0913238525390625
41449,-0.9275360107421876,0.1387176513671875,-0.1082763671875
41450,-0.92822265625,0.069427490234375,-0.17327880859375
41451,-0.9446563720703124,0.0147552490234375,-0.25604248046875
41452,-0.8492584228515625,0.03582763671875,-0.290618896484375
41453,-0.8421783447265625,0.016845703125,-0.36553955078125
41454,-0.872955322265625,-0.0004425048828125,-0.463348388671875
41455,-0.8818359375,-0.0082244873046875,-0.480194091796875
41456,-0.8866729736328125,-0.0029144287109375,-0.48944091796875
41457,-0.9275054931640624,0.015777587890625,-0.4600372314453125
41458,-0.9387359619140624,0.052337646484375,-0.377532958984375
41459,-0.947601318359375,0.0844879150390625,-0.31964111328125
41460,-0.97210693359375,0.1130828857421875,-0.2812042236328125
41461,-1.001388549804688,0.1329498291015625,-0.2468414306640625
41462,-1.024429321289062,0.129608154296875,-0.20587158203125
41463,-1.03131103515625,0.1128387451171875,-0.17218017578125
41464,-1.0355224609375,0.097808837890625,-0.14715576171875
41465,-1.030868530273438,0.0760955810546875,-0.1211700439453125
41466,-1.01654052734375,0.0462646484375,-0.1015472412109375
41467,-1.00115966796875,0.007904052734375,-0.1005706787109375
41468,-0.99578857421875,-0.0360565185546875,-0.1143951416015625
41469,-0.96240234375,-0.06243896484375,-0.146270751953125
41470,-0.9385986328125,-0.0861968994140625,-0.190521240234375
41471,-0.9192962646484376,-0.0753326416015625,-0.21734619140625
41472,-0.9217071533203124,-0.0560302734375,-0.22479248046875
41473,-0.9257659912109376,-0.0353240966796875,-0.2236785888671875
41474,-0.927276611328125,-0.009613037109375,-0.2215576171875
41475,-0.9259033203125,0.011199951171875,-0.2181243896484375
41476,-0.923828125,0.0256805419921875,-0.2082061767578125
41477,-0.9235992431640624,0.03997802734375,-0.20654296875
41478,-0.9235992431640624,0.03997802734375,-0.20654296875
41479,-0.9173126220703124,0.039703369140625,-0.215667724609375
41480,-0.91302490234375,0.031219482421875,-0.2277984619140625
41481,-0.913665771484375,0.0189361572265625,-0.2399444580078125
41482,-0.91375732421875,0.0091094970703125,-0.244415283203125
41483,-0.9117584228515624,-0.0019073486328125,-0.25799560546875
41484,-0.9409637451171876,-0.01690673828125,-0.2828826904296875
41485,-0.9332733154296876,-0.019805908203125,-0.2639007568359375
41486,-0.937774658203125,-0.015869140625,-0.25140380859375
41487,-0.95458984375,-0.029876708984375,-0.2651214599609375
41488,-0.9608917236328124,-0.027923583984375,-0.261688232421875
41489,-0.971282958984375,-0.023345947265625,-0.2445220947265625
41490,-0.980804443359375,-0.03155517578125,-0.2434539794921875
41491,-0.9949493408203124,-0.0392913818359375,-0.2486419677734375
41492,-1.007186889648438,-0.0415496826171875,-0.2412261962890625
41493,-1.015640258789062,-0.046905517578125,-0.2332916259765625
41494,-1.017776489257812,-0.051910400390625,-0.2277374267578125
41495,-1.013534545898438,-0.0523681640625,-0.2172393798828125
41496,-1.010910034179688,-0.052490234375,-0.2055511474609375
41497,-1.004898071289062,-0.0555419921875,-0.20068359375
41498,-1.003921508789062,-0.05853271484375,-0.20404052734375
41499,-1.007400512695312,-0.065765380859375,-0.2085113525390625
41500,-1.002182006835938,-0.0666046142578125,-0.220794677734375
41501,-0.9835357666015624,-0.0770416259765625,-0.2295684814453125
41502,-0.9835357666015624,-0.0770416259765625,-0.2295684814453125
41503,-0.9668731689453124,-0.074371337890625,-0.2333984375
41504,-0.95233154296875,-0.0734100341796875,-0.237579345703125
41505,-0.9400482177734376,-0.07415771484375,-0.2410125732421875
41506,-0.9301605224609376,-0.076202392578125,-0.2433013916015625
41507,-0.922210693359375,-0.0815582275390625,-0.2476654052734375
41508,-0.9149169921875,-0.088897705078125,-0.2500457763671875
41509,-0.909149169921875,-0.094329833984375,-0.2497711181640625
41510,-0.902069091796875,-0.0985107421875,-0.248504638671875
41511,-0.898040771484375,-0.10272216796875,-0.2450408935546875
41512,-0.89990234375,-0.102996826171875,-0.2461395263671875
41513,-0.9162445068359376,-0.100860595703125,-0.255584716796875
41514,-0.94427490234375,-0.0947723388671875,-0.270721435546875
41515,-0.9870147705078124,-0.08050537109375,-0.2880096435546875
41516,-1.0279541015625,-0.0589599609375,-0.30145263671875
41517,-1.055679321289062,-0.0330810546875,-0.306549072265625
41518,-1.05517578125,-0.0072021484375,-0.29803466796875
41519,-1.02978515625,0.01177978515625,-0.2825164794921875
41520,-1.00799560546875,0.016021728515625,-0.266021728515625
41521,-1.003753662109375,0.0134124755859375,-0.2532958984375
41522,-1.011260986328125,0.0011138916015625,-0.2498016357421875
41523,-1.021987915039062,-0.017608642578125,-0.251068115234375
41524,-1.027664184570312,-0.041473388671875,-0.2544403076171875
41525,-1.02288818359375,-0.0662841796875,-0.2580413818359375
41526,-1.015365600585938,-0.0882110595703125,-0.2581787109375
41527,-1.00079345703125,-0.102752685546875,-0.25189208984375
41528,-0.98712158203125,-0.1052703857421875,-0.2419586181640625
41529,-0.982391357421875,-0.0868072509765625,-0.233062744140625
41530,-0.9824371337890624,-0.052215576171875,-0.2232818603515625
41531,-0.985687255859375,-0.011627197265625,-0.205902099609375
41532,-0.9915313720703124,0.0298309326171875,-0.1779327392578125
41533,-0.9984130859375,0.0711669921875,-0.1465911865234375
41534,-1.005096435546875,0.10791015625,-0.119140625
41535,-1.016342163085938,0.1334381103515625,-0.100067138671875
41536,-1.0166015625,0.1593475341796875,-0.0919647216796875
41537,-1.01068115234375,0.1841888427734375,-0.0908203125
41538,-1.01068115234375,0.1841888427734375,-0.0908203125
41539,-1.006576538085938,0.1880340576171875,-0.091033935546875
41540,-1.000503540039062,0.1810302734375,-0.08721923828125
41541,-1.006484985351562,0.1614532470703125,-0.1121826171875
41542,-1.011795043945312,0.1515960693359375,-0.12274169921875
41543,-1.011795043945312,0.1515960693359375,-0.12274169921875
41544,-1.009017944335938,0.1440887451171875,-0.1396484375
41545,-0.9916534423828124,0.1477203369140625,-0.1513824462890625
41546,-0.980987548828125,0.1483154296875,-0.1544647216796875
41547,-0.9801025390625,0.145111083984375,-0.152984619140625
41548,-0.97552490234375,0.1427764892578125,-0.138671875
41549,-0.9776458740234376,0.1429901123046875,-0.120330810546875
41550,-0.996307373046875,0.141876220703125,-0.105010986328125
41551,-1.010238647460938,0.1457366943359375,-0.0888671875
41552,-1.022964477539062,0.15234375,-0.063751220703125
41553,-1.039260864257812,0.1622161865234375,-0.0570068359375
41554,-1.045120239257812,0.17694091796875,-0.040435791015625
41555,-1.039154052734375,0.19305419921875,-0.0386810302734375
41556,-1.025604248046875,0.2034149169921875,-0.0450592041015625
41557,-1.004440307617188,0.20855712890625,-0.064117431640625
41558,-0.976226806640625,0.212188720703125,-0.0877838134765625
41559,-0.9506683349609376,0.2121124267578125,-0.116363525390625
41560,-0.9340057373046876,0.206268310546875,-0.1446685791015625
41561,-0.9368896484375,0.1913909912109375,-0.173126220703125
41562,-0.9368896484375,0.1913909912109375,-0.173126220703125
41563,-0.945037841796875,0.188690185546875,-0.16278076171875
41564,-0.9514923095703124,0.1885986328125,-0.143341064453125
41565,-0.95526123046875,0.1902008056640625,-0.12451171875
41566,-0.962158203125,0.18988037109375,-0.1022186279296875
41567,-0.9709014892578124,0.1865386962890625,-0.0825347900390625
41568,-0.97760009765625,0.17974853515625,-0.0661163330078125
41569,-0.986083984375,0.1719207763671875,-0.054595947265625
41570,-0.987396240234375,0.1626434326171875,-0.0596771240234375
41571,-0.97760009765625,0.1495513916015625,-0.0738525390625
41572,-0.9671783447265624,0.132537841796875,-0.094390869140625
41573,-0.9550018310546876,0.0995330810546875,-0.1284637451171875
41574,-0.9550018310546876,0.0995330810546875,-0.1284637451171875
41575,-0.9555816650390624,0.0868988037109375,-0.13665771484375
41576,-0.9564361572265624,0.0726470947265625,-0.1426239013671875
41577,-0.959991455078125,0.0607147216796875,-0.1414642333984375
41578,-0.9592742919921876,0.0543670654296875,-0.1338958740234375
41579,-0.956298828125,0.0480194091796875,-0.119415283203125
41580,-0.9599456787109376,0.040252685546875,-0.1075439453125
41581,-0.973785400390625,0.0343017578125,-0.10064697265625
41582,-0.989837646484375,0.0285491943359375,-0.0948333740234375
41583,-1.003646850585938,0.0198516845703125,-0.0950775146484375
41584,-1.010833740234375,0.0071258544921875,-0.0811004638671875
41585,-1.01690673828125,-0.0047607421875,-0.0721282958984375
41586,-1.021087646484375,-0.01202392578125,-0.05853271484375
41587,-1.023269653320312,-0.012054443359375,-0.0502777099609375
41588,-1.018569946289062,-0.0113372802734375,-0.0436553955078125
41589,-1.009902954101562,-0.0067596435546875,-0.0398101806640625
41590,-1.00390625,0.0059356689453125,-0.0388336181640625
41591,-1.00408935546875,0.020294189453125,-0.04180908203125
41592,-1.013885498046875,0.033538818359375,-0.0461883544921875
41593,-1.031845092773438,0.0480194091796875,-0.07470703125
41594,-1.031845092773438,0.0480194091796875,-0.07470703125
41595,-1.028945922851562,0.08050537109375,-0.1444549560546875
41596,-1.006881713867188,0.088592529296875,-0.163421630859375
41597,-0.9987030029296876,0.0893096923828125,-0.167449951171875
41598,-0.9853973388671876,0.0916900634765625,-0.1597137451171875
41599,-0.9736480712890624,0.100006103515625,-0.153045654296875
41600,-0.9570465087890624,0.1118316650390625,-0.1434326171875
41601,-0.937530517578125,0.1256256103515625,-0.1268463134765625
41602,-0.92767333984375,0.1289520263671875,-0.1100616455078125
41603,-0.933135986328125,0.1229400634765625,-0.1058807373046875
41604,-0.944427490234375,0.109100341796875,-0.1160430908203125
41605,-0.953033447265625,0.0945281982421875,-0.1286163330078125
41606,-0.9632415771484376,0.079437255859375,-0.1390380859375
41607,-0.972015380859375,0.0662994384765625,-0.1509552001953125
41608,-0.9775848388671876,0.05426025390625,-0.1592254638671875
41609,-0.982696533203125,0.025970458984375,-0.1649627685546875
41610,-0.982696533203125,0.025970458984375,-0.1649627685546875
41611,-0.9840545654296876,0.0160064697265625,-0.16644287109375
41612,-0.98626708984375,0.0145111083984375,-0.1742401123046875
41613,-0.9861297607421876,0.01995849609375,-0.1805419921875
41614,-0.979827880859375,0.02447509765625,-0.1820526123046875
41615,-0.97479248046875,0.030426025390625,-0.1799468994140625
41616,-0.972320556640625,0.035064697265625,-0.1753387451171875
41617,-0.9746856689453124,0.0376739501953125,-0.169281005859375
41618,-0.9765625,0.0407562255859375,-0.1622314453125
41619,-0.9768829345703124,0.0459747314453125,-0.15606689453125
41620,-0.9779052734375,0.049774169921875,-0.1558685302734375
41621,-0.9791259765625,0.0527496337890625,-0.160736083984375
41622,-0.9756927490234376,0.053009033203125,-0.166778564453125
41623,-0.9712066650390624,0.0529937744140625,-0.1693115234375
41624,-0.970794677734375,0.053863525390625,-0.171173095703125
41625,-0.971405029296875,0.0547332763671875,-0.16961669921875
41626,-0.9766387939453124,0.0554046630859375,-0.16705322265625
41627,-0.982269287109375,0.055694580078125,-0.16510009765625
41628,-0.98468017578125,0.050872802734375,-0.1633453369140625
41629,-0.9874267578125,0.04644775390625,-0.1604766845703125
41630,-0.988037109375,0.0447540283203125,-0.15777587890625
41631,-0.990142822265625,0.0445404052734375,-0.15777587890625
41632,-0.9918212890625,0.0446014404296875,-0.1576690673828125
41633,-0.994171142578125,0.0446319580078125,-0.158599853515625
41634,-0.9959716796875,0.04608154296875,-0.161285400390625
41635,-0.9948272705078124,0.0480194091796875,-0.16436767578125
41636,-0.9914093017578124,0.0477142333984375,-0.170562744140625
41637,-0.9872283935546876,0.0463409423828125,-0.178741455078125
41638,-0.98126220703125,0.0445556640625,-0.1855010986328125
41639,-0.9735870361328124,0.0419464111328125,-0.1897430419921875
41640,-0.970367431640625,0.0388336181640625,-0.19281005859375
41641,-0.9678955078125,0.0378875732421875,-0.1949310302734375
41642,-0.9678955078125,0.0378875732421875,-0.1949310302734375
41643,-0.96917724609375,0.0350799560546875,-0.191986083984375
41644,-0.9714508056640624,0.0349273681640625,-0.1891326904296875
41645,-0.9745941162109376,0.0357208251953125,-0.1846771240234375
41646,-0.977691650390625,0.0373992919921875,-0.1798248291015625
41647,-0.9810791015625,0.0384979248046875,-0.1793212890625
41648,-0.9829559326171876,0.04010009765625,-0.1780242919921875
41649,-0.9828033447265624,0.0396270751953125,-0.178009033203125
41650,-0.9817352294921876,0.0379180908203125,-0.17919921875
41651,-0.9810028076171876,0.03839111328125,-0.1799774169921875
41652,-0.9807281494140624,0.038482666015625,-0.181549072265625
41653,-0.9811859130859376,0.038787841796875,-0.182159423828125
41654,-0.9808502197265624,0.039794921875,-0.1830902099609375
41655,-0.980194091796875,0.0420379638671875,-0.1827850341796875
41656,-0.9815521240234376,0.0430145263671875,-0.1805267333984375
41657,-0.98394775390625,0.0448455810546875,-0.1807708740234375
41658,-0.984588623046875,0.046112060546875,-0.1797332763671875
41659,-0.984039306640625,0.04730224609375,-0.177764892578125
41660,-0.9837799072265624,0.0463714599609375,-0.177032470703125
41661,-0.981109619140625,0.0447998046875,-0.17559814453125
41662,-0.981109619140625,0.0447998046875,-0.17559814453125
41663,-0.97967529296875,0.0435791015625,-0.1767578125
41664,-0.9801177978515624,0.04388427734375,-0.177215576171875
41665,-0.9797821044921876,0.04376220703125,-0.1791534423828125
41666,-0.9808197021484376,0.044403076171875,-0.1819305419921875
41667,-0.981414794921875,0.0448760986328125,-0.1835174560546875
41668,-0.980865478515625,0.046173095703125,-0.18402099609375
41669,-0.97955322265625,0.0455474853515625,-0.1862640380859375
41670,-0.97955322265625,0.0455474853515625,-0.1862640380859375
41671,-0.9807891845703124,0.043426513671875,-0.18682861328125
41672,-0.9809112548828124,0.0410003662109375,-0.1859130859375
41673,-0.98138427734375,0.0393829345703125,-0.184967041015625
41674,-0.980987548828125,0.037689208984375,-0.1834869384765625
41675,-0.980377197265625,0.0373382568359375,-0.1812744140625
41676,-0.9793701171875,0.0381011962890625,-0.1808319091796875
41677,-0.9783935546875,0.0395660400390625,-0.179290771484375
41678,-0.978607177734375,0.0400390625,-0.178802490234375
41679,-0.981414794921875,0.0398406982421875,-0.179473876953125
41680,-0.98321533203125,0.0409698486328125,-0.1809844970703125
41681,-0.98291015625,0.041290283203125,-0.1817626953125
41682,-0.9814300537109376,0.0405120849609375,-0.1823883056640625
41683,-0.9806976318359376,0.0391082763671875,-0.18365478515625
41684,-0.980133056640625,0.038055419921875,-0.1860198974609375
41685,-0.9803466796875,0.0380096435546875,-0.1870880126953125
41686,-0.979339599609375,0.037811279296875,-0.1903533935546875
41687,-0.9791412353515624,0.0386505126953125,-0.1918487548828125
41688,-0.9790802001953124,0.0402069091796875,-0.191314697265625
41689,-0.9795684814453124,0.04180908203125,-0.1918182373046875
41690,-0.9796600341796876,0.04302978515625,-0.1909332275390625
41691,-0.9796142578125,0.0434112548828125,-0.1896820068359375
41692,-0.9798736572265624,0.04278564453125,-0.18963623046875
41693,-0.981536865234375,0.0399627685546875,-0.1906280517578125
41694,-0.9809417724609376,0.037567138671875,-0.19061279296875
41695,-0.9801788330078124,0.036865234375,-0.192047119140625
41696,-0.979339599609375,0.0369873046875,-0.19244384765625
41697,-0.9791259765625,0.038665771484375,-0.1923980712890625
41698,-0.9767303466796876,0.0415191650390625,-0.1937408447265625
41699,-0.9760284423828124,0.0429840087890625,-0.1955413818359375
41700,-0.9766693115234376,0.0438232421875,-0.1950225830078125
41701,-0.9761505126953124,0.0437469482421875,-0.19427490234375
41702,-0.978424072265625,0.044769287109375,-0.1952667236328125
41703,-0.9800567626953124,0.04425048828125,-0.1944122314453125
41704,-0.9803466796875,0.0441131591796875,-0.19451904296875
41705,-0.9812469482421876,0.0442352294921875,-0.1934967041015625
41706,-0.9814300537109376,0.04364013671875,-0.193817138671875
41707,-0.980682373046875,0.045166015625,-0.19586181640625
41708,-0.9795989990234376,0.046875,-0.1959381103515625
41709,-0.9755401611328124,0.0480499267578125,-0.1964874267578125
41710,-0.972991943359375,0.048553466796875,-0.19622802734375
41711,-0.9736175537109376,0.0472259521484375,-0.196533203125
41712,-0.9762725830078124,0.0443572998046875,-0.1974945068359375
41713,-0.9761810302734376,0.04205322265625,-0.197296142578125
41714,-0.9766998291015624,0.0406951904296875,-0.1958160400390625
41715,-0.97833251953125,0.0393524169921875,-0.1942138671875
41716,-0.9785003662109376,0.0394744873046875,-0.194091796875
41717,-0.9797515869140624,0.04083251953125,-0.1942138671875
41718,-0.9793548583984376,0.0427703857421875,-0.194854736328125
41719,-0.9788818359375,0.045318603515625,-0.1948089599609375
41720,-0.979522705078125,0.04400634765625,-0.195343017578125
41721,-0.9809112548828124,0.04150390625,-0.19537353515625
41722,-0.9803314208984376,0.0390625,-0.196929931640625
41723,-0.9802093505859376,0.0367889404296875,-0.19659423828125
41724,-0.9808807373046876,0.0346527099609375,-0.196380615234375
41725,-0.9797210693359376,0.03369140625,-0.197357177734375
41726,-0.9774017333984376,0.033477783203125,-0.1967926025390625
41727,-0.9760894775390624,0.03387451171875,-0.197265625
41728,-0.9761962890625,0.0352630615234375,-0.19927978515625
41729,-0.9761962890625,0.0347900390625,-0.2013702392578125
41730,-0.977569580078125,0.0342254638671875,-0.2014617919921875
41731,-0.976287841796875,0.033935546875,-0.201873779296875
41732,-0.973907470703125,0.0336456298828125,-0.19927978515625
41733,-0.96966552734375,0.0369110107421875,-0.1971893310546875
41734,-0.967193603515625,0.038604736328125,-0.19561767578125
41735,-0.969512939453125,0.04010009765625,-0.1960296630859375
41736,-0.97021484375,0.0420379638671875,-0.1961822509765625
41737,-0.970123291015625,0.044189453125,-0.1954498291015625
41738,-0.9739227294921876,0.0435791015625,-0.194488525390625
41739,-0.97723388671875,0.046844482421875,-0.1953887939453125
41740,-0.9811859130859376,0.0498046875,-0.1947174072265625
41741,-0.98260498046875,0.0517730712890625,-0.192291259765625
41742,-0.98260498046875,0.0517730712890625,-0.192291259765625
41743,-0.983367919921875,0.0596771240234375,-0.1870269775390625
41744,-0.9851531982421876,0.0612640380859375,-0.186370849609375
41745,-0.9843597412109376,0.06195068359375,-0.18365478515625
41746,-0.9843597412109376,0.06195068359375,-0.18365478515625
41747,-0.9826202392578124,0.0623321533203125,-0.1831207275390625
41748,-0.9814453125,0.0634613037109375,-0.184417724609375
41749,-0.9809417724609376,0.062591552734375,-0.1846466064453125
41750,-0.9793548583984376,0.063720703125,-0.1859588623046875
41751,-0.97735595703125,0.063995361328125,-0.187957763671875
41752,-0.9756622314453124,0.06451416015625,-0.189422607421875
41753,-0.97705078125,0.063690185546875,-0.190277099609375
41754,-0.97662353515625,0.063262939453125,-0.1912384033203125
41755,-0.9756927490234376,0.0626373291015625,-0.1918487548828125
41756,-0.975738525390625,0.061187744140625,-0.189697265625
41757,-0.97833251953125,0.058868408203125,-0.19158935546875
41758,-0.979827880859375,0.0599517822265625,-0.1922149658203125
41759,-0.978271484375,0.0643768310546875,-0.1936492919921875
41760,-0.9770965576171876,0.0669708251953125,-0.1969451904296875
41761,-0.97735595703125,0.0667724609375,-0.1994476318359375
41762,-0.97406005859375,0.064910888671875,-0.19879150390625
41763,-0.9737701416015624,0.0616912841796875,-0.1981048583984375
41764,-0.974365234375,0.059417724609375,-0.1974029541015625
41765,-0.973724365234375,0.05694580078125,-0.1976318359375
41766,-0.973663330078125,0.055419921875,-0.1990966796875
41767,-0.97418212890625,0.05303955078125,-0.201263427734375
41768,-0.9735870361328124,0.050750732421875,-0.201873779296875
41769,-0.974029541015625,0.0488739013671875,-0.202911376953125
41770,-0.9738311767578124,0.048431396484375,-0.2034149169921875
41771,-0.9722747802734376,0.0472259521484375,-0.20513916015625
41772,-0.9707489013671876,0.047576904296875,-0.2052459716796875
41773,-0.9716339111328124,0.0479278564453125,-0.2042999267578125
41774,-0.971832275390625,0.0472869873046875,-0.2036895751953125
41775,-0.9734344482421876,0.04656982421875,-0.203704833984375
41776,-0.9744415283203124,0.0461883544921875,-0.204681396484375
41777,-0.9756011962890624,0.0479278564453125,-0.206512451171875
41778,-0.9760894775390624,0.0495147705078125,-0.20599365234375
41779,-0.976470947265625,0.051513671875,-0.2076873779296875
41780,-0.9756011962890624,0.0528717041015625,-0.2081146240234375
41781,-0.9735260009765624,0.0556640625,-0.2072906494140625
41782,-0.9709625244140624,0.0579833984375,-0.207122802734375
41783,-0.9698486328125,0.05987548828125,-0.2077789306640625
41784,-0.9691925048828124,0.0617218017578125,-0.20709228515625
41785,-0.9692230224609376,0.061920166015625,-0.2071685791015625
41786,-0.9703826904296876,0.0612030029296875,-0.207672119140625
41787,-0.969268798828125,0.061492919921875,-0.20703125
41788,-0.9684295654296876,0.060211181640625,-0.2068939208984375
41789,-0.9674835205078124,0.0570068359375,-0.206085205078125
41790,-0.967071533203125,0.0538787841796875,-0.2052154541015625
41791,-0.96832275390625,0.050140380859375,-0.205413818359375
41792,-0.96759033203125,0.0463104248046875,-0.203094482421875
41793,-0.969451904296875,0.042266845703125,-0.2009429931640625
41794,-0.973358154296875,0.038482666015625,-0.200439453125
41795,-0.9763031005859376,0.0382537841796875,-0.200836181640625
41796,-0.9799041748046876,0.034332275390625,-0.1988677978515625
41797,-0.9832611083984376,0.0308380126953125,-0.19427490234375
41798,-0.98406982421875,0.0276641845703125,-0.1910858154296875
41799,-0.986358642578125,0.0258331298828125,-0.1860504150390625
41800,-0.9883880615234376,0.0249481201171875,-0.1845245361328125
41801,-0.98797607421875,0.0243377685546875,-0.1807708740234375
41802,-0.98773193359375,0.0262908935546875,-0.179046630859375
41803,-0.98565673828125,0.0280914306640625,-0.1800079345703125
41804,-0.9841156005859376,0.030120849609375,-0.1820526123046875
41805,-0.9828033447265624,0.02972412109375,-0.1842803955078125
41806,-0.9808807373046876,0.0323028564453125,-0.1877593994140625
41807,-0.9798583984375,0.035308837890625,-0.1900177001953125
41808,-0.9763031005859376,0.0365142822265625,-0.1939544677734375
41809,-0.9745941162109376,0.037994384765625,-0.1945037841796875
41810,-0.9741058349609376,0.039703369140625,-0.1953125
41811,-0.9752349853515624,0.04046630859375,-0.19683837890625
41812,-0.9739990234375,0.0414276123046875,-0.1984100341796875
41813,-0.97271728515625,0.0412139892578125,-0.198089599609375
41814,-0.972808837890625,0.0386810302734375,-0.1992950439453125
41815,-0.971771240234375,0.038970947265625,-0.200531005859375
41816,-0.9719696044921876,0.0379638671875,-0.2002410888671875
41817,-0.972198486328125,0.0367584228515625,-0.2013397216796875
41818,-0.9725799560546876,0.03594970703125,-0.2027130126953125
41819,-0.973846435546875,0.0365142822265625,-0.203094482421875
41820,-0.9738006591796876,0.037353515625,-0.2032318115234375
41821,-0.9729156494140624,0.0392913818359375,-0.2043914794921875
41822,-0.9739532470703124,0.041595458984375,-0.2035980224609375
41823,-0.9751434326171876,0.0435791015625,-0.203826904296875
41824,-0.977264404296875,0.045166015625,-0.2040252685546875
41825,-0.9774017333984376,0.044769287109375,-0.2039642333984375
41826,-0.978302001953125,0.0449676513671875,-0.2042694091796875
41827,-0.9796905517578124,0.0445404052734375,-0.2034759521484375
41828,-0.9783172607421876,0.0450592041015625,-0.2021942138671875
41829,-0.979095458984375,0.0466461181640625,-0.2012786865234375
41830,-0.9799652099609376,0.0449371337890625,-0.200836181640625
41831,-0.9829559326171876,0.04412841796875,-0.2032470703125
41832,-0.9846038818359376,0.044403076171875,-0.205841064453125
41833,-0.98394775390625,0.045013427734375,-0.2079010009765625
41834,-0.9806976318359376,0.045928955078125,-0.2076873779296875
41835,-0.9760894775390624,0.0481414794921875,-0.2089691162109375
41836,-0.9729156494140624,0.04949951171875,-0.2093505859375
41837,-0.9711151123046876,0.0499114990234375,-0.2104034423828125
41838,-0.9688262939453124,0.048980712890625,-0.2107086181640625
41839,-0.968658447265625,0.0487213134765625,-0.2120361328125
41840,-0.968994140625,0.0477752685546875,-0.213409423828125
41841,-0.968475341796875,0.0427703857421875,-0.214752197265625
41842,-0.968475341796875,0.0427703857421875,-0.214752197265625
41843,-0.9674835205078124,0.040069580078125,-0.213287353515625
41844,-0.9653472900390624,0.0381927490234375,-0.21246337890625
41845,-0.9677276611328124,0.0378265380859375,-0.2121734619140625
41846,-0.9720306396484376,0.0371551513671875,-0.2138519287109375
41847,-0.973663330078125,0.0381011962890625,-0.215484619140625
41848,-0.9747161865234376,0.0390472412109375,-0.213592529296875
41849,-0.9741668701171876,0.0400390625,-0.2128753662109375
41850,-0.97357177734375,0.0424652099609375,-0.2107696533203125
41851,-0.97149658203125,0.043914794921875,-0.2097320556640625
41852,-0.970916748046875,0.0436248779296875,-0.208770751953125
41853,-0.973785400390625,0.0424652099609375,-0.20819091796875
41854,-0.9743194580078124,0.040740966796875,-0.2088470458984375
41855,-0.9730987548828124,0.03948974609375,-0.20819091796875
41856,-0.97442626953125,0.03887939453125,-0.2076568603515625
41857,-0.9749755859375,0.0382537841796875,-0.2075042724609375
41858,-0.97576904296875,0.0384063720703125,-0.2068939208984375
41859,-0.978302001953125,0.04022216796875,-0.2068634033203125
41860,-0.980010986328125,0.0416412353515625,-0.208221435546875
41861,-0.9786376953125,0.043212890625,-0.209869384765625
41862,-0.977081298828125,0.0431365966796875,-0.2087249755859375
41863,-0.9736785888671876,0.0445709228515625,-0.208526611328125
41864,-0.9732818603515624,0.045379638671875,-0.208465576171875
41865,-0.97406005859375,0.0443878173828125,-0.2074432373046875
41866,-0.9741973876953124,0.04217529296875,-0.2062225341796875
41867,-0.9764404296875,0.0399169921875,-0.206207275390625
41868,-0.9781951904296876,0.03875732421875,-0.2043609619140625
41869,-0.978302001953125,0.0377197265625,-0.2035369873046875
41870,-0.978179931640625,0.037841796875,-0.203460693359375
41871,-0.979095458984375,0.037933349609375,-0.2065887451171875
41872,-0.977874755859375,0.03961181640625,-0.210723876953125
41873,-0.9778289794921876,0.0442047119140625,-0.2138824462890625
41874,-0.978302001953125,0.049530029296875,-0.21795654296875
41875,-0.9796142578125,0.05718994140625,-0.2180633544921875
41876,-0.98211669921875,0.0648345947265625,-0.21783447265625
41877,-0.98504638671875,0.0700531005859375,-0.218170166015625
41878,-0.9858551025390624,0.072967529296875,-0.2210845947265625
41879,-0.985107421875,0.0748138427734375,-0.2239990234375
41880,-0.9829559326171876,0.0744781494140625,-0.2270355224609375
41881,-0.9793701171875,0.07122802734375,-0.22943115234375
41882,-0.9790496826171876,0.0648193359375,-0.232391357421875
41883,-0.977142333984375,0.0581512451171875,-0.2349853515625
41884,-0.973541259765625,0.0508880615234375,-0.236083984375
41885,-0.971221923828125,0.0446319580078125,-0.2360382080078125
41886,-0.9702301025390624,0.0397186279296875,-0.23846435546875
41887,-0.970367431640625,0.0366973876953125,-0.23980712890625
41888,-0.969970703125,0.0357818603515625,-0.2411346435546875
41889,-0.968353271484375,0.037078857421875,-0.242767333984375
41890,-0.9688568115234376,0.038604736328125,-0.2434844970703125
41891,-0.96795654296875,0.039031982421875,-0.241363525390625
41892,-0.9689178466796876,0.038726806640625,-0.2402801513671875
41893,-0.9664306640625,0.0353240966796875,-0.238037109375
41894,-0.9664306640625,0.0353240966796875,-0.238037109375
41895,-0.9638214111328124,0.03155517578125,-0.2357330322265625
41896,-0.9635467529296876,0.0260467529296875,-0.235748291015625
41897,-0.9620513916015624,0.023529052734375,-0.238372802734375
41898,-0.9650115966796876,0.0233917236328125,-0.24176025390625
41899,-0.962677001953125,0.02685546875,-0.244384765625
41900,-0.9595794677734376,0.03363037109375,-0.244293212890625
41901,-0.9595794677734376,0.0402679443359375,-0.2422027587890625
41902,-0.961761474609375,0.044952392578125,-0.24090576171875
41903,-0.9654541015625,0.0452728271484375,-0.2376251220703125
41904,-0.9670257568359376,0.04071044921875,-0.2304840087890625
41905,-0.9698486328125,0.0366973876953125,-0.226348876953125
41906,-0.9687957763671876,0.034332275390625,-0.22320556640625
41907,-0.9669036865234376,0.0333251953125,-0.2216339111328125
41908,-0.96221923828125,0.03326416015625,-0.219940185546875
41909,-0.96002197265625,0.0345916748046875,-0.2196197509765625
41910,-0.961029052734375,0.039764404296875,-0.2222900390625
41911,-0.9630889892578124,0.0464324951171875,-0.2236785888671875
41912,-0.966888427734375,0.055816650390625,-0.2224578857421875
41913,-0.96893310546875,0.0610809326171875,-0.220245361328125
41914,-0.971405029296875,0.0647735595703125,-0.2137451171875
41915,-0.978485107421875,0.0635833740234375,-0.2048187255859375
41916,-0.98480224609375,0.0582275390625,-0.1986846923828125
41917,-0.9873809814453124,0.051666259765625,-0.19561767578125
41918,-0.9842987060546876,0.047943115234375,-0.193695068359375
41919,-0.9801025390625,0.0472869873046875,-0.1976165771484375
41920,-0.9761505126953124,0.0488739013671875,-0.20458984375
41921,-0.97210693359375,0.054046630859375,-0.2104339599609375
41922,-0.9670257568359376,0.0610504150390625,-0.213531494140625
41923,-0.96142578125,0.0664215087890625,-0.215667724609375
41924,-0.9583892822265624,0.0713348388671875,-0.21826171875
41925,-0.9562225341796876,0.075592041015625,-0.22216796875
41926,-0.952545166015625,0.079986572265625,-0.2235260009765625
41927,-0.95050048828125,0.08538818359375,-0.2240753173828125
41928,-0.9518585205078124,0.0901031494140625,-0.2225494384765625
41929,-0.9534149169921876,0.09234619140625,-0.2212066650390625
41930,-0.954132080078125,0.09234619140625,-0.2198486328125
