time_idx,accelerometerAccelerationX(G),accelerometerAccelerationY(G),accelerometerAccelerationZ(G)
240000,0.7650909423828125,0.747711181640625,1.249710083007812
240001,0.566497802734375,0.84771728515625,1.610198974609375
240002,0.337188720703125,1.004302978515625,1.8865966796875
240003,0.1115264892578125,1.104446411132812,1.893417358398438
240004,0.0304412841796875,1.068634033203125,1.634002685546875
240005,0.0370330810546875,0.8532257080078125,1.24530029296875
240006,0.0449066162109375,0.628265380859375,0.889190673828125
240007,0.107025146484375,0.5089874267578125,0.5468292236328125
240008,0.187042236328125,0.3740081787109375,0.2386932373046875
240009,0.199188232421875,0.09381103515625,-0.10418701171875
240010,0.145355224609375,-0.2538909912109375,-0.3302154541015625
240011,0.1328887939453125,-0.242218017578125,-0.17230224609375
240012,0.1419525146484375,-0.1183929443359375,0.0070037841796875
240013,0.0740203857421875,-0.1060638427734375,0.084564208984375
240014,-0.0650787353515625,-0.192047119140625,0.08966064453125
240015,-0.20013427734375,-0.2415771484375,0.0111236572265625
240016,-0.23211669921875,-0.1132049560546875,-0.0798492431640625
240017,-0.24053955078125,-0.0287017822265625,-0.200164794921875
240018,-0.222259521484375,-0.0023651123046875,-0.2611083984375
240019,-0.2712554931640625,0.0832061767578125,-0.36993408203125
240020,-0.3245086669921875,0.1735076904296875,-0.25726318359375
240021,-0.31768798828125,0.2100830078125,0.03302001953125
240022,-0.1965484619140625,0.2173614501953125,0.27227783203125
240023,0.048095703125,0.14764404296875,0.5096893310546875
240024,0.2791595458984375,-0.0155487060546875,0.7175140380859375
240025,0.562103271484375,-0.2107086181640625,0.8462677001953125
240026,0.95050048828125,-0.503631591796875,0.8356781005859375
240027,1.502120971679688,-1.0823974609375,0.891143798828125
240028,2.06268310546875,-1.34429931640625,1.187973022460938
240029,1.938308715820312,-0.2371063232421875,1.3931884765625
240030,1.626754760742188,0.7576446533203125,1.897857666015625
240031,1.540435791015625,1.462188720703125,1.7869873046875
240032,1.349777221679688,2.01104736328125,1.964080810546875
240033,1.098739624023438,2.041976928710938,2.449310302734375
240034,1.007156372070312,1.579025268554688,2.456924438476562
240035,1.207443237304688,1.051422119140625,2.160751342773438
240036,1.31109619140625,0.95458984375,1.710693359375
240037,1.1768798828125,0.998291015625,1.507659912109375
240038,1.027069091796875,0.9750213623046876,1.630081176757812
240039,0.868316650390625,0.9717559814453124,1.702957153320312
240040,0.63970947265625,0.95361328125,1.558181762695312
240041,0.3343505859375,0.716278076171875,1.061660766601562
240042,-0.0139923095703125,0.121002197265625,0.277496337890625
240043,0.0024871826171875,0.1675567626953125,0.1308441162109375
240044,0.196441650390625,0.5656585693359375,0.1979217529296875
240045,0.1981658935546875,0.575042724609375,0.1661376953125
240046,0.015960693359375,0.1636962890625,-0.0786590576171875
240047,-0.1294708251953125,-0.2932891845703125,-0.432586669921875
240048,-0.094757080078125,-0.47601318359375,-0.6302032470703125
240049,0.064208984375,-0.472076416015625,-0.6963653564453125
240050,0.2050018310546875,-0.5308074951171875,-0.741973876953125
240051,0.33929443359375,-0.538360595703125,-0.79144287109375
240052,0.404998779296875,-0.4533843994140625,-0.871185302734375
240053,0.3347320556640625,-0.3441925048828125,-0.881134033203125
240054,0.2364654541015625,-0.3226318359375,-0.6900177001953125
240055,0.1194915771484375,-0.185760498046875,-0.3788299560546875
240056,0.07470703125,0.0960693359375,0.028533935546875
240057,0.1125030517578125,0.35003662109375,0.5066986083984375
240058,0.198699951171875,0.4807586669921875,0.916778564453125
240059,0.365631103515625,0.4835662841796875,0.94195556640625
240060,0.7168426513671875,0.559661865234375,0.75677490234375
240061,1.227676391601562,0.5492095947265625,0.6293182373046875
240062,1.870758056640625,0.378509521484375,0.8717498779296875
240063,2.314605712890625,0.5233612060546875,0.9699554443359376
240064,2.112228393554688,0.8556671142578125,1.05657958984375
240065,1.992919921875,0.7247314453125,1.568466186523438
240066,2.123199462890625,0.899749755859375,2.2900390625
240067,2.031631469726562,1.122100830078125,2.411529541015625
240068,1.85662841796875,1.048583984375,2.4000244140625
240069,1.614608764648438,0.9474639892578124,1.934661865234375
240070,1.142044067382812,0.9214019775390624,1.336700439453125
240071,0.731231689453125,0.84417724609375,1.150650024414062
240072,0.6143798828125,0.79034423828125,1.434585571289062
240073,0.504150390625,0.877197265625,1.755020141601562
240074,0.30126953125,0.908843994140625,1.883651733398438
240075,0.1623382568359375,0.837066650390625,1.858444213867188
240076,0.0627288818359375,0.72576904296875,1.598236083984375
240077,0.02386474609375,0.571319580078125,1.131103515625
240078,0.035675048828125,0.4075164794921875,0.5904083251953125
240079,0.0821380615234375,0.329498291015625,0.164642333984375
240080,0.1214599609375,0.2828216552734375,-0.0312957763671875
240081,0.1296539306640625,0.1348724365234375,-0.13983154296875
240082,0.1023101806640625,-0.207427978515625,-0.289581298828125
240083,0.098297119140625,-0.300811767578125,-0.123199462890625
240084,0.1505584716796875,-0.144500732421875,0.0422821044921875
240085,0.1685028076171875,-0.0745849609375,0.0727386474609375
240086,0.1247406005859375,-0.124755859375,0.0135040283203125
240087,0.0655059814453125,-0.179473876953125,-0.0243682861328125
240088,-0.040069580078125,-0.152862548828125,-0.058380126953125
240089,-0.1070098876953125,-0.0831146240234375,-0.00262451171875
240090,-0.18096923828125,0.0160369873046875,-0.027740478515625
240091,-0.2845611572265625,0.2174224853515625,-0.1903533935546875
240092,-0.2119903564453125,0.30230712890625,-0.0275421142578125
240093,-0.0470123291015625,0.2949066162109375,0.29364013671875
240094,0.0708465576171875,0.3025360107421875,0.45880126953125
240095,0.2402496337890625,0.2530364990234375,0.5539093017578125
240096,0.5269622802734375,0.1108551025390625,0.6033935546875
240097,0.8696746826171875,-0.1397247314453125,0.5920867919921875
240098,1.237762451171875,-0.432464599609375,0.52044677734375
240099,1.46124267578125,-0.478057861328125,0.61224365234375
240100,1.459060668945312,-0.100494384765625,1.362274169921875
240101,1.451034545898438,0.68121337890625,1.956741333007812
240102,1.639480590820312,1.497406005859375,1.930465698242188
240103,1.659576416015625,1.910064697265625,2.036148071289062
240104,1.44464111328125,2.017807006835938,2.01654052734375
240105,1.215087890625,1.627365112304688,1.855194091796875
240106,1.026885986328125,1.20953369140625,1.723526000976562
240107,0.9955902099609376,1.174362182617188,1.764251708984375
240108,0.992401123046875,1.094390869140625,1.703643798828125
240109,0.8629150390625,0.9377593994140624,1.485183715820312
240110,0.7339630126953125,0.856658935546875,1.408050537109375
240111,0.6238555908203125,0.8207855224609375,1.32220458984375
240112,0.4939422607421875,0.72607421875,1.075607299804688
240113,0.2892913818359375,0.431732177734375,0.55133056640625
240114,0.0334320068359375,-0.18194580078125,-0.176513671875
240115,0.036041259765625,-0.110076904296875,-0.1806488037109375
240116,0.08355712890625,0.2317047119140625,0.114410400390625
240117,0.05169677734375,0.251617431640625,0.079071044921875
240118,-0.032318115234375,-0.0485992431640625,-0.273895263671875
240119,-0.098388671875,-0.396942138671875,-0.570343017578125
240120,-0.011566162109375,-0.452423095703125,-0.5524749755859375
240121,0.08441162109375,-0.441070556640625,-0.497467041015625
240122,0.121185302734375,-0.413848876953125,-0.5606536865234375
240123,0.1151885986328125,-0.396484375,-0.6244659423828125
240124,0.00482177734375,-0.389495849609375,-0.550994873046875
240125,-0.078460693359375,-0.2805938720703125,-0.3018035888671875
240126,0.0127410888671875,-0.0205230712890625,0.057861328125
240127,0.1432037353515625,0.266754150390625,0.383514404296875
240128,0.2770233154296875,0.4469451904296875,0.5460662841796875
240129,0.4776153564453125,0.5021820068359375,0.490234375
240130,0.81964111328125,0.53497314453125,0.497344970703125
240131,1.366470336914062,0.495391845703125,0.8453521728515625
240132,2.065811157226562,0.80523681640625,1.683639526367188
240133,2.374710083007812,1.1685791015625,1.305099487304688
240134,2.015731811523438,1.248397827148438,0.9840087890625
240135,2.084259033203125,1.060226440429688,1.725128173828125
240136,2.322784423828125,1.207382202148438,2.167999267578125
240137,2.148239135742188,1.10296630859375,2.318023681640625
240138,1.86431884765625,0.7426300048828125,2.15362548828125
240139,1.5181884765625,0.6838226318359375,1.5518798828125
240140,1.155349731445312,0.7215576171875,1.157455444335938
240141,0.7982940673828125,0.699981689453125,1.224136352539062
240142,0.582611083984375,0.7350311279296875,1.67535400390625
240143,0.3772430419921875,0.8636474609375,1.992446899414062
240144,0.15814208984375,0.9964599609375,2.01300048828125
240145,0.067840576171875,0.9665985107421876,1.733154296875
240146,0.07257080078125,0.7674713134765625,1.296722412109375
240147,0.098114013671875,0.55859375,0.863433837890625
240148,0.1424102783203125,0.4027252197265625,0.488433837890625
240149,0.183746337890625,0.277801513671875,0.241485595703125
240150,0.1543731689453125,0.049896240234375,-0.0615234375
240151,0.120025634765625,-0.1960296630859375,-0.2560577392578125
240152,0.1737823486328125,-0.0238800048828125,-0.06982421875
240153,0.1826629638671875,0.1331024169921875,0.1276092529296875
240154,0.112030029296875,0.1109771728515625,0.1757965087890625
240155,-0.000885009765625,-0.029388427734375,0.1177978515625
240156,-0.1276397705078125,-0.1964263916015625,-0.011138916015625
240157,-0.203155517578125,-0.19244384765625,-0.14532470703125
240158,-0.241943359375,-0.070404052734375,-0.248504638671875
240159,-0.2498626708984375,0.026153564453125,-0.3817291259765625
240160,-0.2373199462890625,0.0260162353515625,-0.458709716796875
240161,-0.2734375,-0.004425048828125,-0.3435211181640625
240162,-0.32293701171875,0.0310516357421875,-0.0619354248046875
240163,-0.26593017578125,0.1018829345703125,0.361083984375
240164,-0.1227264404296875,0.210601806640625,0.65631103515625
240165,0.1087799072265625,0.251739501953125,0.7994842529296875
240166,0.3925018310546875,0.218048095703125,0.807281494140625
240167,0.70196533203125,0.1426239013671875,0.7807159423828125
240168,1.093170166015625,-0.0629425048828125,0.9294891357421876
240169,1.6129150390625,-0.406158447265625,0.855926513671875
240170,1.766632080078125,-0.129669189453125,0.73638916015625
240171,1.699905395507812,0.4926300048828125,1.016647338867188
240172,1.802719116210938,1.165206909179688,1.41552734375
240173,1.863006591796875,1.637924194335938,2.06243896484375
240174,1.826492309570312,2.0091552734375,2.401870727539062
240175,1.851287841796875,2.10400390625,2.293624877929688
240176,1.650146484375,1.5546875,1.929290771484375
240177,1.231948852539062,1.131393432617188,1.415786743164062
240178,1.028518676757812,0.90802001953125,1.26434326171875
240179,0.8990478515625,0.830352783203125,1.411514282226562
240180,0.7395172119140625,0.88946533203125,1.518096923828125
240181,0.6027679443359375,0.910247802734375,1.486465454101562
240182,0.5187835693359375,0.7831268310546875,1.240447998046875
240183,0.3438720703125,0.4425811767578125,0.6776885986328125
240184,0.1287078857421875,-0.0684661865234375,0.0517120361328125
240185,0.18316650390625,0.1074371337890625,0.0354766845703125
240186,0.2547454833984375,0.3996429443359375,0.1463623046875
240187,0.16973876953125,0.37640380859375,0.0675506591796875
240188,0.011810302734375,0.0889434814453125,-0.1362457275390625
240189,-0.09967041015625,-0.220184326171875,-0.291168212890625
240190,-0.1200103759765625,-0.39776611328125,-0.3253021240234375
240191,-0.0608978271484375,-0.423187255859375,-0.2764434814453125
240192,0.00225830078125,-0.3717498779296875,-0.254425048828125
240193,0.010894775390625,-0.308990478515625,-0.2779388427734375
240194,-0.021728515625,-0.284393310546875,-0.300933837890625
240195,-0.07037353515625,-0.2175750732421875,-0.335174560546875
240196,-0.172271728515625,-0.1036224365234375,-0.292938232421875
240197,-0.2518463134765625,0.0413360595703125,-0.0380401611328125
240198,-0.2128143310546875,0.2695159912109375,0.37908935546875
240199,-0.15863037109375,0.473846435546875,0.7069854736328125
240200,-0.073760986328125,0.5366973876953125,0.742584228515625
240201,0.1609954833984375,0.548004150390625,0.5899810791015625
240202,0.5492706298828125,0.6090850830078125,0.4166259765625
240203,1.079315185546875,0.61761474609375,0.379608154296875
240204,1.869400024414062,0.1543731689453125,1.253585815429688
240205,2.648208618164062,0.4178466796875,2.552902221679688
240206,2.532745361328125,1.181396484375,1.6173095703125
240207,1.92596435546875,1.267425537109375,1.333236694335938
240208,1.814117431640625,1.365447998046875,2.163681030273438
240209,1.642562866210938,1.593582153320312,2.634262084960938
240210,1.40472412109375,1.204421997070312,2.673583984375
240211,1.130279541015625,0.9323272705078124,2.037399291992188
240212,0.8200225830078125,0.8849945068359375,1.29559326171875
240213,0.65704345703125,0.7325592041015625,1.04608154296875
240214,0.56231689453125,0.7058258056640625,1.337493896484375
240215,0.530975341796875,0.786834716796875,1.641616821289062
240216,0.48052978515625,0.8111114501953125,1.625320434570312
240217,0.420867919921875,0.705718994140625,1.3673095703125
240218,0.365020751953125,0.527984619140625,1.000518798828125
240219,0.3101806640625,0.3668975830078125,0.658905029296875
240220,0.2798614501953125,0.1863861083984375,0.2906494140625
240221,0.2711639404296875,-0.0703125,-0.076263427734375
240222,0.3182830810546875,-0.0236358642578125,-0.0426788330078125
240223,0.3396148681640625,0.20770263671875,0.1041412353515625
240224,0.2530975341796875,0.2283477783203125,0.1043853759765625
240225,0.0782318115234375,0.07275390625,0.0420989990234375
240226,-0.1093597412109375,-0.10211181640625,0.0184326171875
240227,-0.2444915771484375,-0.1710052490234375,0.0415802001953125
240228,-0.3400726318359375,-0.1128387451171875,0.0181732177734375
240229,-0.3975982666015625,-0.01214599609375,-0.0480804443359375
240230,-0.394989013671875,0.0588226318359375,0.007568359375
240231,-0.2959747314453125,0.06195068359375,0.175262451171875
240232,-0.18768310546875,0.1600799560546875,0.187255859375
240233,-0.0647125244140625,0.2459564208984375,0.281219482421875
240234,0.022125244140625,0.2933807373046875,0.393829345703125
240235,0.122161865234375,0.344390869140625,0.4425811767578125
240236,0.2793731689453125,0.3541107177734375,0.4480438232421875
240237,0.54254150390625,0.2398681640625,0.4778594970703125
240238,0.866058349609375,-0.000579833984375,0.5242156982421875
240239,1.175918579101562,-0.2336273193359375,0.4514007568359375
240240,1.395919799804688,-0.27447509765625,0.3779449462890625
240241,1.5010986328125,-0.0594482421875,0.8669586181640625
240242,1.553314208984375,0.513275146484375,1.4857177734375
240243,1.60595703125,1.312332153320312,1.929962158203125
240244,1.621978759765625,1.867660522460938,2.187896728515625
240245,1.583572387695312,1.90191650390625,2.0059814453125
240246,1.565719604492188,1.524871826171875,1.69451904296875
240247,1.370529174804688,1.145889282226562,1.52166748046875
240248,1.107955932617188,1.0201416015625,1.519668579101562
240249,0.96832275390625,0.999359130859375,1.61065673828125
240250,0.8141632080078125,0.968963623046875,1.655288696289062
240251,0.54638671875,0.925079345703125,1.636566162109375
240252,0.3550262451171875,0.900665283203125,1.577850341796875
240253,0.2688446044921875,0.831085205078125,1.385726928710938
240254,0.238494873046875,0.7723846435546875,1.041549682617188
240255,0.156890869140625,0.51031494140625,0.4377288818359375
240256,0.0234527587890625,-0.0206451416015625,-0.2582244873046875
240257,0.08233642578125,0.127197265625,-0.1582489013671875
240258,0.2042236328125,0.4771270751953125,0.2385711669921875
240259,0.1731719970703125,0.3859405517578125,0.272369384765625
240260,-0.0188751220703125,-0.0850830078125,-0.037384033203125
240261,-0.0950775146484375,-0.3867950439453125,-0.3130035400390625
240262,-0.0184326171875,-0.4707489013671875,-0.4260406494140625
240263,0.048828125,-0.502777099609375,-0.5042266845703125
240264,0.11737060546875,-0.5297698974609375,-0.661407470703125
240265,0.212188720703125,-0.48504638671875,-0.8726654052734375
240266,0.199462890625,-0.3875732421875,-1.022476196289062
240267,0.070770263671875,-0.2844390869140625,-0.9008941650390624
240268,-0.0417327880859375,-0.137481689453125,-0.406005859375
240269,-0.0493621826171875,0.0919036865234375,0.24005126953125
240270,0.0211334228515625,0.2816009521484375,0.771453857421875
240271,0.185943603515625,0.2997894287109375,1.087432861328125
240272,0.5154876708984375,0.1977081298828125,0.9432220458984376
240273,0.9828948974609376,0.1404571533203125,0.466156005859375
240274,1.580490112304688,0.0654144287109375,0.289459228515625
240275,2.280242919921875,-0.128875732421875,0.7058868408203125
240276,2.585906982421875,0.2194366455078125,1.681716918945312
240277,2.411163330078125,0.7949371337890625,2.039199829101562
240278,2.242416381835938,1.180389404296875,1.883621215820312
240279,2.173599243164062,1.339614868164062,2.234909057617188
240280,1.72882080078125,1.491546630859375,2.68536376953125
240281,1.227874755859375,1.2032470703125,2.6611328125
240282,0.9310760498046876,0.936767578125,2.081344604492188
240283,0.7329254150390625,0.8857269287109375,1.51727294921875
240284,0.6285552978515625,0.8639678955078125,1.320510864257812
240285,0.526458740234375,0.91656494140625,1.469085693359375
240286,0.427825927734375,0.9442138671875,1.76837158203125
240287,0.353729248046875,0.8441009521484375,1.8426513671875
240288,0.3015289306640625,0.6452789306640625,1.636642456054688
240289,0.215423583984375,0.370391845703125,1.079315185546875
240290,0.1256866455078125,-0.034088134765625,0.3486785888671875
240291,0.274383544921875,0.081085205078125,0.15313720703125
240292,0.4619140625,0.303466796875,0.2423553466796875
240293,0.483734130859375,0.292724609375,0.15814208984375
240294,0.349273681640625,0.0670318603515625,-0.0596466064453125
240295,0.1898651123046875,-0.132232666015625,-0.1743927001953125
240296,-0.00274658203125,-0.2913055419921875,-0.22259521484375
240297,-0.259185791015625,-0.3960723876953125,-0.2039642333984375
240298,-0.475677490234375,-0.437164306640625,-0.102325439453125
240299,-0.5925140380859375,-0.2938690185546875,-0.0135955810546875
240300,-0.593505859375,-0.0412750244140625,-0.0266265869140625
240301,-0.5401763916015625,0.081329345703125,-0.0345458984375
240302,-0.46795654296875,0.1108551025390625,-0.0310211181640625
240303,-0.4378662109375,0.1104736328125,-0.034088134765625
240304,-0.3936614990234375,0.08966064453125,0.1351470947265625
240305,-0.363739013671875,0.126708984375,0.326751708984375
240306,-0.291656494140625,0.2288970947265625,0.4583282470703125
240307,-0.10772705078125,0.2692413330078125,0.587615966796875
240308,0.1748046875,0.198638916015625,0.7529754638671875
240309,0.5766143798828125,0.0536346435546875,0.9265594482421876
240310,1.02923583984375,-0.0653228759765625,0.9896392822265624
240311,1.404678344726562,0.052215576171875,0.8203277587890625
240312,1.522552490234375,0.3493804931640625,0.9225006103515624
240313,1.678314208984375,0.4468994140625,1.367279052734375
240314,1.939041137695312,0.971954345703125,1.50079345703125
240315,2.040374755859375,1.534194946289062,1.854339599609375
240316,1.93426513671875,1.869537353515625,2.187881469726562
240317,1.89794921875,1.702377319335938,2.187789916992188
240318,1.870376586914062,1.180740356445312,1.945266723632812
240319,1.655441284179688,0.9793243408203124,1.331695556640625
240320,1.297637939453125,0.85919189453125,1.03582763671875
240321,1.05010986328125,0.74468994140625,1.229888916015625
240322,0.8482818603515625,0.7891387939453125,1.449539184570312
240323,0.6252593994140625,0.92657470703125,1.536376953125
240324,0.4780120849609375,0.89276123046875,1.47418212890625
240325,0.41754150390625,0.709686279296875,1.179061889648438
240326,0.3262939453125,0.371826171875,0.522674560546875
240327,0.2236480712890625,-0.1038360595703125,-0.2161865234375
240328,0.3325653076171875,-0.06622314453125,-0.30499267578125
240329,0.4646148681640625,0.1941070556640625,-0.105316162109375
240330,0.4080963134765625,0.2298583984375,0.00018310546875
240331,0.2061309814453125,-0.0656890869140625,-0.1102294921875
240332,0.0137939453125,-0.450103759765625,-0.2216033935546875
240333,-0.0713348388671875,-0.6378021240234375,-0.2141265869140625
240334,-0.0317840576171875,-0.5637359619140625,-0.1839447021484375
240335,0.0200653076171875,-0.416259765625,-0.186614990234375
240336,0.017730712890625,-0.2799835205078125,-0.2631378173828125
240337,0.0090179443359375,-0.220306396484375,-0.362030029296875
240338,-0.045806884765625,-0.1567535400390625,-0.4109344482421875
240339,-0.1502838134765625,-0.0436859130859375,-0.358551025390625
240340,-0.2071990966796875,0.115753173828125,-0.1895599365234375
240341,-0.15447998046875,0.314239501953125,0.11419677734375
240342,-0.0451202392578125,0.44647216796875,0.4508056640625
240343,0.084014892578125,0.417572021484375,0.6353912353515625
240344,0.27545166015625,0.274017333984375,0.7129364013671875
240345,0.593353271484375,0.127105712890625,0.7805633544921875
240346,1.037643432617188,0.0494537353515625,0.7729339599609375
240347,1.573257446289062,-0.111907958984375,1.1182861328125
240348,2.163131713867188,0.242889404296875,2.304855346679688
240349,2.394943237304688,0.82159423828125,2.17816162109375
240350,2.10369873046875,1.31317138671875,1.547683715820312
240351,2.12554931640625,1.628616333007812,1.713897705078125
240352,2.016082763671875,1.679397583007812,2.207260131835938
240353,1.436111450195312,1.315338134765625,2.507888793945312
240354,0.9989166259765624,0.9575958251953124,2.40545654296875
240355,0.874969482421875,0.89617919921875,1.8431396484375
240356,0.748779296875,0.764678955078125,1.34320068359375
240357,0.584136962890625,0.729736328125,1.3182373046875
240358,0.5228424072265625,0.852264404296875,1.5406494140625
240359,0.4636993408203125,0.9310760498046876,1.577911376953125
240360,0.3621826171875,0.78387451171875,1.39990234375
240361,0.25933837890625,0.5546875,1.025741577148438
240362,0.151611328125,0.22430419921875,0.3865509033203125
240363,0.146453857421875,-0.0686798095703125,-0.0927734375
240364,0.32769775390625,0.127288818359375,0.0060272216796875
240365,0.4602508544921875,0.287750244140625,0.18359375
240366,0.433349609375,0.160369873046875,0.1490631103515625
240367,0.2965545654296875,-0.1255340576171875,0.0145111083984375
240368,0.1390380859375,-0.3557586669921875,-0.077606201171875
240369,-0.0321807861328125,-0.457733154296875,-0.0954742431640625
240370,-0.236602783203125,-0.4512176513671875,-0.0569915771484375
240371,-0.4515228271484375,-0.388916015625,-0.0250244140625
240372,-0.5466461181640625,-0.1945648193359375,-0.013092041015625
240373,-0.5522613525390625,0.014892578125,-0.0664825439453125
240374,-0.5395965576171875,0.0792083740234375,-0.1870269775390625
240375,-0.488189697265625,0.0680694580078125,-0.2109527587890625
240376,-0.398834228515625,0.065155029296875,-0.0133514404296875
240377,-0.3279571533203125,0.166748046875,0.1688690185546875
240378,-0.1945648193359375,0.2619781494140625,0.281890869140625
240379,0.0556182861328125,0.192047119140625,0.4697265625
240380,0.4020538330078125,-0.023406982421875,0.7199859619140625
240381,0.83819580078125,-0.3281097412109375,0.908966064453125
240382,1.357650756835938,-0.64508056640625,1.098373413085938
240383,1.877105712890625,-0.8730926513671875,1.408447265625
240384,2.109909057617188,-0.4734039306640625,1.54931640625
240385,2.259536743164062,0.5378570556640625,1.445755004882812
240386,2.367279052734375,1.431076049804688,0.856536865234375
240387,2.322372436523438,1.876296997070312,1.406219482421875
240388,2.039215087890625,2.035629272460938,2.403076171875
240389,1.754684448242188,1.9033203125,2.824111938476562
240390,1.621734619140625,1.334854125976562,2.331878662109375
240391,1.419708251953125,1.025253295898438,1.478317260742188
240392,1.30059814453125,0.7711334228515625,1.151687622070312
240393,1.196014404296875,0.663818359375,1.261123657226562
240394,0.9962615966796876,0.7842559814453125,1.408157348632812
240395,0.77642822265625,0.860504150390625,1.55035400390625
240396,0.5580291748046875,0.720367431640625,1.507095336914062
240397,0.30120849609375,0.26287841796875,0.8389129638671875
240398,0.1360931396484375,-0.1461334228515625,0.1802978515625
240399,0.22747802734375,0.077362060546875,0.1059112548828125
240400,0.284454345703125,0.25701904296875,0.102264404296875
240401,0.2634735107421875,0.1193389892578125,-0.0891876220703125
240402,0.15631103515625,-0.2306060791015625,-0.354461669921875
240403,0.03253173828125,-0.5503997802734375,-0.444488525390625
240404,-0.09088134765625,-0.6800384521484375,-0.3762664794921875
240405,-0.1907501220703125,-0.602386474609375,-0.279144287109375
240406,-0.2559051513671875,-0.4300384521484375,-0.190582275390625
240407,-0.283538818359375,-0.2785797119140625,-0.134429931640625
240408,-0.2976531982421875,-0.1395416259765625,-0.144256591796875
240409,-0.3641357421875,0.02423095703125,-0.15570068359375
240410,-0.417266845703125,0.160675048828125,-0.0801849365234375
240411,-0.43951416015625,0.244384765625,0.032501220703125
240412,-0.4105072021484375,0.2748565673828125,0.1590576171875
240413,-0.3011016845703125,0.29498291015625,0.3537139892578125
240414,-0.1273040771484375,0.3343963623046875,0.61737060546875
240415,0.0467987060546875,0.3302154541015625,0.762786865234375
240416,0.25189208984375,0.2238311767578125,0.77532958984375
240417,0.50994873046875,0.126373291015625,0.6806182861328125
240418,0.9019317626953124,0.1063079833984375,0.5146026611328125
240419,1.420806884765625,0.0550994873046875,0.610565185546875
240420,2.028778076171875,-0.206756591796875,1.59832763671875
240421,2.667877197265625,-0.021881103515625,2.514068603515625
240422,2.864501953125,0.8285064697265625,1.616195678710938
240423,2.589492797851562,1.29644775390625,1.307418823242188
240424,2.316268920898438,1.211502075195312,1.751388549804688
240425,1.89630126953125,1.139724731445312,2.352920532226562
240426,1.234390258789062,0.960601806640625,2.751708984375
240427,0.877288818359375,0.8481903076171875,2.331893920898438
240428,0.7285308837890625,0.81903076171875,1.560760498046875
240429,0.5631103515625,0.7135467529296875,1.119522094726562
240430,0.438812255859375,0.68017578125,1.15557861328125
240431,0.4060211181640625,0.788482666015625,1.43121337890625
240432,0.4393157958984375,0.8060150146484375,1.6290283203125
240433,0.436187744140625,0.65386962890625,1.604461669921875
240434,0.375762939453125,0.452392578125,1.312118530273438
240435,0.2788238525390625,0.14703369140625,0.579864501953125
240436,0.2663726806640625,-0.186859130859375,-0.2033538818359375
240437,0.3954315185546875,-0.0581817626953125,-0.2363739013671875
240438,0.483245849609375,0.137298583984375,-0.121917724609375
240439,0.404327392578125,0.0894317626953125,-0.1624603271484375
240440,0.221405029296875,-0.102996826171875,-0.22161865234375
240441,0.033416748046875,-0.2829132080078125,-0.1715850830078125
240442,-0.131927490234375,-0.411529541015625,-0.072998046875
240443,-0.2888031005859375,-0.419647216796875,0.0326080322265625
240444,-0.418426513671875,-0.30609130859375,0.1024017333984375
240445,-0.463653564453125,-0.1202392578125,0.1319122314453125
240446,-0.44146728515625,0.0699310302734375,0.0678253173828125
240447,-0.39739990234375,0.136016845703125,-0.01849365234375
240448,-0.3293914794921875,0.0892791748046875,0.03204345703125
240449,-0.2768402099609375,0.0922698974609375,0.170135498046875
240450,-0.2342071533203125,0.2018280029296875,0.2965850830078125
240451,-0.1278533935546875,0.2434234619140625,0.4580230712890625
240452,0.0911865234375,0.1444854736328125,0.7344512939453125
240453,0.481170654296875,-0.05035400390625,1.138534545898438
240454,0.958038330078125,-0.1824951171875,1.357818603515625
240455,1.363357543945312,-0.13934326171875,1.122604370117188
240456,1.576309204101562,0.093902587890625,0.9718017578125
240457,1.74169921875,0.1275634765625,1.3438720703125
240458,2.004531860351562,0.4153900146484375,1.430770874023438
240459,2.152999877929688,1.108551025390625,1.175491333007812
240460,2.170135498046875,1.466018676757812,1.681243896484375
240461,1.9781494140625,1.717666625976562,2.157241821289062
240462,1.593948364257812,1.79913330078125,2.28948974609375
240463,1.207321166992188,1.551681518554688,2.033889770507812
240464,1.025436401367188,1.245162963867188,1.718734741210938
240465,0.972930908203125,1.091461181640625,1.62847900390625
240466,0.8508453369140625,0.996002197265625,1.53265380859375
240467,0.743927001953125,0.9226837158203124,1.402847290039062
240468,0.6396636962890625,0.6656494140625,1.049575805664062
240469,0.434814453125,0.0457916259765625,0.3809814453125
240470,0.3942413330078125,-0.1194610595703125,0.2106170654296875
240471,0.4872894287109375,0.1320648193359375,0.2349853515625
240472,0.4824066162109375,0.095916748046875,0.1231842041015625
240473,0.3925323486328125,-0.1475372314453125,-0.1609954833984375
240474,0.307830810546875,-0.3636932373046875,-0.4507904052734375
240475,0.23748779296875,-0.4716339111328125,-0.5289154052734375
240476,0.149078369140625,-0.4202117919921875,-0.3457794189453125
240477,0.010223388671875,-0.36126708984375,-0.03363037109375
240478,-0.177276611328125,-0.2072296142578125,0.1298065185546875
240479,-0.34783935546875,-0.067657470703125,0.089111328125
240480,-0.375274658203125,-0.0426788330078125,-0.055084228515625
240481,-0.2720947265625,0.0248260498046875,-0.1565704345703125
240482,-0.2007598876953125,0.0354766845703125,-0.1940765380859375
240483,-0.1409759521484375,-0.046173095703125,-0.1815643310546875
240484,-0.060546875,-0.0735015869140625,-0.0268096923828125
240485,0.0506439208984375,0.0004119873046875,0.2157745361328125
240486,0.1731719970703125,0.1089935302734375,0.4071502685546875
240487,0.31610107421875,0.129608154296875,0.5350494384765625
240488,0.4860076904296875,0.061065673828125,0.453277587890625
240489,0.7126922607421875,0.092376708984375,0.357696533203125
240490,1.014495849609375,0.272857666015625,0.4127349853515625
240491,1.3641357421875,0.4232177734375,0.863616943359375
240492,1.7664794921875,0.5189208984375,1.685302734375
240493,2.15252685546875,0.930328369140625,2.170516967773438
240494,2.316864013671875,1.172531127929688,1.7332763671875
240495,2.370285034179688,1.088165283203125,1.8099365234375
240496,2.268035888671875,1.036849975585938,1.93389892578125
240497,1.902389526367188,0.8063201904296875,2.125076293945312
240498,1.28045654296875,0.56134033203125,2.053268432617188
240499,0.8721160888671875,0.733612060546875,1.79217529296875
240500,0.7008056640625,0.7730865478515625,1.545974731445312
240501,0.575592041015625,0.6936798095703125,1.418960571289062
240502,0.4684906005859375,0.6941680908203125,1.432022094726562
240503,0.4067535400390625,0.7979278564453125,1.50244140625
240504,0.3940887451171875,0.8604583740234375,1.520523071289062
240505,0.372833251953125,0.8037872314453125,1.414718627929688
240506,0.3256378173828125,0.6483001708984375,1.13909912109375
240507,0.2852935791015625,0.4782257080078125,0.7446136474609375
240508,0.238739013671875,0.2827606201171875,0.3217010498046875
240509,0.1822509765625,0.042877197265625,-0.111114501953125
240510,0.151885986328125,0.02191162109375,-0.1380157470703125
240511,0.106353759765625,0.1075286865234375,0.0237884521484375
240512,-0.016754150390625,0.0187530517578125,0.094329833984375
240513,-0.186767578125,-0.1658935546875,0.0590972900390625
240514,-0.343994140625,-0.3390350341796875,-0.0429534912109375
240515,-0.449920654296875,-0.4287109375,-0.0988616943359375
240516,-0.51202392578125,-0.4081878662109375,-0.1313018798828125
240517,-0.5097808837890625,-0.311676025390625,-0.167022705078125
240518,-0.41290283203125,-0.1511077880859375,-0.160736083984375
240519,-0.2974853515625,-0.008209228515625,-0.10211181640625
240520,-0.2640533447265625,0.104156494140625,-0.0842437744140625
240521,-0.191253662109375,0.190673828125,0.02349853515625
240522,-0.0466156005859375,0.21649169921875,0.24237060546875
240523,0.16693115234375,0.190948486328125,0.4576416015625
240524,0.5209197998046875,0.0984954833984375,0.7561187744140625
240525,1.0216064453125,-0.0602874755859375,1.120697021484375
240526,1.5626220703125,-0.2459716796875,1.254165649414062
240527,1.925643920898438,-0.1637420654296875,1.052459716796875
240528,2.013107299804688,0.366485595703125,1.279434204101562
240529,2.092056274414062,0.74224853515625,1.236679077148438
240530,1.967254638671875,0.9980010986328124,0.839508056640625
240531,1.920974731445312,1.094390869140625,1.593704223632812
240532,1.868865966796875,1.294357299804688,2.202651977539062
240533,1.641342163085938,1.38018798828125,2.27679443359375
240534,1.423980712890625,1.24822998046875,1.94097900390625
240535,1.248123168945312,1.099472045898438,1.41290283203125
240536,1.128707885742188,0.918426513671875,1.16107177734375
240537,0.9861602783203124,0.7679290771484375,1.217239379882812
240538,0.8059844970703125,0.7096405029296875,1.312606811523438
240539,0.67034912109375,0.653411865234375,1.327529907226562
240540,0.56475830078125,0.54669189453125,1.24853515625
240541,0.411163330078125,0.2696075439453125,0.7983551025390625
240542,0.2551727294921875,-0.147216796875,0.1466827392578125
240543,0.27801513671875,-0.0687713623046875,-0.0240631103515625
240544,0.336517333984375,0.164093017578125,-0.028594970703125
240545,0.2967071533203125,0.2086639404296875,-0.087738037109375
240546,0.174896240234375,0.0432586669921875,-0.23651123046875
240547,0.05401611328125,-0.19140625,-0.3668060302734375
240548,-0.0497283935546875,-0.3113555908203125,-0.3452606201171875
240549,-0.1321563720703125,-0.3423919677734375,-0.1975860595703125
240550,-0.1857757568359375,-0.3076629638671875,-0.0944366455078125
240551,-0.24505615234375,-0.304534912109375,-0.141632080078125
240552,-0.258056640625,-0.277435302734375,-0.2462310791015625
240553,-0.186553955078125,-0.2142333984375,-0.3350830078125
240554,-0.1831207275390625,-0.14459228515625,-0.3416290283203125
240555,-0.2081451416015625,-0.0655517578125,-0.1959381103515625
240556,-0.1298828125,0.0359039306640625,0.1170196533203125
240557,0.0222930908203125,0.17169189453125,0.390960693359375
240558,0.2146759033203125,0.27191162109375,0.5418548583984375
240559,0.410614013671875,0.23876953125,0.51171875
240560,0.6473388671875,0.1855621337890625,0.4918212890625
240561,0.94879150390625,0.2524871826171875,0.641510009765625
240562,1.265380859375,0.4871978759765625,1.013885498046875
240563,1.646636962890625,0.718719482421875,2.225570678710938
240564,2.160934448242188,1.04833984375,2.735137939453125
240565,2.368972778320312,1.244979858398438,1.607315063476562
240566,2.400222778320312,1.1436767578125,1.1925048828125
240567,2.336746215820312,1.002761840820312,1.781829833984375
240568,1.8487548828125,0.9705963134765624,2.346405029296875
240569,1.290618896484375,0.8979949951171875,2.610595703125
240570,1.043685913085938,0.9315338134765624,2.264984130859375
240571,0.840484619140625,0.9037322998046876,1.63006591796875
240572,0.7051849365234375,0.8352508544921875,1.336669921875
240573,0.582366943359375,0.8695068359375,1.35443115234375
240574,0.47357177734375,0.876922607421875,1.4229736328125
240575,0.4054412841796875,0.7460784912109375,1.377777099609375
240576,0.3520050048828125,0.5556182861328125,1.166458129882812
240577,0.3199920654296875,0.48040771484375,0.8719329833984375
240578,0.292083740234375,0.4279937744140625,0.51422119140625
240579,0.268829345703125,0.234954833984375,0.0524749755859375
240580,0.2936248779296875,0.092254638671875,-0.157379150390625
240581,0.3278045654296875,0.175445556640625,-0.087615966796875
240582,0.2691802978515625,0.17822265625,-0.049835205078125
240583,0.129974365234375,0.0573272705078125,-0.03314208984375
240584,-0.04962158203125,-0.14422607421875,-0.0850982666015625
240585,-0.1839141845703125,-0.306427001953125,-0.107757568359375
240586,-0.247772216796875,-0.3899993896484375,-0.079742431640625
240587,-0.274139404296875,-0.40472412109375,-0.04705810546875
240588,-0.2670745849609375,-0.332122802734375,-0.08013916015625
240589,-0.209686279296875,-0.169281005859375,-0.0920257568359375
240590,-0.1624298095703125,-0.0790252685546875,-0.03924560546875
240591,-0.1339263916015625,0.0260162353515625,-0.06451416015625
240592,-0.075103759765625,0.157379150390625,-0.0834197998046875
240593,0.0186309814453125,0.178802490234375,0.1134490966796875
240594,0.1021270751953125,0.1666259765625,0.35919189453125
240595,0.2615966796875,0.111785888671875,0.7129058837890625
240596,0.5099334716796875,-0.013031005859375,1.16009521484375
240597,0.80291748046875,-0.0759124755859375,1.365707397460938
240598,1.071853637695312,-0.055389404296875,1.278274536132812
240599,1.054397583007812,0.1671142578125,1.123077392578125
240600,1.103179931640625,0.3615264892578125,1.229385375976562
240601,1.433685302734375,0.79473876953125,1.175613403320312
240602,1.711959838867188,1.297683715820312,1.018569946289062
240603,1.896408081054688,1.39892578125,1.642745971679688
240604,1.917098999023438,1.516265869140625,2.211441040039062
240605,1.760406494140625,1.784439086914062,2.443161010742188
240606,1.472122192382812,1.7760009765625,2.039306640625
240607,1.186431884765625,1.309127807617188,1.629547119140625
240608,1.007827758789062,0.955322265625,1.593002319335938
240609,0.8005523681640625,0.844696044921875,1.550323486328125
240610,0.5493621826171875,0.833648681640625,1.451263427734375
240611,0.458587646484375,0.8414459228515625,1.305511474609375
240612,0.439697265625,0.72406005859375,1.046432495117188
240613,0.2962646484375,0.3692626953125,0.373931884765625
240614,0.11431884765625,0.0637359619140625,-0.141265869140625
240615,0.1524658203125,0.2950439453125,-0.0719146728515625
240616,0.1780242919921875,0.4298248291015625,0.091552734375
240617,0.0492706298828125,0.2381439208984375,0.032562255859375
240618,-0.1279449462890625,-0.1043548583984375,-0.20233154296875
240619,-0.2769775390625,-0.35662841796875,-0.278228759765625
240620,-0.3516387939453125,-0.4612274169921875,-0.2809295654296875
240621,-0.2441864013671875,-0.363037109375,-0.2414703369140625
240622,-0.0070343017578125,-0.21124267578125,-0.294281005859375
240623,0.09686279296875,-0.2142791748046875,-0.4782257080078125
240624,0.109161376953125,-0.3133544921875,-0.646636962890625
240625,0.1553192138671875,-0.3763885498046875,-0.677154541015625
240626,0.113677978515625,-0.3851470947265625,-0.54534912109375
240627,0.059478759765625,-0.31207275390625,-0.203094482421875
240628,0.0952606201171875,-0.1126251220703125,0.1450958251953125
240629,0.1958770751953125,0.1143951416015625,0.44561767578125
240630,0.33343505859375,0.2215576171875,0.7285919189453125
240631,0.520904541015625,0.1510162353515625,0.838043212890625
240632,0.7974853515625,0.21087646484375,0.863555908203125
240633,1.133560180664062,0.6876068115234375,0.9854583740234376
240634,1.606826782226562,1.26202392578125,1.667495727539062
240635,2.240066528320312,1.349075317382812,1.763595581054688
240636,2.455215454101562,1.025650024414062,1.000701904296875
240637,2.6800537109375,0.5282440185546875,0.859466552734375
240638,3.04498291015625,0.5619659423828125,1.847305297851562
240639,2.659835815429688,0.8946685791015625,2.2021484375
240640,1.8948974609375,0.9470672607421876,2.552688598632812
240641,1.350997924804688,0.99615478515625,2.145263671875
240642,0.8899688720703125,0.9196624755859376,1.376602172851562
240643,0.515350341796875,0.8604888916015625,1.117752075195312
240644,0.38031005859375,0.876129150390625,1.35614013671875
240645,0.34332275390625,0.82611083984375,1.553970336914062
240646,0.350189208984375,0.7329559326171875,1.618087768554688
240647,0.3925018310546875,0.60809326171875,1.513946533203125
240648,0.4178619384765625,0.503021240234375,1.197280883789062
240649,0.3515625,0.464019775390625,0.773101806640625
240650,0.2503662109375,0.425689697265625,0.4170989990234375
240651,0.186737060546875,0.32244873046875,0.1489715576171875
240652,0.16302490234375,0.1695709228515625,-0.09112548828125
240653,0.1478271484375,0.0367584228515625,-0.183990478515625
240654,0.118255615234375,0.0439605712890625,-0.04254150390625
240655,0.0418701171875,0.01617431640625,0.105133056640625
240656,-0.0737152099609375,-0.0999755859375,0.1779937744140625
240657,-0.160614013671875,-0.237457275390625,0.1821441650390625
240658,-0.21356201171875,-0.350555419921875,0.1277313232421875
240659,-0.266448974609375,-0.4283905029296875,0.0338287353515625
240660,-0.3139190673828125,-0.3344268798828125,-0.07568359375
240661,-0.335693359375,-0.125946044921875,-0.1095733642578125
240662,-0.376434326171875,0.0083770751953125,-0.1200103759765625
240663,-0.4176483154296875,0.078582763671875,-0.096099853515625
240664,-0.4039306640625,0.1128387451171875,0.1066741943359375
240665,-0.3673095703125,0.1642913818359375,0.36822509765625
240666,-0.3076171875,0.239227294921875,0.546142578125
240667,-0.14031982421875,0.2706451416015625,0.803558349609375
240668,0.16693115234375,0.2486572265625,1.195419311523438
240669,0.549102783203125,0.2614898681640625,1.585601806640625
240670,0.8917236328125,0.35675048828125,1.840652465820312
240671,1.198989868164062,0.4368743896484375,1.837600708007812
240672,1.43572998046875,0.2705535888671875,1.169464111328125
240673,1.762893676757812,-0.06060791015625,0.35888671875
240674,2.1812744140625,0.256744384765625,-0.0352325439453125
240675,2.488922119140625,0.90350341796875,0.62884521484375
240676,2.514251708984375,1.352630615234375,1.955474853515625
240677,2.2449951171875,1.87176513671875,2.866455078125
240678,1.824325561523438,2.2252197265625,2.731063842773438
240679,1.275375366210938,1.734054565429688,1.831832885742188
240680,0.9187164306640624,1.1280517578125,1.081100463867188
240681,0.7467803955078125,0.9316253662109376,0.9939727783203124
240682,0.6757659912109375,0.945556640625,1.151809692382812
240683,0.6398468017578125,0.92315673828125,1.25091552734375
240684,0.578399658203125,0.6336212158203125,0.91864013671875
240685,0.482666015625,0.2015838623046875,0.354766845703125
240686,0.5109100341796875,0.285308837890625,0.1348419189453125
240687,0.550384521484375,0.3870697021484375,-0.111602783203125
240688,0.5159454345703125,0.2293243408203125,-0.3413848876953125
240689,0.4132232666015625,-0.0501861572265625,-0.4362030029296875
240690,0.23529052734375,-0.3072662353515625,-0.4697113037109375
240691,0.0026702880859375,-0.463165283203125,-0.3260345458984375
240692,-0.1851654052734375,-0.4897003173828125,-0.12445068359375
240693,-0.2534027099609375,-0.41534423828125,-0.02996826171875
240694,-0.231475830078125,-0.222442626953125,-0.1321563720703125
240695,-0.183624267578125,-0.0788421630859375,-0.197265625
240696,-0.170318603515625,-0.1776275634765625,-0.2047576904296875
240697,-0.179718017578125,-0.234222412109375,-0.244384765625
240698,-0.2492828369140625,-0.1958465576171875,-0.2159423828125
240699,-0.21673583984375,-0.042449951171875,0.046417236328125
240700,-0.1122894287109375,0.1017303466796875,0.366912841796875
240701,0.0233154296875,0.2059478759765625,0.6950225830078125
240702,0.2577362060546875,0.269378662109375,0.84906005859375
240703,0.6201324462890625,0.4140777587890625,0.9219512939453124
240704,1.14227294921875,0.6578369140625,1.093963623046875
240705,1.839370727539062,0.76611328125,1.352981567382812
240706,2.446853637695312,0.5835723876953125,1.337890625
240707,2.383255004882812,0.3556671142578125,-0.001007080078125
240708,2.492202758789062,0.0748291015625,0.07025146484375
240709,3.0155029296875,0.2920379638671875,1.335693359375
240710,3.040924072265625,0.9193267822265624,2.129470825195312
240711,2.272186279296875,1.422866821289062,2.8031005859375
240712,1.521453857421875,1.425552368164062,2.59539794921875
240713,1.055908203125,0.9378814697265624,1.3524169921875
240714,0.8592987060546875,0.62335205078125,0.519012451171875
240715,0.8191680908203125,0.4850921630859375,0.6574249267578125
240716,0.8550262451171875,0.4047088623046875,1.356964111328125
240717,0.79522705078125,0.4925689697265625,1.764755249023438
240718,0.6572265625,0.6065673828125,1.800857543945312
240719,0.528564453125,0.586181640625,1.723373413085938
240720,0.3244476318359375,0.544830322265625,1.475341796875
240721,0.0975189208984375,0.473236083984375,1.0220947265625
240722,-0.0180816650390625,0.3387908935546875,0.4966278076171875
240723,-0.0336761474609375,0.2624359130859375,0.170318603515625
240724,-0.01849365234375,0.335418701171875,0.220703125
240725,-0.04534912109375,0.4093475341796875,0.36285400390625
240726,-0.1382904052734375,0.3970489501953125,0.4849853515625
240727,-0.278961181640625,0.3014068603515625,0.5261688232421875
240728,-0.427581787109375,0.1318511962890625,0.468292236328125
240729,-0.5112762451171875,-0.0073089599609375,0.3649444580078125
240730,-0.530426025390625,-0.0856781005859375,0.2398223876953125
240731,-0.5200653076171875,-0.1137237548828125,0.0829925537109375
240732,-0.5136260986328125,-0.1322021484375,-0.08624267578125
240733,-0.493316650390625,-0.1731414794921875,-0.184051513671875
240734,-0.42425537109375,-0.2206268310546875,-0.1101226806640625
240735,-0.273193359375,-0.1676177978515625,0.05908203125
240736,-0.0410919189453125,-0.0933837890625,0.1710662841796875
240737,0.1897735595703125,-0.0740509033203125,0.353668212890625
240738,0.414306640625,-0.0499420166015625,0.654876708984375
240739,0.6732940673828125,-0.0161285400390625,0.8903045654296875
240740,1.042724609375,-0.080230712890625,0.696258544921875
240741,1.442626953125,-0.4135894775390625,0.0380859375
240742,1.817947387695312,-0.726531982421875,-0.7020721435546875
240743,2.127899169921875,-0.5931549072265625,-0.7421417236328125
240744,2.296981811523438,-0.0821533203125,0.031097412109375
240745,2.382171630859375,0.58062744140625,0.87762451171875
240746,2.494140625,1.319320678710938,2.052093505859375
240747,2.475067138671875,2.047042846679688,2.747756958007812
240748,2.145492553710938,2.1463623046875,2.28533935546875
240749,1.553314208984375,1.298904418945312,1.688980102539062
240750,1.096298217773438,0.7650604248046875,1.430877685546875
240751,0.9122467041015624,0.846343994140625,1.418685913085938
240752,0.8577728271484375,1.014404296875,1.42486572265625
240753,0.8663787841796875,1.062423706054688,1.378143310546875
240754,0.91705322265625,0.97174072265625,1.255294799804688
240755,0.8578338623046875,0.666412353515625,0.9103240966796876
240756,0.6728515625,0.1890106201171875,0.5420379638671875
240757,0.577789306640625,0.0680999755859375,0.604095458984375
240758,0.51910400390625,0.157623291015625,0.76068115234375
240759,0.3933563232421875,0.1469879150390625,0.7354888916015625
240760,0.257354736328125,0.0583953857421875,0.56103515625
240761,0.1318206787109375,0.0039520263671875,0.404449462890625
240762,-0.0247650146484375,0.0453948974609375,0.376129150390625
240763,-0.2479248046875,0.117401123046875,0.32867431640625
240764,-0.5384674072265625,0.14825439453125,0.194244384765625
240765,-0.76104736328125,0.1735076904296875,0.1152496337890625
240766,-0.73492431640625,0.14508056640625,0.074188232421875
240767,-0.465545654296875,0.062835693359375,0.060546875
240768,-0.227386474609375,-0.02728271484375,0.0373992919921875
240769,-0.1374969482421875,-0.1284332275390625,-0.025482177734375
240770,-0.0379180908203125,-0.2520751953125,-0.0308685302734375
240771,0.16302490234375,-0.3348236083984375,0.082244873046875
240772,0.2998199462890625,-0.240020751953125,0.23748779296875
240773,0.2560882568359375,-0.0920562744140625,0.2682647705078125
240774,0.2253570556640625,0.0193939208984375,0.1955718994140625
240775,0.3178558349609375,0.111572265625,0.1059722900390625
240776,0.4590911865234375,0.1324462890625,0.061553955078125
240777,0.6331024169921875,0.2052764892578125,0.2273101806640625
240778,0.7805938720703125,0.1879425048828125,0.521728515625
240779,0.9643096923828124,0.0438079833984375,0.7451324462890625
240780,1.295883178710938,0.0140380859375,1.0421142578125
240781,1.74603271484375,0.3892059326171875,1.416763305664062
240782,2.260025024414062,1.344467163085938,1.476638793945312
240783,2.839523315429688,2.345245361328125,0.850860595703125
240784,3.218460083007812,2.694915771484375,0.8560333251953125
240785,2.568954467773438,1.931060791015625,1.471923828125
240786,1.5125732421875,1.011276245117188,1.738494873046875
240787,1.012741088867188,0.8198394775390625,1.49627685546875
240788,0.924560546875,0.72027587890625,1.178070068359375
240789,0.9196624755859376,0.548126220703125,1.081069946289062
240790,0.867156982421875,0.5224456787109375,1.178909301757812
240791,0.7423553466796875,0.61810302734375,1.362548828125
240792,0.57000732421875,0.824188232421875,1.376480102539062
240793,0.377166748046875,0.99835205078125,1.157562255859375
240794,0.181060791015625,1.00787353515625,0.9337310791015624
240795,0.050750732421875,0.8539581298828125,0.83319091796875
240796,-0.0399017333984375,0.670440673828125,0.6977386474609375
240797,-0.124237060546875,0.51177978515625,0.5515289306640625
240798,-0.2001495361328125,0.352935791015625,0.527618408203125
240799,-0.1683807373046875,0.230224609375,0.5451202392578125
240800,-0.0543060302734375,0.12481689453125,0.4026031494140625
240801,0.0532684326171875,0.0014801025390625,0.163787841796875
240802,0.16015625,-0.04840087890625,0.0635528564453125
240803,0.2155303955078125,-0.0709991455078125,0.069610595703125
240804,0.18341064453125,-0.114776611328125,0.0823516845703125
240805,0.0269775390625,-0.1964874267578125,0.0930328369140625
240806,-0.1772003173828125,-0.234649658203125,0.1993255615234375
240807,-0.308990478515625,-0.1348724365234375,0.44158935546875
240808,-0.3182220458984375,0.0525054931640625,0.60748291015625
240809,-0.2034454345703125,0.191497802734375,0.6627960205078125
240810,-0.0375518798828125,0.30145263671875,0.59686279296875
240811,0.254852294921875,0.41033935546875,0.53271484375
240812,0.6569976806640625,0.429931640625,0.5762481689453125
240813,0.9303131103515624,0.234893798828125,0.6845245361328125
240814,1.044189453125,-0.205474853515625,0.69598388671875
240815,1.138427734375,-0.6573333740234375,0.55438232421875
240816,1.265518188476562,-0.62310791015625,0.472259521484375
240817,1.470016479492188,-0.0043792724609375,0.653228759765625
240818,1.761260986328125,0.796051025390625,1.3741455078125
240819,1.895645141601562,1.885238647460938,2.270904541015625
240820,1.625885009765625,3.039657592773438,2.720733642578125
240821,0.978851318359375,3.399703979492188,2.718490600585938
240822,0.6409759521484375,2.1929931640625,2.136489868164062
240823,0.8764801025390625,1.367996215820312,1.617965698242188
240824,1.20947265625,1.177047729492188,1.283523559570312
240825,1.215118408203125,0.953094482421875,0.9255218505859376
240826,1.009002685546875,0.462799072265625,0.3653564453125
240827,0.8795318603515625,-0.21270751953125,-0.1991424560546875
240828,0.8104248046875,-0.170654296875,0.095916748046875
240829,0.6009521484375,0.0684356689453125,0.5004119873046875
240830,0.29754638671875,0.105712890625,0.66253662109375
240831,0.0461578369140625,0.0629425048828125,0.585693359375
240832,-0.1152496337890625,0.0934906005859375,0.4664306640625
240833,-0.2086181640625,0.2212677001953125,0.3189849853515625
240834,-0.3081817626953125,0.3795928955078125,0.1618804931640625
240835,-0.34796142578125,0.473052978515625,0.0338287353515625
240836,-0.2403106689453125,0.4066925048828125,-0.0553741455078125
240837,-0.045257568359375,0.2324981689453125,-0.1541595458984375
240838,0.0852508544921875,0.1090240478515625,-0.2542724609375
240839,0.1251678466796875,-0.0163726806640625,-0.328125
240840,0.23187255859375,-0.2164459228515625,-0.3788604736328125
240841,0.3309326171875,-0.4728546142578125,-0.3600921630859375
240842,0.278045654296875,-0.673248291015625,-0.189544677734375
240843,0.2266845703125,-0.497039794921875,0.1147308349609375
240844,0.27728271484375,-0.046875,0.3430938720703125
240845,0.2807159423828125,0.1851348876953125,0.3444671630859375
240846,0.30218505859375,0.239105224609375,0.3131103515625
240847,0.3887786865234375,0.2014007568359375,0.390289306640625
240848,0.5121917724609375,0.1694793701171875,0.5658111572265625
240849,0.697723388671875,0.1321868896484375,0.9873809814453124
240850,1.056640625,0.3564300537109375,1.469375610351562
240851,1.593841552734375,1.33404541015625,1.639312744140625
240852,2.141998291015625,2.177352905273438,1.579116821289062
240853,2.56591796875,2.430343627929688,1.716583251953125
240854,3.033843994140625,2.13800048828125,1.775711059570312
240855,3.007583618164062,1.178985595703125,1.369049072265625
240856,2.032958984375,0.61553955078125,0.8614654541015625
240857,1.322463989257812,0.5255889892578125,0.683013916015625
240858,1.18072509765625,0.502777099609375,0.782928466796875
240859,1.055709838867188,0.3916473388671875,1.168472290039062
240860,0.82470703125,0.3282470703125,1.5755615234375
240861,0.5364837646484375,0.477020263671875,1.6185302734375
240862,0.2777099609375,0.7164306640625,1.310760498046875
240863,0.12384033203125,0.78924560546875,1.009536743164062
240864,0.10150146484375,0.6786956787109375,0.846923828125
240865,0.11590576171875,0.4395599365234375,0.7502899169921875
240866,0.0414581298828125,0.289276123046875,0.6979827880859375
240867,-0.0233001708984375,0.2511749267578125,0.6773529052734375
240868,-0.0547943115234375,0.2344970703125,0.6380615234375
240869,-0.0606842041015625,0.1977386474609375,0.55291748046875
240870,-0.059600830078125,0.1287078857421875,0.42095947265625
240871,-0.079345703125,0.066864013671875,0.282623291015625
240872,-0.134002685546875,0.036102294921875,0.19866943359375
240873,-0.185546875,0.0159149169921875,0.1664581298828125
240874,-0.2121429443359375,0.0176239013671875,0.2045745849609375
240875,-0.2215728759765625,0.017852783203125,0.3228607177734375
240876,-0.2171478271484375,0.0682525634765625,0.4218902587890625
240877,-0.1656036376953125,0.16522216796875,0.3852386474609375
240878,-0.0497283935546875,0.240325927734375,0.3082427978515625
240879,0.1143798828125,0.2696533203125,0.3025665283203125
240880,0.342315673828125,0.2270965576171875,0.4256134033203125
240881,0.6781768798828125,0.1160736083984375,0.624847412109375
240882,1.029617309570312,-0.0659027099609375,0.6295623779296875
240883,1.372116088867188,-0.310760498046875,0.3858795166015625
240884,1.7291259765625,-0.6447906494140625,0.1410675048828125
240885,2.022445678710938,-0.8708343505859375,0.0378875732421875
240886,2.057113647460938,-0.67413330078125,0.2291107177734375
240887,1.957534790039062,-0.21844482421875,0.7170257568359375
240888,1.776412963867188,0.356292724609375,0.89044189453125
240889,1.481231689453125,0.9652862548828124,1.5760498046875
240890,1.112167358398438,1.328155517578125,2.100112915039062
240891,0.7531280517578125,1.560089111328125,2.167678833007812
240892,0.4790496826171875,1.429489135742188,1.757293701171875
240893,0.3555145263671875,1.095382690429688,1.43878173828125
240894,0.447967529296875,0.9027099609375,1.4010009765625
240895,0.5686798095703125,0.76531982421875,1.40875244140625
240896,0.5807037353515625,0.630157470703125,1.376617431640625
240897,0.5389862060546875,0.4495849609375,1.365707397460938
240898,0.4528656005859375,0.271636962890625,1.304092407226562
240899,0.390899658203125,0.1655426025390625,1.139205932617188
240900,0.3583831787109375,0.05950927734375,0.8678436279296875
240901,0.3389739990234375,-0.13409423828125,0.490875244140625
240902,0.32318115234375,-0.290557861328125,0.251922607421875
240903,0.3140716552734375,-0.1740875244140625,0.329254150390625
240904,0.25714111328125,0.001373291015625,0.4739990234375
240905,0.15545654296875,0.122283935546875,0.51239013671875
240906,0.0457000732421875,0.1620941162109375,0.4801177978515625
240907,-0.085418701171875,0.117462158203125,0.379302978515625
240908,-0.229461669921875,0.06817626953125,0.2389068603515625
240909,-0.324859619140625,0.0248870849609375,0.0953826904296875
240910,-0.315704345703125,0.0172119140625,-0.019989013671875
240911,-0.230865478515625,-0.013885498046875,-0.0746612548828125
240912,-0.064788818359375,-0.06280517578125,-0.0413970947265625
240913,0.2192230224609375,-0.138641357421875,-0.003326416015625
240914,0.50885009765625,-0.171478271484375,-0.0309295654296875
240915,0.7713775634765625,-0.09881591796875,-0.1440582275390625
240916,1.0047607421875,-0.06622314453125,-0.20654296875
240917,1.134552001953125,-0.0198974609375,-0.1474761962890625
240918,1.134918212890625,0.100982666015625,0.0080108642578125
240919,1.068405151367188,0.2777099609375,0.3610992431640625
240920,1.078048706054688,0.374359130859375,0.99493408203125
240921,1.3482666015625,0.403594970703125,1.729217529296875
240922,1.833389282226562,0.861724853515625,2.324493408203125
240923,2.360504150390625,1.474411010742188,1.768218994140625
240924,2.498855590820312,1.75006103515625,1.17376708984375
240925,2.0380859375,1.605560302734375,0.9398345947265624
240926,1.347808837890625,1.138275146484375,1.379837036132812
240927,0.939605712890625,0.95343017578125,2.0020751953125
240928,0.8244781494140625,0.9947509765625,2.377212524414062
240929,0.685699462890625,1.070663452148438,2.26318359375
240930,0.5621185302734375,1.145843505859375,1.59783935546875
240931,0.54852294921875,1.01324462890625,0.906402587890625
240932,0.5637359619140625,0.757171630859375,0.6097259521484375
240933,0.5321807861328125,0.5135498046875,0.74310302734375
240934,0.387054443359375,0.361602783203125,1.06170654296875
240935,0.1697845458984375,0.2711944580078125,1.202102661132812
240936,-0.0017852783203125,0.204193115234375,1.063186645507812
240937,-0.0975341796875,0.1337738037109375,0.752655029296875
240938,-0.15313720703125,0.0662994384765625,0.48333740234375
240939,-0.204681396484375,0.0045623779296875,0.40594482421875
240940,-0.2576141357421875,0.0070037841796875,0.4681243896484375
240941,-0.300201416015625,0.0586395263671875,0.5003509521484375
240942,-0.3111724853515625,0.092041015625,0.4492645263671875
240943,-0.2948150634765625,0.092132568359375,0.31829833984375
240944,-0.279052734375,0.068817138671875,0.157135009765625
240945,-0.26513671875,0.0364532470703125,-0.0080108642578125
240946,-0.2589111328125,-0.0150146484375,-0.0775299072265625
240947,-0.2399444580078125,-0.0719757080078125,0.0435638427734375
240948,-0.2464752197265625,-0.099609375,0.1566162109375
240949,-0.2952423095703125,-0.0623016357421875,0.0766143798828125
240950,-0.2553558349609375,-0.0226898193359375,0.076324462890625
240951,-0.1128997802734375,-0.0358734130859375,0.3068695068359375
240952,0.102996826171875,-0.102752685546875,0.589996337890625
240953,0.3902130126953125,-0.1999053955078125,0.8227386474609375
240954,0.701324462890625,-0.3643646240234375,0.897705078125
240955,0.988250732421875,-0.612701416015625,0.8029022216796875
240956,1.289703369140625,-0.848907470703125,0.508270263671875
240957,1.57525634765625,-0.9586944580078124,0.3029327392578125
240958,1.630264282226562,-0.8331146240234375,0.4543304443359375
240959,1.445556640625,-0.281005859375,1.030426025390625
240960,1.333450317382812,0.515380859375,1.816558837890625
240961,1.415145874023438,1.314926147460938,2.112884521484375
240962,1.215530395507812,2.365966796875,2.157180786132812
240963,0.808441162109375,2.993743896484375,2.337844848632812
240964,0.707763671875,2.466720581054688,2.214675903320312
240965,0.9269866943359376,1.390548706054688,1.7957763671875
240966,1.072601318359375,0.98046875,1.462997436523438
240967,1.1177978515625,0.8071746826171875,1.261138916015625
240968,1.025970458984375,0.49560546875,1.172698974609375
240969,0.72845458984375,0.049835205078125,0.8921356201171875
240970,0.4912872314453125,-0.0902862548828125,0.9035491943359376
240971,0.407379150390625,0.23529052734375,1.115646362304688
240972,0.28851318359375,0.430389404296875,0.998138427734375
240973,0.1879425048828125,0.4175872802734375,0.65655517578125
240974,0.139434814453125,0.383087158203125,0.373443603515625
240975,0.1041412353515625,0.3267974853515625,0.240753173828125
240976,0.03973388671875,0.2472991943359375,0.1698760986328125
240977,-0.0802001953125,0.12493896484375,0.0500946044921875
240978,-0.2001190185546875,-0.003021240234375,-0.060333251953125
240979,-0.28167724609375,-0.062408447265625,-0.0478057861328125
240980,-0.3603973388671875,-0.1088409423828125,0.0584564208984375
240981,-0.408355712890625,-0.1496429443359375,0.1392364501953125
240982,-0.3497772216796875,-0.169830322265625,0.1802215576171875
240983,-0.13800048828125,-0.146209716796875,0.2061614990234375
240984,0.115081787109375,-0.1337127685546875,0.1629791259765625
240985,0.3278961181640625,-0.0686187744140625,0.1034393310546875
240986,0.5100860595703125,0.051177978515625,0.0832061767578125
240987,0.6203155517578125,0.165496826171875,0.1017608642578125
240988,0.6941375732421875,0.2512359619140625,0.0068206787109375
240989,0.808349609375,0.305938720703125,-0.090118408203125
240990,1.048355102539062,0.4302215576171875,0.2458038330078125
240991,1.455352783203125,0.5499267578125,0.749237060546875
240992,1.862899780273438,0.7028656005859375,1.157257080078125
240993,2.114852905273438,0.8645477294921875,1.227523803710938
240994,2.384613037109375,0.9483642578125,1.512588500976562
240995,2.6241455078125,1.21075439453125,1.40191650390625
240996,2.45220947265625,1.331649780273438,1.12744140625
240997,1.7669677734375,1.053176879882812,1.164443969726562
240998,1.14398193359375,0.62274169921875,1.432144165039062
240999,0.862884521484375,0.6502532958984375,1.539642333984375
241000,0.7950439453125,0.8295440673828125,1.277572631835938
241001,0.6956939697265625,0.8416748046875,1.042984008789062
241002,0.6400299072265625,0.714385986328125,1.07720947265625
241003,0.6141357421875,0.6000213623046875,1.20233154296875
241004,0.5557708740234375,0.5394744873046875,1.268936157226562
241005,0.47637939453125,0.510040283203125,1.329742431640625
241006,0.3619232177734375,0.54443359375,1.42999267578125
241007,0.20477294921875,0.5886993408203125,1.4217529296875
241008,0.0285186767578125,0.552734375,1.24102783203125
241009,-0.14324951171875,0.4931488037109375,0.989166259765625
241010,-0.2493743896484375,0.5260009765625,0.773773193359375
241011,-0.3029327392578125,0.5533905029296875,0.6374664306640625
241012,-0.322540283203125,0.512451171875,0.583770751953125
241013,-0.3113861083984375,0.3986053466796875,0.53546142578125
241014,-0.2870025634765625,0.2266693115234375,0.3908843994140625
241015,-0.2543487548828125,0.0523223876953125,0.1908111572265625
241016,-0.2041168212890625,-0.0108642578125,0.069610595703125
241017,-0.144927978515625,-0.0489349365234375,0.0600433349609375
241018,-0.1019134521484375,-0.12518310546875,0.0841827392578125
241019,-0.1029815673828125,-0.2160797119140625,0.1264801025390625
241020,-0.15191650390625,-0.245513916015625,0.1864471435546875
241021,-0.220062255859375,-0.2093963623046875,0.238372802734375
241022,-0.1862030029296875,-0.124755859375,0.2490997314453125
241023,-0.0003204345703125,0.013641357421875,0.1868743896484375
241024,0.2230682373046875,0.1193389892578125,0.1748809814453125
241025,0.4260406494140625,0.0783538818359375,0.2375640869140625
241026,0.617706298828125,-0.08734130859375,0.3470611572265625
241027,0.8399200439453125,-0.286346435546875,0.358612060546875
241028,1.104354858398438,-0.4618377685546875,0.1921539306640625
241029,1.384201049804688,-0.5938262939453125,-0.0117950439453125
241030,1.54754638671875,-0.4858856201171875,0.261962890625
241031,1.593521118164062,-0.0566864013671875,1.05426025390625
241032,1.803146362304688,0.6314849853515625,1.812484741210938
241033,2.103012084960938,1.309539794921875,1.401275634765625
241034,2.144760131835938,1.7244873046875,1.183441162109375
241035,1.9744873046875,1.869491577148438,1.61309814453125
241036,1.553787231445312,1.6962890625,1.7437744140625
241037,1.083969116210938,1.1807861328125,1.709197998046875
241038,0.804229736328125,0.824371337890625,1.770980834960938
241039,0.674835205078125,0.7385101318359375,1.814407348632812
241040,0.61468505859375,0.6197357177734375,1.54974365234375
241041,0.546142578125,0.4229278564453125,1.165512084960938
241042,0.4519805908203125,0.3310546875,0.9535675048828124
241043,0.2899322509765625,0.36285400390625,0.9807586669921876
241044,0.1091766357421875,0.442901611328125,1.169662475585938
241045,0.017425537109375,0.4958343505859375,1.243316650390625
241046,-0.0117645263671875,0.4106292724609375,1.000396728515625
241047,-0.0219573974609375,0.182952880859375,0.5336761474609375
241048,0.0061492919921875,0.00848388671875,0.15576171875
241049,0.0506439208984375,0.03131103515625,-0.023284912109375
241050,0.046234130859375,0.0890960693359375,-0.056427001953125
241051,-0.000885009765625,0.099761962890625,-3.0517578125e-05
241052,-0.0394744873046875,0.084320068359375,0.073486328125
241053,-0.0807647705078125,0.0454254150390625,0.1187286376953125
241054,-0.1394805908203125,0.0084228515625,0.1506500244140625
241055,-0.1651611328125,0.0007476806640625,0.1959991455078125
241056,-0.0973663330078125,0.017791748046875,0.2757568359375
241057,0.0662994384765625,0.106842041015625,0.352569580078125
241058,0.291473388671875,0.2548980712890625,0.4191741943359375
241059,0.5037841796875,0.2989654541015625,0.397308349609375
241060,0.6955718994140625,0.2905731201171875,0.2037353515625
241061,0.8765869140625,0.2498626708984375,-0.1132354736328125
241062,1.038238525390625,0.0785675048828125,-0.3032989501953125
241063,1.183731079101562,-0.2182464599609375,-0.10345458984375
241064,1.312271118164062,-0.463958740234375,0.4290313720703125
241065,1.431427001953125,-0.336883544921875,1.07958984375
241066,1.524520874023438,0.28509521484375,1.7049560546875
241067,1.712448120117188,1.126068115234375,1.814437866210938
241068,1.91424560546875,1.688079833984375,1.460891723632812
241069,1.918075561523438,1.730972290039062,0.9156341552734376
241070,1.6060791015625,1.173187255859375,0.7788543701171875
241071,1.087158203125,0.7222747802734375,1.236679077148438
241072,0.775543212890625,0.7027130126953125,1.674057006835938
241073,0.59912109375,0.6849822998046875,1.743057250976562
241074,0.4756927490234375,0.6809539794921875,1.530807495117188
241075,0.4633331298828125,0.704833984375,1.352401733398438
241076,0.475006103515625,0.67047119140625,1.31829833984375
241077,0.4282989501953125,0.6329498291015625,1.361587524414062
241078,0.331207275390625,0.572967529296875,1.420761108398438
241079,0.2004241943359375,0.5300445556640625,1.49725341796875
241080,0.087158203125,0.5325927734375,1.505722045898438
241081,-0.0007781982421875,0.567169189453125,1.384902954101562
241082,-0.10736083984375,0.6093902587890625,1.1502685546875
241083,-0.21990966796875,0.587982177734375,0.8532257080078125
241084,-0.286956787109375,0.50531005859375,0.5810394287109375
241085,-0.3169097900390625,0.3397979736328125,0.3865509033203125
241086,-0.3057708740234375,0.0978851318359375,0.2201995849609375
241087,-0.2548370361328125,-0.1494598388671875,0.0644073486328125
241088,-0.176239013671875,-0.31903076171875,0.0499267578125
241089,-0.0918426513671875,-0.2712860107421875,0.232757568359375
241090,-0.03936767578125,-0.1996002197265625,0.4088134765625
241091,-0.0442352294921875,-0.206939697265625,0.450592041015625
241092,-0.045074462890625,-0.206298828125,0.43768310546875
241093,-0.0355224609375,-0.1597442626953125,0.41375732421875
241094,-0.0454254150390625,-0.086090087890625,0.399200439453125
241095,0.000457763671875,-0.0135345458984375,0.51580810546875
241096,0.1954345703125,-0.0088653564453125,0.778167724609375
241097,0.600311279296875,-0.1680450439453125,0.889190673828125
241098,1.10516357421875,-0.4256591796875,0.414031982421875
241099,1.567779541015625,-0.7000732421875,-0.7407379150390625
241100,1.989471435546875,-0.9546051025390624,-0.90045166015625
241101,2.046249389648438,-0.9316558837890624,-0.176055908203125
241102,1.710586547851562,-0.550018310546875,0.36376953125
241103,1.375152587890625,0.1534423828125,1.294082641601562
241104,1.253677368164062,0.8555908203125,1.96295166015625
241105,1.321136474609375,1.4063720703125,2.462066650390625
241106,1.210220336914062,1.986038208007812,2.531692504882812
241107,0.6761932373046875,2.234634399414062,2.032257080078125
241108,0.26397705078125,1.521621704101562,1.56549072265625
241109,0.3127288818359375,0.9373779296875,1.463623046875
241110,0.5481109619140625,0.83514404296875,1.5855712890625
241111,0.689727783203125,0.721893310546875,1.5614013671875
241112,0.73272705078125,0.5115966796875,1.418670654296875
241113,0.6566619873046875,0.260284423828125,1.281082153320312
241114,0.5229034423828125,-0.019805908203125,1.107574462890625
241115,0.474822998046875,-0.10943603515625,1.084869384765625
241116,0.43658447265625,-0.0275421142578125,0.951568603515625
241117,0.2754974365234375,-0.0315704345703125,0.6663818359375
241118,0.1153717041015625,-0.0137786865234375,0.4202728271484375
241119,0.031005859375,0.0809783935546875,0.287841796875
241120,-0.0564727783203125,0.2141876220703125,0.2473907470703125
241121,-0.19073486328125,0.359710693359375,0.250274658203125
241122,-0.3406829833984375,0.4268951416015625,0.220062255859375
241123,-0.444091796875,0.3758544921875,0.1692962646484375
241124,-0.479766845703125,0.26837158203125,0.1237030029296875
241125,-0.4230194091796875,0.1752166748046875,0.1003570556640625
241126,-0.2524566650390625,0.077362060546875,0.084564208984375
241127,0.0793609619140625,-0.0879058837890625,-0.001556396484375
241128,0.487274169921875,-0.1735382080078125,-0.17657470703125
241129,0.70831298828125,-0.037261962890625,-0.3047637939453125
241130,0.733856201171875,0.1043243408203125,-0.3829803466796875
241131,0.7286834716796875,0.266937255859375,-0.4256439208984375
241132,0.8448333740234375,0.4011993408203125,-0.300323486328125
241133,1.062271118164062,0.2426605224609375,0.076507568359375
241134,1.493072509765625,-0.1544647216796875,0.7694854736328125
241135,2.147979736328125,-0.2551116943359375,1.577804565429688
241136,2.523544311523438,0.6838836669921875,2.109939575195312
241137,2.64739990234375,1.715850830078125,1.438766479492188
241138,2.740631103515625,2.103561401367188,0.6991119384765625
241139,2.699722290039062,1.518585205078125,0.604339599609375
241140,2.038192749023438,0.6839447021484375,0.71240234375
241141,1.367950439453125,0.3933868408203125,0.983734130859375
241142,1.02764892578125,0.4068450927734375,1.458267211914062
241143,0.8019561767578125,0.4565277099609375,1.697784423828125
241144,0.60986328125,0.455780029296875,1.620864868164062
241145,0.497528076171875,0.4150848388671875,1.370620727539062
241146,0.3556976318359375,0.347259521484375,1.183090209960938
241147,0.196075439453125,0.416168212890625,1.25201416015625
241148,0.105010986328125,0.582183837890625,1.394607543945312
241149,0.0451812744140625,0.6172637939453125,1.483505249023438
241150,0.0139007568359375,0.5301971435546875,1.487960815429688
241151,-0.0059051513671875,0.4251708984375,1.461334228515625
241152,-0.08135986328125,0.3711700439453125,1.36065673828125
241153,-0.21282958984375,0.384918212890625,1.157760620117188
241154,-0.3262939453125,0.414825439453125,0.9489593505859376
241155,-0.405303955078125,0.39678955078125,0.73089599609375
241156,-0.4230499267578125,0.306304931640625,0.5213623046875
241157,-0.395233154296875,0.1182861328125,0.32794189453125
241158,-0.332122802734375,-0.094512939453125,0.1605072021484375
241159,-0.2140045166015625,-0.1575775146484375,0.0940093994140625
241160,-0.107208251953125,-0.1097869873046875,0.077789306640625
241161,-0.055511474609375,-0.1134796142578125,0.1312255859375
241162,-0.035064697265625,-0.165283203125,0.288055419921875
241163,-0.0503997802734375,-0.186553955078125,0.4011383056640625
241164,-0.0976715087890625,-0.1648712158203125,0.383209228515625
241165,-0.134185791015625,-0.11322021484375,0.379425048828125
241166,-0.1361541748046875,-0.06646728515625,0.487335205078125
241167,-0.0883026123046875,-0.0518951416015625,0.73150634765625
241168,0.176727294921875,-0.198211669921875,1.063125610351562
241169,0.65985107421875,-0.459686279296875,1.039093017578125
241170,1.13653564453125,-0.57220458984375,0.508392333984375
241171,1.552505493164062,-0.5283203125,-0.0890045166015625
241172,1.960678100585938,-0.7041015625,-0.44171142578125
241173,2.107376098632812,-0.5422210693359375,-0.3662109375
241174,1.987228393554688,0.130767822265625,0.1763153076171875
241175,1.749588012695312,0.7145538330078125,0.4148101806640625
241176,1.511444091796875,0.846710205078125,1.025466918945312
241177,1.3074951171875,1.106246948242188,2.257537841796875
241178,1.083511352539062,1.643905639648438,2.78424072265625
241179,0.764739990234375,1.691375732421875,2.303680419921875
241180,0.4185028076171875,0.9000701904296875,1.554153442382812
241181,0.354217529296875,0.409332275390625,1.319854736328125
241182,0.5582733154296875,0.333099365234375,1.272705078125
241183,0.688323974609375,0.2220611572265625,1.289337158203125
241184,0.6782684326171875,0.1502532958984375,1.302886962890625
241185,0.6546478271484375,0.1822357177734375,1.219863891601562
241186,0.645172119140625,0.27850341796875,1.208724975585938
241187,0.56658935546875,0.4096832275390625,1.260513305664062
241188,0.428680419921875,0.4610748291015625,1.254196166992188
241189,0.2963104248046875,0.3854827880859375,1.089584350585938
241190,0.181182861328125,0.327484130859375,0.772979736328125
241191,0.049041748046875,0.3691558837890625,0.5074005126953125
241192,-0.0743865966796875,0.488525390625,0.4441375732421875
241193,-0.1844024658203125,0.5616607666015625,0.5121307373046875
241194,-0.282806396484375,0.54400634765625,0.542999267578125
241195,-0.3354949951171875,0.5147705078125,0.5465545654296875
241196,-0.346405029296875,0.4975128173828125,0.51641845703125
241197,-0.3137054443359375,0.4539642333984375,0.43017578125
241198,-0.207733154296875,0.394683837890625,0.3284454345703125
241199,-0.0289764404296875,0.300689697265625,0.20050048828125
241200,0.196014404296875,0.1624298095703125,0.033294677734375
241201,0.338714599609375,-0.0550079345703125,-0.1056060791015625
241202,0.476531982421875,-0.1522064208984375,-0.1345672607421875
241203,0.723419189453125,-0.1960296630859375,-0.13262939453125
241204,0.924468994140625,-0.11883544921875,-0.151947021484375
241205,1.006317138671875,-0.023040771484375,-0.0731964111328125
241206,1.071929931640625,0.0110321044921875,0.1810302734375
241207,1.180221557617188,0.0146026611328125,0.42498779296875
241208,1.363174438476562,0.092742919921875,0.519317626953125
241209,1.600555419921875,0.1983184814453125,0.7915496826171875
241210,1.873733520507812,0.213287353515625,1.151016235351562
241211,2.122665405273438,0.6119232177734375,1.286163330078125
241212,2.256851196289062,1.1116943359375,1.032333374023438
241213,2.049713134765625,1.25152587890625,1.190689086914062
241214,1.354232788085938,1.251174926757812,1.761764526367188
241215,0.7182769775390625,1.214309692382812,2.370895385742188
241216,0.3175201416015625,1.092727661132812,2.570663452148438
241217,0.1090545654296875,1.055160522460938,2.253280639648438
241218,0.1302947998046875,1.011444091796875,1.684066772460938
241219,0.218292236328125,0.792449951171875,1.135635375976562
241220,0.2935943603515625,0.471954345703125,0.9191436767578124
241221,0.32861328125,0.260406494140625,0.9810333251953124
241222,0.310791015625,0.1691741943359375,1.136581420898438
241223,0.242523193359375,0.1711273193359375,1.280181884765625
241224,0.1300201416015625,0.3141021728515625,1.382858276367188
241225,0.0033416748046875,0.494049072265625,1.390060424804688
241226,-0.1125640869140625,0.587005615234375,1.250030517578125
241227,-0.1936492919921875,0.4801025390625,1.012847900390625
241228,-0.243804931640625,0.2169342041015625,0.6641998291015625
241229,-0.2568817138671875,-0.0407867431640625,0.39984130859375
241230,-0.2215576171875,-0.0362548828125,0.310272216796875
241231,-0.205413818359375,0.02874755859375,0.2828216552734375
241232,-0.202789306640625,-0.0020294189453125,0.3362579345703125
241233,-0.2071990966796875,-0.0679168701171875,0.363250732421875
241234,-0.1940155029296875,-0.08563232421875,0.304718017578125
241235,-0.136444091796875,-0.0286865234375,0.1483612060546875
241236,-0.0416259765625,0.0533447265625,-0.0439910888671875
241237,0.017333984375,0.098785400390625,-0.1380462646484375
241238,0.0398712158203125,0.0952301025390625,-0.0785980224609375
241239,0.0990753173828125,0.00750732421875,0.1683502197265625
241240,0.2088623046875,-0.1378021240234375,0.5292510986328125
241241,0.3707275390625,-0.3592529296875,0.884033203125
241242,0.6360626220703125,-0.643218994140625,1.031951904296875
241243,1.014556884765625,-0.9483489990234376,0.8567962646484375
241244,1.397354125976562,-1.189804077148438,0.602630615234375
241245,1.659286499023438,-1.191085815429688,0.69769287109375
241246,1.675247192382812,-0.7198333740234375,1.028823852539062
241247,1.409927368164062,0.1007080078125,1.34539794921875
241248,1.047698974609375,0.6232452392578125,1.560317993164062
241249,0.782318115234375,0.9818267822265624,1.679656982421875
241250,0.6321563720703125,1.456802368164062,1.584381103515625
241251,0.5631256103515625,2.048324584960938,1.6466064453125
241252,0.6966094970703125,2.14935302734375,1.725418090820312
241253,0.8538360595703125,1.5699462890625,1.68621826171875
241254,0.826507568359375,1.104339599609375,1.5701904296875
241255,0.737152099609375,0.891876220703125,1.478713989257812
241256,0.69732666015625,0.7553253173828125,1.468093872070312
241257,0.6240692138671875,0.683563232421875,1.378067016601562
241258,0.463226318359375,0.5005645751953125,1.075698852539062
241259,0.2779083251953125,0.339324951171875,0.7814483642578125
241260,0.1771392822265625,0.32403564453125,0.676361083984375
241261,0.1367034912109375,0.3578338623046875,0.6130523681640625
241262,0.0773773193359375,0.287841796875,0.46490478515625
241263,-0.0156402587890625,0.0597686767578125,0.1986236572265625
241264,-0.070037841796875,-0.1789703369140625,-0.10186767578125
241265,-0.052490234375,-0.3173828125,-0.30047607421875
241266,-0.014495849609375,-0.320098876953125,-0.382537841796875
241267,-0.012939453125,-0.2947845458984375,-0.302398681640625
241268,-0.022186279296875,-0.3121490478515625,-0.09686279296875
241269,0.01605224609375,-0.3270416259765625,0.1683349609375
241270,0.0966339111328125,-0.3258209228515625,0.293212890625
241271,0.20745849609375,-0.2415924072265625,0.22509765625
241272,0.3652191162109375,-0.1134796142578125,0.027069091796875
241273,0.5719146728515625,-0.0240020751953125,-0.1108856201171875
241274,0.7647857666015625,-0.0196380615234375,-0.113037109375
241275,0.8937530517578125,-0.0884857177734375,-0.045562744140625
241276,1.00018310546875,-0.1785125732421875,0.23345947265625
241277,1.078628540039062,-0.0376739501953125,0.6898193359375
241278,1.021453857421875,0.58587646484375,1.525009155273438
241279,1.075103759765625,1.306640625,2.312179565429688
241280,1.378204345703125,1.796127319335938,1.573410034179688
241281,1.721359252929688,1.78778076171875,0.85247802734375
241282,2.072311401367188,1.318511962890625,1.033050537109375
241283,2.217620849609375,0.9586029052734376,1.49725341796875
241284,2.0572509765625,0.78497314453125,1.62799072265625
241285,1.708114624023438,0.6109619140625,1.671234130859375
241286,1.31396484375,0.583038330078125,1.599761962890625
241287,1.022140502929688,0.5527496337890625,1.300247192382812
241288,0.885467529296875,0.3803863525390625,1.126113891601562
241289,0.6751556396484375,0.2991485595703125,1.174530029296875
241290,0.36138916015625,0.4339141845703125,1.179397583007812
241291,0.1529083251953125,0.618499755859375,1.160736083984375
241292,0.07879638671875,0.7212982177734375,1.16925048828125
241293,0.0329437255859375,0.7124481201171875,1.132354736328125
241294,-0.00347900390625,0.6589508056640625,1.034637451171875
241295,-0.02825927734375,0.5615234375,0.8676300048828125
241296,-0.0675048828125,0.4072113037109375,0.6913909912109375
241297,-0.12005615234375,0.21490478515625,0.5298309326171875
241298,-0.179229736328125,0.0045623779296875,0.3118438720703125
241299,-0.22003173828125,-0.212860107421875,0.069061279296875
241300,-0.201812744140625,-0.2710113525390625,0.00408935546875
241301,-0.1630401611328125,-0.1951141357421875,0.0181884765625
241302,-0.145111083984375,-0.1283416748046875,0.0243988037109375
241303,-0.1331329345703125,-0.182464599609375,0.079315185546875
241304,-0.1112518310546875,-0.27783203125,0.124114990234375
241305,-0.1036529541015625,-0.2733612060546875,0.167144775390625
241306,-0.13531494140625,-0.1975860595703125,0.2979583740234375
241307,-0.198028564453125,-0.0972747802734375,0.48492431640625
241308,-0.2424468994140625,0.0345611572265625,0.6707305908203125
241309,-0.178619384765625,0.1372833251953125,0.8930206298828125
241310,0.018035888671875,0.14569091796875,1.109466552734375
241311,0.3262786865234375,0.0865936279296875,1.2498779296875
241312,0.6746368408203125,0.025146484375,1.121185302734375
241313,1.06524658203125,-0.1263275146484375,0.6763458251953125
241314,1.408523559570312,-0.28680419921875,0.41632080078125
241315,1.611724853515625,0.0446014404296875,0.2030792236328125
241316,1.837295532226562,0.5295257568359375,0.4293060302734375
241317,1.968765258789062,1.140625,0.919036865234375
241318,1.859268188476562,1.59893798828125,1.542709350585938
241319,1.783493041992188,1.75738525390625,2.175140380859375
241320,1.654266357421875,1.786148071289062,2.121124267578125
241321,1.422134399414062,1.221603393554688,1.746353149414062
241322,1.136611938476562,0.7481689453125,1.292892456054688
241323,0.9904022216796876,0.558135986328125,0.9363861083984376
241324,0.9352874755859376,0.418548583984375,0.9036407470703124
241325,0.8411407470703125,0.3338623046875,1.0626220703125
241326,0.698822021484375,0.299285888671875,1.200637817382812
241327,0.6097564697265625,0.2775726318359375,1.236007690429688
241328,0.569061279296875,0.273162841796875,1.183502197265625
241329,0.5159454345703125,0.3096771240234375,0.9648895263671876
241330,0.47125244140625,0.298553466796875,0.6638031005859375
241331,0.4340667724609375,0.1230926513671875,0.2831878662109375
241332,0.356475830078125,-0.14959716796875,-0.13336181640625
241333,0.2318267822265625,-0.238983154296875,-0.2861480712890625
241334,0.058990478515625,-0.051666259765625,-0.10198974609375
241335,-0.1539764404296875,0.13214111328125,0.1873931884765625
241336,-0.3378753662109375,0.16705322265625,0.414581298828125
241337,-0.429840087890625,0.12213134765625,0.533660888671875
241338,-0.455810546875,0.078094482421875,0.52508544921875
241339,-0.5174713134765625,0.1262054443359375,0.44696044921875
241340,-0.548309326171875,0.2553863525390625,0.35650634765625
241341,-0.4803924560546875,0.3623046875,0.2509918212890625
241342,-0.3648681640625,0.3307342529296875,0.1302490234375
241343,-0.1827392578125,0.1459197998046875,0.0263214111328125
241344,0.0829925537109375,-0.1102447509765625,-0.053192138671875
241345,0.4073486328125,-0.3905029296875,-0.128662109375
241346,0.7132110595703125,-0.546234130859375,-0.047760009765625
241347,0.913665771484375,-0.5333404541015625,0.2610015869140625
241348,1.029800415039062,-0.5262298583984375,0.6212615966796875
241349,1.02606201171875,-0.3524017333984375,0.883758544921875
241350,1.056594848632812,-0.0521087646484375,1.139312744140625
241351,1.350311279296875,0.178985595703125,1.728958129882812
241352,1.83990478515625,0.9654998779296876,2.034378051757812
241353,2.1600341796875,1.980133056640625,0.8557281494140625
241354,2.026947021484375,1.843643188476562,0.5714874267578125
241355,1.988479614257812,1.004806518554688,1.734832763671875
241356,2.054351806640625,0.8426361083984375,2.419662475585938
241357,1.713180541992188,0.91436767578125,2.6072998046875
241358,1.141021728515625,0.8105316162109375,2.453399658203125
241359,0.716827392578125,0.7734832763671875,1.9637451171875
241360,0.5684661865234375,0.9021453857421876,1.465545654296875
241361,0.4912261962890625,1.058578491210938,1.2225341796875
241362,0.3106689453125,1.260284423828125,1.235076904296875
241363,0.109619140625,1.325698852539062,1.329971313476562
241364,0.015777587890625,1.198684692382812,1.393173217773438
241365,0.026031494140625,0.906341552734375,1.237106323242188
241366,0.0113677978515625,0.579010009765625,0.9078369140625
241367,-0.0138397216796875,0.374420166015625,0.5501861572265625
241368,0.0041046142578125,0.1150665283203125,0.1630859375
241369,0.108367919921875,-0.00274658203125,0.043426513671875
241370,0.224456787109375,0.00115966796875,0.155548095703125
241371,0.200347900390625,-0.087982177734375,0.1782684326171875
241372,0.068939208984375,-0.199371337890625,0.0618438720703125
241373,-0.111724853515625,-0.3060760498046875,-0.0225830078125
241374,-0.2695770263671875,-0.373809814453125,0.05352783203125
241375,-0.308990478515625,-0.330047607421875,0.201171875
241376,-0.252105712890625,-0.2408447265625,0.325286865234375
241377,-0.284271240234375,-0.0418548583984375,0.108184814453125
241378,-0.30780029296875,0.1689605712890625,-0.1285858154296875
241379,-0.2595672607421875,0.3007049560546875,-0.2048187255859375
241380,-0.13531494140625,0.3226776123046875,0.0197296142578125
241381,-0.0132293701171875,0.332122802734375,0.2300262451171875
241382,0.1755218505859375,0.2925262451171875,0.3801116943359375
241383,0.4370269775390625,0.130401611328125,0.5031280517578125
241384,0.7163848876953125,-0.069183349609375,0.6096954345703125
241385,0.9795074462890624,-0.2729034423828125,0.660675048828125
241386,1.22613525390625,-0.5246429443359375,0.7793731689453125
241387,1.493820190429688,-0.6277008056640625,1.120559692382812
241388,1.700698852539062,-0.1479339599609375,1.365509033203125
241389,1.83612060546875,0.7564697265625,1.173202514648438
241390,1.963958740234375,1.417922973632812,0.9026031494140624
241391,1.762924194335938,1.742294311523438,1.161788940429688
241392,1.49676513671875,1.775924682617188,1.88763427734375
241393,1.444000244140625,1.61175537109375,2.22027587890625
241394,1.443115234375,1.197906494140625,2.099578857421875
241395,1.242538452148438,0.9566192626953124,1.6737060546875
241396,1.0323486328125,0.804290771484375,1.235977172851562
241397,0.8831329345703125,0.6488037109375,1.063858032226562
241398,0.6796875,0.6263427734375,1.044296264648438
241399,0.45904541015625,0.6951904296875,1.091110229492188
241400,0.276947021484375,0.7827301025390625,1.172317504882812
241401,0.16204833984375,0.8110198974609375,1.121978759765625
241402,0.098480224609375,0.711639404296875,0.8837890625
241403,0.020263671875,0.4061737060546875,0.438934326171875
241404,-0.0949859619140625,-0.155731201171875,-0.14837646484375
241405,-0.0772857666015625,-0.130157470703125,-0.0605926513671875
241406,0.02313232421875,0.1123504638671875,0.228912353515625
241407,0.049285888671875,0.1145782470703125,0.2769927978515625
241408,-0.0082244873046875,-0.0858306884765625,0.1670074462890625
241409,-0.085601806640625,-0.2885284423828125,0.0558319091796875
241410,-0.1161346435546875,-0.368743896484375,-0.0794525146484375
241411,-0.1189422607421875,-0.375640869140625,-0.2576904296875
241412,-0.11376953125,-0.338897705078125,-0.4075164794921875
241413,-0.1375885009765625,-0.3170928955078125,-0.49951171875
241414,-0.174041748046875,-0.2569427490234375,-0.46990966796875
241415,-0.1289215087890625,-0.133819580078125,-0.2216949462890625
241416,0.00677490234375,0.019866943359375,0.122222900390625
241417,0.149383544921875,0.122406005859375,0.359130859375
241418,0.3099822998046875,0.08514404296875,0.5049896240234375
241419,0.4752197265625,0.0195159912109375,0.5209503173828125
241420,0.6056060791015625,0.0849456787109375,0.4534759521484375
241421,0.6566925048828125,0.220489501953125,0.5105133056640625
241422,0.8050994873046875,0.2404632568359375,1.001052856445312
241423,1.192428588867188,0.1638946533203125,2.130218505859375
241424,1.790863037109375,0.9036102294921876,3.23736572265625
241425,2.040603637695312,1.970657348632812,1.924957275390625
241426,1.98944091796875,1.927932739257812,1.0518798828125
241427,1.9058837890625,1.338409423828125,1.51263427734375
241428,1.574966430664062,1.0953369140625,2.252166748046875
241429,1.087554931640625,1.001953125,2.73187255859375
241430,0.8065948486328125,0.9447174072265624,2.563247680664062
241431,0.7680816650390625,0.9957733154296876,1.906753540039062
241432,0.7096405029296875,0.9959564208984376,1.258224487304688
241433,0.5485382080078125,1.028610229492188,1.099578857421875
241434,0.4097900390625,1.099472045898438,1.262420654296875
241435,0.2943115234375,1.048858642578125,1.38348388671875
241436,0.1824951171875,0.83038330078125,1.3345947265625
241437,0.057159423828125,0.537078857421875,1.040512084960938
241438,-0.0125885009765625,0.1319732666015625,0.4941864013671875
241439,0.0812530517578125,0.1000518798828125,0.2004241943359375
241440,0.21417236328125,0.2037811279296875,0.1132354736328125
241441,0.2726593017578125,0.1981048583984375,0.132965087890625
241442,0.2415618896484375,0.0875701904296875,0.141082763671875
241443,0.120941162109375,-0.075439453125,0.09942626953125
241444,-0.0599822998046875,-0.21734619140625,0.082977294921875
241445,-0.2915802001953125,-0.3255157470703125,0.1050567626953125
241446,-0.49066162109375,-0.3115997314453125,0.1355133056640625
241447,-0.559234619140625,-0.1551513671875,0.05523681640625
241448,-0.4951629638671875,0.0491943359375,-0.0602569580078125
241449,-0.4189605712890625,0.136810302734375,-0.0383758544921875
241450,-0.369293212890625,0.0831756591796875,0.0822601318359375
241451,-0.291168212890625,0.059906005859375,0.27545166015625
241452,-0.1910247802734375,0.11181640625,0.4002532958984375
241453,-0.0345306396484375,0.1155548095703125,0.446685791015625
241454,0.1810760498046875,0.03424072265625,0.5231475830078125
241455,0.4260711669921875,-0.1338958740234375,0.6385955810546875
241456,0.7098541259765625,-0.273223876953125,0.7307586669921875
241457,0.96551513671875,-0.2706756591796875,0.7154693603515625
241458,1.159072875976562,-0.113983154296875,0.6837921142578125
241459,1.324310302734375,0.19427490234375,0.66119384765625
241460,1.457366943359375,0.427764892578125,1.011138916015625
241461,1.607269287109375,0.7203369140625,1.452789306640625
241462,1.706680297851562,1.200729370117188,1.44451904296875
241463,1.731689453125,1.653457641601562,1.394760131835938
241464,1.758438110351562,1.899444580078125,1.508209228515625
241465,1.793838500976562,1.781494140625,1.668304443359375
241466,1.659637451171875,1.310073852539062,1.523361206054688
241467,1.416702270507812,1.029754638671875,1.277725219726562
241468,1.268325805664062,0.9859771728515624,1.268402099609375
241469,1.099365234375,0.9765777587890624,1.26495361328125
241470,0.8899078369140625,0.89874267578125,1.20245361328125
241471,0.7478485107421875,0.8314971923828125,1.10015869140625
241472,0.6389312744140625,0.68133544921875,0.9820098876953124
241473,0.5199737548828125,0.415496826171875,0.77618408203125
241474,0.442230224609375,0.040252685546875,0.23187255859375
241475,0.4677276611328125,-0.055572509765625,-0.082000732421875
241476,0.486083984375,0.1021728515625,-0.0330047607421875
241477,0.39312744140625,0.224578857421875,0.196380615234375
241478,0.2381744384765625,0.20196533203125,0.3499755859375
241479,0.0249481201171875,-0.021392822265625,0.2802581787109375
241480,-0.183441162109375,-0.2347412109375,0.054656982421875
241481,-0.32525634765625,-0.30206298828125,-0.1325531005859375
241482,-0.3922576904296875,-0.313140869140625,-0.19976806640625
241483,-0.3601837158203125,-0.29180908203125,-0.2764434814453125
241484,-0.290069580078125,-0.2901153564453125,-0.3669586181640625
241485,-0.2412872314453125,-0.28192138671875,-0.3768310546875
241486,-0.2149200439453125,-0.2651824951171875,-0.240753173828125
241487,-0.14556884765625,-0.2153167724609375,-0.0131378173828125
241488,0.0140838623046875,-0.114410400390625,0.26983642578125
241489,0.1984100341796875,0.0041351318359375,0.512939453125
241490,0.338836669921875,0.0500335693359375,0.6309814453125
241491,0.434478759765625,0.0057525634765625,0.5836944580078125
241492,0.5331268310546875,0.0570068359375,0.55096435546875
241493,0.7194976806640625,0.22467041015625,0.8111724853515625
241494,1.104705810546875,0.2606048583984375,1.38641357421875
241495,1.750579833984375,0.4242706298828125,2.236053466796875
241496,2.2938232421875,1.215545654296875,2.23455810546875
241497,2.477340698242188,1.765365600585938,1.661880493164062
241498,2.570175170898438,1.634307861328125,1.58447265625
241499,2.244598388671875,1.299209594726562,2.133438110351562
241500,1.497451782226562,1.072158813476562,2.616928100585938
241501,1.029495239257812,0.9898529052734376,2.42633056640625
241502,0.8810272216796875,0.97314453125,1.865081787109375
241503,0.7463226318359375,0.91815185546875,1.464126586914062
241504,0.5627593994140625,1.0048828125,1.356475830078125
241505,0.5008544921875,1.13104248046875,1.55194091796875
241506,0.488494873046875,1.008056640625,1.640670776367188
241507,0.3120574951171875,0.5168609619140625,1.182281494140625
241508,0.1698150634765625,0.1161651611328125,0.5717315673828125
241509,0.2237091064453125,0.2880859375,0.3872222900390625
241510,0.3300628662109375,0.40740966796875,0.2674102783203125
241511,0.3797454833984375,0.309844970703125,0.0296630859375
241512,0.378631591796875,0.0826416015625,-0.160430908203125
241513,0.3592071533203125,-0.138519287109375,-0.1986541748046875
241514,0.27716064453125,-0.2904052734375,-0.11541748046875
241515,0.0991668701171875,-0.3751678466796875,0.0644989013671875
241516,-0.148101806640625,-0.418243408203125,0.247222900390625
241517,-0.3935699462890625,-0.3441314697265625,0.3407745361328125
241518,-0.5562286376953125,-0.18109130859375,0.291015625
241519,-0.5779571533203125,-0.0063323974609375,0.0251922607421875
241520,-0.4925384521484375,0.100067138671875,-0.30853271484375
241521,-0.396209716796875,0.110198974609375,-0.4993743896484375
241522,-0.3069305419921875,0.0666656494140625,-0.4349517822265625
241523,-0.2648162841796875,0.01080322265625,-0.206787109375
241524,-0.2353057861328125,-0.0170135498046875,-0.0088043212890625
241525,-0.13531494140625,-0.047088623046875,0.2073974609375
241526,0.0341949462890625,-0.0988311767578125,0.4935302734375
241527,0.3137969970703125,-0.2343902587890625,0.8321075439453125
241528,0.6887664794921875,-0.4272613525390625,1.159088134765625
241529,1.057952880859375,-0.609161376953125,1.323455810546875
241530,1.370208740234375,-0.699371337890625,1.331878662109375
241531,1.601104736328125,-0.3752593994140625,0.9026641845703124
241532,1.599365234375,0.5179290771484375,0.79327392578125
241533,1.705963134765625,1.217880249023438,1.318283081054688
241534,1.841522216796875,1.784515380859375,1.289016723632812
241535,1.84283447265625,2.191268920898438,1.679672241210938
241536,1.8060302734375,2.38629150390625,2.422164916992188
241537,1.720001220703125,2.144912719726562,2.846023559570312
241538,1.458709716796875,1.54815673828125,2.387222290039062
241539,1.15936279296875,1.1380615234375,1.54730224609375
241540,1.083938598632812,0.89056396484375,1.308074951171875
241541,0.959716796875,0.8601531982421875,1.469512939453125
241542,0.714752197265625,0.8269195556640625,1.548568725585938
241543,0.46380615234375,0.5664215087890625,1.346847534179688
241544,0.3492431640625,0.12774658203125,0.685028076171875
241545,0.4457855224609375,0.092987060546875,0.37750244140625
241546,0.55517578125,0.27227783203125,0.356292724609375
241547,0.5775604248046875,0.2842864990234375,0.2498626708984375
241548,0.527099609375,-0.00946044921875,-0.113433837890625
241549,0.4348907470703125,-0.317962646484375,-0.374664306640625
241550,0.3353271484375,-0.449676513671875,-0.355804443359375
241551,0.2052154541015625,-0.472900390625,-0.2222442626953125
241552,-0.0134429931640625,-0.5304412841796875,-0.1976165771484375
241553,-0.2132415771484375,-0.5284881591796875,-0.2254180908203125
241554,-0.2236480712890625,-0.377899169921875,-0.2834014892578125
241555,-0.0838623046875,-0.2412567138671875,-0.3397979736328125
241556,-0.0276336669921875,-0.226409912109375,-0.2838134765625
241557,-0.0808563232421875,-0.19049072265625,-0.134246826171875
241558,-0.121551513671875,-0.1168060302734375,-0.0412445068359375
241559,-0.102508544921875,0.0142669677734375,0.0526275634765625
241560,-0.0092010498046875,0.185455322265625,0.2286834716796875
241561,0.106689453125,0.300994873046875,0.4141082763671875
241562,0.2078399658203125,0.2747955322265625,0.528900146484375
241563,0.331298828125,0.1083831787109375,0.530609130859375
241564,0.511260986328125,0.0258636474609375,0.4301910400390625
241565,0.740997314453125,0.0827484130859375,0.3005523681640625
241566,1.008560180664062,0.093414306640625,0.5977020263671875
241567,1.417556762695312,-0.016632080078125,1.73712158203125
241568,2.069976806640625,0.4338531494140625,2.506011962890625
241569,2.408599853515625,1.368972778320312,1.629867553710938
241570,2.433273315429688,1.928665161132812,1.384353637695312
241571,2.342849731445312,1.87713623046875,1.878463745117188
241572,1.86785888671875,1.513565063476562,2.40777587890625
241573,1.1806640625,0.9066162109375,2.4239501953125
241574,0.8583221435546875,0.7274932861328125,1.945816040039062
241575,0.6170806884765625,0.67791748046875,1.546432495117188
241576,0.370880126953125,0.5448455810546875,1.471282958984375
241577,0.1910400390625,0.5704345703125,1.655929565429688
241578,0.0260467529296875,0.7216949462890625,1.658111572265625
241579,-0.0666351318359375,0.784881591796875,1.51849365234375
241580,-0.0583038330078125,0.7395477294921875,1.303939819335938
241581,0.006500244140625,0.6334228515625,0.9229278564453124
241582,0.083526611328125,0.399810791015625,0.43109130859375
241583,0.17236328125,0.127349853515625,0.0635986328125
241584,0.2626190185546875,0.1470947265625,0.0486602783203125
241585,0.29345703125,0.21624755859375,0.13128662109375
241586,0.2442474365234375,0.1155548095703125,0.15203857421875
241587,0.1409149169921875,-0.1099395751953125,0.171295166015625
241588,-0.00177001953125,-0.3008880615234375,0.233123779296875
241589,-0.1579132080078125,-0.345672607421875,0.268768310546875
241590,-0.3161163330078125,-0.3055572509765625,0.1698760986328125
241591,-0.4258575439453125,-0.226776123046875,-0.0217132568359375
241592,-0.44317626953125,-0.12567138671875,-0.2544097900390625
241593,-0.34747314453125,-0.0019683837890625,-0.3851165771484375
241594,-0.208953857421875,0.0567626953125,-0.3434906005859375
241595,-0.0782318115234375,-0.0032958984375,-0.05755615234375
241596,-0.0015716552734375,-0.063323974609375,0.269287109375
241597,0.0651092529296875,0.028778076171875,0.3457183837890625
241598,0.2189788818359375,0.12213134765625,0.403350830078125
241599,0.453826904296875,0.0860443115234375,0.58905029296875
241600,0.81494140625,-0.1525115966796875,0.9860382080078124
241601,1.269882202148438,-0.4717864990234375,1.391937255859375
241602,1.609756469726562,-0.3702392578125,1.206985473632812
241603,1.769546508789062,0.212860107421875,1.273941040039062
241604,2.010787963867188,0.6976470947265625,1.164215087890625
241605,2.237579345703125,1.149185180664062,0.925933837890625
241606,2.4710693359375,1.47808837890625,1.599380493164062
241607,2.352096557617188,1.772872924804688,2.37554931640625
241608,1.853378295898438,1.862396240234375,2.662429809570312
241609,1.417617797851562,1.488632202148438,2.270355224609375
241610,1.095947265625,1.153244018554688,1.549148559570312
241611,0.9138946533203124,0.9908447265625,1.111602783203125
241612,0.82177734375,0.91729736328125,1.210037231445312
241613,0.7354736328125,0.8989410400390625,1.4215087890625
241614,0.6313934326171875,0.7744140625,1.523635864257812
241615,0.495880126953125,0.4367218017578125,1.209915161132812
241616,0.2998046875,-0.0970001220703125,0.5472259521484375
241617,0.307403564453125,-0.098236083984375,0.324005126953125
241618,0.3719024658203125,0.076019287109375,0.2848968505859375
241619,0.3212127685546875,-0.0466461181640625,0.06146240234375
241620,0.2463836669921875,-0.25103759765625,-0.2037353515625
241621,0.1815185546875,-0.4022369384765625,-0.366729736328125
241622,0.0989837646484375,-0.438446044921875,-0.3670501708984375
241623,-0.0022430419921875,-0.4339141845703125,-0.200958251953125
241624,-0.109619140625,-0.397613525390625,0.0242156982421875
241625,-0.2145843505859375,-0.2789306640625,0.1855010986328125
241626,-0.342742919921875,-0.14080810546875,0.1199493408203125
241627,-0.4091033935546875,-0.0311431884765625,-0.02764892578125
241628,-0.4007720947265625,0.0562591552734375,-0.10052490234375
241629,-0.36279296875,0.0911102294921875,-0.1773529052734375
241630,-0.317108154296875,0.0771636962890625,-0.2486419677734375
241631,-0.2171478271484375,0.0381011962890625,-0.0967559814453125
241632,-0.068511962890625,0.0573883056640625,0.26556396484375
241633,0.0726470947265625,0.0599212646484375,0.549896240234375
241634,0.1867828369140625,-0.0578460693359375,0.691009521484375
241635,0.332427978515625,-0.2613067626953125,0.7296142578125
241636,0.54266357421875,-0.3722381591796875,0.6962127685546875
241637,0.8741455078125,-0.3791961669921875,0.781494140625
241638,1.257583618164062,-0.3243865966796875,1.134933471679688
241639,1.8287353515625,0.0986785888671875,2.200424194335938
241640,2.492431640625,1.235321044921875,2.2559814453125
241641,2.774490356445312,2.041915893554688,1.420486450195312
241642,2.790679931640625,2.012954711914062,1.547195434570312
241643,2.413742065429688,1.5528564453125,2.148849487304688
241644,1.621444702148438,1.140487670898438,2.500656127929688
241645,1.144607543945312,0.9203338623046876,2.347381591796875
241646,1.0567626953125,0.8852386474609375,1.828414916992188
241647,0.9231719970703124,0.7086181640625,1.447463989257812
241648,0.7119598388671875,0.6132049560546875,1.382080078125
241649,0.5092620849609375,0.7130584716796875,1.412338256835938
241650,0.3465576171875,0.6811370849609375,1.331451416015625
241651,0.2619171142578125,0.4771728515625,1.20513916015625
241652,0.207611083984375,0.200469970703125,0.9056396484375
241653,0.1929931640625,-0.090118408203125,0.3548126220703125
241654,0.28765869140625,-0.093475341796875,0.099578857421875
241655,0.4146881103515625,0.0235443115234375,0.072265625
241656,0.4570770263671875,0.028839111328125,0.029052734375
241657,0.3979034423828125,-0.0670318603515625,-0.051513671875
241658,0.2704010009765625,-0.1927642822265625,-0.086517333984375
241659,0.114837646484375,-0.32366943359375,-0.04644775390625
241660,-0.05145263671875,-0.403411865234375,-0.031585693359375
241661,-0.2117462158203125,-0.406005859375,0.0118865966796875
241662,-0.35125732421875,-0.3582611083984375,0.1031341552734375
241663,-0.4503021240234375,-0.22540283203125,0.159393310546875
241664,-0.497314453125,-0.0218048095703125,0.072265625
241665,-0.5084686279296875,0.1580657958984375,-0.1229400634765625
241666,-0.470428466796875,0.2282867431640625,-0.2330780029296875
241667,-0.360992431640625,0.2157135009765625,-0.19329833984375
241668,-0.2314453125,0.20953369140625,-0.1552276611328125
241669,-0.083404541015625,0.1629638671875,0.0134124755859375
241670,0.1396026611328125,0.0101165771484375,0.3810882568359375
241671,0.4494171142578125,-0.2212371826171875,0.8874359130859375
241672,0.798828125,-0.430389404296875,1.339141845703125
241673,1.142868041992188,-0.5254364013671875,1.452011108398438
241674,1.459014892578125,-0.5170135498046875,1.571243286132812
241675,1.622207641601562,-0.20550537109375,1.8480224609375
241676,1.864501953125,0.4203948974609375,1.954925537109375
241677,2.201034545898438,1.1221923828125,0.7767333984375
241678,2.156326293945312,1.610763549804688,0.7721710205078125
241679,1.862533569335938,1.915084838867188,1.975875854492188
241680,1.546676635742188,2.228530883789062,2.889419555664062
241681,1.43414306640625,2.149505615234375,2.965499877929688
241682,1.263275146484375,1.440826416015625,2.270492553710938
241683,1.057769775390625,1.004989624023438,1.644439697265625
241684,0.9319305419921876,0.7989349365234375,1.40966796875
241685,0.8090362548828125,0.706573486328125,1.456161499023438
241686,0.6341400146484375,0.609619140625,1.47882080078125
241687,0.40179443359375,0.3411865234375,1.094390869140625
241688,0.18603515625,-0.0846405029296875,0.56005859375
241689,0.264862060546875,0.0955810546875,0.4619598388671875
241690,0.380889892578125,0.244171142578125,0.31646728515625
241691,0.392120361328125,0.03204345703125,-0.028533935546875
241692,0.3822479248046875,-0.28436279296875,-0.445587158203125
241693,0.3530120849609375,-0.4931640625,-0.698944091796875
241694,0.3229522705078125,-0.5194854736328125,-0.6830596923828125
241695,0.2542266845703125,-0.465179443359375,-0.4476470947265625
241696,0.09381103515625,-0.465118408203125,-0.162353515625
241697,-0.131134033203125,-0.4365997314453125,0.0424346923828125
241698,-0.32855224609375,-0.2884979248046875,0.117218017578125
241699,-0.414337158203125,-0.1383819580078125,0.09014892578125
241700,-0.4130401611328125,-0.02374267578125,0.018768310546875
241701,-0.3917999267578125,0.104248046875,-0.0688629150390625
241702,-0.3368072509765625,0.197845458984375,-0.09912109375
241703,-0.2025909423828125,0.302703857421875,0.0109710693359375
241704,-0.02117919921875,0.4045257568359375,0.1864776611328125
241705,0.1277008056640625,0.42083740234375,0.298248291015625
241706,0.28759765625,0.3023681640625,0.373199462890625
241707,0.4840850830078125,0.088104248046875,0.408447265625
241708,0.734710693359375,-0.074310302734375,0.4381561279296875
241709,1.046112060546875,-0.1435089111328125,0.6154022216796875
241710,1.332794189453125,-0.185577392578125,1.289077758789062
241711,1.78436279296875,-0.167083740234375,2.819839477539062
241712,2.547195434570312,0.4616851806640625,2.765609741210938
241713,2.863723754882812,1.509902954101562,1.302871704101562
241714,2.572402954101562,1.81890869140625,1.0858154296875
241715,1.959762573242188,1.556137084960938,2.047958374023438
241716,1.214157104492188,1.27484130859375,2.941497802734375
241717,0.7910614013671875,1.0152587890625,2.946624755859375
241718,0.7205810546875,0.8616790771484375,2.195297241210938
241719,0.6819915771484375,0.724945068359375,1.394302368164062
241720,0.6273956298828125,0.5828857421875,1.077896118164062
241721,0.5418701171875,0.5973968505859375,1.181976318359375
241722,0.4021453857421875,0.593994140625,1.334213256835938
241723,0.229400634765625,0.521759033203125,1.39996337890625
241724,0.0542449951171875,0.3510894775390625,1.16888427734375
241725,-0.0343170166015625,0.0701141357421875,0.582061767578125
241726,0.0532073974609375,0.08282470703125,0.2965087890625
241727,0.192779541015625,0.21337890625,0.2239990234375
241728,0.2580108642578125,0.210784912109375,0.1255645751953125
241729,0.247344970703125,0.0971527099609375,0.0240325927734375
241730,0.159698486328125,-0.076171875,-0.0657958984375
241731,0.0360565185546875,-0.2413787841796875,-0.0942535400390625
241732,-0.11920166015625,-0.39813232421875,-0.1080169677734375
241733,-0.252349853515625,-0.46844482421875,-0.094390869140625
241734,-0.3067779541015625,-0.395355224609375,-0.04193115234375
241735,-0.2919158935546875,-0.226409912109375,-0.0478973388671875
241736,-0.2700653076171875,-0.0218353271484375,-0.1207427978515625
241737,-0.2527313232421875,0.1145477294921875,-0.169158935546875
241738,-0.2266845703125,0.1543426513671875,-0.138580322265625
241739,-0.1626739501953125,0.16412353515625,-0.009490966796875
241740,-0.08489990234375,0.2247772216796875,0.0783233642578125
241741,0.059600830078125,0.2609710693359375,0.21826171875
241742,0.3037261962890625,0.201751708984375,0.5754547119140625
241743,0.6270599365234375,0.071868896484375,1.016448974609375
241744,1.03472900390625,-0.055145263671875,1.406784057617188
241745,1.427505493164062,-0.0984649658203125,1.187835693359375
241746,1.633880615234375,0.17333984375,1.105941772460938
241747,1.779617309570312,0.6258544921875,0.8974456787109375
241748,2.017410278320312,0.9835357666015624,0.8427581787109375
241749,2.013870239257812,1.321762084960938,1.345672607421875
241750,1.8134765625,1.61468505859375,2.253952026367188
241751,1.53564453125,1.970306396484375,2.710861206054688
241752,1.510482788085938,1.816253662109375,2.190109252929688
241753,1.421981811523438,1.129898071289062,1.25970458984375
241754,1.132339477539062,0.756866455078125,0.9312896728515624
241755,0.960845947265625,0.6638031005859375,1.225006103515625
241756,0.8416290283203125,0.694183349609375,1.510421752929688
241757,0.6691741943359375,0.7572784423828125,1.625213623046875
241758,0.52099609375,0.744384765625,1.6282958984375
241759,0.328704833984375,0.6406402587890625,1.39642333984375
241760,0.1507415771484375,0.5159912109375,0.9298858642578124
241761,0.1031646728515625,0.4233551025390625,0.433349609375
241762,0.0865478515625,0.145416259765625,-0.116973876953125
241763,0.07489013671875,-0.2454681396484375,-0.463653564453125
241764,0.112548828125,-0.151885986328125,-0.235382080078125
241765,0.060394287109375,0.0667877197265625,-0.0190887451171875
241766,-0.03680419921875,0.1668701171875,0.0439300537109375
241767,-0.154541015625,-0.0255584716796875,0.0081787109375
241768,-0.229400634765625,-0.2720794677734375,-0.0415191650390625
241769,-0.1498260498046875,-0.2823333740234375,-0.093231201171875
241770,-0.0326385498046875,-0.2105865478515625,-0.167449951171875
241771,0.0314788818359375,-0.19146728515625,-0.3147735595703125
241772,0.068756103515625,-0.20953369140625,-0.431854248046875
241773,0.0821685791015625,-0.21435546875,-0.3921966552734375
241774,0.1071014404296875,-0.1728515625,-0.1586151123046875
241775,0.1498870849609375,-0.084259033203125,0.1101531982421875
241776,0.2412872314453125,0.0210418701171875,0.2425537109375
241777,0.3973846435546875,0.0819854736328125,0.2095794677734375
241778,0.556884765625,0.1207275390625,0.2706298828125
241779,0.700927734375,0.2100982666015625,0.630401611328125
241780,0.8560943603515625,0.36309814453125,1.124557495117188
241781,1.050460815429688,0.5998077392578125,1.707778930664062
241782,1.55047607421875,1.080108642578125,2.225601196289062
241783,1.978012084960938,1.345703125,1.54046630859375
241784,1.940628051757812,1.247329711914062,1.06561279296875
241785,2.125137329101562,0.9565887451171876,1.702728271484375
241786,2.391448974609375,1.008590698242188,2.314483642578125
241787,2.072540283203125,1.033294677734375,2.722976684570312
241788,1.409225463867188,0.8065338134765625,2.512985229492188
241789,0.9770965576171876,0.594024658203125,1.774978637695312
241790,0.7119598388671875,0.4837646484375,1.2587890625
241791,0.50067138671875,0.4371795654296875,1.269058227539062
241792,0.2472076416015625,0.49139404296875,1.554855346679688
241793,-0.030853271484375,0.6693572998046875,1.606033325195312
241794,-0.11962890625,0.6993560791015625,1.472412109375
241795,0.0018157958984375,0.592529296875,1.332626342773438
241796,0.0851593017578125,0.487762451171875,1.050125122070312
241797,0.0536956787109375,0.38238525390625,0.631439208984375
241798,0.023223876953125,0.324737548828125,0.2725982666015625
241799,0.067108154296875,0.2862091064453125,0.1150970458984375
241800,0.070220947265625,0.062774658203125,-0.0733795166015625
241801,-0.0120849609375,-0.2486419677734375,-0.289031982421875
241802,-0.047943115234375,-0.1910858154296875,-0.198028564453125
241803,-0.0965423583984375,-0.0478668212890625,0.020233154296875
241804,-0.2159881591796875,-0.0444488525390625,0.1604766845703125
241805,-0.3487396240234375,-0.1548919677734375,0.1781005859375
241806,-0.4062652587890625,-0.1434478759765625,0.07196044921875
241807,-0.3975830078125,-0.0003509521484375,-0.10968017578125
241808,-0.41839599609375,0.096923828125,-0.2364654541015625
241809,-0.4615631103515625,0.142242431640625,-0.16583251953125
241810,-0.43408203125,0.1688385009765625,0.0776519775390625
241811,-0.3354949951171875,0.2815704345703125,0.23516845703125
241812,-0.123199462890625,0.3779754638671875,0.3826751708984375
241813,0.190093994140625,0.323272705078125,0.554534912109375
241814,0.5291595458984375,0.138916015625,0.7305908203125
241815,0.855316162109375,-0.158050537109375,0.76373291015625
241816,1.316116333007812,-0.565765380859375,0.6781005859375
241817,1.808502197265625,-0.77191162109375,0.660736083984375
241818,2.039794921875,-0.317901611328125,0.961273193359375
241819,2.130996704101562,0.65899658203125,1.332794189453125
241820,2.255752563476562,1.58917236328125,1.472427368164062
241821,2.287796020507812,2.108200073242188,1.957763671875
241822,2.046707153320312,2.125411987304688,2.405242919921875
241823,1.6917724609375,1.678909301757812,2.159866333007812
241824,1.398696899414062,0.951446533203125,1.380218505859375
241825,1.197509765625,0.6605377197265625,0.9532928466796876
241826,1.12103271484375,0.546173095703125,1.158554077148438
241827,1.013458251953125,0.493621826171875,1.438034057617188
241828,0.8285064697265625,0.58355712890625,1.505020141601562
241829,0.655731201171875,0.747772216796875,1.41888427734375
241830,0.49200439453125,0.7596282958984375,1.163131713867188
241831,0.3224334716796875,0.6002044677734375,0.873260498046875
241832,0.1936492919921875,0.4275054931640625,0.5672454833984375
241833,0.0882720947265625,0.225067138671875,0.159576416015625
241834,-0.0114898681640625,-0.2239837646484375,-0.3271331787109375
241835,-0.0319976806640625,-0.2913360595703125,-0.1869659423828125
241836,-0.0414276123046875,-0.1028594970703125,0.15960693359375
241837,-0.08123779296875,0.0308380126953125,0.3284759521484375
241838,-0.153167724609375,0.025543212890625,0.316986083984375
241839,-0.22601318359375,-0.1257781982421875,0.221435546875
241840,-0.237884521484375,-0.2741851806640625,0.14093017578125
241841,-0.229736328125,-0.332763671875,0.0331878662109375
241842,-0.2554779052734375,-0.36962890625,-0.1383209228515625
241843,-0.3131256103515625,-0.349945068359375,-0.27362060546875
241844,-0.3690185546875,-0.291259765625,-0.279937744140625
241845,-0.3672637939453125,-0.1938323974609375,-0.1168670654296875
241846,-0.2579498291015625,-0.024200439453125,0.1941986083984375
241847,-0.1213226318359375,0.1342315673828125,0.453521728515625
241848,-0.0417633056640625,0.2186279296875,0.4589996337890625
241849,0.0989990234375,0.196929931640625,0.3111419677734375
241850,0.4082489013671875,0.08062744140625,0.432098388671875
241851,0.833221435546875,0.0341033935546875,0.884368896484375
241852,1.302947998046875,0.2951507568359375,1.313125610351562
241853,1.800872802734375,0.8733978271484375,1.77178955078125
241854,2.402252197265625,1.47821044921875,2.137847900390625
241855,2.986557006835938,1.724655151367188,1.510055541992188
241856,3.296295166015625,1.528396606445312,1.491119384765625
241857,3.089553833007812,1.277481079101562,1.687347412109375
241858,2.317413330078125,1.117691040039062,1.77093505859375
241859,1.598831176757812,1.012985229492188,1.747024536132812
241860,1.227645874023438,0.89617919921875,1.636962890625
241861,1.033065795898438,0.7529296875,1.661529541015625
241862,0.7665252685546875,0.739044189453125,1.597549438476562
241863,0.47784423828125,0.739410400390625,1.380828857421875
241864,0.3074493408203125,0.6178131103515625,1.239837646484375
241865,0.2794189453125,0.5054473876953125,1.193572998046875
241866,0.191253662109375,0.37030029296875,1.049789428710938
241867,0.04266357421875,0.2422943115234375,0.8230743408203125
241868,-0.0696868896484375,0.0667724609375,0.490020751953125
241869,-0.0608062744140625,-0.1185760498046875,0.18408203125
241870,0.0453948974609375,-0.1242218017578125,0.107391357421875
241871,0.080322265625,0.0521697998046875,0.15545654296875
241872,0.0090789794921875,0.171173095703125,0.1683349609375
241873,-0.1168365478515625,0.19439697265625,0.1566162109375
241874,-0.2721099853515625,0.13916015625,0.1571807861328125
241875,-0.367218017578125,0.0865936279296875,0.1575775146484375
241876,-0.4252166748046875,0.0539093017578125,0.1180267333984375
241877,-0.500274658203125,0.051666259765625,0.0664520263671875
241878,-0.53253173828125,0.071258544921875,0.0831146240234375
241879,-0.53961181640625,0.06585693359375,0.1340484619140625
241880,-0.5157928466796875,0.047210693359375,0.2616119384765625
241881,-0.496063232421875,0.0570068359375,0.4185791015625
241882,-0.471282958984375,0.116729736328125,0.5016937255859375
241883,-0.351837158203125,0.1632232666015625,0.5897369384765625
241884,-0.1147308349609375,0.194732666015625,0.6053924560546875
241885,0.26373291015625,0.180267333984375,0.4276275634765625
241886,0.776885986328125,0.010284423828125,-0.0912017822265625
241887,1.412872314453125,-0.370208740234375,-0.749114990234375
241888,2.227066040039062,-1.156448364257812,-0.600555419921875
241889,3.218597412109375,-1.83740234375,0.3842010498046875
241890,3.800704956054688,-0.5834503173828125,1.498092651367188
241891,3.716964721679688,1.083938598632812,1.873046875
241892,2.950042724609375,1.563247680664062,1.705886840820312
241893,1.885055541992188,1.656387329101562,1.026519775390625
241894,1.212570190429688,1.366851806640625,0.88165283203125
241895,0.926727294921875,0.9152374267578124,1.039749145507812
241896,0.9452972412109376,0.7359619140625,1.126708984375
241897,1.126541137695312,0.5934906005859375,1.417144775390625
241898,1.268325805664062,0.52325439453125,1.709228515625
241899,1.268463134765625,0.41033935546875,1.779388427734375
241900,1.134521484375,0.216278076171875,1.702728271484375
241901,0.9745941162109376,0.1239013671875,1.52447509765625
241902,0.8280181884765625,0.14520263671875,1.242172241210938
241903,0.6623992919921875,0.1827239990234375,0.9756317138671876
241904,0.46484375,0.157623291015625,0.8335723876953125
241905,0.2768096923828125,0.139862060546875,0.844024658203125
241906,0.1319580078125,0.2120513916015625,0.9095611572265624
241907,-0.0031585693359375,0.2879638671875,0.94171142578125
241908,-0.147735595703125,0.357208251953125,0.9138336181640624
241909,-0.2756805419921875,0.42816162109375,0.854217529296875
241910,-0.365966796875,0.476715087890625,0.840576171875
241911,-0.4501953125,0.495147705078125,0.748687744140625
241912,-0.5389251708984375,0.5001373291015625,0.42449951171875
241913,-0.5503997802734375,0.502960205078125,-0.0439453125
241914,-0.45770263671875,0.4980316162109375,-0.3613433837890625
241915,-0.3444366455078125,0.404815673828125,-0.4483795166015625
241916,-0.23028564453125,0.257568359375,-0.425048828125
241917,-0.1053924560546875,0.0638580322265625,-0.336944580078125
241918,0.0500946044921875,-0.1743316650390625,-0.256927490234375
241919,0.2098388671875,-0.4579315185546875,-0.1851654052734375
241920,0.3479766845703125,-0.6661834716796875,-0.07501220703125
241921,0.462432861328125,-0.5794219970703125,0.110931396484375
241922,0.491668701171875,-0.2232666015625,0.3087005615234375
241923,0.496612548828125,0.05474853515625,0.3823089599609375
241924,0.555023193359375,0.1691741943359375,0.4220733642578125
241925,0.6743011474609375,0.180450439453125,0.52154541015625
241926,0.8993682861328125,0.09649658203125,0.6255950927734375
241927,1.240371704101562,-0.00811767578125,0.7188720703125
241928,1.723922729492188,-0.0073699951171875,1.106765747070312
241929,2.41888427734375,0.3155059814453125,2.128524780273438
241930,2.920623779296875,0.90020751953125,1.950302124023438
241931,2.623703002929688,1.51031494140625,1.36468505859375
241932,1.875503540039062,1.541305541992188,1.386062622070312
241933,1.3170166015625,1.140090942382812,2.0623779296875
241934,1.103530883789062,0.8722686767578125,2.519149780273438
241935,0.9078826904296876,0.6898651123046875,2.442779541015625
241936,0.7726287841796875,0.55084228515625,1.922454833984375
241937,0.713287353515625,0.46734619140625,1.312179565429688
241938,0.5910797119140625,0.4632415771484375,0.968017578125
241939,0.44049072265625,0.540863037109375,0.900360107421875
241940,0.3081207275390625,0.48876953125,0.906585693359375
241941,0.186798095703125,0.2357940673828125,0.8750457763671875
241942,0.147735595703125,0.1720123291015625,0.8940277099609375
241943,0.14642333984375,0.1751556396484375,0.7707977294921875
241944,0.1605987548828125,0.13385009765625,0.5624542236328125
241945,0.1841583251953125,0.0660552978515625,0.3481903076171875
241946,0.1945648193359375,-0.0084991455078125,0.1077423095703125
241947,0.1842041015625,-0.02545166015625,-0.081268310546875
241948,0.1514129638671875,-0.018768310546875,-0.1416015625
241949,0.0982818603515625,-0.0210723876953125,-0.091827392578125
241950,0.02459716796875,-0.069488525390625,-0.0389251708984375
241951,-0.0538482666015625,-0.1209564208984375,-0.024139404296875
241952,-0.1059722900390625,-0.1170196533203125,0.02117919921875
