time_idx,accelerometerAccelerationX(G),accelerometerAccelerationY(G),accelerometerAccelerationZ(G)
300000,1.207916259765625,0.3823089599609375,0.243255615234375
300001,1.109771728515625,0.35626220703125,0.3412322998046875
300002,1.01531982421875,0.3342437744140625,0.4281768798828125
300003,0.93341064453125,0.3232574462890625,0.4742431640625
300004,0.8552093505859375,0.33111572265625,0.4695892333984375
300005,0.7706451416015625,0.339691162109375,0.4442596435546875
300006,0.682586669921875,0.34906005859375,0.440582275390625
300007,0.5989532470703125,0.363525390625,0.468475341796875
300008,0.5225067138671875,0.377777099609375,0.52166748046875
300009,0.4517822265625,0.3703460693359375,0.625946044921875
300010,0.3616485595703125,0.332122802734375,0.7488861083984375
300011,0.2609710693359375,0.314483642578125,0.8763885498046875
300012,0.1383056640625,0.3324737548828125,1.008132934570312
300013,-0.0128936767578125,0.403717041015625,1.153961181640625
300014,-0.1810302734375,0.498748779296875,1.28802490234375
300015,-0.3162841796875,0.601715087890625,1.414871215820312
300016,-0.4014434814453125,0.6696319580078125,1.51239013671875
300017,-0.4608306884765625,0.671417236328125,1.52471923828125
300018,-0.4921722412109375,0.621246337890625,1.45654296875
300019,-0.44757080078125,0.5735931396484375,1.365402221679688
300020,-0.350311279296875,0.5525360107421875,1.258193969726562
300021,-0.2505340576171875,0.5452880859375,1.15216064453125
300022,-0.151336669921875,0.540435791015625,1.08880615234375
300023,-0.0302734375,0.54254150390625,1.076034545898438
300024,0.1129150390625,0.5626983642578125,1.0806884765625
300025,0.2543487548828125,0.5909576416015625,1.09320068359375
300026,0.3577728271484375,0.5892486572265625,1.118423461914062
300027,0.42718505859375,0.505767822265625,1.13739013671875
300028,0.4876251220703125,0.42889404296875,1.086624145507812
300029,0.54541015625,0.3644866943359375,0.9205474853515624
300030,0.59381103515625,0.2911834716796875,0.648590087890625
300031,0.655059814453125,0.2531585693359375,0.4810638427734375
300032,0.7175445556640625,0.2481231689453125,0.452911376953125
300033,0.7492218017578125,0.2275848388671875,0.481842041015625
300034,0.749420166015625,0.184417724609375,0.5302581787109375
300035,0.736724853515625,0.1331787109375,0.5537872314453125
300036,0.7246551513671875,0.09173583984375,0.55279541015625
300037,0.7136688232421875,0.054107666015625,0.524688720703125
300038,0.6965179443359375,0.009674072265625,0.45489501953125
300039,0.6752471923828125,0.00054931640625,0.378509521484375
300040,0.66510009765625,0.05389404296875,0.334716796875
300041,0.70855712890625,0.1921539306640625,0.3519134521484375
300042,0.79052734375,0.3411407470703125,0.4187774658203125
300043,0.8370819091796875,0.441162109375,0.4319610595703125
300044,0.860870361328125,0.4732666015625,0.409759521484375
300045,0.9166412353515624,0.5287933349609375,0.3607330322265625
300046,1.009262084960938,0.585845947265625,0.2786407470703125
300047,1.127227783203125,0.5906524658203125,0.214691162109375
300048,1.234237670898438,0.5633544921875,0.2313079833984375
300049,1.275894165039062,0.5629730224609375,0.2353973388671875
300050,1.244827270507812,0.595001220703125,0.2734375
300051,1.170989990234375,0.6415557861328125,0.349151611328125
300052,1.090225219726562,0.676300048828125,0.4446563720703125
300053,1.025955200195312,0.6989593505859375,0.5044403076171875
300054,0.9940338134765624,0.6885223388671875,0.543914794921875
300055,0.963104248046875,0.6291656494140625,0.5531768798828125
300056,0.9310302734375,0.5475006103515625,0.5607757568359375
300057,0.8954620361328125,0.475128173828125,0.5901336669921875
300058,0.855316162109375,0.430694580078125,0.6324310302734375
300059,0.8091278076171875,0.3980560302734375,0.668792724609375
300060,0.7608184814453125,0.3744354248046875,0.701080322265625
300061,0.718536376953125,0.3516387939453125,0.72857666015625
300062,0.659454345703125,0.3178253173828125,0.7458953857421875
300063,0.594024658203125,0.2904052734375,0.7505340576171875
300064,0.514068603515625,0.2580108642578125,0.7485198974609375
300065,0.4174652099609375,0.2074127197265625,0.7602691650390625
300066,0.3181610107421875,0.157196044921875,0.78045654296875
300067,0.2067718505859375,0.1210174560546875,0.7749176025390625
300068,0.0838623046875,0.103363037109375,0.785888671875
300069,-0.0327301025390625,0.09869384765625,0.8494110107421875
300070,-0.160308837890625,0.11859130859375,0.9460296630859376
300071,-0.27801513671875,0.1525115966796875,1.069625854492188
300072,-0.36480712890625,0.1776123046875,1.20050048828125
300073,-0.4059295654296875,0.1812896728515625,1.300567626953125
300074,-0.4110870361328125,0.14013671875,1.350021362304688
300075,-0.3897552490234375,0.052490234375,1.332382202148438
300076,-0.33697509765625,-0.0457305908203125,1.260162353515625
300077,-0.230072021484375,-0.1103363037109375,1.174911499023438
300078,-0.059478759765625,-0.09649658203125,1.120147705078125
300079,0.1282958984375,-0.0346832275390625,1.100616455078125
300080,0.2995147705078125,0.0370635986328125,1.085189819335938
300081,0.448822021484375,0.1221466064453125,1.05010986328125
300082,0.5693817138671875,0.2158660888671875,0.99969482421875
300083,0.6702880859375,0.320159912109375,0.9188232421875
300084,0.7608184814453125,0.42938232421875,0.809844970703125
300085,0.8381500244140625,0.55657958984375,0.6785125732421875
300086,0.878936767578125,0.6627197265625,0.5785064697265625
300087,0.8734588623046875,0.7241363525390625,0.515838623046875
300088,0.8310394287109375,0.723541259765625,0.4683380126953125
300089,0.780914306640625,0.6708526611328125,0.47222900390625
300090,0.7301788330078125,0.6007232666015625,0.5046844482421875
300091,0.662628173828125,0.5491180419921875,0.5509185791015625
300092,0.5765228271484375,0.5438079833984375,0.628509521484375
300093,0.4702301025390625,0.5618438720703125,0.734527587890625
300094,0.3954010009765625,0.5723419189453125,0.8354034423828125
300095,0.3888397216796875,0.5564727783203125,0.902252197265625
300096,0.4211578369140625,0.543304443359375,0.8909759521484375
300097,0.47076416015625,0.5597686767578125,0.779693603515625
300098,0.541717529296875,0.592071533203125,0.623046875
300099,0.63299560546875,0.60882568359375,0.4618682861328125
300100,0.7200469970703125,0.6036834716796875,0.283782958984375
300101,0.79217529296875,0.5797576904296875,0.1243896484375
300102,0.884521484375,0.5355377197265625,0.068939208984375
300103,0.983612060546875,0.477935791015625,0.186370849609375
300104,1.023895263671875,0.4482269287109375,0.3791351318359375
300105,1.01873779296875,0.428131103515625,0.494354248046875
300106,1.001617431640625,0.4185028076171875,0.47296142578125
300107,0.972198486328125,0.430419921875,0.3899993896484375
300108,0.9467926025390624,0.4382171630859375,0.33526611328125
300109,0.9339599609375,0.4175262451171875,0.2986297607421875
300110,0.9397125244140624,0.3897247314453125,0.28680419921875
300111,0.95611572265625,0.359588623046875,0.3153533935546875
300112,0.9678192138671876,0.340728759765625,0.3725433349609375
300113,0.95733642578125,0.336883544921875,0.419769287109375
300114,0.91552734375,0.3395538330078125,0.4450531005859375
300115,0.8513946533203125,0.3605499267578125,0.4586181640625
300116,0.7821502685546875,0.3841400146484375,0.4864654541015625
300117,0.7054595947265625,0.417388916015625,0.524017333984375
300118,0.618804931640625,0.448211669921875,0.5752105712890625
300119,0.53887939453125,0.4466400146484375,0.63238525390625
300120,0.447357177734375,0.40277099609375,0.722686767578125
300121,0.358489990234375,0.3665313720703125,0.8441162109375
300122,0.2704925537109375,0.364715576171875,0.98095703125
300123,0.1605987548828125,0.4088592529296875,1.14208984375
300124,0.0206298828125,0.5003662109375,1.30224609375
300125,-0.12176513671875,0.62347412109375,1.448867797851562
300126,-0.2441864013671875,0.7686309814453125,1.552505493164062
300127,-0.3421478271484375,0.8538665771484375,1.582443237304688
300128,-0.3965301513671875,0.8431854248046875,1.55792236328125
300129,-0.3979949951171875,0.7738494873046875,1.455368041992188
300130,-0.348114013671875,0.714019775390625,1.29876708984375
300131,-0.26483154296875,0.673370361328125,1.13720703125
300132,-0.15960693359375,0.6446685791015625,1.04205322265625
300133,-0.0428009033203125,0.6153411865234375,1.049942016601562
300134,0.076080322265625,0.6141510009765625,1.083419799804688
300135,0.1949462890625,0.6117401123046875,1.091033935546875
300136,0.2938385009765625,0.5894317626953125,1.082611083984375
300137,0.3688507080078125,0.54296875,1.068862915039062
300138,0.4449920654296875,0.4284820556640625,1.03387451171875
300139,0.517425537109375,0.32708740234375,0.900482177734375
300140,0.5886993408203125,0.2837982177734375,0.7086181640625
300141,0.66839599609375,0.263427734375,0.4756622314453125
300142,0.7623138427734375,0.2628173828125,0.3581085205078125
300143,0.8264007568359375,0.2672119140625,0.3360443115234375
300144,0.8396453857421875,0.2544708251953125,0.3878021240234375
300145,0.816558837890625,0.23419189453125,0.4860382080078125
300146,0.7828216552734375,0.2107086181640625,0.544708251953125
300147,0.7462310791015625,0.1708831787109375,0.5458984375
300148,0.7022857666015625,0.1295928955078125,0.5134124755859375
300149,0.6448822021484375,0.09912109375,0.4516448974609375
300150,0.5968170166015625,0.0993499755859375,0.364959716796875
300151,0.5843505859375,0.130859375,0.28570556640625
300152,0.638427734375,0.2220458984375,0.262176513671875
300153,0.7522430419921875,0.357330322265625,0.3162689208984375
300154,0.829315185546875,0.4575653076171875,0.4039306640625
300155,0.86346435546875,0.4850616455078125,0.464874267578125
300156,0.9234161376953124,0.51019287109375,0.4369354248046875
300157,1.011581420898438,0.5642242431640625,0.344879150390625
300158,1.099746704101562,0.596435546875,0.2135162353515625
300159,1.164703369140625,0.60784912109375,0.19097900390625
300160,1.180419921875,0.609283447265625,0.2482757568359375
300161,1.143280029296875,0.5935211181640625,0.3090667724609375
300162,1.10125732421875,0.5794830322265625,0.353118896484375
300163,1.049667358398438,0.563140869140625,0.43511962890625
300164,0.9812469482421876,0.571014404296875,0.50201416015625
300165,0.914947509765625,0.5763702392578125,0.5258636474609375
300166,0.8657684326171875,0.5565185546875,0.522613525390625
300167,0.837860107421875,0.5245361328125,0.5283966064453125
300168,0.8143768310546875,0.4920806884765625,0.5817718505859375
300169,0.7892913818359375,0.4663848876953125,0.65399169921875
300170,0.7660675048828125,0.441131591796875,0.7210540771484375
300171,0.75042724609375,0.399658203125,0.7595672607421875
300172,0.7367401123046875,0.3395233154296875,0.7696685791015625
300173,0.69970703125,0.27593994140625,0.7631683349609375
300174,0.638763427734375,0.206878662109375,0.757232666015625
300175,0.5675201416015625,0.13800048828125,0.7558441162109375
300176,0.4863739013671875,0.0803680419921875,0.766204833984375
300177,0.3922576904296875,0.03289794921875,0.7772064208984375
300178,0.2752838134765625,0.012298583984375,0.7867889404296875
300179,0.151763916015625,0.0367584228515625,0.79193115234375
300180,0.0161895751953125,0.0778961181640625,0.851593017578125
300181,-0.118682861328125,0.1307373046875,0.9637298583984376
300182,-0.234954833984375,0.1900787353515625,1.088394165039062
300183,-0.3271484375,0.2406463623046875,1.212738037109375
300184,-0.3861083984375,0.25299072265625,1.320022583007812
300185,-0.41015625,0.2306060791015625,1.394317626953125
300186,-0.3954010009765625,0.185943603515625,1.404769897460938
300187,-0.3264007568359375,0.1366424560546875,1.359222412109375
300188,-0.2001190185546875,0.10174560546875,1.271713256835938
300189,-0.0528411865234375,0.0992431640625,1.16497802734375
300190,0.093231201171875,0.119720458984375,1.061767578125
300191,0.2337493896484375,0.1702423095703125,0.9745635986328124
300192,0.37200927734375,0.2396087646484375,0.910491943359375
300193,0.4987335205078125,0.3171844482421875,0.876190185546875
300194,0.62127685546875,0.4016265869140625,0.8574676513671875
300195,0.733062744140625,0.4923553466796875,0.8163604736328125
300196,0.8172607421875,0.561187744140625,0.747222900390625
300197,0.8701629638671875,0.6022796630859375,0.6764984130859375
300198,0.8869781494140625,0.59832763671875,0.623870849609375
300199,0.866546630859375,0.54156494140625,0.562713623046875
300200,0.82196044921875,0.4668426513671875,0.5091552734375
300201,0.775177001953125,0.433013916015625,0.502197265625
300202,0.7214813232421875,0.445281982421875,0.51715087890625
300203,0.656219482421875,0.4592132568359375,0.548797607421875
300204,0.57781982421875,0.4675750732421875,0.57818603515625
300205,0.5025177001953125,0.5078277587890625,0.6101837158203125
300206,0.4501190185546875,0.546966552734375,0.679656982421875
300207,0.4399566650390625,0.5521087646484375,0.7589111328125
300208,0.470947265625,0.5194854736328125,0.7965087890625
300209,0.5246429443359375,0.4835662841796875,0.7366180419921875
300210,0.59521484375,0.4460296630859375,0.590240478515625
300211,0.6776123046875,0.4102783203125,0.412139892578125
300212,0.7546844482421875,0.38604736328125,0.2623443603515625
300213,0.808441162109375,0.383575439453125,0.1910552978515625
300214,0.8701324462890625,0.412200927734375,0.2173919677734375
300215,0.9339447021484376,0.4601593017578125,0.33831787109375
300216,0.97015380859375,0.5017852783203125,0.468597412109375
300217,0.9497528076171876,0.49017333984375,0.5381011962890625
300218,0.9297027587890624,0.4985198974609375,0.5686187744140625
300219,0.9329376220703124,0.497283935546875,0.5719146728515625
300220,0.9283294677734376,0.483245849609375,0.5254669189453125
300221,0.933868408203125,0.4588470458984375,0.461181640625
300222,0.9543304443359376,0.407318115234375,0.398284912109375
300223,0.9793853759765624,0.3614349365234375,0.3563690185546875
300224,0.9944000244140624,0.3280792236328125,0.3598175048828125
300225,0.991607666015625,0.314727783203125,0.3851470947265625
300226,0.9640960693359376,0.3192596435546875,0.436767578125
300227,0.9166412353515624,0.3377532958984375,0.5020751953125
300228,0.849456787109375,0.36383056640625,0.5677642822265625
300229,0.758941650390625,0.3899383544921875,0.62322998046875
300230,0.6502532958984375,0.420196533203125,0.6489105224609375
300231,0.523040771484375,0.428863525390625,0.6680755615234375
300232,0.39208984375,0.41876220703125,0.713897705078125
300233,0.271697998046875,0.4049224853515625,0.8110504150390625
300234,0.150909423828125,0.386444091796875,0.9657440185546876
300235,0.0293731689453125,0.40850830078125,1.103973388671875
300236,-0.098968505859375,0.4767913818359375,1.224151611328125
300237,-0.2270355224609375,0.5662994384765625,1.333328247070312
300238,-0.326416015625,0.647735595703125,1.399093627929688
300239,-0.38763427734375,0.68280029296875,1.432861328125
300240,-0.4013519287109375,0.6737213134765625,1.420974731445312
300241,-0.358306884765625,0.6611175537109375,1.367431640625
300242,-0.278594970703125,0.6398162841796875,1.282241821289062
300243,-0.1831512451171875,0.6041107177734375,1.185195922851562
300244,-0.0797882080078125,0.5793609619140625,1.110549926757812
300245,0.03875732421875,0.577606201171875,1.072097778320312
300246,0.1710968017578125,0.59149169921875,1.061264038085938
300247,0.300048828125,0.5871124267578125,1.066390991210938
300248,0.393768310546875,0.574951171875,1.046279907226562
300249,0.445404052734375,0.5558624267578125,1.02801513671875
300250,0.4844512939453125,0.47955322265625,0.9933013916015624
300251,0.5110931396484375,0.4115753173828125,0.9322357177734376
300252,0.51788330078125,0.3487396240234375,0.817413330078125
300253,0.51959228515625,0.29949951171875,0.6354217529296875
300254,0.5523529052734375,0.2825927734375,0.54193115234375
300255,0.6031341552734375,0.285491943359375,0.510498046875
300256,0.64373779296875,0.2796630859375,0.5193939208984375
300257,0.664337158203125,0.2538299560546875,0.5466461181640625
300258,0.67388916015625,0.2130279541015625,0.54095458984375
300259,0.676849365234375,0.1621246337890625,0.494964599609375
300260,0.6788482666015625,0.1110687255859375,0.4381866455078125
300261,0.6806182861328125,0.07452392578125,0.39398193359375
300262,0.6717987060546875,0.0460968017578125,0.365325927734375
300263,0.6734619140625,0.0287933349609375,0.34619140625
300264,0.7248992919921875,0.04376220703125,0.340179443359375
300265,0.807952880859375,0.08453369140625,0.3091278076171875
300266,0.89862060546875,0.2154388427734375,0.331512451171875
300267,0.9705657958984376,0.35137939453125,0.414794921875
300268,1.014144897460938,0.3784027099609375,0.4857177734375
300269,1.069305419921875,0.4029083251953125,0.4935302734375
300270,1.15625,0.5382537841796875,0.3860321044921875
300271,1.228591918945312,0.6522369384765625,0.2892608642578125
300272,1.2421875,0.7003631591796875,0.27618408203125
300273,1.194793701171875,0.7168731689453125,0.3635711669921875
300274,1.119186401367188,0.687255859375,0.426025390625
300275,1.06597900390625,0.6305999755859375,0.46636962890625
300276,1.01507568359375,0.59039306640625,0.5149993896484375
300277,0.952362060546875,0.5658416748046875,0.5573272705078125
300278,0.8898773193359375,0.5365447998046875,0.5532989501953125
300279,0.8344573974609375,0.5097808837890625,0.5074920654296875
300280,0.78485107421875,0.4883880615234375,0.4644927978515625
300281,0.7405548095703125,0.463958740234375,0.468048095703125
300282,0.706207275390625,0.4535064697265625,0.534637451171875
300283,0.677947998046875,0.4399566650390625,0.62744140625
300284,0.6408843994140625,0.425384521484375,0.7205657958984375
300285,0.5900421142578125,0.398223876953125,0.7868804931640625
300286,0.5353851318359375,0.367889404296875,0.8175048828125
300287,0.4825439453125,0.3389739990234375,0.8285064697265625
300288,0.4200592041015625,0.3075103759765625,0.82012939453125
300289,0.3530426025390625,0.2719268798828125,0.81658935546875
300290,0.2781219482421875,0.247650146484375,0.8261260986328125
300291,0.1846771240234375,0.2271270751953125,0.8380584716796875
300292,0.076263427734375,0.211212158203125,0.88189697265625
300293,-0.0433197021484375,0.20953369140625,0.9621429443359376
300294,-0.15869140625,0.2263336181640625,1.050933837890625
300295,-0.247406005859375,0.2556304931640625,1.141403198242188
300296,-0.2959442138671875,0.2783355712890625,1.22332763671875
300297,-0.306365966796875,0.2776641845703125,1.260543823242188
300298,-0.2839508056640625,0.243896484375,1.254348754882812
300299,-0.236541748046875,0.19384765625,1.218795776367188
300300,-0.15264892578125,0.1585235595703125,1.15570068359375
300301,-0.0241546630859375,0.15460205078125,1.074920654296875
300302,0.1296844482421875,0.1846466064453125,1.0137939453125
300303,0.2646942138671875,0.222381591796875,0.9837646484375
300304,0.3781585693359375,0.2657928466796875,0.967254638671875
300305,0.477935791015625,0.3296966552734375,0.94586181640625
300306,0.56866455078125,0.412933349609375,0.9203033447265624
300307,0.6475830078125,0.4925689697265625,0.86761474609375
300308,0.6993255615234375,0.5466156005859375,0.7734832763671875
300309,0.712371826171875,0.574554443359375,0.67376708984375
300310,0.68817138671875,0.5947723388671875,0.6139984130859375
300311,0.64404296875,0.592498779296875,0.594329833984375
300312,0.60064697265625,0.5601348876953125,0.6053619384765625
300313,0.5683135986328125,0.5187835693359375,0.62994384765625
300314,0.5440826416015625,0.4869232177734375,0.6309356689453125
300315,0.520111083984375,0.46905517578125,0.628265380859375
300316,0.4852294921875,0.464080810546875,0.64111328125
300317,0.4432830810546875,0.4638824462890625,0.6681671142578125
300318,0.40521240234375,0.46160888671875,0.7120361328125
300319,0.396453857421875,0.451629638671875,0.7654571533203125
300320,0.4348907470703125,0.4445648193359375,0.8163299560546875
300321,0.5162200927734375,0.447509765625,0.7969512939453125
300322,0.620513916015625,0.4456787109375,0.7013397216796875
300323,0.72784423828125,0.44512939453125,0.5689239501953125
300324,0.8144073486328125,0.427490234375,0.4240875244140625
300325,0.8728790283203125,0.40313720703125,0.3017730712890625
300326,0.9193115234375,0.3974151611328125,0.263763427734375
300327,0.9705657958984376,0.4109039306640625,0.3527984619140625
300328,0.9916229248046876,0.455413818359375,0.508087158203125
300329,0.952880859375,0.483917236328125,0.6174774169921875
300330,0.87982177734375,0.4718017578125,0.6597137451171875
300331,0.8150634765625,0.46246337890625,0.6418304443359375
300332,0.785614013671875,0.4445953369140625,0.59454345703125
300333,0.7947235107421875,0.4160308837890625,0.5525360107421875
300334,0.822265625,0.3826904296875,0.5079193115234375
300335,0.8581085205078125,0.352630615234375,0.4607086181640625
300336,0.8917694091796875,0.3264312744140625,0.4249267578125
300337,0.8985595703125,0.3069305419921875,0.4091339111328125
300338,0.877044677734375,0.30023193359375,0.40887451171875
300339,0.8395538330078125,0.3120880126953125,0.4156341552734375
300340,0.788299560546875,0.335357666015625,0.440582275390625
300341,0.7263336181640625,0.362060546875,0.4891815185546875
300342,0.6598663330078125,0.38177490234375,0.5562286376953125
300343,0.5903778076171875,0.3833465576171875,0.6411895751953125
300344,0.518951416015625,0.379364013671875,0.7332000732421875
300345,0.4515380859375,0.3834228515625,0.8351287841796875
300346,0.3809814453125,0.3901519775390625,0.938507080078125
300347,0.283660888671875,0.4071044921875,1.032516479492188
300348,0.152984619140625,0.4453125,1.121612548828125
300349,0.0126190185546875,0.5128173828125,1.207199096679688
300350,-0.1292266845703125,0.598419189453125,1.266021728515625
300351,-0.249755859375,0.682586669921875,1.297256469726562
300352,-0.33148193359375,0.7456512451171875,1.29168701171875
300353,-0.350341796875,0.7826690673828125,1.270004272460938
300354,-0.3106842041015625,0.7705230712890625,1.223068237304688
300355,-0.246337890625,0.7416839599609375,1.1583251953125
300356,-0.1770477294921875,0.72509765625,1.1221923828125
300357,-0.1009063720703125,0.72149658203125,1.130905151367188
300358,-0.0161895751953125,0.6945037841796875,1.15924072265625
300359,0.0784759521484375,0.6512298583984375,1.179794311523438
300360,0.1728363037109375,0.634552001953125,1.16741943359375
300361,0.2527008056640625,0.6444854736328125,1.136093139648438
300362,0.3123626708984375,0.6364288330078125,1.095550537109375
300363,0.3556365966796875,0.59033203125,1.02032470703125
300364,0.39080810546875,0.5089263916015625,0.932098388671875
300365,0.4297637939453125,0.444061279296875,0.8470458984375
300366,0.4805450439453125,0.3968048095703125,0.66387939453125
300367,0.547332763671875,0.343963623046875,0.46856689453125
300368,0.60955810546875,0.2982177734375,0.3676605224609375
300369,0.6601715087890625,0.2704620361328125,0.3269805908203125
300370,0.70599365234375,0.25640869140625,0.3663787841796875
300371,0.741973876953125,0.2302398681640625,0.40447998046875
300372,0.765472412109375,0.185546875,0.4240570068359375
300373,0.7823333740234375,0.1274566650390625,0.408447265625
300374,0.799224853515625,0.1111907958984375,0.39410400390625
300375,0.8147735595703125,0.1352996826171875,0.412322998046875
300376,0.7740936279296875,0.0200653076171875,0.383544921875
300377,0.764678955078125,-0.0428009033203125,0.3684234619140625
300378,0.817596435546875,0.0366668701171875,0.35638427734375
300379,0.897979736328125,0.235443115234375,0.3399505615234375
300380,0.9530487060546876,0.394805908203125,0.3685302734375
300381,0.933258056640625,0.435760498046875,0.3729400634765625
300382,0.9079437255859376,0.5203704833984375,0.3883209228515625
300383,0.91192626953125,0.6326141357421875,0.42852783203125
300384,0.944122314453125,0.707489013671875,0.457122802734375
300385,0.9928436279296876,0.734466552734375,0.4710235595703125
300386,1.0218505859375,0.7418670654296875,0.46319580078125
300387,1.01226806640625,0.748504638671875,0.4654083251953125
300388,0.9994659423828124,0.760833740234375,0.49310302734375
300389,1.003341674804688,0.75213623046875,0.5270843505859375
300390,1.022476196289062,0.712982177734375,0.5406036376953125
300391,1.02972412109375,0.653656005859375,0.529571533203125
300392,1.00885009765625,0.597412109375,0.5310516357421875
300393,0.96295166015625,0.543365478515625,0.5494232177734375
300394,0.89129638671875,0.493804931640625,0.573211669921875
300395,0.798187255859375,0.45263671875,0.620452880859375
300396,0.7017364501953125,0.4218292236328125,0.67425537109375
300397,0.6174468994140625,0.4068603515625,0.7279052734375
300398,0.5449066162109375,0.39312744140625,0.781097412109375
300399,0.4839935302734375,0.3655242919921875,0.8365478515625
300400,0.4248046875,0.3288726806640625,0.8755645751953125
300401,0.3701171875,0.2803955078125,0.885101318359375
300402,0.3273468017578125,0.237823486328125,0.8719635009765625
300403,0.2688751220703125,0.213623046875,0.8539581298828125
300404,0.1775054931640625,0.2127838134765625,0.8467864990234375
300405,0.063201904296875,0.234405517578125,0.8634490966796875
300406,-0.05419921875,0.2591705322265625,0.913238525390625
300407,-0.1626739501953125,0.2653045654296875,0.9885101318359376
300408,-0.2446441650390625,0.2762298583984375,1.067001342773438
300409,-0.2936553955078125,0.27410888671875,1.126449584960938
300410,-0.30731201171875,0.2361297607421875,1.1690673828125
300411,-0.310089111328125,0.16546630859375,1.181686401367188
300412,-0.305389404296875,0.0895843505859375,1.160552978515625
300413,-0.2730255126953125,0.0396881103515625,1.122146606445312
300414,-0.1871490478515625,0.0345306396484375,1.08074951171875
300415,-0.050445556640625,0.086181640625,1.052032470703125
300416,0.1029510498046875,0.1611328125,1.01995849609375
300417,0.2371826171875,0.221923828125,0.9731597900390624
300418,0.3413543701171875,0.2624969482421875,0.937255859375
300419,0.429412841796875,0.310028076171875,0.925811767578125
300420,0.5186614990234375,0.3930511474609375,0.92352294921875
300421,0.614166259765625,0.484405517578125,0.8839874267578125
300422,0.708465576171875,0.5595703125,0.812957763671875
300423,0.7747039794921875,0.61590576171875,0.7444610595703125
300424,0.79583740234375,0.666778564453125,0.708099365234375
300425,0.7901763916015625,0.6874542236328125,0.6710968017578125
300426,0.768829345703125,0.6363372802734375,0.623443603515625
300427,0.734405517578125,0.546478271484375,0.591552734375
300428,0.6897735595703125,0.45611572265625,0.5678253173828125
300429,0.6434478759765625,0.385650634765625,0.5807342529296875
300430,0.6074981689453125,0.356292724609375,0.6298065185546875
300431,0.5855865478515625,0.36859130859375,0.6717529296875
300432,0.580902099609375,0.40020751953125,0.69732666015625
300433,0.598663330078125,0.4323577880859375,0.7209930419921875
300434,0.624420166015625,0.45062255859375,0.716033935546875
300435,0.650726318359375,0.47137451171875,0.6472625732421875
300436,0.70947265625,0.4887237548828125,0.5471954345703125
300437,0.7990570068359375,0.4967498779296875,0.4206085205078125
300438,0.8970489501953125,0.4899749755859375,0.269805908203125
300439,0.9872589111328124,0.469573974609375,0.2017364501953125
300440,1.065597534179688,0.449676513671875,0.2426300048828125
300441,1.127456665039062,0.4353790283203125,0.35186767578125
300442,1.138870239257812,0.4089508056640625,0.448089599609375
300443,1.1024169921875,0.4075469970703125,0.49859619140625
300444,1.051376342773438,0.4318695068359375,0.493408203125
300445,0.9964599609375,0.4340667724609375,0.4424896240234375
300446,0.948760986328125,0.42449951171875,0.4080352783203125
300447,0.9254150390625,0.4178466796875,0.419891357421875
300448,0.910614013671875,0.41729736328125,0.4416046142578125
300449,0.896697998046875,0.4156951904296875,0.4434356689453125
300450,0.8857269287109375,0.4113922119140625,0.4326629638671875
300451,0.877044677734375,0.400360107421875,0.420806884765625
300452,0.8546295166015625,0.3812713623046875,0.4197235107421875
300453,0.8114776611328125,0.366241455078125,0.4316864013671875
300454,0.7509765625,0.3577423095703125,0.4546051025390625
300455,0.6737518310546875,0.3528900146484375,0.4957122802734375
300456,0.5927581787109375,0.3511199951171875,0.556976318359375
300457,0.5172576904296875,0.3484344482421875,0.650054931640625
300458,0.42816162109375,0.3570709228515625,0.7720184326171875
300459,0.3201904296875,0.3737030029296875,0.9282684326171876
300460,0.201507568359375,0.4183349609375,1.076400756835938
300461,0.053497314453125,0.488189697265625,1.1981201171875
300462,-0.0911102294921875,0.541107177734375,1.296875
300463,-0.1983642578125,0.583404541015625,1.36273193359375
300464,-0.2742156982421875,0.624114990234375,1.35302734375
300465,-0.3250274658203125,0.620391845703125,1.280746459960938
300466,-0.3429718017578125,0.5989837646484375,1.187469482421875
300467,-0.3165435791015625,0.5801544189453125,1.114898681640625
300468,-0.268829345703125,0.55535888671875,1.067657470703125
300469,-0.2212982177734375,0.5546112060546875,1.029144287109375
300470,-0.16693115234375,0.583038330078125,1.010955810546875
300471,-0.097686767578125,0.6214141845703125,1.017852783203125
300472,-0.002166748046875,0.6546173095703125,1.029129028320312
300473,0.1085662841796875,0.67474365234375,1.028289794921875
300474,0.221771240234375,0.6975250244140625,1.04205322265625
300475,0.3253631591796875,0.7184600830078125,1.085983276367188
300476,0.399993896484375,0.7245330810546875,1.114776611328125
300477,0.4521636962890625,0.67352294921875,1.087371826171875
300478,0.48663330078125,0.5794830322265625,0.995208740234375
300479,0.5037841796875,0.50372314453125,0.8431396484375
300480,0.50592041015625,0.43212890625,0.661651611328125
300481,0.5230712890625,0.3831329345703125,0.5884552001953125
300482,0.5612640380859375,0.362457275390625,0.540679931640625
300483,0.612579345703125,0.3571624755859375,0.4679107666015625
300484,0.689208984375,0.3492889404296875,0.418487548828125
300485,0.7782745361328125,0.3159637451171875,0.3717041015625
300486,0.8410797119140625,0.2198638916015625,0.30267333984375
300487,0.883941650390625,0.12518310546875,0.244171142578125
300488,0.906951904296875,0.0660247802734375,0.230255126953125
300489,0.9035491943359376,0.0209197998046875,0.2537078857421875
300490,0.882720947265625,0.0021820068359375,0.3032073974609375
300491,0.8801422119140625,0.0308685302734375,0.297393798828125
300492,0.9280548095703124,0.152801513671875,0.2679443359375
300493,0.967864990234375,0.35516357421875,0.263458251953125
300494,0.9471588134765624,0.4245147705078125,0.2939910888671875
300495,0.91888427734375,0.4223175048828125,0.3582763671875
300496,0.950469970703125,0.495086669921875,0.4109954833984375
300497,1.025253295898438,0.6017303466796875,0.4436492919921875
300498,1.108139038085938,0.6759796142578125,0.40264892578125
300499,1.149124145507812,0.7092742919921875,0.393524169921875
300500,1.12115478515625,0.7243194580078125,0.4423065185546875
300501,1.04486083984375,0.7278900146484375,0.5042266845703125
300502,0.9556884765625,0.6938018798828125,0.5059051513671875
300503,0.8953857421875,0.6493988037109375,0.485565185546875
300504,0.8650054931640625,0.621337890625,0.48260498046875
300505,0.8437652587890625,0.5957183837890625,0.488250732421875
300506,0.8208770751953125,0.56781005859375,0.4830169677734375
300507,0.800872802734375,0.548431396484375,0.4748992919921875
300508,0.774505615234375,0.5262603759765625,0.47918701171875
300509,0.73968505859375,0.5057830810546875,0.5084991455078125
300510,0.695159912109375,0.48431396484375,0.560791015625
300511,0.635711669921875,0.4507598876953125,0.6331024169921875
300512,0.5675048828125,0.409698486328125,0.712890625
300513,0.5035552978515625,0.361297607421875,0.81036376953125
300514,0.46282958984375,0.308837890625,0.9120025634765624
300515,0.4526519775390625,0.2438507080078125,0.984588623046875
300516,0.449310302734375,0.1756744384765625,1.012039184570312
300517,0.409271240234375,0.15240478515625,0.9888916015625
300518,0.2899322509765625,0.1773223876953125,0.9476318359375
300519,0.1018218994140625,0.2276611328125,0.9391326904296876
300520,-0.1016845703125,0.288360595703125,0.994171142578125
300521,-0.2842864990234375,0.3325653076171875,1.083099365234375
300522,-0.422882080078125,0.36138916015625,1.16766357421875
300523,-0.4893646240234375,0.4011993408203125,1.202362060546875
300524,-0.491485595703125,0.4216461181640625,1.17083740234375
300525,-0.4611968994140625,0.3865203857421875,1.104080200195312
300526,-0.3961944580078125,0.317718505859375,1.02734375
300527,-0.30633544921875,0.238037109375,0.9769134521484376
300528,-0.192138671875,0.19183349609375,0.957244873046875
300529,-0.0572662353515625,0.212646484375,0.9506378173828124
300530,0.0801239013671875,0.271270751953125,0.963592529296875
300531,0.205902099609375,0.3040313720703125,1.001495361328125
300532,0.3231658935546875,0.3365631103515625,1.047195434570312
300533,0.44769287109375,0.37945556640625,1.074386596679688
300534,0.5783538818359375,0.426513671875,1.050064086914062
300535,0.7008819580078125,0.474761962890625,0.9740753173828124
300536,0.7768707275390625,0.518768310546875,0.8614654541015625
300537,0.8028564453125,0.567657470703125,0.7222137451171875
300538,0.7996063232421875,0.607635498046875,0.599578857421875
300539,0.7782440185546875,0.641357421875,0.5626678466796875
300540,0.7254791259765625,0.6433868408203125,0.590362548828125
300541,0.680084228515625,0.609344482421875,0.60443115234375
300542,0.6605682373046875,0.5803070068359375,0.6027069091796875
300543,0.652496337890625,0.5830230712890625,0.60797119140625
300544,0.6261138916015625,0.57733154296875,0.64508056640625
300545,0.57672119140625,0.53912353515625,0.6946868896484375
300546,0.531951904296875,0.509490966796875,0.711090087890625
300547,0.5104217529296875,0.5206756591796875,0.7193145751953125
300548,0.51470947265625,0.5653076171875,0.7314910888671875
300549,0.556640625,0.6022796630859375,0.7021331787109375
300550,0.6229705810546875,0.63751220703125,0.621337890625
300551,0.709381103515625,0.650360107421875,0.5054931640625
300552,0.80548095703125,0.6202545166015625,0.361663818359375
300553,0.90582275390625,0.5423126220703125,0.2425537109375
300554,1.00164794921875,0.4451446533203125,0.2064056396484375
300555,1.073822021484375,0.3929290771484375,0.2421417236328125
300556,1.11700439453125,0.39410400390625,0.3315582275390625
300557,1.098342895507812,0.4027862548828125,0.4079132080078125
300558,1.042556762695312,0.4271697998046875,0.4254608154296875
300559,0.9916534423828124,0.454559326171875,0.4165191650390625
300560,0.9544525146484376,0.436767578125,0.3684844970703125
300561,0.92449951171875,0.4217681884765625,0.3344268798828125
300562,0.8986663818359375,0.406890869140625,0.331207275390625
300563,0.88848876953125,0.383148193359375,0.3499908447265625
300564,0.8866729736328125,0.358734130859375,0.3811492919921875
300565,0.877044677734375,0.338897705078125,0.423919677734375
300566,0.84954833984375,0.32855224609375,0.4782867431640625
300567,0.7987060546875,0.3349456787109375,0.535400390625
300568,0.722991943359375,0.353607177734375,0.5830841064453125
300569,0.6147308349609375,0.379180908203125,0.62908935546875
300570,0.5122528076171875,0.436126708984375,0.6639862060546875
300571,0.4149932861328125,0.4778594970703125,0.7351531982421875
300572,0.32159423828125,0.465240478515625,0.8045806884765625
300573,0.250396728515625,0.442901611328125,0.890594482421875
300574,0.132293701171875,0.4427947998046875,1.019668579101562
300575,-0.007781982421875,0.490997314453125,1.162429809570312
300576,-0.1348876953125,0.554656982421875,1.322723388671875
300577,-0.2904205322265625,0.6118011474609375,1.430770874023438
300578,-0.4338531494140625,0.6641998291015625,1.46099853515625
300579,-0.5131988525390625,0.69940185546875,1.408233642578125
300580,-0.5273284912109375,0.71905517578125,1.2845458984375
300581,-0.481689453125,0.665313720703125,1.122909545898438
300582,-0.4188690185546875,0.597900390625,0.992584228515625
300583,-0.3449249267578125,0.601470947265625,0.93389892578125
300584,-0.2488555908203125,0.6489410400390625,0.9412384033203124
300585,-0.1387786865234375,0.6898956298828125,0.963470458984375
300586,-0.0272216796875,0.70648193359375,1.008834838867188
300587,0.0959014892578125,0.7027435302734375,1.082992553710938
300588,0.2227630615234375,0.6956634521484375,1.160171508789062
300589,0.349273681640625,0.689239501953125,1.201004028320312
300590,0.4545135498046875,0.668060302734375,1.186782836914062
300591,0.5245513916015625,0.6028900146484375,1.14935302734375
300592,0.5669708251953125,0.5183258056640625,0.975555419921875
300593,0.5740203857421875,0.470062255859375,0.6622314453125
300594,0.602447509765625,0.454681396484375,0.49560546875
300595,0.6842803955078125,0.4743804931640625,0.47515869140625
300596,0.8154296875,0.63104248046875,0.4782562255859375
300597,0.6031341552734375,0.405731201171875,0.025909423828125
300598,0.6820220947265625,0.1865997314453125,0.2801513671875
300599,0.857421875,0.3540802001953125,0.7771759033203125
300600,0.893402099609375,0.3468475341796875,0.53778076171875
300601,0.8029937744140625,0.202239990234375,0.4750213623046875
300602,0.720367431640625,0.0586395263671875,0.3411102294921875
300603,0.737518310546875,-0.0185394287109375,0.22821044921875
300604,0.8945770263671875,-0.01220703125,0.1316375732421875
300605,1.078201293945312,0.144012451171875,0.1170196533203125
300606,1.152694702148438,0.379302978515625,0.1579132080078125
300607,1.146835327148438,0.476531982421875,0.1870574951171875
300608,1.150146484375,0.5040740966796875,0.2144012451171875
300609,1.174240112304688,0.630706787109375,0.2085113525390625
300610,1.185638427734375,0.74066162109375,0.2069091796875
300611,1.180465698242188,0.739990234375,0.233551025390625
300612,1.1510009765625,0.6983642578125,0.298065185546875
300613,1.085250854492188,0.7024078369140625,0.3501739501953125
300614,1.019393920898438,0.742034912109375,0.3983612060546875
300615,0.972412109375,0.742034912109375,0.4244384765625
300616,0.940216064453125,0.6973724365234375,0.427764892578125
300617,0.917877197265625,0.6517181396484375,0.4527740478515625
300618,0.8906097412109375,0.60516357421875,0.531036376953125
300619,0.8706512451171875,0.5657958984375,0.6255950927734375
300620,0.8534088134765625,0.5276336669921875,0.6964569091796875
300621,0.8270111083984375,0.46575927734375,0.718475341796875
300622,0.7888031005859375,0.4004364013671875,0.688568115234375
300623,0.73724365234375,0.3392486572265625,0.64935302734375
300624,0.656585693359375,0.291839599609375,0.62713623046875
300625,0.5552520751953125,0.2378692626953125,0.662109375
300626,0.4607391357421875,0.1777801513671875,0.754364013671875
300627,0.386444091796875,0.12738037109375,0.855987548828125
300628,0.32147216796875,0.1051025390625,0.903472900390625
300629,0.2369232177734375,0.1021881103515625,0.90692138671875
300630,0.0734100341796875,0.1442718505859375,0.9228973388671876
300631,-0.1645355224609375,0.183685302734375,1.026687622070312
300632,-0.3656005859375,0.2562408447265625,1.198593139648438
300633,-0.4554290771484375,0.3909149169921875,1.306915283203125
300634,-0.48028564453125,0.457733154296875,1.38873291015625
300635,-0.5036773681640625,0.4417877197265625,1.401596069335938
300636,-0.461181640625,0.3956451416015625,1.352996826171875
300637,-0.3670806884765625,0.3240509033203125,1.294296264648438
300638,-0.27362060546875,0.2689971923828125,1.219390869140625
300639,-0.174835205078125,0.2315673828125,1.112564086914062
300640,-0.0414581298828125,0.1972503662109375,1.00421142578125
300641,0.1313323974609375,0.2135467529296875,0.909881591796875
300642,0.31671142578125,0.2724609375,0.834014892578125
300643,0.4887847900390625,0.347015380859375,0.7950897216796875
300644,0.6270294189453125,0.4319915771484375,0.7709808349609375
300645,0.74237060546875,0.514556884765625,0.7582855224609375
300646,0.8290863037109375,0.58709716796875,0.72137451171875
300647,0.8681640625,0.6236572265625,0.66357421875
300648,0.847686767578125,0.60174560546875,0.5910186767578125
300649,0.8007354736328125,0.5614013671875,0.5047454833984375
300650,0.7613067626953125,0.523345947265625,0.4647064208984375
300651,0.749114990234375,0.4980010986328125,0.48590087890625
300652,0.758636474609375,0.482635498046875,0.50360107421875
300653,0.7535400390625,0.437042236328125,0.479949951171875
300654,0.7064666748046875,0.3853912353515625,0.44921875
300655,0.6218414306640625,0.3788604736328125,0.438385009765625
300656,0.539154052734375,0.4028472900390625,0.49176025390625
300657,0.481231689453125,0.4498138427734375,0.6116790771484375
300658,0.4703369140625,0.4901123046875,0.77130126953125
300659,0.531707763671875,0.4738616943359375,0.85638427734375
300660,0.63018798828125,0.459228515625,0.75543212890625
300661,0.732269287109375,0.4680328369140625,0.5049896240234375
300662,0.8196258544921875,0.46728515625,0.30584716796875
300663,0.906463623046875,0.4413299560546875,0.21942138671875
300664,0.9886322021484376,0.4246368408203125,0.2172088623046875
300665,1.045074462890625,0.4237823486328125,0.3283233642578125
300666,1.09149169921875,0.4170989990234375,0.500885009765625
300667,1.099105834960938,0.4161529541015625,0.6049652099609375
300668,1.061721801757812,0.441131591796875,0.6392669677734375
300669,0.992919921875,0.4540557861328125,0.6200408935546875
300670,0.9390106201171876,0.449737548828125,0.5609283447265625
300671,0.9296722412109376,0.426849365234375,0.5060272216796875
300672,0.9485321044921876,0.380157470703125,0.47137451171875
300673,0.982879638671875,0.323211669921875,0.4588623046875
300674,1.01190185546875,0.280364990234375,0.486846923828125
300675,1.016448974609375,0.2476959228515625,0.5311126708984375
300676,0.9788360595703124,0.2367095947265625,0.56982421875
300677,0.9089508056640624,0.2412261962890625,0.5752105712890625
300678,0.82000732421875,0.264984130859375,0.5782012939453125
300679,0.727081298828125,0.2907562255859375,0.593231201171875
300680,0.6386260986328125,0.3051910400390625,0.6345062255859375
300681,0.5497589111328125,0.313201904296875,0.683868408203125
300682,0.4597015380859375,0.2949371337890625,0.7283477783203125
300683,0.3735504150390625,0.2668914794921875,0.7892608642578125
300684,0.273590087890625,0.246551513671875,0.84783935546875
300685,0.1575927734375,0.252777099609375,0.903564453125
300686,0.02587890625,0.2788543701171875,0.969696044921875
300687,-0.0992889404296875,0.3384552001953125,1.0322265625
300688,-0.2036895751953125,0.4063720703125,1.093582153320312
300689,-0.270751953125,0.46868896484375,1.190887451171875
300690,-0.2925872802734375,0.5029754638671875,1.294204711914062
300691,-0.2721710205078125,0.51214599609375,1.354751586914062
300692,-0.210662841796875,0.5187835693359375,1.372100830078125
300693,-0.1256561279296875,0.527099609375,1.333480834960938
300694,-0.032867431640625,0.5044708251953125,1.265335083007812
300695,0.0764923095703125,0.4808349609375,1.19775390625
300696,0.124359130859375,0.478363037109375,1.153518676757812
300697,0.1155853271484375,0.465362548828125,1.16400146484375
300698,0.3025054931640625,0.4301605224609375,1.003189086914062
300699,0.5402984619140625,0.3782196044921875,0.7339324951171875
300700,0.5151824951171875,0.2818450927734375,0.8719329833984375
300701,0.3805694580078125,0.195831298828125,1.210220336914062
300702,0.4297637939453125,0.147674560546875,1.101364135742188
300703,0.5532073974609375,0.1007232666015625,0.8662872314453125
300704,0.634857177734375,0.0862579345703125,0.709503173828125
300705,0.7204437255859375,0.045562744140625,0.5252227783203125
300706,0.7995452880859375,-0.0032501220703125,0.3569183349609375
300707,0.81463623046875,-0.005584716796875,0.3747100830078125
300708,0.77618408203125,0.0366668701171875,0.4750213623046875
300709,0.74285888671875,0.0820770263671875,0.5821990966796875
300710,0.735595703125,0.0930023193359375,0.619964599609375
300711,0.717987060546875,0.0688934326171875,0.5894012451171875
300712,0.68603515625,0.0320587158203125,0.5469970703125
300713,0.6779327392578125,0.0024261474609375,0.50335693359375
300714,0.6805419921875,-0.0154571533203125,0.444488525390625
300715,0.7343292236328125,0.056640625,0.438690185546875
300716,0.8006134033203125,0.1618499755859375,0.437225341796875
300717,0.8476715087890625,0.283447265625,0.4463043212890625
300718,0.87249755859375,0.3293914794921875,0.410491943359375
300719,0.9103240966796876,0.3912506103515625,0.34490966796875
300720,0.9680328369140624,0.52191162109375,0.3090972900390625
300721,1.001358032226562,0.6246185302734375,0.2951812744140625
300722,1.003250122070312,0.67401123046875,0.335693359375
300723,0.998016357421875,0.6968994140625,0.4219207763671875
300724,0.990325927734375,0.6925506591796875,0.51922607421875
300725,0.97979736328125,0.686614990234375,0.56982421875
300726,0.97705078125,0.67901611328125,0.60614013671875
300727,1.024032592773438,0.690826416015625,0.6160736083984375
300728,1.030105590820312,0.698638916015625,0.5635528564453125
300729,0.996978759765625,0.6464691162109375,0.505126953125
300730,0.9646453857421876,0.5590057373046875,0.5082244873046875
300731,0.935394287109375,0.4567413330078125,0.5521697998046875
300732,0.9113311767578124,0.3767242431640625,0.59429931640625
300733,0.8728485107421875,0.325408935546875,0.622161865234375
300734,0.815643310546875,0.300628662109375,0.6207122802734375
300735,0.7581329345703125,0.294647216796875,0.6100311279296875
300736,0.708343505859375,0.292144775390625,0.6377716064453125
300737,0.6438446044921875,0.2788848876953125,0.6899871826171875
300738,0.5767669677734375,0.2666778564453125,0.7584075927734375
300739,0.5162200927734375,0.257354736328125,0.8400115966796875
300740,0.4575042724609375,0.2448272705078125,0.91156005859375
300741,0.3887939453125,0.2324371337890625,0.986663818359375
300742,0.2863922119140625,0.240814208984375,1.021926879882812
300743,0.150360107421875,0.2810211181640625,1.007156372070312
300744,0.010345458984375,0.30950927734375,0.9827728271484376
300745,-0.1228179931640625,0.307342529296875,0.9812164306640624
300746,-0.227569580078125,0.2917938232421875,1.002105712890625
300747,-0.3009490966796875,0.270050048828125,1.04315185546875
300748,-0.3372802734375,0.2225799560546875,1.096328735351562
300749,-0.348419189453125,0.16986083984375,1.121902465820312
300750,-0.34051513671875,0.117279052734375,1.12579345703125
300751,-0.307342529296875,0.0596160888671875,1.11566162109375
300752,-0.2439422607421875,0.02423095703125,1.125442504882812
300753,-0.13848876953125,0.0267486572265625,1.1563720703125
300754,0.003692626953125,0.040069580078125,1.169891357421875
300755,0.1663360595703125,0.0302734375,1.130752563476562
300756,0.342132568359375,0.022369384765625,1.05975341796875
300757,0.5184478759765625,0.0498809814453125,0.9889984130859376
300758,0.6878204345703125,0.094818115234375,0.9093170166015624
300759,0.8401947021484375,0.1320037841796875,0.8364105224609375
300760,0.9546661376953124,0.16534423828125,0.765777587890625
300761,1.030349731445312,0.2067413330078125,0.6880035400390625
300762,1.080810546875,0.275665283203125,0.587982177734375
300763,1.092727661132812,0.3421173095703125,0.48284912109375
300764,1.052413940429688,0.38134765625,0.4021759033203125
300765,0.97039794921875,0.382232666015625,0.368927001953125
300766,0.87255859375,0.3629608154296875,0.3682861328125
300767,0.7859039306640625,0.3421630859375,0.4018096923828125
300768,0.71612548828125,0.34698486328125,0.442626953125
300769,0.6475067138671875,0.4071502685546875,0.4784698486328125
300770,0.5721588134765625,0.4962310791015625,0.54498291015625
300771,0.5249481201171875,0.5687713623046875,0.6556243896484375
300772,0.5327606201171875,0.6155548095703125,0.7574920654296875
300773,0.573974609375,0.6414947509765625,0.79681396484375
300774,0.6522064208984375,0.6287994384765625,0.6767120361328125
300775,0.80059814453125,0.60089111328125,0.4330291748046875
300776,0.9733123779296876,0.5518798828125,0.2179107666015625
300777,1.091934204101562,0.5589141845703125,0.080780029296875
300778,1.137542724609375,0.6725311279296875,0.0880889892578125
300779,1.094741821289062,0.7234344482421875,0.272003173828125
300780,1.001480102539062,0.660400390625,0.503204345703125
300781,0.9146881103515624,0.6304473876953125,0.676666259765625
300782,0.8442535400390625,0.60504150390625,0.733001708984375
300783,0.7798309326171875,0.5665130615234375,0.6685028076171875
300784,0.7430572509765625,0.529937744140625,0.5653839111328125
300785,0.771697998046875,0.5106048583984375,0.4845428466796875
300786,0.830841064453125,0.47772216796875,0.4189300537109375
300787,0.87457275390625,0.4274139404296875,0.388641357421875
300788,0.892791748046875,0.3840484619140625,0.3964385986328125
300789,0.875152587890625,0.3603363037109375,0.424072265625
300790,0.8310089111328125,0.3531341552734375,0.4648590087890625
300791,0.7667236328125,0.3585205078125,0.51763916015625
300792,0.6957550048828125,0.385894775390625,0.581451416015625
300793,0.62677001953125,0.4159698486328125,0.6451873779296875
300794,0.5471343994140625,0.425384521484375,0.7106170654296875
300795,0.4567413330078125,0.4273529052734375,0.7889251708984375
300796,0.36053466796875,0.427398681640625,0.8762664794921875
300797,0.250823974609375,0.4412994384765625,0.955352783203125
300798,0.113739013671875,0.485748291015625,1.040618896484375
300799,-0.0330810546875,0.5304107666015625,1.136993408203125
300800,-0.145965576171875,0.5500030517578125,1.230606079101562
300801,-0.202056884765625,0.5428314208984375,1.27862548828125
300802,-0.2136688232421875,0.531463623046875,1.261138916015625
300803,-0.1829833984375,0.5242919921875,1.200897216796875
300804,-0.1279144287109375,0.5225830078125,1.139404296875
300805,-0.07476806640625,0.534881591796875,1.083297729492188
300806,-0.0517730712890625,0.558563232421875,1.039871215820312
300807,-0.0406646728515625,0.5662078857421875,1.021591186523438
300808,-0.0218658447265625,0.5626220703125,1.0257568359375
300809,0.020599365234375,0.5555877685546875,1.05059814453125
300810,0.0883331298828125,0.553192138671875,1.075592041015625
300811,0.1817779541015625,0.5440521240234375,1.078414916992188
300812,0.28924560546875,0.524993896484375,1.051620483398438
300813,0.3944854736328125,0.479522705078125,1.014190673828125
300814,0.4687652587890625,0.398468017578125,0.952362060546875
300815,0.518463134765625,0.304931640625,0.869476318359375
300816,0.5825042724609375,0.21746826171875,0.752777099609375
300817,0.670806884765625,0.146148681640625,0.6568450927734375
300818,0.7581329345703125,0.094512939453125,0.5836181640625
300819,0.8271942138671875,0.0628814697265625,0.4935302734375
300820,0.8781280517578125,0.034423828125,0.4211883544921875
300821,0.9202880859375,0.013458251953125,0.3647918701171875
300822,0.9491119384765624,-6.103515625e-05,0.340057373046875
300823,0.9669189453125,-0.0107421875,0.316009521484375
300824,0.9693145751953124,-0.0205230712890625,0.3054962158203125
300825,0.9502716064453124,-0.0280303955078125,0.3434906005859375
300826,0.9177398681640624,-0.024627685546875,0.4321136474609375
300827,0.8869781494140625,0.041107177734375,0.5336456298828125
300828,0.8574676513671875,0.1973876953125,0.5833892822265625
300829,0.8059844970703125,0.3497772216796875,0.5635986328125
300830,0.72125244140625,0.4326629638671875,0.5137481689453125
300831,0.63116455078125,0.537200927734375,0.496734619140625
300832,0.5870513916015625,0.6316986083984375,0.536102294921875
300833,0.59210205078125,0.7074432373046875,0.618621826171875
300834,0.6337432861328125,0.753326416015625,0.66046142578125
300835,0.704742431640625,0.75537109375,0.6602630615234375
300836,0.8017730712890625,0.729461669921875,0.64404296875
300837,0.9092864990234376,0.693359375,0.63360595703125
300838,0.9876708984375,0.6369476318359375,0.6165771484375
300839,1.000152587890625,0.56317138671875,0.5709381103515625
300840,0.9477386474609376,0.5079193115234375,0.509002685546875
300841,0.880889892578125,0.4843292236328125,0.4783172607421875
300842,0.8392486572265625,0.4708251953125,0.472381591796875
300843,0.8150787353515625,0.4599609375,0.478240966796875
300844,0.7918701171875,0.4463653564453125,0.489532470703125
300845,0.7672576904296875,0.433685302734375,0.50860595703125
300846,0.738128662109375,0.42010498046875,0.54449462890625
300847,0.70849609375,0.4032745361328125,0.6082763671875
300848,0.6860504150390625,0.3780364990234375,0.6919097900390625
300849,0.6504669189453125,0.3460693359375,0.772064208984375
300850,0.603057861328125,0.3202056884765625,0.8432769775390625
300851,0.55499267578125,0.29766845703125,0.8902435302734375
300852,0.50775146484375,0.2726593017578125,0.899169921875
300853,0.45611572265625,0.2287139892578125,0.8985748291015625
300854,0.39434814453125,0.1797332763671875,0.8934326171875
300855,0.33172607421875,0.1529693603515625,0.87750244140625
300856,0.2627716064453125,0.1485443115234375,0.8587188720703125
300857,0.1944580078125,0.160491943359375,0.8570556640625
300858,0.134765625,0.174835205078125,0.876007080078125
300859,0.0742950439453125,0.1723480224609375,0.90582275390625
300860,0.021270751953125,0.1676025390625,0.933074951171875
300861,-0.0201873779296875,0.1668548583984375,0.964599609375
300862,-0.03509521484375,0.1715850830078125,1.008956909179688
300863,-0.02899169921875,0.16290283203125,1.051544189453125
300864,-0.00201416015625,0.1303863525390625,1.088104248046875
300865,0.0501251220703125,0.0797271728515625,1.103225708007812
300866,0.1219482421875,0.020660400390625,1.087875366210938
300867,0.212890625,-0.0226898193359375,1.0509033203125
300868,0.3283538818359375,-0.03619384765625,1.000747680664062
300869,0.4609527587890625,-0.0205078125,0.936920166015625
300870,0.6023712158203125,0.0247955322265625,0.8514556884765625
300871,0.743682861328125,0.09393310546875,0.762176513671875
300872,0.8544158935546875,0.172454833984375,0.7301177978515625
300873,0.90618896484375,0.2544403076171875,0.732086181640625
300874,0.911285400390625,0.339385986328125,0.7458038330078125
300875,0.886810302734375,0.4072265625,0.7475128173828125
300876,0.8432159423828125,0.4632720947265625,0.7349700927734375
300877,0.788787841796875,0.5014801025390625,0.7197723388671875
300878,0.7372894287109375,0.51873779296875,0.7010955810546875
300879,0.69183349609375,0.5338592529296875,0.6692962646484375
300880,0.64898681640625,0.536163330078125,0.6417999267578125
300881,0.59661865234375,0.53192138671875,0.61260986328125
300882,0.543121337890625,0.5196075439453125,0.5854034423828125
300883,0.4776153564453125,0.502960205078125,0.5810089111328125
300884,0.400634765625,0.5112762451171875,0.597625732421875
300885,0.323974609375,0.5567474365234375,0.6636505126953125
300886,0.2703094482421875,0.61651611328125,0.7623138427734375
300887,0.2734375,0.6604156494140625,0.8361053466796875
300888,0.33148193359375,0.6842193603515625,0.8486785888671875
300889,0.4318695068359375,0.686767578125,0.7908935546875
300890,0.570587158203125,0.6730804443359375,0.6711273193359375
300891,0.70867919921875,0.6454925537109375,0.5361328125
300892,0.7904052734375,0.6036834716796875,0.4578094482421875
300893,0.8145599365234375,0.5531463623046875,0.45001220703125
300894,0.8232421875,0.5062713623046875,0.50799560546875
300895,0.8505096435546875,0.4650115966796875,0.5863494873046875
300896,0.8986968994140625,0.4141082763671875,0.6112213134765625
300897,0.965240478515625,0.349212646484375,0.5450592041015625
300898,1.048721313476562,0.2860870361328125,0.433441162109375
300899,1.123031616210938,0.24615478515625,0.3502655029296875
300900,1.154800415039062,0.2243194580078125,0.313507080078125
300901,1.136062622070312,0.2088623046875,0.3121490478515625
300902,1.091156005859375,0.2100372314453125,0.325531005859375
300903,1.034210205078125,0.2242584228515625,0.3288421630859375
300904,0.971588134765625,0.2281341552734375,0.3343048095703125
300905,0.9045867919921876,0.2045135498046875,0.3682403564453125
300906,0.8404693603515625,0.17156982421875,0.4258575439453125
300907,0.7829742431640625,0.14984130859375,0.4960479736328125
300908,0.731597900390625,0.147247314453125,0.54986572265625
300909,0.6772613525390625,0.1554107666015625,0.579833984375
300910,0.5983428955078125,0.165283203125,0.6225433349609375
300911,0.4942779541015625,0.2044525146484375,0.714141845703125
300912,0.3648529052734375,0.27703857421875,0.84674072265625
300913,0.2201385498046875,0.366302490234375,0.9828643798828124
300914,0.0616912841796875,0.44085693359375,1.109161376953125
300915,-0.083221435546875,0.4914093017578125,1.206985473632812
300916,-0.1696624755859375,0.53656005859375,1.251083374023438
300917,-0.1995391845703125,0.5560760498046875,1.267288208007812
300918,-0.1875152587890625,0.5554351806640625,1.265457153320312
300919,-0.163543701171875,0.544525146484375,1.231231689453125
300920,-0.143707275390625,0.5434417724609375,1.183746337890625
300921,-0.11920166015625,0.541534423828125,1.136703491210938
300922,-0.08734130859375,0.5249481201171875,1.1192626953125
300923,-0.0445709228515625,0.498138427734375,1.121871948242188
300924,0.009521484375,0.479522705078125,1.127456665039062
300925,0.05389404296875,0.483734130859375,1.120712280273438
300926,0.0873565673828125,0.4816436767578125,1.113739013671875
300927,0.1356201171875,0.468353271484375,1.09588623046875
300928,0.204803466796875,0.4579620361328125,1.077713012695312
300929,0.2853851318359375,0.4440765380859375,1.083847045898438
300930,0.3649749755859375,0.4208831787109375,1.0902099609375
300931,0.429931640625,0.3815765380859375,1.057037353515625
300932,0.4705047607421875,0.330810546875,0.9759674072265624
300933,0.5051727294921875,0.2776641845703125,0.904388427734375
300934,0.568328857421875,0.2419586181640625,0.7977142333984375
300935,0.649322509765625,0.2234954833984375,0.62957763671875
300936,0.7345733642578125,0.19952392578125,0.494171142578125
300937,0.8101959228515625,0.162933349609375,0.4071807861328125
300938,0.8785858154296875,0.1257781982421875,0.3803558349609375
300939,0.937469482421875,0.1040802001953125,0.4643402099609375
300940,0.985107421875,0.068572998046875,0.595977783203125
300941,1.027786254882812,0.0365447998046875,0.6753692626953125
300942,1.043411254882812,0.0532684326171875,0.661346435546875
300943,0.9978790283203124,0.1740570068359375,0.5570220947265625
300944,0.902130126953125,0.37481689453125,0.4680023193359375
300945,0.79473876953125,0.5596771240234375,0.42901611328125
300946,0.6797027587890625,0.6673126220703125,0.4557342529296875
300947,0.6246490478515625,0.703948974609375,0.5204010009765625
300948,0.67333984375,0.722015380859375,0.576416015625
300949,0.743804931640625,0.70977783203125,0.5577392578125
300950,0.8508758544921875,0.6551666259765625,0.4598846435546875
300951,0.9810943603515624,0.6079559326171875,0.3625335693359375
300952,1.071731567382812,0.57208251953125,0.333984375
300953,1.09515380859375,0.5539703369140625,0.3765869140625
300954,1.078399658203125,0.5427703857421875,0.3844757080078125
300955,1.06866455078125,0.5355377197265625,0.3868255615234375
300956,1.065048217773438,0.5294647216796875,0.376312255859375
300957,1.059982299804688,0.5093231201171875,0.378814697265625
300958,1.0467529296875,0.4703521728515625,0.38751220703125
300959,1.014328002929688,0.433990478515625,0.3985595703125
300960,0.97540283203125,0.39862060546875,0.4176788330078125
300961,0.9432830810546876,0.3514862060546875,0.4515380859375
300962,0.9060516357421876,0.289276123046875,0.4861297607421875
300963,0.850067138671875,0.22503662109375,0.515716552734375
300964,0.77532958984375,0.1768341064453125,0.55352783203125
300965,0.689849853515625,0.1460418701171875,0.60906982421875
300966,0.608734130859375,0.1348114013671875,0.6757354736328125
300967,0.5346221923828125,0.1469268798828125,0.755615234375
300968,0.460174560546875,0.168182373046875,0.8287506103515625
300969,0.3820648193359375,0.17413330078125,0.8958587646484375
300970,0.2743988037109375,0.1586151123046875,0.9280853271484376
300971,0.1305084228515625,0.138885498046875,0.9288177490234376
300972,-0.006072998046875,0.162689208984375,0.940460205078125
300973,-0.122100830078125,0.208465576171875,0.95684814453125
300974,-0.203887939453125,0.2196807861328125,0.99322509765625
300975,-0.25408935546875,0.2001953125,1.049545288085938
300976,-0.287841796875,0.1678314208984375,1.107498168945312
300977,-0.3036956787109375,0.150665283203125,1.168289184570312
300978,-0.2952117919921875,0.1299591064453125,1.212310791015625
300979,-0.2787017822265625,0.0939483642578125,1.210586547851562
300980,-0.251251220703125,0.0449066162109375,1.17266845703125
300981,-0.184234619140625,0.03009033203125,1.159820556640625
300982,-0.09686279296875,0.04541015625,1.148452758789062
300983,0.011199951171875,0.017242431640625,1.091522216796875
300984,0.1777496337890625,-0.0082550048828125,1.04425048828125
300985,0.396148681640625,0.0025177001953125,1.008773803710938
300986,0.6190338134765625,0.0041656494140625,0.942169189453125
300987,0.8242340087890625,-0.00030517578125,0.8719329833984375
300988,0.98797607421875,-0.0121307373046875,0.81915283203125
300989,1.101882934570312,0.01043701171875,0.76300048828125
300990,1.167495727539062,0.0815582275390625,0.6881256103515625
300991,1.18927001953125,0.20526123046875,0.6329803466796875
300992,1.184463500976562,0.3441009521484375,0.5948333740234375
300993,1.13494873046875,0.4384918212890625,0.54559326171875
300994,1.03875732421875,0.4803466796875,0.5101318359375
300995,0.92919921875,0.4761199951171875,0.50201416015625
300996,0.8256683349609375,0.457122802734375,0.5255889892578125
300997,0.720703125,0.44427490234375,0.5647125244140625
300998,0.6018524169921875,0.4399566650390625,0.6276702880859375
300999,0.496368408203125,0.450714111328125,0.7286224365234375
301000,0.4451141357421875,0.446136474609375,0.84967041015625
301001,0.43414306640625,0.4445953369140625,0.923004150390625
301002,0.4552459716796875,0.4925689697265625,0.8948211669921875
301003,0.5164031982421875,0.5626068115234375,0.7707366943359375
301004,0.625885009765625,0.6039886474609375,0.575653076171875
301005,0.7795257568359375,0.59454345703125,0.34954833984375
301006,0.9243621826171876,0.5584716796875,0.203826904296875
301007,0.9742889404296876,0.52764892578125,0.238555908203125
301008,0.921905517578125,0.485565185546875,0.397003173828125
301009,0.86175537109375,0.451507568359375,0.581787109375
301010,0.8189544677734375,0.4417266845703125,0.7019195556640625
301011,0.7928619384765625,0.42523193359375,0.6997222900390625
301012,0.8016815185546875,0.403961181640625,0.6027984619140625
301013,0.836181640625,0.3757476806640625,0.4677886962890625
301014,0.882843017578125,0.3432159423828125,0.3712005615234375
301015,0.9348297119140624,0.3085479736328125,0.3299407958984375
301016,0.9778900146484376,0.276641845703125,0.347442626953125
301017,0.9965667724609376,0.2429962158203125,0.3830413818359375
301018,0.98614501953125,0.2212371826171875,0.4101104736328125
301019,0.9511566162109376,0.222747802734375,0.4278106689453125
301020,0.881561279296875,0.245880126953125,0.452911376953125
301021,0.782470703125,0.2852630615234375,0.5022125244140625
301022,0.670166015625,0.33026123046875,0.5770263671875
301023,0.560577392578125,0.360809326171875,0.659515380859375
301024,0.444000244140625,0.3722381591796875,0.73321533203125
301025,0.306793212890625,0.399505615234375,0.8065643310546875
301026,0.172027587890625,0.4460906982421875,0.8719329833984375
301027,0.0563507080078125,0.46142578125,0.947418212890625
301028,-0.031219482421875,0.4438323974609375,1.035812377929688
301029,-0.086700439453125,0.42474365234375,1.112014770507812
301030,-0.11187744140625,0.4117584228515625,1.144012451171875
301031,-0.1063690185546875,0.4058990478515625,1.153564453125
301032,-0.0697174072265625,0.42071533203125,1.168838500976562
301033,-0.0263671875,0.449432373046875,1.17181396484375
301034,-0.000579833984375,0.480377197265625,1.171340942382812
301035,0.0078582763671875,0.5034942626953125,1.192031860351562
301036,0.017120361328125,0.5131072998046875,1.216552734375
301037,0.0591888427734375,0.51727294921875,1.204269409179688
301038,0.13299560546875,0.5131988525390625,1.15045166015625
301039,0.2165985107421875,0.498565673828125,1.088394165039062
301040,0.2915496826171875,0.477447509765625,1.055572509765625
301041,0.3549041748046875,0.4554901123046875,1.054290771484375
301042,0.4097900390625,0.4196319580078125,1.05438232421875
301043,0.463348388671875,0.375335693359375,1.02655029296875
301044,0.5211944580078125,0.3271026611328125,0.956024169921875
301045,0.580780029296875,0.273223876953125,0.8740692138671875
301046,0.6391754150390625,0.2299957275390625,0.7790069580078125
301047,0.6979827880859375,0.207855224609375,0.6826324462890625
301048,0.7461700439453125,0.1842803955078125,0.5975494384765625
301049,0.7729644775390625,0.140411376953125,0.5389556884765625
301050,0.7855987548828125,0.0897216796875,0.494842529296875
301051,0.7915802001953125,0.0550689697265625,0.45489501953125
301052,0.80377197265625,0.0405731201171875,0.45025634765625
301053,0.8195343017578125,0.0547637939453125,0.4879302978515625
301054,0.8173370361328125,0.07489013671875,0.527374267578125
301055,0.760223388671875,-0.0107574462890625,0.502838134765625
301056,0.6978759765625,-0.0277862548828125,0.46929931640625
301057,0.668121337890625,0.1442718505859375,0.4814910888671875
301058,0.642303466796875,0.3688507080078125,0.5204010009765625
301059,0.5893707275390625,0.4825592041015625,0.5648651123046875
301060,0.5655364990234375,0.5138092041015625,0.58782958984375
301061,0.6215667724609375,0.5709991455078125,0.5889739990234375
301062,0.730377197265625,0.6465911865234375,0.5530853271484375
301063,0.8800201416015625,0.68505859375,0.5052490234375
301064,1.046295166015625,0.679962158203125,0.4739227294921875
301065,1.152618408203125,0.679443359375,0.4581451416015625
301066,1.146499633789062,0.677886962890625,0.4638214111328125
301067,1.071060180664062,0.6480865478515625,0.4537353515625
301068,0.9808502197265624,0.611541748046875,0.4415283203125
301069,0.9095001220703124,0.597991943359375,0.4765167236328125
301070,0.8688507080078125,0.5974273681640625,0.5340423583984375
301071,0.8551483154296875,0.577392578125,0.57647705078125
301072,0.8541259765625,0.5220184326171875,0.5599822998046875
301073,0.8539886474609375,0.4485626220703125,0.5204010009765625
301074,0.8542327880859375,0.3744659423828125,0.499542236328125
301075,0.8498687744140625,0.3101043701171875,0.5201263427734375
301076,0.8275299072265625,0.2632293701171875,0.5689697265625
301077,0.7944488525390625,0.22265625,0.622467041015625
301078,0.7402496337890625,0.1792449951171875,0.6762847900390625
301079,0.66015625,0.141845703125,0.735595703125
301080,0.5703582763671875,0.123046875,0.7881011962890625
301081,0.480438232421875,0.1232147216796875,0.8404083251953125
301082,0.3953704833984375,0.1230316162109375,0.8936309814453125
301083,0.3086090087890625,0.1275177001953125,0.9292144775390624
301084,0.218505859375,0.15386962890625,0.9371490478515624
301085,0.128509521484375,0.204254150390625,0.9189300537109376
301086,0.0367431640625,0.251739501953125,0.885955810546875
301087,-0.0407257080078125,0.265411376953125,0.88702392578125
301088,-0.1030731201171875,0.243072509765625,0.94586181640625
301089,-0.1555938720703125,0.2174835205078125,1.03118896484375
301090,-0.1966094970703125,0.1883697509765625,1.11248779296875
301091,-0.2146759033203125,0.1378326416015625,1.165130615234375
301092,-0.1988677978515625,0.076904296875,1.19561767578125
301093,-0.154815673828125,0.024505615234375,1.18890380859375
301094,-0.0821380615234375,0.0106964111328125,1.158889770507812
301095,0.0252227783203125,0.0606231689453125,1.117263793945312
301096,0.1567230224609375,0.128570556640625,1.055206298828125
301097,0.2945556640625,0.1666717529296875,0.9764862060546876
301098,0.43426513671875,0.193359375,0.9077606201171876
301099,0.565673828125,0.235504150390625,0.86749267578125
301100,0.67303466796875,0.3024139404296875,0.859161376953125
301101,0.75823974609375,0.37738037109375,0.856201171875
301102,0.825347900390625,0.4347381591796875,0.834686279296875
301103,0.8669586181640625,0.4846038818359375,0.7873077392578125
301104,0.8889312744140625,0.5365142822265625,0.7242431640625
301105,0.8827667236328125,0.5462799072265625,0.615509033203125
301106,0.8523712158203125,0.5262298583984375,0.510467529296875
301107,0.8131256103515625,0.495330810546875,0.4462127685546875
301108,0.7781829833984375,0.450439453125,0.4402618408203125
301109,0.7322540283203125,0.4062652587890625,0.501312255859375
301110,0.6641082763671875,0.392913818359375,0.5721588134765625
301111,0.585662841796875,0.41705322265625,0.618408203125
301112,0.52642822265625,0.4497222900390625,0.6762542724609375
301113,0.5227508544921875,0.46337890625,0.766571044921875
301114,0.5707855224609375,0.47802734375,0.7930908203125
301115,0.6411895751953125,0.499237060546875,0.72991943359375
301116,0.7267913818359375,0.4910125732421875,0.605316162109375
301117,0.8245697021484375,0.48077392578125,0.4362030029296875
301118,0.93194580078125,0.493438720703125,0.2788848876953125
301119,1.010498046875,0.5315704345703125,0.1917877197265625
301120,1.00897216796875,0.5487823486328125,0.2435760498046875
301121,0.9400634765625,0.522491455078125,0.4152374267578125
301122,0.8673858642578125,0.520782470703125,0.5646820068359375
301123,0.8076019287109375,0.5005950927734375,0.6165313720703125
301124,0.7917327880859375,0.4510955810546875,0.568695068359375
301125,0.8424072265625,0.41204833984375,0.4763946533203125
301126,0.918243408203125,0.3862152099609375,0.4087677001953125
301127,0.9955596923828124,0.3529205322265625,0.39166259765625
301128,1.054336547851562,0.3159027099609375,0.409698486328125
301129,1.069992065429688,0.292724609375,0.43475341796875
301130,1.037628173828125,0.294525146484375,0.4536285400390625
301131,0.9713897705078124,0.303009033203125,0.47137451171875
301132,0.88067626953125,0.3159637451171875,0.4947967529296875
301133,0.77587890625,0.341094970703125,0.5478515625
301134,0.6654052734375,0.3751983642578125,0.61431884765625
301135,0.5569610595703125,0.402618408203125,0.6687469482421875
301136,0.45281982421875,0.40545654296875,0.7261505126953125
301137,0.3525238037109375,0.3866729736328125,0.79376220703125
301138,0.2547607421875,0.3849945068359375,0.87689208984375
301139,0.1460113525390625,0.4029998779296875,0.9773406982421876
301140,0.0266265869140625,0.4372406005859375,1.09600830078125
301141,-0.094390869140625,0.4780731201171875,1.210922241210938
301142,-0.196258544921875,0.507720947265625,1.276596069335938
301143,-0.262969970703125,0.5149993896484375,1.2972412109375
301144,-0.292999267578125,0.5070037841796875,1.282913208007812
301145,-0.2805633544921875,0.4793853759765625,1.25152587890625
301146,-0.2397308349609375,0.4508056640625,1.201324462890625
301147,-0.195159912109375,0.4491729736328125,1.150726318359375
301148,-0.1537628173828125,0.47393798828125,1.1175537109375
301149,-0.109649658203125,0.5028228759765625,1.0928955078125
301150,-0.0369720458984375,0.52899169921875,1.090606689453125
301151,0.0647430419921875,0.5500640869140625,1.128204345703125
301152,0.1749725341796875,0.5761871337890625,1.1812744140625
301153,0.2750091552734375,0.6236419677734375,1.2110595703125
301154,0.3686065673828125,0.6283111572265625,1.219833374023438
301155,0.4566192626953125,0.5922088623046875,1.190353393554688
301156,0.5239105224609375,0.52874755859375,1.093795776367188
301157,0.5648345947265625,0.427581787109375,0.85223388671875
301158,0.6109161376953125,0.3371734619140625,0.632171630859375
301159,0.6721038818359375,0.276580810546875,0.52337646484375
301160,0.734100341796875,0.2326812744140625,0.438446044921875
301161,0.7809906005859375,0.1866455078125,0.40093994140625
301162,0.80560302734375,0.133209228515625,0.410858154296875
301163,0.816925048828125,0.07952880859375,0.44415283203125
301164,0.830352783203125,0.0440521240234375,0.44647216796875
301165,0.85211181640625,0.0275726318359375,0.3905792236328125
301166,0.8592987060546875,0.006591796875,0.32513427734375
301167,0.8202667236328125,-0.0281219482421875,0.2820587158203125
301168,0.775604248046875,-0.02801513671875,0.306396484375
301169,0.75738525390625,0.0283966064453125,0.3697509765625
301170,0.78228759765625,0.205810546875,0.4524993896484375
301171,0.805084228515625,0.3894195556640625,0.5310516357421875
301172,0.778656005859375,0.4595489501953125,0.51904296875
301173,0.7547760009765625,0.537445068359375,0.4280242919921875
301174,0.8071746826171875,0.6641998291015625,0.3352203369140625
301175,0.9052886962890624,0.7161865234375,0.2990264892578125
301176,1.02337646484375,0.6998443603515625,0.35003662109375
301177,1.147811889648438,0.6587371826171875,0.4576263427734375
301178,1.221710205078125,0.6164703369140625,0.494140625
301179,1.197372436523438,0.60076904296875,0.4794921875
301180,1.087982177734375,0.6056365966796875,0.46795654296875
301181,0.961456298828125,0.63446044921875,0.4918365478515625
301182,0.8632354736328125,0.664703369140625,0.547515869140625
301183,0.7998504638671875,0.67041015625,0.604888916015625
301184,0.7620697021484375,0.6381988525390625,0.62908935546875
301185,0.74871826171875,0.57763671875,0.64453125
301186,0.759857177734375,0.5177764892578125,0.660614013671875
301187,0.7719879150390625,0.461334228515625,0.674224853515625
301188,0.7640228271484375,0.410736083984375,0.69036865234375
301189,0.742156982421875,0.3590087890625,0.711212158203125
301190,0.7231903076171875,0.318817138671875,0.741455078125
301191,0.688446044921875,0.2811431884765625,0.7792510986328125
301192,0.6265869140625,0.2442626953125,0.81121826171875
301193,0.543670654296875,0.210113525390625,0.8314971923828125
301194,0.451934814453125,0.174652099609375,0.836822509765625
301195,0.3518218994140625,0.1417694091796875,0.8359527587890625
301196,0.2471466064453125,0.1229248046875,0.8199920654296875
301197,0.14276123046875,0.1267547607421875,0.7906341552734375
301198,0.0506439208984375,0.1397552490234375,0.7828826904296875
301199,-0.0291595458984375,0.135528564453125,0.8138275146484375
301200,-0.095550537109375,0.117767333984375,0.8882598876953125
301201,-0.1517791748046875,0.1058197021484375,0.999114990234375
301202,-0.18621826171875,0.0999603271484375,1.119613647460938
301203,-0.1953887939453125,0.069610595703125,1.22430419921875
301204,-0.1820831298828125,0.0153961181640625,1.289794921875
301205,-0.140625,-0.0415191650390625,1.305465698242188
301206,-0.059326171875,-0.0573272705078125,1.258880615234375
301207,0.066131591796875,-0.0267486572265625,1.1583251953125
301208,0.225250244140625,0.0144805908203125,1.038253784179688
301209,0.396453857421875,0.0566558837890625,0.9265594482421876
301210,0.5430145263671875,0.1087493896484375,0.849395751953125
301211,0.6564178466796875,0.1807098388671875,0.8189697265625
301212,0.7422332763671875,0.2754974365234375,0.8258819580078125
301213,0.8037872314453125,0.370697021484375,0.825347900390625
301214,0.8448944091796875,0.447784423828125,0.7853851318359375
301215,0.868988037109375,0.5179595947265625,0.7163848876953125
301216,0.87591552734375,0.5665435791015625,0.6535186767578125
301217,0.8202056884765625,0.538543701171875,0.6005401611328125
301218,0.7604217529296875,0.51263427734375,0.5688018798828125
301219,0.716217041015625,0.499847412109375,0.529541015625
301220,0.6453094482421875,0.4299468994140625,0.506561279296875
301221,0.5499725341796875,0.348297119140625,0.512451171875
301222,0.4300384521484375,0.3587188720703125,0.5469512939453125
301223,0.3177032470703125,0.424713134765625,0.6589508056640625
301224,0.2443389892578125,0.4701080322265625,0.8336181640625
301225,0.2350311279296875,0.4978179931640625,1.023788452148438
301226,0.283416748046875,0.51715087890625,1.117752075195312
301227,0.3716583251953125,0.5400238037109375,1.051101684570312
301228,0.5202484130859375,0.5323486328125,0.8074798583984375
301229,0.7011871337890625,0.4778594970703125,0.4946746826171875
301230,0.864471435546875,0.4024200439453125,0.2427215576171875
301231,0.97821044921875,0.3277740478515625,0.105499267578125
301232,1.035263061523438,0.3025665283203125,0.098846435546875
301233,1.066848754882812,0.3432769775390625,0.280426025390625
301234,1.0894775390625,0.386810302734375,0.5338592529296875
301235,1.091766357421875,0.4031524658203125,0.695556640625
301236,1.102310180664062,0.42156982421875,0.68853759765625
301237,1.119247436523438,0.43896484375,0.5470123291015625
301238,1.12127685546875,0.425506591796875,0.381866455078125
301239,1.111663818359375,0.4043121337890625,0.3035125732421875
301240,1.093887329101562,0.3924407958984375,0.323394775390625
301241,1.054641723632812,0.383880615234375,0.3752899169921875
301242,1.008148193359375,0.3612213134765625,0.4197845458984375
301243,0.96221923828125,0.3401336669921875,0.453857421875
301244,0.9174652099609376,0.3279266357421875,0.4796600341796875
301245,0.8611602783203125,0.3307952880859375,0.4971923828125
301246,0.7915191650390625,0.345367431640625,0.5125274658203125
301247,0.7179412841796875,0.356414794921875,0.552001953125
301248,0.637176513671875,0.36431884765625,0.6065673828125
301249,0.5327301025390625,0.35736083984375,0.6766204833984375
301250,0.4010772705078125,0.3405609130859375,0.7696533203125
301251,0.2545623779296875,0.3502349853515625,0.9013214111328124
301252,0.0930633544921875,0.39013671875,1.05963134765625
301253,-0.0655364990234375,0.4455108642578125,1.237289428710938
301254,-0.1923065185546875,0.508880615234375,1.353958129882812
301255,-0.2726898193359375,0.55755615234375,1.362518310546875
301256,-0.2967376708984375,0.5478973388671875,1.349960327148438
301257,-0.273406982421875,0.509857177734375,1.276336669921875
301258,-0.20501708984375,0.478759765625,1.211532592773438
301259,-0.1230926513671875,0.475738525390625,1.150909423828125
301260,-0.0704193115234375,0.500274658203125,1.091156005859375
301261,-0.036590576171875,0.51202392578125,1.045639038085938
301262,0.0044403076171875,0.513916015625,1.013534545898438
301263,0.067596435546875,0.51531982421875,1.005935668945312
301264,0.1482696533203125,0.5107269287109375,1.028793334960938
301265,0.2214813232421875,0.5154571533203125,1.077194213867188
301266,0.279327392578125,0.5340576171875,1.130386352539062
301267,0.32904052734375,0.5440673828125,1.138702392578125
301268,0.376068115234375,0.520294189453125,1.085311889648438
301269,0.41522216796875,0.5004425048828125,1.008773803710938
301270,0.4513397216796875,0.4768218994140625,0.886871337890625
301271,0.4911041259765625,0.4276275634765625,0.7303924560546875
301272,0.536651611328125,0.3706817626953125,0.6431121826171875
301273,0.603271484375,0.32464599609375,0.5603790283203125
301274,0.6542816162109375,0.2779388427734375,0.4775543212890625
301275,0.7067413330078125,0.192626953125,0.4566802978515625
301276,0.77490234375,0.1268157958984375,0.4629669189453125
301277,0.82781982421875,0.08251953125,0.4626922607421875
301278,0.84539794921875,0.0365753173828125,0.434967041015625
301279,0.833099365234375,-0.01495361328125,0.3997039794921875
301280,0.813629150390625,-0.0418701171875,0.382904052734375
301281,0.805816650390625,-0.0284576416015625,0.384246826171875
301282,0.8121337890625,0.0677947998046875,0.3644256591796875
301283,0.824554443359375,0.283599853515625,0.3523101806640625
301284,0.7905426025390625,0.4421539306640625,0.3556976318359375
301285,0.71673583984375,0.48333740234375,0.3779296875
301286,0.6693115234375,0.538482666015625,0.42547607421875
301287,0.66265869140625,0.59637451171875,0.4883575439453125
301288,0.719818115234375,0.6554718017578125,0.5238800048828125
301289,0.838714599609375,0.689788818359375,0.543792724609375
301290,0.96929931640625,0.6874237060546875,0.5285491943359375
301291,1.0574951171875,0.6897735595703125,0.510223388671875
301292,1.073593139648438,0.6974639892578125,0.49822998046875
301293,1.045791625976562,0.676727294921875,0.4900665283203125
301294,1.004196166992188,0.6527862548828125,0.4899444580078125
301295,0.9611663818359376,0.645751953125,0.508758544921875
301296,0.9268646240234376,0.647552490234375,0.5472564697265625
301297,0.9194183349609376,0.6369171142578125,0.5727386474609375
301298,0.923187255859375,0.6214141845703125,0.572723388671875
301299,0.92401123046875,0.579620361328125,0.56805419921875
301300,0.9105987548828124,0.51904296875,0.56781005859375
301301,0.884552001953125,0.4478302001953125,0.5861968994140625
301302,0.8442840576171875,0.386688232421875,0.608489990234375
301303,0.794647216796875,0.3261566162109375,0.6311798095703125
301304,0.7414703369140625,0.277557373046875,0.660675048828125
301305,0.6753082275390625,0.2297210693359375,0.690277099609375
301306,0.5961151123046875,0.195770263671875,0.727142333984375
301307,0.51104736328125,0.181396484375,0.7646942138671875
301308,0.4306640625,0.1674957275390625,0.80706787109375
301309,0.3495330810546875,0.1552581787109375,0.8509521484375
301310,0.2516632080078125,0.174346923828125,0.8992462158203125
301311,0.12249755859375,0.227294921875,0.93023681640625
301312,-0.0191650390625,0.3006439208984375,0.9654083251953124
301313,-0.13446044921875,0.369842529296875,1.014434814453125
301314,-0.2189178466796875,0.4083251953125,1.058700561523438
301315,-0.2693023681640625,0.4176025390625,1.081527709960938
301316,-0.28643798828125,0.3897552490234375,1.086898803710938
301317,-0.277496337890625,0.33697509765625,1.085830688476562
301318,-0.24853515625,0.261993408203125,1.077194213867188
301319,-0.206939697265625,0.168853759765625,1.087631225585938
301320,-0.1548004150390625,0.0809783935546875,1.1220703125
301321,-0.0887908935546875,0.007080078125,1.160369873046875
301322,0.009429931640625,-0.0178985595703125,1.193252563476562
301323,0.1443634033203125,0.016021728515625,1.179336547851562
301324,0.294586181640625,0.0500335693359375,1.096847534179688
301325,0.4496307373046875,0.07379150390625,0.9486236572265624
301326,0.599273681640625,0.1104278564453125,0.8153076171875
301327,0.7261962890625,0.177764892578125,0.750396728515625
301328,0.807769775390625,0.2579193115234375,0.7138671875
301329,0.8548583984375,0.3399200439453125,0.700439453125
301330,0.8895416259765625,0.4290313720703125,0.7028350830078125
301331,0.9151611328125,0.5083160400390625,0.69293212890625
301332,0.932220458984375,0.538330078125,0.6432647705078125
301333,0.9349365234375,0.5282440185546875,0.5926666259765625
301334,0.9232940673828124,0.5072784423828125,0.5518341064453125
301335,0.89483642578125,0.471160888671875,0.5196380615234375
301336,0.851104736328125,0.4192352294921875,0.4994659423828125
301337,0.7851409912109375,0.36676025390625,0.48553466796875
301338,0.69659423828125,0.3470611572265625,0.4886627197265625
301339,0.600799560546875,0.398834228515625,0.5256500244140625
301340,0.50640869140625,0.4835205078125,0.637542724609375
301341,0.4340972900390625,0.537017822265625,0.7895050048828125
301342,0.4051666259765625,0.5409393310546875,0.8967132568359375
301343,0.4255828857421875,0.53558349609375,0.8966064453125
301344,0.479736328125,0.5227813720703125,0.7852935791015625
301345,0.5651397705078125,0.5028076171875,0.6190032958984375
301346,0.6882171630859375,0.4815216064453125,0.4493560791015625
301347,0.8192901611328125,0.4663848876953125,0.307281494140625
301348,0.9117584228515624,0.4820709228515625,0.2489776611328125
301349,0.9775543212890624,0.513031005859375,0.310028076171875
301350,1.018096923828125,0.5182952880859375,0.45843505859375
301351,1.002243041992188,0.5015716552734375,0.590057373046875
301352,0.9443359375,0.465972900390625,0.6595001220703125
301353,0.869964599609375,0.448638916015625,0.656585693359375
301354,0.8271636962890625,0.4340972900390625,0.5930023193359375
301355,0.8294830322265625,0.4058685302734375,0.510284423828125
301356,0.83837890625,0.3638763427734375,0.428436279296875
301357,0.843994140625,0.316436767578125,0.397491455078125
301358,0.84613037109375,0.2760467529296875,0.4096221923828125
301359,0.8331756591796875,0.23760986328125,0.4490203857421875
301360,0.80242919921875,0.211517333984375,0.5016326904296875
301361,0.7560577392578125,0.2115325927734375,0.5638427734375
301362,0.7025604248046875,0.2430572509765625,0.61981201171875
301363,0.64569091796875,0.297210693359375,0.660552978515625
301364,0.578338623046875,0.3478851318359375,0.7031402587890625
301365,0.499725341796875,0.3630218505859375,0.7639923095703125
301366,0.414642333984375,0.366851806640625,0.8347320556640625
301367,0.31121826171875,0.3807373046875,0.9051971435546876
301368,0.184539794921875,0.40374755859375,0.9825897216796876
301369,0.0662078857421875,0.41796875,1.06854248046875
301370,-0.0382537841796875,0.4139251708984375,1.136642456054688
301371,-0.1165008544921875,0.4032745361328125,1.178497314453125
301372,-0.1428985595703125,0.392913818359375,1.194290161132812
301373,-0.11175537109375,0.39501953125,1.189361572265625
301374,-0.043670654296875,0.4074554443359375,1.167861938476562
301375,0.021728515625,0.4385986328125,1.141921997070312
301376,0.0513763427734375,0.4810028076171875,1.14208984375
301377,0.056365966796875,0.500640869140625,1.164505004882812
301378,0.0796661376953125,0.5098114013671875,1.1756591796875
301379,0.1356353759765625,0.525054931640625,1.150466918945312
301380,0.2076568603515625,0.5370025634765625,1.103790283203125
301381,0.2816162109375,0.538787841796875,1.062957763671875
301382,0.3526763916015625,0.519866943359375,1.038238525390625
301383,0.4194183349609375,0.46978759765625,1.01397705078125
301384,0.479034423828125,0.4070587158203125,0.979278564453125
301385,0.535736083984375,0.3470001220703125,0.9182586669921876
301386,0.58966064453125,0.27313232421875,0.848724365234375
301387,0.6531219482421875,0.2014312744140625,0.7615814208984375
301388,0.7108612060546875,0.1520843505859375,0.6578521728515625
301389,0.7462005615234375,0.1003875732421875,0.5894775390625
301390,0.7503662109375,0.0550537109375,0.5166778564453125
301391,0.74078369140625,0.0380859375,0.44927978515625
301392,0.7408599853515625,0.036285400390625,0.42218017578125
301393,0.738922119140625,0.04522705078125,0.4078521728515625
301394,0.7360687255859375,0.065093994140625,0.413726806640625
301395,0.729522705078125,0.0596771240234375,0.4793853759765625
301396,0.7168426513671875,0.012237548828125,0.5701141357421875
301397,0.7172698974609375,-0.0637359619140625,0.6383514404296875
301398,0.735626220703125,-0.072723388671875,0.663482666015625
301399,0.737762451171875,0.0304412841796875,0.6181182861328125
301400,0.70501708984375,0.2100982666015625,0.5749053955078125
301401,0.6285552978515625,0.354522705078125,0.551177978515625
301402,0.538726806640625,0.441314697265625,0.57391357421875
301403,0.4918975830078125,0.5000152587890625,0.6207275390625
301404,0.5161590576171875,0.570709228515625,0.645721435546875
301405,0.5741119384765625,0.6435546875,0.64666748046875
301406,0.6449432373046875,0.68267822265625,0.6385040283203125
301407,0.7389068603515625,0.688629150390625,0.6315765380859375
301408,0.8345947265625,0.678466796875,0.63275146484375
301409,0.908660888671875,0.651275634765625,0.6274566650390625
301410,0.9568634033203124,0.60101318359375,0.6163330078125
301411,0.98577880859375,0.5508270263671875,0.5726470947265625
301412,1.006988525390625,0.529266357421875,0.5571136474609375
301413,1.003372192382812,0.530364990234375,0.56793212890625
301414,0.9679107666015624,0.5341949462890625,0.581787109375
301415,0.91839599609375,0.517303466796875,0.5748443603515625
301416,0.8675994873046875,0.4819488525390625,0.5527191162109375
301417,0.809661865234375,0.449951171875,0.5487823486328125
301418,0.7617034912109375,0.428497314453125,0.582916259765625
301419,0.7326507568359375,0.4204559326171875,0.6455078125
301420,0.7100372314453125,0.4101104736328125,0.702789306640625
301421,0.6850128173828125,0.3864898681640625,0.75067138671875
301422,0.6514129638671875,0.3548431396484375,0.7799224853515625
301423,0.612823486328125,0.3162689208984375,0.785400390625
301424,0.570465087890625,0.2700653076171875,0.7733001708984375
301425,0.524017333984375,0.21942138671875,0.7545318603515625
301426,0.47332763671875,0.170440673828125,0.7457122802734375
301427,0.4142913818359375,0.1182098388671875,0.7396697998046875
301428,0.3411407470703125,0.0697174072265625,0.7379302978515625
301429,0.259002685546875,0.0358734130859375,0.7467193603515625
301430,0.1712188720703125,0.023773193359375,0.7743377685546875
301431,0.0772247314453125,0.0393218994140625,0.8285064697265625
301432,-0.0169219970703125,0.0635223388671875,0.920928955078125
301433,-0.0969085693359375,0.0721435546875,1.043045043945312
301434,-0.157318115234375,0.0572967529296875,1.157623291015625
301435,-0.1894683837890625,0.0231475830078125,1.2359619140625
301436,-0.1870269775390625,-0.015838623046875,1.2646484375
301437,-0.15185546875,-0.0530853271484375,1.23870849609375
301438,-0.088409423828125,-0.0776519775390625,1.165924072265625
301439,0.014312744140625,-0.0789947509765625,1.085418701171875
301440,0.15570068359375,-0.03924560546875,1.037994384765625
301441,0.31005859375,0.0449981689453125,1.024383544921875
301442,0.44012451171875,0.1199951171875,0.99627685546875
301443,0.5391082763671875,0.1636505126953125,0.9403533935546876
301444,0.6262054443359375,0.216888427734375,0.8837432861328125
301445,0.702392578125,0.2916259765625,0.8399505615234375
301446,0.7580413818359375,0.373443603515625,0.7861175537109375
301447,0.7858428955078125,0.4395599365234375,0.7168121337890625
301448,0.792633056640625,0.495086669921875,0.6741485595703125
301449,0.7823486328125,0.5214996337890625,0.652069091796875
301450,0.7483978271484375,0.5104522705078125,0.6401214599609375
301451,0.70062255859375,0.480499267578125,0.6178436279296875
301452,0.6504669189453125,0.452972412109375,0.6026458740234375
301453,0.5926361083984375,0.4545135498046875,0.6038055419921875
301454,0.527496337890625,0.4942169189453125,0.6419677734375
301455,0.4668426513671875,0.5455322265625,0.7315826416015625
301456,0.4540252685546875,0.58477783203125,0.8356170654296875
301457,0.510223388671875,0.597503662109375,0.88592529296875
301458,0.593719482421875,0.5803070068359375,0.8346710205078125
301459,0.6803436279296875,0.544464111328125,0.68634033203125
301460,0.7685699462890625,0.5398712158203125,0.5167694091796875
301461,0.850341796875,0.5815277099609375,0.3776702880859375
301462,0.91070556640625,0.64776611328125,0.2772979736328125
301463,0.9280853271484376,0.703643798828125,0.2838287353515625
301464,0.87628173828125,0.706146240234375,0.4068603515625
301465,0.791351318359375,0.6901092529296875,0.570220947265625
301466,0.71759033203125,0.6782989501953125,0.6732330322265625
301467,0.67803955078125,0.64019775390625,0.6485748291015625
301468,0.6986236572265625,0.5797882080078125,0.517913818359375
301469,0.7745361328125,0.52294921875,0.3928070068359375
301470,0.8704986572265625,0.4521636962890625,0.3236083984375
301471,0.94757080078125,0.37786865234375,0.3157958984375
301472,0.9910125732421876,0.3184051513671875,0.3363189697265625
301473,1.011138916015625,0.289215087890625,0.363037109375
301474,1.001083374023438,0.285125732421875,0.37548828125
301475,0.951202392578125,0.29742431640625,0.382171630859375
301476,0.87554931640625,0.319671630859375,0.39337158203125
301477,0.7822723388671875,0.3465118408203125,0.4152069091796875
301478,0.6799774169921875,0.362030029296875,0.4488067626953125
301479,0.5894622802734375,0.359405517578125,0.49981689453125
301480,0.51934814453125,0.3304443359375,0.5650634765625
301481,0.4595794677734375,0.283111572265625,0.6411895751953125
301482,0.3997802734375,0.219573974609375,0.71875
301483,0.329345703125,0.146484375,0.8255615234375
301484,0.24566650390625,0.1113128662109375,0.9785308837890624
301485,0.113922119140625,0.1715087890625,1.125030517578125
301486,-0.0699462890625,0.3205413818359375,1.26983642578125
301487,-0.2551727294921875,0.495208740234375,1.413726806640625
301488,-0.38604736328125,0.669830322265625,1.503570556640625
301489,-0.4421539306640625,0.77801513671875,1.487655639648438
301490,-0.4210662841796875,0.793487548828125,1.405242919921875
301491,-0.3564910888671875,0.7294921875,1.328567504882812
301492,-0.286224365234375,0.6534271240234375,1.255233764648438
301493,-0.2122344970703125,0.610626220703125,1.187484741210938
301494,-0.1268768310546875,0.60870361328125,1.16461181640625
301495,-0.027191162109375,0.6313018798828125,1.1749267578125
301496,0.09368896484375,0.64996337890625,1.172531127929688
301497,0.2227325439453125,0.6696014404296875,1.127304077148438
301498,0.351470947265625,0.642120361328125,1.078384399414062
301499,0.466094970703125,0.5565643310546875,1.045745849609375
301500,0.542388916015625,0.426361083984375,0.94781494140625
301501,0.5778656005859375,0.274566650390625,0.73779296875
301502,0.6011962890625,0.1602783203125,0.59381103515625
301503,0.64044189453125,0.12078857421875,0.5344696044921875
301504,0.692626953125,0.1533203125,0.5129547119140625
301505,0.75970458984375,0.203460693359375,0.521484375
301506,0.829559326171875,0.244293212890625,0.519866943359375
301507,0.8671875,0.2638702392578125,0.4953155517578125
301508,0.8633270263671875,0.2386627197265625,0.430755615234375
301509,0.8473052978515625,0.1714019775390625,0.3670654296875
301510,0.8339385986328125,0.08819580078125,0.3461151123046875
301511,0.827911376953125,0.025634765625,0.3747406005859375
301512,0.8358001708984375,0.0196533203125,0.4097900390625
301513,0.8560943603515625,0.090423583984375,0.4292449951171875
301514,0.8832855224609375,0.2585296630859375,0.444000244140625
301515,0.8807525634765625,0.431243896484375,0.448699951171875
301516,0.8184814453125,0.5056915283203125,0.4302825927734375
301517,0.771484375,0.58233642578125,0.41448974609375
301518,0.7685394287109375,0.6851806640625,0.4437103271484375
301519,0.797515869140625,0.7325592041015625,0.4653167724609375
301520,0.8656005859375,0.728363037109375,0.494476318359375
301521,0.9392547607421876,0.714019775390625,0.5284576416015625
301522,0.97625732421875,0.6970977783203125,0.5523529052734375
301523,0.9864959716796876,0.6639251708984375,0.5425567626953125
301524,0.9771881103515624,0.633636474609375,0.5095672607421875
301525,0.9756622314453124,0.6134033203125,0.4725189208984375
301526,0.9833831787109376,0.594024658203125,0.4352264404296875
301527,0.9867401123046876,0.5647125244140625,0.409271240234375
301528,0.975494384765625,0.5231170654296875,0.4113616943359375
301529,0.94805908203125,0.4799957275390625,0.4278564453125
301530,0.910888671875,0.4345855712890625,0.461273193359375
301531,0.8726654052734375,0.391448974609375,0.5083465576171875
301532,0.8367462158203125,0.4445648193359375,0.572021484375
301533,0.814544677734375,0.3872222900390625,0.591522216796875
301534,0.77545166015625,0.290191650390625,0.610015869140625
301535,0.699798583984375,0.2417144775390625,0.6629638671875
301536,0.634521484375,0.2218780517578125,0.705413818359375
301537,0.574554443359375,0.2095794677734375,0.7276153564453125
301538,0.5085906982421875,0.176910400390625,0.74468994140625
301539,0.445343017578125,0.1418914794921875,0.768585205078125
301540,0.38140869140625,0.1052703857421875,0.7794189453125
301541,0.29010009765625,0.077056884765625,0.7841644287109375
301542,0.1632843017578125,0.075592041015625,0.7960052490234375
301543,0.0069580078125,0.10540771484375,0.8323211669921875
301544,-0.1432647705078125,0.1580963134765625,0.902008056640625
301545,-0.2452392578125,0.2281494140625,1.008697509765625
301546,-0.3117523193359375,0.285400390625,1.114273071289062
301547,-0.338836669921875,0.2977142333984375,1.205154418945312
301548,-0.3319854736328125,0.278106689453125,1.265533447265625
301549,-0.313446044921875,0.240631103515625,1.2777099609375
301550,-0.26934814453125,0.1886749267578125,1.26165771484375
301551,-0.1743927001953125,0.1374053955078125,1.230560302734375
301552,-0.0373687744140625,0.1201629638671875,1.176361083984375
301553,0.11187744140625,0.1546630859375,1.093948364257812
301554,0.25543212890625,0.216064453125,1.004287719726562
301555,0.3900299072265625,0.2772979736328125,0.926727294921875
301556,0.510589599609375,0.3306121826171875,0.8815155029296875
301557,0.6128082275390625,0.39788818359375,0.8674468994140625
301558,0.7015838623046875,0.4791259765625,0.8458709716796875
301559,0.755615234375,0.52703857421875,0.8011322021484375
301560,0.76702880859375,0.5655517578125,0.7349853515625
301561,0.7628326416015625,0.5732269287109375,0.647369384765625
301562,0.7469329833984375,0.5591278076171875,0.5741729736328125
301563,0.744873046875,0.5194549560546875,0.52923583984375
301564,0.74835205078125,0.4815521240234375,0.4963226318359375
301565,0.7513275146484375,0.4794464111328125,0.4869384765625
301566,0.7339935302734375,0.485137939453125,0.5205078125
301567,0.6848602294921875,0.476409912109375,0.5735931396484375
301568,0.619140625,0.4600982666015625,0.6151885986328125
301569,0.5604705810546875,0.4432525634765625,0.6684417724609375
301570,0.5335540771484375,0.4294891357421875,0.7525177001953125
301571,0.53790283203125,0.44512939453125,0.8155517578125
301572,0.5881805419921875,0.470123291015625,0.80792236328125
301573,0.664703369140625,0.5187835693359375,0.704986572265625
301574,0.75262451171875,0.6093902587890625,0.5464630126953125
301575,0.8368377685546875,0.6910247802734375,0.3931427001953125
301576,0.8936614990234375,0.70782470703125,0.3057403564453125
301577,0.9015655517578124,0.6412200927734375,0.3382720947265625
301578,0.8764495849609375,0.5491790771484375,0.4878387451171875
301579,0.85479736328125,0.48712158203125,0.621063232421875
301580,0.8411865234375,0.4368743896484375,0.649322509765625
301581,0.843414306640625,0.4010772705078125,0.5848541259765625
301582,0.8585052490234375,0.39691162109375,0.489593505859375
301583,0.88543701171875,0.39080810546875,0.4267730712890625
301584,0.922119140625,0.3679962158203125,0.3811492919921875
301585,0.959014892578125,0.32977294921875,0.341766357421875
301586,0.9800262451171876,0.292816162109375,0.316986083984375
301587,0.9833221435546876,0.271087646484375,0.314849853515625
301588,0.9689178466796876,0.251708984375,0.33551025390625
301589,0.929779052734375,0.2438812255859375,0.3837432861328125
301590,0.8695526123046875,0.25433349609375,0.4505615234375
301591,0.7979583740234375,0.2721099853515625,0.5083465576171875
301592,0.714996337890625,0.2849884033203125,0.5497283935546875
301593,0.6298370361328125,0.2921142578125,0.5630950927734375
301594,0.5461578369140625,0.2897186279296875,0.5851287841796875
301595,0.467987060546875,0.278900146484375,0.6243743896484375
301596,0.4031524658203125,0.2631378173828125,0.7181396484375
301597,0.33013916015625,0.2586517333984375,0.8898773193359375
301598,0.2301177978515625,0.31427001953125,1.071701049804688
301599,0.0681610107421875,0.4254913330078125,1.219833374023438
301600,-0.1414642333984375,0.5609130859375,1.325637817382812
301601,-0.331451416015625,0.6624298095703125,1.389556884765625
301602,-0.4491424560546875,0.717681884765625,1.394927978515625
301603,-0.4950408935546875,0.7244720458984375,1.3341064453125
301604,-0.4823150634765625,0.6721343994140625,1.274642944335938
301605,-0.422698974609375,0.617156982421875,1.217071533203125
301606,-0.3548736572265625,0.602264404296875,1.151077270507812
301607,-0.26617431640625,0.621795654296875,1.114486694335938
301608,-0.1500091552734375,0.6461334228515625,1.146026611328125
301609,-0.0167694091796875,0.6583099365234375,1.207351684570312
301610,0.125213623046875,0.660308837890625,1.2462158203125
301611,0.2580718994140625,0.6611785888671875,1.233139038085938
301612,0.361480712890625,0.6541900634765625,1.192352294921875
301613,0.438446044921875,0.6005401611328125,1.144180297851562
301614,0.486328125,0.497833251953125,1.081283569335938
301615,0.50396728515625,0.40887451171875,0.9659881591796876
301616,0.52227783203125,0.3448333740234375,0.7224273681640625
301617,0.5698699951171875,0.2994232177734375,0.544921875
301618,0.6387939453125,0.272430419921875,0.4790191650390625
301619,0.704010009765625,0.2800140380859375,0.453521728515625
301620,0.75732421875,0.290130615234375,0.4988555908203125
301621,0.7760009765625,0.2712554931640625,0.5719451904296875
301622,0.7634429931640625,0.2281646728515625,0.5858306884765625
301623,0.7413787841796875,0.195465087890625,0.5637969970703125
301624,0.7191009521484375,0.17919921875,0.5102386474609375
301625,0.684814453125,0.1758270263671875,0.4277191162109375
301626,0.698486328125,0.197357177734375,0.43817138671875
301627,0.5988311767578125,0.234039306640625,0.221282958984375
301628,0.69549560546875,0.25897216796875,0.3059234619140625
301629,0.8062896728515625,0.378265380859375,0.3599090576171875
301630,0.8779144287109375,0.5276031494140625,0.419586181640625
301631,0.932952880859375,0.536590576171875,0.38580322265625
301632,1.004547119140625,0.489227294921875,0.3734588623046875
301633,1.058624267578125,0.55096435546875,0.3491668701171875
301634,1.118377685546875,0.632904052734375,0.284027099609375
301635,1.128311157226562,0.6833038330078125,0.2923126220703125
301636,1.136322021484375,0.6493377685546875,0.3018798828125
301637,1.065658569335938,0.6931610107421875,0.3511199951171875
301638,1.012710571289062,0.67071533203125,0.4095611572265625
301639,0.9912872314453124,0.6306610107421875,0.457855224609375
301640,0.9730224609375,0.591827392578125,0.474639892578125
301641,0.9363250732421876,0.53509521484375,0.4592742919921875
301642,0.88262939453125,0.4736785888671875,0.4156494140625
301643,0.836181640625,0.4302978515625,0.3997344970703125
301644,0.803466796875,0.4113616943359375,0.426727294921875
301645,0.78192138671875,0.403533935546875,0.49700927734375
301646,0.7581024169921875,0.39642333984375,0.590118408203125
301647,0.7229461669921875,0.386016845703125,0.6700592041015625
301648,0.682464599609375,0.3648223876953125,0.72802734375
301649,0.6277313232421875,0.3255157470703125,0.765350341796875
301650,0.559783935546875,0.2683258056640625,0.7898101806640625
301651,0.491241455078125,0.200958251953125,0.81103515625
301652,0.4287109375,0.13372802734375,0.8335723876953125
301653,0.3856964111328125,0.0776519775390625,0.8399200439453125
301654,0.336639404296875,0.055419921875,0.7940521240234375
301655,0.236328125,0.075469970703125,0.7532196044921875
301656,0.08905029296875,0.1090240478515625,0.7820281982421875
301657,-0.0758209228515625,0.147735595703125,0.893829345703125
301658,-0.229644775390625,0.1848297119140625,1.04425048828125
301659,-0.3482513427734375,0.216400146484375,1.194061279296875
301660,-0.42193603515625,0.24285888671875,1.292617797851562
301661,-0.441009521484375,0.2573089599609375,1.309738159179688
301662,-0.4080047607421875,0.24468994140625,1.270980834960938
301663,-0.3260345458984375,0.2165679931640625,1.213836669921875
301664,-0.1939239501953125,0.217193603515625,1.142349243164062
301665,-0.0467071533203125,0.275634765625,1.06109619140625
301666,0.09149169921875,0.32659912109375,1.002105712890625
301667,0.213714599609375,0.34844970703125,0.983062744140625
301668,0.319732666015625,0.387115478515625,0.9908599853515624
301669,0.4257049560546875,0.456390380859375,1.007827758789062
301670,0.537628173828125,0.5337982177734375,1.01312255859375
301671,0.6359405517578125,0.5931549072265625,0.976470947265625
301672,0.7055206298828125,0.6482696533203125,0.876708984375
301673,0.7451171875,0.6869964599609375,0.7501068115234375
301674,0.7452239990234375,0.698394775390625,0.6453704833984375
301675,0.711090087890625,0.6802215576171875,0.59527587890625
301676,0.65960693359375,0.626190185546875,0.574554443359375
301677,0.621826171875,0.5682220458984375,0.5539093017578125
301678,0.6125335693359375,0.5366668701171875,0.5373382568359375
301679,0.598052978515625,0.5243377685546875,0.5431976318359375
301680,0.5650634765625,0.5175933837890625,0.5827789306640625
301681,0.517425537109375,0.513916015625,0.6290435791015625
301682,0.4622039794921875,0.50927734375,0.68365478515625
301683,0.4414215087890625,0.5144195556640625,0.749603271484375
301684,0.48681640625,0.530975341796875,0.7810516357421875
301685,0.5666351318359375,0.5640869140625,0.721710205078125
301686,0.6522064208984375,0.5982208251953125,0.5877838134765625
301687,0.7479400634765625,0.5975799560546875,0.4480743408203125
301688,0.8507080078125,0.58111572265625,0.354705810546875
301689,0.94427490234375,0.5590057373046875,0.2984771728515625
301690,1.001083374023438,0.542877197265625,0.3057098388671875
301691,0.994232177734375,0.5287628173828125,0.3853759765625
301692,0.9213409423828124,0.5103912353515625,0.48455810546875
301693,0.8233489990234375,0.5082550048828125,0.5518798828125
301694,0.762115478515625,0.5146636962890625,0.5728302001953125
301695,0.7482147216796875,0.528533935546875,0.55023193359375
301696,0.7765350341796875,0.5258941650390625,0.4957275390625
301697,0.8346710205078125,0.48126220703125,0.427978515625
301698,0.905059814453125,0.424468994140625,0.35223388671875
301699,0.971160888671875,0.3866119384765625,0.3075714111328125
301700,1.006591796875,0.3596343994140625,0.3024444580078125
301701,0.989105224609375,0.332244873046875,0.3375091552734375
301702,0.9136199951171876,0.3260498046875,0.39874267578125
301703,0.851104736328125,0.32135009765625,0.509063720703125
301704,0.7846527099609375,0.337554931640625,0.6045074462890625
301705,0.6832122802734375,0.37799072265625,0.5577850341796875
301706,0.5686798095703125,0.4026336669921875,0.504638671875
301707,0.4317169189453125,0.4058990478515625,0.6370697021484375
301708,0.3748016357421875,0.3945770263671875,0.86175537109375
301709,0.327972412109375,0.4530792236328125,0.8899078369140625
301710,0.2629547119140625,0.45159912109375,0.87445068359375
301711,0.1306610107421875,0.4372406005859375,1.029617309570312
301712,-0.0682373046875,0.5249176025390625,1.259246826171875
301713,-0.2716217041015625,0.6578216552734375,1.410980224609375
301714,-0.388519287109375,0.6939239501953125,1.3858642578125
301715,-0.3360595703125,0.7131805419921875,1.2650146484375
301716,-0.39300537109375,0.7340850830078125,1.227706909179688
301717,-0.4086151123046875,0.65081787109375,1.1995849609375
301718,-0.35009765625,0.5797576904296875,1.119522094726562
301719,-0.252105712890625,0.5607452392578125,1.048431396484375
301720,-0.1446685791015625,0.5999908447265625,1.039260864257812
301721,-0.0404815673828125,0.652191162109375,1.073822021484375
301722,0.063079833984375,0.6638641357421875,1.111557006835938
301723,0.1719512939453125,0.6368560791015625,1.13818359375
301724,0.274566650390625,0.6194915771484375,1.142852783203125
301725,0.3570098876953125,0.63055419921875,1.112960815429688
301726,0.3985595703125,0.60992431640625,1.04156494140625
301727,0.4173126220703125,0.5216522216796875,0.964874267578125
301728,0.4326019287109375,0.4444122314453125,0.84539794921875
301729,0.45819091796875,0.4130859375,0.70489501953125
301730,0.5038299560546875,0.390045166015625,0.5653076171875
301731,0.57550048828125,0.375518798828125,0.5030517578125
301732,0.6824798583984375,0.361236572265625,0.510986328125
301733,0.7917022705078125,0.360198974609375,0.5321197509765625
301734,0.7158355712890625,0.3560791015625,0.5066375732421875
301735,0.714996337890625,0.2759857177734375,0.4966278076171875
301736,0.838043212890625,0.186981201171875,0.4535064697265625
301737,0.9062042236328124,0.1582489013671875,0.4238128662109375
301738,0.812835693359375,0.15313720703125,0.41064453125
301739,0.70867919921875,0.13720703125,0.4324493408203125
301740,0.7143707275390625,0.18182373046875,0.4244384765625
301741,0.7814788818359375,0.2327423095703125,0.3373870849609375
301742,0.842864990234375,0.322845458984375,0.2529754638671875
301743,0.88397216796875,0.4229736328125,0.230926513671875
301744,0.909515380859375,0.5536956787109375,0.2837677001953125
301745,0.9082794189453124,0.5944671630859375,0.35540771484375
301746,0.9437408447265624,0.555999755859375,0.4224853515625
301747,1.052444458007812,0.568939208984375,0.439208984375
301748,1.167007446289062,0.618072509765625,0.3980865478515625
301749,1.236282348632812,0.656890869140625,0.3497467041015625
301750,1.220779418945312,0.687225341796875,0.320159912109375
301751,1.125152587890625,0.697662353515625,0.340728759765625
301752,1.000381469726562,0.691436767578125,0.3760986328125
301753,0.9254302978515624,0.647796630859375,0.4344940185546875
301754,0.883636474609375,0.58367919921875,0.4734344482421875
301755,0.849334716796875,0.5100250244140625,0.471099853515625
301756,0.8068389892578125,0.4423370361328125,0.4440155029296875
301757,0.74859619140625,0.377532958984375,0.4229583740234375
301758,0.691619873046875,0.32440185546875,0.45758056640625
301759,0.6375885009765625,0.2920379638671875,0.50518798828125
301760,0.6703948974609375,0.233154296875,0.6106109619140625
301761,0.574951171875,0.3170928955078125,0.740447998046875
301762,0.5074310302734375,0.339935302734375,0.8804168701171875
301763,0.4738311767578125,0.328155517578125,1.005157470703125
301764,0.4059295654296875,0.3288421630859375,1.101028442382812
301765,0.298919677734375,0.344146728515625,1.17938232421875
301766,0.1670379638671875,0.3888092041015625,1.218368530273438
301767,0.02374267578125,0.4440460205078125,1.190414428710938
301768,-0.0886688232421875,0.4996185302734375,1.1356201171875
301769,-0.152862548828125,0.5177001953125,1.087051391601562
301770,-0.195770263671875,0.4827880859375,1.043182373046875
301771,-0.2396240234375,0.4140167236328125,1.016448974609375
301772,-0.27471923828125,0.348175048828125,1.003021240234375
301773,-0.27996826171875,0.2726593017578125,0.954315185546875
301774,-0.2719879150390625,0.1803131103515625,0.935394287109375
301775,-0.2608642578125,0.10882568359375,0.9640655517578124
301776,-0.218780517578125,0.0924835205078125,1.048828125
301777,-0.1651611328125,0.13946533203125,1.016159057617188
301778,-0.0491943359375,0.1360626220703125,0.9807586669921876
301779,0.0856475830078125,0.181396484375,1.03082275390625
301780,0.2176666259765625,0.2625885009765625,1.092010498046875
301781,0.325714111328125,0.3287200927734375,1.101303100585938
301782,0.4321746826171875,0.3661041259765625,1.064254760742188
301783,0.557403564453125,0.405914306640625,1.01690673828125
301784,0.6750640869140625,0.443756103515625,0.940155029296875
301785,0.768341064453125,0.4746246337890625,0.8406219482421875
301786,0.8342132568359375,0.5227203369140625,0.739288330078125
301787,0.868255615234375,0.5819549560546875,0.6646575927734375
301788,0.893798828125,0.5871429443359375,0.5971527099609375
301789,0.90008544921875,0.54632568359375,0.52972412109375
301790,0.9038238525390624,0.4770355224609375,0.503265380859375
301791,0.87811279296875,0.4277191162109375,0.47515869140625
301792,0.819610595703125,0.3836822509765625,0.4020843505859375
301793,0.76910400390625,0.3477783203125,0.3518218994140625
301794,0.759613037109375,0.3386383056640625,0.3867034912109375
301795,0.7061614990234375,0.3818359375,0.4371337890625
301796,0.5783538818359375,0.4037628173828125,0.4872283935546875
301797,0.4731903076171875,0.3910675048828125,0.5361175537109375
301798,0.4307708740234375,0.4788818359375,0.6052398681640625
301799,0.4505157470703125,0.6170806884765625,0.741729736328125
301800,0.5001983642578125,0.624420166015625,0.853424072265625
301801,0.57958984375,0.587249755859375,0.8035888671875
301802,0.702301025390625,0.568023681640625,0.60650634765625
301803,0.83966064453125,0.5188751220703125,0.3946380615234375
301804,0.962493896484375,0.4471282958984375,0.286529541015625
301805,1.007522583007812,0.413818359375,0.296844482421875
301806,0.9951324462890624,0.422332763671875,0.42138671875
301807,0.9564208984375,0.4402008056640625,0.587615966796875
301808,0.8780364990234375,0.4323883056640625,0.6548614501953125
301809,0.8283538818359375,0.42205810546875,0.6484832763671875
301810,0.815887451171875,0.4178924560546875,0.58758544921875
301811,0.8444671630859375,0.4250335693359375,0.535247802734375
301812,0.8671875,0.4229583740234375,0.463348388671875
301813,0.896575927734375,0.37969970703125,0.3771209716796875
301814,0.9294281005859376,0.3470458984375,0.3421630859375
301815,0.941986083984375,0.3224334716796875,0.367828369140625
301816,0.9190521240234376,0.305908203125,0.4030914306640625
301817,0.86529541015625,0.3052215576171875,0.4398651123046875
301818,0.7835235595703125,0.3331146240234375,0.4725799560546875
301819,0.6969146728515625,0.3673858642578125,0.54705810546875
301820,0.616546630859375,0.401458740234375,0.6197357177734375
301821,0.5466461181640625,0.4220428466796875,0.6706695556640625
301822,0.4771881103515625,0.4205780029296875,0.7415313720703125
301823,0.403350830078125,0.4124603271484375,0.8393707275390625
301824,0.322540283203125,0.40625,0.9409027099609376
301825,0.21929931640625,0.395538330078125,1.02960205078125
301826,0.023406982421875,0.457794189453125,1.127822875976562
301827,-0.146728515625,0.4473114013671875,1.193695068359375
301828,0.001861572265625,0.36920166015625,1.17999267578125
301829,-0.0960845947265625,0.4843292236328125,1.15081787109375
301830,-0.30181884765625,0.627410888671875,1.25848388671875
301831,-0.3096160888671875,0.564178466796875,1.197662353515625
301832,-0.0804443359375,0.5106658935546875,1.023773193359375
301833,-0.0403900146484375,0.5800018310546875,1.049667358398438
301834,-0.1156463623046875,0.6772003173828125,1.242080688476562
301835,-0.0613861083984375,0.6846923828125,1.223709106445312
301836,0.0573272705078125,0.646881103515625,1.059921264648438
301837,0.1357879638671875,0.6362762451171875,1.035919189453125
301838,0.2273101806640625,0.6569976806640625,1.072433471679688
301839,0.3143768310546875,0.6681671142578125,1.056289672851562
301840,0.388458251953125,0.6340789794921875,1.015838623046875
301841,0.4478912353515625,0.5710906982421875,0.9663238525390624
301842,0.4845428466796875,0.503692626953125,0.9031982421875
301843,0.5228271484375,0.4193878173828125,0.81719970703125
301844,0.559173583984375,0.3746337890625,0.74176025390625
301845,0.5872344970703125,0.3669281005859375,0.6303863525390625
301846,0.6713104248046875,0.303680419921875,0.5003509521484375
301847,0.7624969482421875,0.2380828857421875,0.417816162109375
301848,0.8293304443359375,0.20965576171875,0.417877197265625
301849,0.8340606689453125,0.199798583984375,0.4376220703125
301850,0.8151092529296875,0.1556243896484375,0.41925048828125
301851,0.840362548828125,0.09710693359375,0.34454345703125
301852,0.86309814453125,0.079925537109375,0.3143768310546875
301853,0.8898162841796875,0.037017822265625,0.3832550048828125
301854,0.841094970703125,0.0073394775390625,0.4136962890625
301855,0.7787322998046875,0.028778076171875,0.445770263671875
301856,0.7823333740234375,0.145538330078125,0.456817626953125
301857,0.8022613525390625,0.311798095703125,0.4024810791015625
301858,0.78759765625,0.4379119873046875,0.37091064453125
301859,0.7375640869140625,0.511627197265625,0.4448394775390625
301860,0.695465087890625,0.58245849609375,0.58770751953125
301861,0.7241363525390625,0.642181396484375,0.6992950439453125
301862,0.8307342529296875,0.7058563232421875,0.69512939453125
301863,0.9739990234375,0.747833251953125,0.619903564453125
301864,1.090682983398438,0.735565185546875,0.540924072265625
301865,1.100692749023438,0.7181243896484375,0.51708984375
301866,1.056076049804688,0.673004150390625,0.5158843994140625
301867,0.9976043701171876,0.6013641357421875,0.49237060546875
301868,0.9322509765625,0.5149078369140625,0.4914398193359375
301869,0.8670501708984375,0.4710693359375,0.510284423828125
301870,0.8605804443359375,0.4762725830078125,0.521881103515625
301871,0.8299560546875,0.5373992919921875,0.523712158203125
301872,0.7897491455078125,0.5527191162109375,0.5073699951171875
301873,0.767486572265625,0.52777099609375,0.4709930419921875
301874,0.69091796875,0.5047607421875,0.488372802734375
301875,0.6092681884765625,0.4639892578125,0.56781005859375
301876,0.5814208984375,0.438629150390625,0.649566650390625
301877,0.555206298828125,0.438995361328125,0.7311859130859375
301878,0.5339508056640625,0.4305877685546875,0.8093109130859375
301879,0.5168609619140625,0.4127349853515625,0.86102294921875
301880,0.496002197265625,0.3821868896484375,0.8726959228515625
301881,0.4625701904296875,0.3258514404296875,0.85003662109375
301882,0.41204833984375,0.260589599609375,0.81390380859375
301883,0.3335113525390625,0.2050323486328125,0.7668609619140625
301884,0.188629150390625,0.21258544921875,0.781524658203125
301885,0.098419189453125,0.174652099609375,0.79400634765625
301886,0.0721282958984375,0.1637725830078125,0.759979248046875
301887,-0.091033935546875,0.1602020263671875,0.8871002197265625
301888,-0.255035400390625,0.1833648681640625,1.096466064453125
301889,-0.3403472900390625,0.212127685546875,1.252700805664062
301890,-0.2881927490234375,0.127197265625,1.226470947265625
301891,-0.2605438232421875,0.0545501708984375,1.182846069335938
301892,-0.2609710693359375,0.0091094970703125,1.2120361328125
301893,-0.161041259765625,-0.010406494140625,1.18701171875
301894,-0.0066986083984375,0.002716064453125,1.133529663085938
301895,0.1443634033203125,0.0270843505859375,1.093307495117188
301896,0.2814483642578125,0.07354736328125,1.03411865234375
301897,0.4221343994140625,0.1572418212890625,0.9768218994140624
301898,0.5274200439453125,0.2779541015625,0.9184417724609376
301899,0.5688323974609375,0.3358154296875,0.901947021484375
301900,0.62445068359375,0.39990234375,0.881744384765625
301901,0.7061614990234375,0.5044403076171875,0.8620758056640625
301902,0.7826385498046875,0.555999755859375,0.792449951171875
301903,0.7794342041015625,0.56561279296875,0.7235260009765625
301904,0.738433837890625,0.568023681640625,0.6885833740234375
301905,0.70623779296875,0.5575408935546875,0.6567535400390625
301906,0.64739990234375,0.512176513671875,0.6143951416015625
301907,0.58428955078125,0.431793212890625,0.5638885498046875
301908,0.5242767333984375,0.370819091796875,0.5482635498046875
301909,0.4673919677734375,0.3686676025390625,0.6026611328125
301910,0.4097137451171875,0.4004669189453125,0.701812744140625
301911,0.3613128662109375,0.4304046630859375,0.7989349365234375
301912,0.35015869140625,0.4510955810546875,0.878692626953125
301913,0.398223876953125,0.4647979736328125,0.8886566162109375
301914,0.5032806396484375,0.4730072021484375,0.770843505859375
301915,0.6292572021484375,0.4597320556640625,0.56658935546875
301916,0.742919921875,0.429595947265625,0.3863372802734375
301917,0.888336181640625,0.382293701171875,0.2585296630859375
301918,1.021347045898438,0.2805328369140625,0.2171478271484375
301919,1.123626708984375,0.2468109130859375,0.25518798828125
301920,1.183929443359375,0.2802734375,0.370880126953125
301921,1.167037963867188,0.3338775634765625,0.5235595703125
301922,1.077880859375,0.3732147216796875,0.615203857421875
301923,0.9854888916015624,0.4542694091796875,0.6404266357421875
301924,0.899627685546875,0.5274505615234375,0.598785400390625
301925,0.8185577392578125,0.51849365234375,0.50616455078125
301926,0.79681396484375,0.4615631103515625,0.4310302734375
301927,0.8309173583984375,0.4051055908203125,0.4059906005859375
301928,0.8847808837890625,0.363922119140625,0.40435791015625
301929,0.934600830078125,0.333892822265625,0.4039764404296875
301930,0.9683074951171876,0.30908203125,0.40374755859375
301931,0.970184326171875,0.299896240234375,0.417999267578125
301932,0.9326019287109376,0.317230224609375,0.446624755859375
301933,0.8740997314453125,0.352569580078125,0.4859771728515625
301934,0.80242919921875,0.388580322265625,0.5283966064453125
301935,0.7114715576171875,0.4156494140625,0.5681915283203125
301936,0.606964111328125,0.4367523193359375,0.6063385009765625
301937,0.50384521484375,0.4543609619140625,0.65972900390625
301938,0.4073028564453125,0.47100830078125,0.7187957763671875
301939,0.309661865234375,0.4596405029296875,0.784393310546875
301940,0.225830078125,0.4257659912109375,0.86224365234375
301941,0.136383056640625,0.401947021484375,0.97015380859375
301942,0.0308685302734375,0.41876220703125,1.096847534179688
301943,-0.0908966064453125,0.486480712890625,1.21868896484375
301944,-0.2060089111328125,0.571258544921875,1.332046508789062
301945,-0.302276611328125,0.655487060546875,1.41839599609375
301946,-0.381744384765625,0.7131805419921875,1.445205688476562
301947,-0.4239349365234375,0.7439422607421875,1.40155029296875
301948,-0.4167938232421875,0.7475128173828125,1.293258666992188
301949,-0.372711181640625,0.7247314453125,1.169235229492188
301950,-0.2967681884765625,0.6922760009765625,1.109161376953125
301951,-0.1917724609375,0.6514434814453125,1.124893188476562
301952,-0.0632476806640625,0.6392669677734375,1.138809204101562
301953,0.0773162841796875,0.6553802490234375,1.105209350585938
301954,0.2143707275390625,0.6348724365234375,1.082992553710938
301955,0.3221282958984375,0.6012725830078125,1.114288330078125
301956,0.4130706787109375,0.527008056640625,1.166488647460938
301957,0.5076446533203125,0.4281005859375,1.182891845703125
301958,0.5926055908203125,0.3193359375,1.043426513671875
301959,0.644073486328125,0.1971893310546875,0.689910888671875
301960,0.699951171875,0.1292266845703125,0.433990478515625
301961,0.7592010498046875,0.140869140625,0.2867889404296875
301962,0.8075103759765625,0.13568115234375,0.2863311767578125
