time_idx,accelerometerAccelerationX(G),accelerometerAccelerationY(G),accelerometerAccelerationZ(G)
20000,0.0352630615234375,0.9805755615234376,-0.205810546875
20001,0.037109375,0.9880828857421876,-0.212677001953125
20002,0.0370941162109375,1.0023193359375,-0.205657958984375
20003,0.034210205078125,1.011093139648438,-0.186859130859375
20004,0.0333709716796875,1.015762329101562,-0.1614532470703125
20005,0.036224365234375,1.010009765625,-0.132598876953125
20006,0.04278564453125,0.9971923828125,-0.1257476806640625
20007,0.0503387451171875,0.979827880859375,-0.129119873046875
20008,0.0530548095703125,0.969268798828125,-0.144805908203125
20009,0.0506591796875,0.9647369384765624,-0.15777587890625
20010,0.044342041015625,0.963409423828125,-0.157928466796875
20011,0.0362091064453125,0.966522216796875,-0.152862548828125
20012,0.0242767333984375,0.9688873291015624,-0.1434783935546875
20013,0.0144805908203125,0.981353759765625,-0.1277923583984375
20014,0.0039825439453125,0.9944305419921876,-0.1170501708984375
20015,-0.001129150390625,1.006927490234375,-0.11016845703125
20016,-0.004913330078125,1.018585205078125,-0.1128387451171875
20017,-0.0063629150390625,1.030853271484375,-0.121246337890625
20018,-0.0082550048828125,1.04217529296875,-0.1329803466796875
20019,-0.0124053955078125,1.033660888671875,-0.1292724609375
20020,-0.0148162841796875,1.031875610351562,-0.134765625
20021,-0.0190887451171875,1.02459716796875,-0.136627197265625
20022,-0.0231170654296875,1.010833740234375,-0.131439208984375
20023,-0.0211944580078125,1.004837036132812,-0.133758544921875
20024,-0.0211334228515625,1.001800537109375,-0.137176513671875
20025,-0.018035888671875,0.99920654296875,-0.131500244140625
20026,-0.014801025390625,1.000198364257812,-0.132965087890625
20027,-0.011688232421875,1.003616333007812,-0.1343994140625
20028,-0.0020599365234375,1.001510620117188,-0.129119873046875
20029,0.00982666015625,0.9982147216796876,-0.1319732666015625
20030,0.0219268798828125,0.991180419921875,-0.131988525390625
20031,0.029937744140625,0.985626220703125,-0.135223388671875
20032,0.03253173828125,0.98590087890625,-0.133697509765625
20033,0.0266571044921875,0.99285888671875,-0.117431640625
20034,0.0166473388671875,1.00213623046875,-0.098114013671875
20035,0.0010223388671875,1.006805419921875,-0.0932464599609375
20036,-0.01416015625,1.006362915039062,-0.11077880859375
20037,-0.0197601318359375,1.00970458984375,-0.13775634765625
20038,-0.0235137939453125,1.01458740234375,-0.14996337890625
20039,-0.03466796875,1.0166015625,-0.1426239013671875
20040,-0.05596923828125,1.016677856445312,-0.1267547607421875
20041,-0.080596923828125,1.022796630859375,-0.1192169189453125
20042,-0.10015869140625,1.033065795898438,-0.1137542724609375
20043,-0.110687255859375,1.046737670898438,-0.101409912109375
20044,-0.114501953125,1.05706787109375,-0.0914154052734375
20045,-0.1050262451171875,1.050765991210938,-0.0779876708984375
20046,-0.075927734375,1.054519653320312,-0.05072021484375
20047,-0.0144805908203125,1.055282592773438,-0.0418853759765625
20048,0.0639495849609375,1.037765502929688,-0.0745391845703125
20049,0.119842529296875,1.022567749023438,-0.1240997314453125
20050,0.125030517578125,0.9863739013671876,-0.1627960205078125
20051,0.1166839599609375,0.9720306396484376,-0.1727752685546875
20052,0.105926513671875,0.99139404296875,-0.1551361083984375
20053,0.0848541259765625,1.009613037109375,-0.1414642333984375
20054,0.048675537109375,1.031097412109375,-0.1512451171875
20055,-0.0037841796875,1.05645751953125,-0.176239013671875
20056,-0.060882568359375,1.051864624023438,-0.213836669921875
20057,-0.10107421875,1.019119262695312,-0.256805419921875
20058,-0.126953125,0.985260009765625,-0.300445556640625
20059,-0.137115478515625,0.9404296875,-0.331298828125
20060,-0.1419677734375,0.8956451416015625,-0.3440704345703125
20061,-0.133148193359375,0.8511810302734375,-0.343170166015625
20062,-0.1112518310546875,0.819427490234375,-0.3369598388671875
20063,-0.075439453125,0.7994384765625,-0.3148956298828125
20064,-0.0435943603515625,0.7976226806640625,-0.2473907470703125
20065,-0.02142333984375,0.8474884033203125,-0.1691741943359375
20066,-0.00799560546875,0.92596435546875,-0.1693878173828125
20067,0.0002593994140625,0.9583282470703124,-0.228973388671875
20068,0.000396728515625,0.9492340087890624,-0.2697296142578125
20069,-0.001007080078125,0.9531402587890624,-0.2900848388671875
20070,-0.015106201171875,0.968597412109375,-0.2843475341796875
20071,-0.0412750244140625,0.9979095458984376,-0.25994873046875
20072,-0.079620361328125,1.0333251953125,-0.22076416015625
20073,-0.122589111328125,1.066238403320312,-0.1688995361328125
20074,-0.1588897705078125,1.077194213867188,-0.1279296875
20075,-0.1714630126953125,1.06500244140625,-0.117706298828125
20076,-0.1519927978515625,1.057815551757812,-0.152099609375
20077,-0.1193084716796875,1.04278564453125,-0.1907806396484375
20078,-0.088714599609375,1.032867431640625,-0.225677490234375
20079,-0.06878662109375,1.028640747070312,-0.2608489990234375
20080,-0.0545654296875,1.0211181640625,-0.2561187744140625
20081,-0.0454559326171875,1.019424438476562,-0.2255401611328125
20082,-0.042144775390625,1.012374877929688,-0.18463134765625
20083,-0.042694091796875,0.9875946044921876,-0.1531982421875
20084,-0.0448455810546875,0.955657958984375,-0.1396484375
20085,-0.0547943115234375,0.9289398193359376,-0.1407470703125
20086,-0.0655059814453125,0.91064453125,-0.1556396484375
20087,-0.0756683349609375,0.89764404296875,-0.17437744140625
20088,-0.0876312255859375,0.8907623291015625,-0.1809234619140625
20089,-0.100982666015625,0.892425537109375,-0.178558349609375
20090,-0.1153411865234375,0.897674560546875,-0.1613006591796875
20091,-0.1226959228515625,0.9136962890625,-0.143524169921875
20092,-0.12164306640625,0.93798828125,-0.13330078125
20093,-0.123077392578125,0.9696502685546876,-0.139495849609375
20094,-0.125701904296875,0.990203857421875,-0.1570587158203125
20095,-0.12933349609375,1.001968383789062,-0.1941070556640625
20096,-0.1349334716796875,1.002304077148438,-0.2235870361328125
20097,-0.1395111083984375,0.99041748046875,-0.2394866943359375
20098,-0.14227294921875,0.969390869140625,-0.2495880126953125
20099,-0.1435089111328125,0.952880859375,-0.2501220703125
20100,-0.14306640625,0.93731689453125,-0.2418365478515625
20101,-0.1365203857421875,0.923187255859375,-0.220855712890625
20102,-0.1278533935546875,0.916656494140625,-0.19158935546875
20103,-0.1183929443359375,0.9161529541015624,-0.16571044921875
20104,-0.112091064453125,0.91680908203125,-0.146087646484375
20105,-0.105621337890625,0.9210357666015624,-0.1324005126953125
20106,-0.1054534912109375,0.927734375,-0.1221466064453125
20107,-0.105316162109375,0.93658447265625,-0.1122894287109375
20108,-0.1093902587890625,0.9445343017578124,-0.1143035888671875
20109,-0.1227264404296875,0.956878662109375,-0.1262664794921875
20110,-0.1414337158203125,0.9726104736328124,-0.1356201171875
20111,-0.166107177734375,0.9887847900390624,-0.1360321044921875
20112,-0.194488525390625,0.99658203125,-0.135223388671875
20113,-0.213653564453125,1.008544921875,-0.1339263916015625
20114,-0.229400634765625,1.011505126953125,-0.1265869140625
20115,-0.2426300048828125,1.007308959960938,-0.1265106201171875
20116,-0.2584075927734375,1.005844116210938,-0.1356658935546875
20117,-0.2757415771484375,1.005203247070312,-0.13970947265625
20118,-0.291290283203125,0.9965362548828124,-0.1393890380859375
20119,-0.3011627197265625,0.9910430908203124,-0.1398773193359375
20120,-0.303009033203125,1.000259399414062,-0.155914306640625
20121,-0.3029937744140625,1.003707885742188,-0.1784210205078125
20122,-0.3040771484375,1.007339477539062,-0.2161407470703125
20123,-0.291229248046875,1.03076171875,-0.272369384765625
20124,-0.270294189453125,1.018783569335938,-0.2760162353515625
20125,-0.2525482177734375,0.987213134765625,-0.257659912109375
20126,-0.2247467041015625,0.970611572265625,-0.261444091796875
20127,-0.1837158203125,0.9806365966796876,-0.2990570068359375
20128,-0.1401214599609375,1.017105102539062,-0.356048583984375
20129,-0.1045989990234375,1.065353393554688,-0.4159088134765625
20130,-0.1040191650390625,1.105072021484375,-0.4265899658203125
20131,-0.1219329833984375,1.081741333007812,-0.363250732421875
20132,-0.127349853515625,1.04766845703125,-0.2731170654296875
20133,-0.13409423828125,1.039581298828125,-0.2034149169921875
20134,-0.14361572265625,1.0545654296875,-0.1876068115234375
20135,-0.1515655517578125,1.0421142578125,-0.202178955078125
20136,-0.139373779296875,1.022048950195312,-0.20196533203125
20137,-0.102508544921875,1.03839111328125,-0.212860107421875
20138,-0.0694732666015625,1.049407958984375,-0.22686767578125
20139,-0.0497894287109375,1.032318115234375,-0.230712890625
20140,-0.0386199951171875,1.006607055664062,-0.263580322265625
20141,-0.02484130859375,0.976715087890625,-0.3088531494140625
20142,-0.00506591796875,0.96319580078125,-0.336029052734375
20143,0.0103302001953125,0.952056884765625,-0.3240966796875
20144,0.040374755859375,0.9212646484375,-0.3099822998046875
20145,0.0676422119140625,0.89044189453125,-0.31903076171875
20146,0.07977294921875,0.871734619140625,-0.343170166015625
20147,0.084228515625,0.858795166015625,-0.3492584228515625
20148,0.0871734619140625,0.839447021484375,-0.3427734375
20149,0.0932159423828125,0.821136474609375,-0.341796875
20150,0.102447509765625,0.8152923583984375,-0.346160888671875
20151,0.1126556396484375,0.8214111328125,-0.3453521728515625
20152,0.1020660400390625,0.855499267578125,-0.3299560546875
20153,0.045379638671875,0.9010162353515624,-0.2884674072265625
20154,0.0418701171875,0.9217987060546876,-0.2561187744140625
20155,0.068634033203125,0.92486572265625,-0.255523681640625
20156,0.093658447265625,0.9025726318359376,-0.266143798828125
20157,0.1265411376953125,0.89825439453125,-0.283966064453125
20158,0.1497650146484375,0.926055908203125,-0.297332763671875
20159,0.15863037109375,0.9568023681640624,-0.291748046875
20160,0.1542205810546875,0.9840087890625,-0.2801055908203125
20161,0.142425537109375,1.000396728515625,-0.272216796875
20162,0.125701904296875,1.005752563476562,-0.259246826171875
20163,0.11224365234375,1.001068115234375,-0.236419677734375
20164,0.1025238037109375,0.9884033203125,-0.21185302734375
20165,0.093597412109375,0.979461669921875,-0.19622802734375
20166,0.089630126953125,0.97967529296875,-0.1899871826171875
20167,0.093994140625,0.9763336181640624,-0.181396484375
20168,0.101806640625,0.9669952392578124,-0.1766357421875
20169,0.09710693359375,0.9559173583984376,-0.1896820068359375
20170,0.094970703125,0.94696044921875,-0.2005767822265625
20171,0.095245361328125,0.9292144775390624,-0.19244384765625
20172,0.0899810791015625,0.908416748046875,-0.1857452392578125
20173,0.089263916015625,0.9145050048828124,-0.1876068115234375
20174,0.0901336669921875,0.9320831298828124,-0.19000244140625
20175,0.0896453857421875,0.9580230712890624,-0.1912078857421875
20176,0.0888519287109375,0.980743408203125,-0.1945037841796875
20177,0.086517333984375,1.001068115234375,-0.196197509765625
20178,0.0879974365234375,1.013473510742188,-0.1977081298828125
20179,0.095550537109375,1.018035888671875,-0.193634033203125
20180,0.10565185546875,1.0185546875,-0.184814453125
20181,0.1197052001953125,1.014907836914062,-0.17083740234375
20182,0.123077392578125,0.997039794921875,-0.1552581787109375
20183,0.1248016357421875,0.982513427734375,-0.148712158203125
20184,0.1350555419921875,0.98541259765625,-0.14471435546875
20185,0.1467132568359375,0.9865875244140624,-0.1398773193359375
20186,0.1475067138671875,0.973419189453125,-0.1278839111328125
20187,0.1403656005859375,0.9581756591796876,-0.114044189453125
20188,0.1295318603515625,0.9484100341796876,-0.0989990234375
20189,0.12451171875,0.9496612548828124,-0.091278076171875
20190,0.1221923828125,0.9479827880859376,-0.092742919921875
20191,0.1178131103515625,0.953887939453125,-0.1117095947265625
20192,0.1110992431640625,0.96136474609375,-0.1221160888671875
20193,0.11175537109375,0.96270751953125,-0.12359619140625
20194,0.11358642578125,0.9697265625,-0.1186065673828125
20195,0.113525390625,0.97393798828125,-0.1157073974609375
20196,0.1129302978515625,0.9709014892578124,-0.116485595703125
20197,0.114166259765625,0.970703125,-0.11968994140625
20198,0.11724853515625,0.97039794921875,-0.110809326171875
20199,0.1126251220703125,0.9697723388671876,-0.1091156005859375
20200,0.10687255859375,0.9674835205078124,-0.1032257080078125
20201,0.1042022705078125,0.9700927734375,-0.09991455078125
20202,0.0981597900390625,0.985015869140625,-0.1003570556640625
20203,0.084014892578125,1.005462646484375,-0.1138458251953125
20204,0.06842041015625,1.010787963867188,-0.12091064453125
20205,0.05877685546875,1.024795532226562,-0.1135406494140625
20206,0.0476531982421875,1.03997802734375,-0.096466064453125
20207,0.0429534912109375,1.053848266601562,-0.0763092041015625
20208,0.0403594970703125,1.071197509765625,-0.05877685546875
20209,0.0358734130859375,1.078414916992188,-0.0511016845703125
20210,0.037994384765625,1.086822509765625,-0.0206451416015625
20211,0.0352325439453125,1.095138549804688,-0.02874755859375
20212,0.03594970703125,1.092529296875,-0.060516357421875
20213,0.0398406982421875,1.08056640625,-0.08856201171875
20214,0.0357666015625,1.061676025390625,-0.1291046142578125
20215,0.0448760986328125,1.043716430664062,-0.15673828125
20216,0.0611419677734375,1.02935791015625,-0.2115631103515625
20217,0.102264404296875,1.031234741210938,-0.259490966796875
20218,0.1224517822265625,1.017166137695312,-0.3066864013671875
20219,0.1082305908203125,0.9947509765625,-0.3057708740234375
20220,0.082855224609375,1.000869750976562,-0.2325286865234375
20221,0.04730224609375,1.044830322265625,-0.1230621337890625
20222,-0.0098114013671875,1.155563354492188,-0.050048828125
20223,-0.02484130859375,1.263946533203125,-0.063720703125
20224,-0.006622314453125,1.254150390625,-0.146148681640625
20225,0.022216796875,1.169952392578125,-0.2389373779296875
20226,0.0524139404296875,1.075103759765625,-0.3357086181640625
20227,0.0659027099609375,0.9888153076171876,-0.4373779296875
20228,0.0632171630859375,0.9224090576171876,-0.4963531494140625
20229,0.0453643798828125,0.877166748046875,-0.4815826416015625
20230,0.0085906982421875,0.857147216796875,-0.4199981689453125
20231,-0.024993896484375,0.8448333740234375,-0.3426055908203125
20232,-0.05267333984375,0.841094970703125,-0.2730560302734375
20233,-0.0792083740234375,0.837860107421875,-0.2207489013671875
20234,-0.085479736328125,0.88177490234375,-0.2073516845703125
20235,-0.0703125,0.94903564453125,-0.217803955078125
20236,-0.0667724609375,0.91070556640625,-0.195556640625
20237,-0.05816650390625,0.8716583251953125,-0.171234130859375
20238,-0.02899169921875,0.8857574462890625,-0.1660308837890625
20239,0.009796142578125,0.937896728515625,-0.1708984375
20240,0.0513458251953125,0.9917449951171876,-0.1759490966796875
20241,0.09490966796875,1.0455322265625,-0.177459716796875
20242,0.1378173828125,1.094161987304688,-0.1612548828125
20243,0.1644439697265625,1.121871948242188,-0.1471099853515625
20244,0.152252197265625,1.141738891601562,-0.150970458984375
20245,0.10858154296875,1.1319580078125,-0.1947479248046875
20246,0.0629730224609375,1.096527099609375,-0.26641845703125
20247,0.0359954833984375,1.063613891601562,-0.3095703125
20248,0.02178955078125,1.025848388671875,-0.294281005859375
20249,0.010223388671875,0.9899139404296876,-0.246917724609375
20250,-0.0177764892578125,0.954315185546875,-0.1800384521484375
20251,-0.0635223388671875,0.9407958984375,-0.135345458984375
20252,-0.1148681640625,0.949951171875,-0.1090240478515625
20253,-0.1523284912109375,0.9515228271484376,-0.073394775390625
20254,-0.14593505859375,0.946319580078125,-0.09124755859375
20255,-0.1076202392578125,0.91680908203125,-0.150787353515625
20256,-0.0689544677734375,0.8807525634765625,-0.2033538818359375
20257,-0.0400543212890625,0.859619140625,-0.248138427734375
20258,-0.0300750732421875,0.8626251220703125,-0.2613372802734375
20259,-0.0323028564453125,0.8823089599609375,-0.230560302734375
20260,-0.0388336181640625,0.8997344970703125,-0.175384521484375
20261,-0.0491943359375,0.915679931640625,-0.1317291259765625
20262,-0.055572509765625,0.92626953125,-0.1019287109375
20263,-0.057586669921875,0.9353790283203124,-0.1045074462890625
20264,-0.057373046875,0.9415283203125,-0.1307373046875
20265,-0.0522613525390625,0.93963623046875,-0.159576416015625
20266,-0.0518951416015625,0.92303466796875,-0.17266845703125
20267,-0.05413818359375,0.899932861328125,-0.1689910888671875
20268,-0.056610107421875,0.886260986328125,-0.158416748046875
20269,-0.0530548095703125,0.8853759765625,-0.139892578125
20270,-0.053619384765625,0.8852386474609375,-0.11785888671875
20271,-0.0643157958984375,0.8919219970703125,-0.1089019775390625
20272,-0.0802154541015625,0.919036865234375,-0.106109619140625
20273,-0.0964508056640625,0.962432861328125,-0.097900390625
20274,-0.11749267578125,0.9935455322265624,-0.09942626953125
20275,-0.1335906982421875,1.00506591796875,-0.1075439453125
20276,-0.14996337890625,0.987213134765625,-0.1189117431640625
20277,-0.1573638916015625,0.96533203125,-0.1217498779296875
20278,-0.1538238525390625,0.9594879150390624,-0.11065673828125
20279,-0.1429290771484375,0.9658660888671876,-0.095367431640625
20280,-0.126373291015625,0.9777374267578124,-0.071746826171875
20281,-0.1149749755859375,0.982025146484375,-0.0401611328125
20282,-0.11065673828125,0.9902191162109376,-0.01611328125
20283,-0.113189697265625,0.992767333984375,-0.0089569091796875
20284,-0.1181793212890625,1.001358032226562,-0.0150604248046875
20285,-0.1243438720703125,0.9990997314453124,-0.017059326171875
20286,-0.1264190673828125,1.001022338867188,-0.013580322265625
20287,-0.1220855712890625,1.0035400390625,-0.0256500244140625
20288,-0.14459228515625,0.995330810546875,-0.0452728271484375
20289,-0.163604736328125,1.007568359375,-0.0288848876953125
20290,-0.17352294921875,1.01727294921875,-0.0012664794921875
20291,-0.1759796142578125,1.006454467773438,0.0044403076171875
20292,-0.16552734375,1.00433349609375,-0.002105712890625
20293,-0.14691162109375,1.0350341796875,-0.031036376953125
20294,-0.1298370361328125,1.075515747070312,-0.045867919921875
20295,-0.12158203125,1.1165771484375,-0.0330810546875
20296,-0.1399688720703125,1.113067626953125,-0.02606201171875
20297,-0.1346588134765625,1.125961303710938,-0.039215087890625
20298,-0.134979248046875,1.125381469726562,-0.0889892578125
20299,-0.1580963134765625,1.08172607421875,-0.1395263671875
20300,-0.1664276123046875,1.079696655273438,-0.1541748046875
20301,-0.1602020263671875,1.146453857421875,-0.15655517578125
20302,-0.152587890625,1.212112426757812,-0.1837005615234375
20303,-0.118255615234375,1.292373657226562,-0.26568603515625
20304,-0.1019439697265625,1.322097778320312,-0.3405609130859375
20305,-0.124237060546875,1.25189208984375,-0.339019775390625
20306,-0.138946533203125,1.138046264648438,-0.250762939453125
20307,-0.104736328125,1.027969360351562,-0.13262939453125
20308,-0.057281494140625,0.92572021484375,-0.08978271484375
20309,-0.032928466796875,0.8577117919921875,-0.15106201171875
20310,-0.014434814453125,0.8605804443359375,-0.24444580078125
20311,0.0176239013671875,0.9139404296875,-0.33160400390625
20312,0.0735626220703125,0.930023193359375,-0.374298095703125
20313,0.1243743896484375,0.8711090087890625,-0.362762451171875
20314,0.15496826171875,0.80096435546875,-0.31011962890625
20315,0.196380615234375,0.78314208984375,-0.2632293701171875
20316,0.2493743896484375,0.78717041015625,-0.2281036376953125
20317,0.30413818359375,0.781280517578125,-0.2147369384765625
20318,0.3505706787109375,0.783203125,-0.2251129150390625
20319,0.3572845458984375,0.8115692138671875,-0.2506256103515625
20320,0.307708740234375,0.849578857421875,-0.2828826904296875
20321,0.2119293212890625,0.84820556640625,-0.3043975830078125
20322,0.13116455078125,0.8500518798828125,-0.315948486328125
20323,0.07696533203125,0.8796539306640625,-0.3051300048828125
20324,0.020904541015625,0.9072723388671876,-0.2752838134765625
20325,-0.0161285400390625,0.9400634765625,-0.2196044921875
20326,-0.02923583984375,0.9833984375,-0.1546478271484375
20327,-0.0247802734375,1.008255004882812,-0.1079864501953125
20328,0.00701904296875,1.021469116210938,-0.082183837890625
20329,0.065704345703125,1.007308959960938,-0.0938262939453125
20330,0.1205596923828125,0.994781494140625,-0.1282196044921875
20331,0.173583984375,0.9770660400390624,-0.1321258544921875
20332,0.204498291015625,0.939971923828125,-0.1198577880859375
20333,0.2012176513671875,0.900482177734375,-0.1060028076171875
20334,0.1782989501953125,0.9104461669921876,-0.0911712646484375
20335,0.13409423828125,0.9431304931640624,-0.083984375
20336,0.1016845703125,0.9556884765625,-0.083892822265625
20337,0.07757568359375,0.963226318359375,-0.1059112548828125
20338,0.05645751953125,0.9523468017578124,-0.123504638671875
20339,0.058319091796875,0.925201416015625,-0.13568115234375
20340,0.0798797607421875,0.9095458984375,-0.1419219970703125
20341,0.0885162353515625,0.927154541015625,-0.139404296875
20342,0.097930908203125,0.938018798828125,-0.1090850830078125
20343,0.123809814453125,0.953826904296875,-0.0609283447265625
20344,0.1335906982421875,0.98883056640625,-0.0299072265625
20345,0.145599365234375,1.017578125,-0.0160980224609375
20346,0.1538848876953125,1.02032470703125,-0.027923583984375
20347,0.13409423828125,0.9946746826171876,-0.0530853271484375
20348,0.1265411376953125,0.979034423828125,-0.0714111328125
20349,0.1064300537109375,0.968658447265625,-0.0607452392578125
20350,0.0832977294921875,0.95013427734375,-0.02978515625
20351,0.0648651123046875,0.9301605224609376,-0.0081024169921875
20352,0.0446929931640625,0.9462127685546876,-0.028289794921875
20353,0.04364013671875,0.98095703125,-0.0401153564453125
20354,0.0377349853515625,0.983123779296875,-0.0405731201171875
20355,0.0292205810546875,0.97686767578125,-0.0525054931640625
20356,0.0303802490234375,0.974639892578125,-0.0589599609375
20357,0.0219573974609375,0.9710693359375,-0.099365234375
20358,0.0019073486328125,0.977935791015625,-0.1482086181640625
20359,-0.0186309814453125,0.9898681640625,-0.1737823486328125
20360,-0.0407562255859375,1.005828857421875,-0.1848602294921875
20361,-0.06146240234375,1.026092529296875,-0.170257568359375
20362,-0.0750274658203125,1.056076049804688,-0.1634674072265625
20363,-0.088043212890625,1.091217041015625,-0.116455078125
20364,-0.0973358154296875,1.116531372070312,-0.02703857421875
20365,-0.08837890625,1.134475708007812,0.0424957275390625
20366,-0.06085205078125,1.150039672851562,0.0621185302734375
20367,-0.00482177734375,1.1793212890625,0.0265350341796875
20368,0.0666351318359375,1.2130126953125,-0.074005126953125
20369,0.147491455078125,1.231124877929688,-0.250885009765625
20370,0.2091522216796875,1.211318969726562,-0.4423370361328125
20371,0.2610931396484375,1.232437133789062,-0.477691650390625
20372,0.300384521484375,1.30267333984375,-0.3400726318359375
20373,0.2707977294921875,1.324920654296875,-0.2322998046875
20374,0.1972808837890625,1.347213745117188,-0.16192626953125
20375,0.1172332763671875,1.340057373046875,-0.17169189453125
20376,0.03350830078125,1.282196044921875,-0.257568359375
20377,-0.0448150634765625,1.168716430664062,-0.3687744140625
20378,-0.1100921630859375,1.032760620117188,-0.501373291015625
20379,-0.1595458984375,0.91070556640625,-0.625152587890625
20380,-0.1920928955078125,0.8053741455078125,-0.676910400390625
20381,-0.215667724609375,0.746551513671875,-0.62103271484375
20382,-0.2229156494140625,0.7501678466796875,-0.5319976806640625
20383,-0.2199249267578125,0.751556396484375,-0.459564208984375
20384,-0.2031707763671875,0.7643280029296875,-0.374420166015625
20385,-0.171875,0.8462982177734375,-0.3136138916015625
20386,-0.165008544921875,0.889739990234375,-0.267333984375
20387,-0.149078369140625,0.8708953857421875,-0.242828369140625
20388,-0.1287689208984375,0.8941650390625,-0.2589874267578125
20389,-0.1064300537109375,0.926544189453125,-0.2828216552734375
20390,-0.0823974609375,0.9538726806640624,-0.3029632568359375
20391,-0.0677490234375,0.9680938720703124,-0.3249664306640625
20392,-0.04241943359375,0.9686737060546876,-0.3399810791015625
20393,-0.01226806640625,0.973052978515625,-0.35284423828125
20394,0.0179901123046875,0.9662628173828124,-0.3520050048828125
20395,0.0500640869140625,0.9473419189453124,-0.32952880859375
20396,0.0808258056640625,0.9487457275390624,-0.2411041259765625
20397,0.080230712890625,0.97564697265625,-0.070587158203125
20398,0.03778076171875,0.957183837890625,0.0200347900390625
20399,-0.02325439453125,0.9199066162109376,0.0152587890625
20400,-0.0916290283203125,0.873992919921875,-0.0444488525390625
20401,-0.14178466796875,0.8295440673828125,-0.098602294921875
20402,-0.161407470703125,0.8012847900390625,-0.127105712890625
20403,-0.1397705078125,0.79315185546875,-0.126922607421875
20404,-0.08746337890625,0.795379638671875,-0.121307373046875
20405,-0.0332489013671875,0.80072021484375,-0.1253814697265625
20406,0.008636474609375,0.8088531494140625,-0.1369476318359375
20407,0.01708984375,0.8137054443359375,-0.1385955810546875
20408,-0.020263671875,0.808319091796875,-0.088531494140625
20409,-0.078277587890625,0.8334197998046875,-0.0859527587890625
20410,-0.1057891845703125,0.891082763671875,-0.148223876953125
20411,-0.096710205078125,0.9153900146484376,-0.088134765625
20412,-0.078369140625,0.94317626953125,-0.014984130859375
20413,-0.0420074462890625,0.9450531005859376,-0.063720703125
20414,-0.0197296142578125,0.903900146484375,-0.105560302734375
20415,-0.006927490234375,0.97235107421875,-0.1410675048828125
20416,-0.030303955078125,1.0576171875,-0.1781005859375
20417,-0.0375213623046875,1.045089721679688,-0.0991363525390625
20418,-0.0298309326171875,1.012222290039062,-0.0413818359375
20419,-0.0477294921875,0.9984588623046876,-0.1008758544921875
20420,-0.07061767578125,1.019241333007812,-0.1634063720703125
20421,-0.1032867431640625,1.037307739257812,-0.1466217041015625
20422,-0.1356353759765625,1.012557983398438,-0.08416748046875
20423,-0.13934326171875,0.9438629150390624,0.008636474609375
20424,-0.125335693359375,0.9168853759765624,0.07208251953125
20425,-0.1012420654296875,0.9379425048828124,0.0928955078125
20426,-0.059295654296875,0.976531982421875,0.0672607421875
20427,-0.0005035400390625,1.059310913085938,-0.0190887451171875
20428,0.059783935546875,1.211761474609375,-0.2223663330078125
20429,0.1352386474609375,1.363174438476562,-0.5969696044921875
20430,0.1540985107421875,1.35003662109375,-1.051422119140625
20431,-0.005615234375,1.28448486328125,-1.246017456054688
20432,-0.0927276611328125,1.381057739257812,-1.139114379882812
20433,-0.0543365478515625,1.412918090820312,-0.8579864501953125
20434,0.0406494140625,1.279678344726562,-0.5341033935546875
20435,0.12335205078125,1.0654296875,-0.3505401611328125
20436,0.2238006591796875,0.83795166015625,-0.163421630859375
20437,0.3838958740234375,0.6590423583984375,-0.0327301025390625
20438,0.47625732421875,0.618072509765625,0.0576324462890625
20439,0.48834228515625,0.7429046630859375,0.1740570068359375
20440,0.4520263671875,0.917510986328125,0.014007568359375
20441,0.4194488525390625,1.020172119140625,-0.294342041015625
20442,0.3816986083984375,1.055160522460938,-0.512237548828125
20443,0.30255126953125,0.957366943359375,-0.6025848388671875
20444,0.2359466552734375,0.8642730712890625,-0.5971527099609375
20445,0.1600799560546875,0.948272705078125,-0.5647125244140625
20446,0.0457763671875,1.069168090820312,-0.49884033203125
20447,-0.065704345703125,1.146530151367188,-0.4169921875
20448,-0.1613922119140625,1.179306030273438,-0.331756591796875
20449,-0.2198486328125,1.186920166015625,-0.2353363037109375
20450,-0.2604217529296875,1.17694091796875,-0.1730804443359375
20451,-0.24871826171875,1.107559204101562,-0.1515045166015625
20452,-0.1702728271484375,1.001983642578125,-0.165802001953125
20453,-0.0413970947265625,0.9451446533203124,-0.182891845703125
20454,0.06524658203125,0.943328857421875,-0.214752197265625
20455,0.115142822265625,0.9301300048828124,-0.224822998046875
20456,0.12847900390625,0.8670654296875,-0.1808624267578125
20457,0.119903564453125,0.7881927490234375,-0.1426849365234375
20458,0.1122894287109375,0.722564697265625,-0.151397705078125
20459,0.118499755859375,0.6848907470703125,-0.1639251708984375
20460,0.116180419921875,0.677337646484375,-0.1757049560546875
20461,0.103240966796875,0.6815185546875,-0.1936187744140625
20462,0.0781707763671875,0.6784515380859375,-0.1885223388671875
20463,0.0538482666015625,0.7103729248046875,-0.1715545654296875
20464,0.053863525390625,0.7667388916015625,-0.1468505859375
20465,0.0557403564453125,0.8354339599609375,-0.14544677734375
20466,0.064422607421875,0.896575927734375,-0.138458251953125
20467,0.089080810546875,0.892547607421875,-0.117828369140625
20468,0.117401123046875,0.8864593505859375,-0.1157684326171875
20469,0.1358795166015625,0.9057769775390624,-0.1404266357421875
20470,0.1361083984375,0.93927001953125,-0.1638031005859375
20471,0.1179351806640625,0.9620513916015624,-0.177734375
20472,0.088165283203125,0.9726104736328124,-0.1813201904296875
20473,0.0523223876953125,0.991119384765625,-0.178619384765625
20474,0.01678466796875,1.015228271484375,-0.17431640625
20475,-0.0213775634765625,1.03753662109375,-0.174285888671875
20476,-0.06488037109375,1.051834106445312,-0.1751556396484375
20477,-0.074737548828125,1.064910888671875,-0.1641998291015625
20478,-0.0661163330078125,1.075668334960938,-0.166656494140625
20479,-0.05291748046875,1.073211669921875,-0.1795806884765625
20480,-0.03076171875,1.075714111328125,-0.1776123046875
20481,-0.006103515625,1.08514404296875,-0.1844329833984375
20482,0.0189208984375,1.110305786132812,-0.2335968017578125
20483,0.0390167236328125,1.167205810546875,-0.36370849609375
20484,0.086334228515625,1.270614624023438,-0.486083984375
20485,0.1253204345703125,1.255477905273438,-0.448760986328125
20486,0.127227783203125,1.190750122070312,-0.320220947265625
20487,0.1135406494140625,1.18060302734375,-0.192291259765625
20488,0.1030426025390625,1.157989501953125,-0.0926361083984375
20489,0.097808837890625,1.094528198242188,-0.064788818359375
20490,0.091156005859375,0.99676513671875,-0.1587371826171875
20491,0.071197509765625,0.90753173828125,-0.3361968994140625
20492,0.0406036376953125,0.83673095703125,-0.492767333984375
20493,-0.00115966796875,0.7783660888671875,-0.570892333984375
20494,-0.0342864990234375,0.755035400390625,-0.58966064453125
20495,-0.0565948486328125,0.765594482421875,-0.57720947265625
20496,-0.0927276611328125,0.779815673828125,-0.5279083251953125
20497,-0.1344146728515625,0.8102874755859375,-0.4165191650390625
20498,-0.178802490234375,0.907470703125,-0.265960693359375
20499,-0.197601318359375,0.942596435546875,-0.1051025390625
20500,-0.1767425537109375,0.9239501953125,0.005157470703125
20501,-0.1294708251953125,0.8955841064453125,-0.02764892578125
20502,-0.08026123046875,0.89654541015625,-0.19036865234375
20503,-0.0248565673828125,0.93206787109375,-0.364349365234375
20504,0.0263671875,0.9868927001953124,-0.4635162353515625
20505,0.0699005126953125,1.046585083007812,-0.4930877685546875
20506,0.1226654052734375,1.102737426757812,-0.4914703369140625
20507,0.172515869140625,1.158660888671875,-0.475067138671875
20508,0.21612548828125,1.21014404296875,-0.399932861328125
20509,0.252197265625,1.240188598632812,-0.227508544921875
20510,0.248779296875,1.2080078125,-0.06451416015625
20511,0.1826934814453125,1.0980224609375,0.00079345703125
20512,0.059814453125,1.004379272460938,-0.06903076171875
20513,-0.0827484130859375,0.962738037109375,-0.2083587646484375
20514,-0.1895294189453125,0.93609619140625,-0.29815673828125
20515,-0.2294921875,0.9093017578125,-0.348907470703125
20516,-0.2090301513671875,0.871917724609375,-0.3639373779296875
20517,-0.1478729248046875,0.8249359130859375,-0.34368896484375
20518,-0.07464599609375,0.8079071044921875,-0.321746826171875
20519,0.004241943359375,0.834320068359375,-0.29376220703125
20520,0.0821380615234375,0.8736572265625,-0.2557830810546875
20521,0.12054443359375,0.9142608642578124,-0.2494049072265625
20522,0.0919647216796875,0.94384765625,-0.239105224609375
20523,-0.0243377685546875,0.935272216796875,-0.1737823486328125
20524,-0.0722808837890625,0.92193603515625,-0.1498565673828125
20525,-0.0412445068359375,0.9149932861328124,-0.1733245849609375
20526,-0.017791748046875,0.917327880859375,-0.230438232421875
20527,0.001556396484375,0.8968963623046875,-0.27850341796875
20528,0.0262298583984375,0.88140869140625,-0.2643890380859375
20529,0.0465850830078125,0.892486572265625,-0.223907470703125
20530,0.049224853515625,0.90655517578125,-0.214385986328125
20531,0.049835205078125,0.918731689453125,-0.19189453125
20532,0.0559539794921875,0.9368743896484376,-0.1534423828125
20533,0.0504608154296875,0.9549102783203124,-0.1199951171875
20534,0.032470703125,0.9752197265625,-0.115142822265625
20535,0.0204010009765625,0.992279052734375,-0.1118621826171875
20536,0.0299224853515625,0.9948883056640624,-0.051605224609375
20537,0.038665771484375,0.9991455078125,-0.0406646728515625
20538,0.0393218994140625,1.003860473632812,-0.1141204833984375
20539,0.03973388671875,1.0225830078125,-0.181549072265625
20540,0.038482666015625,1.035903930664062,-0.2043914794921875
20541,0.036895751953125,1.01812744140625,-0.19146728515625
20542,0.0310821533203125,1.001510620117188,-0.1670989990234375
20543,0.0256805419921875,1.002716064453125,-0.152435302734375
20544,0.0296783447265625,1.011016845703125,-0.1502838134765625
20545,0.028900146484375,1.016342163085938,-0.1688232421875
20546,0.0201568603515625,1.046524047851562,-0.2230224609375
20547,0.0138702392578125,1.08306884765625,-0.3191070556640625
20548,0.0195159912109375,1.08026123046875,-0.40521240234375
20549,0.04742431640625,1.058502197265625,-0.44940185546875
20550,0.084136962890625,1.02392578125,-0.4253997802734375
20551,0.1075592041015625,0.9865875244140624,-0.3828887939453125
20552,0.1208953857421875,0.9608154296875,-0.3605499267578125
20553,0.117156982421875,0.9606475830078124,-0.363922119140625
20554,0.0809478759765625,0.9862518310546876,-0.3970947265625
20555,0.027618408203125,1.025482177734375,-0.456756591796875
20556,-0.03021240234375,1.04547119140625,-0.4947967529296875
20557,-0.0797271728515625,1.037796020507812,-0.5009613037109375
20558,-0.10479736328125,1.01068115234375,-0.4879150390625
20559,-0.10748291015625,0.967864990234375,-0.4517822265625
20560,-0.1031646728515625,0.901947021484375,-0.400177001953125
20561,-0.0830535888671875,0.8306427001953125,-0.34466552734375
20562,-0.040679931640625,0.793548583984375,-0.3184356689453125
20563,0.017364501953125,0.778961181640625,-0.31719970703125
20564,0.076690673828125,0.77899169921875,-0.3268585205078125
20565,0.130401611328125,0.798492431640625,-0.340789794921875
20566,0.1699066162109375,0.8156280517578125,-0.355133056640625
20567,0.18414306640625,0.814056396484375,-0.383758544921875
20568,0.153289794921875,0.8099365234375,-0.4124908447265625
20569,0.09588623046875,0.8272705078125,-0.4212493896484375
20570,0.0368804931640625,0.8834686279296875,-0.405120849609375
20571,-0.0122528076171875,0.9530487060546876,-0.3694000244140625
20572,-0.044921875,1.006622314453125,-0.3285064697265625
20573,-0.052490234375,1.043807983398438,-0.2866973876953125
20574,-0.035980224609375,1.063018798828125,-0.24774169921875
20575,-0.0062103271484375,1.072784423828125,-0.2167205810546875
20576,0.0148162841796875,1.076156616210938,-0.207122802734375
20577,0.03204345703125,1.07232666015625,-0.245025634765625
20578,0.0517578125,1.053436279296875,-0.2767333984375
20579,0.0726165771484375,1.01983642578125,-0.2907562255859375
20580,0.085235595703125,0.9843597412109376,-0.2886962890625
20581,0.0879058837890625,0.945770263671875,-0.2731781005859375
20582,0.087738037109375,0.9173583984375,-0.257476806640625
20583,0.0835418701171875,0.908599853515625,-0.252532958984375
20584,0.07537841796875,0.9054412841796876,-0.2609100341796875
20585,0.0772247314453125,0.91082763671875,-0.26025390625
20586,0.0651702880859375,0.9147491455078124,-0.292877197265625
20587,0.043212890625,0.9210357666015624,-0.3125457763671875
20588,0.02685546875,0.9285125732421876,-0.3167572021484375
20589,0.0267181396484375,0.9484100341796876,-0.30364990234375
20590,0.0151519775390625,0.9649658203125,-0.277984619140625
20591,0.00994873046875,0.972930908203125,-0.255279541015625
20592,0.01513671875,0.972503662109375,-0.2499847412109375
20593,0.016998291015625,0.98468017578125,-0.2538604736328125
20594,0.0128631591796875,0.9925689697265624,-0.2480621337890625
20595,0.0152130126953125,1.00335693359375,-0.2365875244140625
20596,0.0205841064453125,1.0225830078125,-0.2256927490234375
20597,0.0220947265625,1.02545166015625,-0.21527099609375
20598,0.0191650390625,1.022491455078125,-0.2174530029296875
20599,0.01593017578125,1.008071899414062,-0.215972900390625
20600,0.01300048828125,0.9991607666015624,-0.2143402099609375
20601,0.0086822509765625,0.995941162109375,-0.22509765625
20602,0.00469970703125,0.985748291015625,-0.2582855224609375
20603,0.0085601806640625,0.976776123046875,-0.280975341796875
20604,0.01611328125,0.96923828125,-0.2835845947265625
20605,0.0168304443359375,0.955352783203125,-0.2714080810546875
20606,0.0083160400390625,0.95916748046875,-0.2559356689453125
20607,-0.007843017578125,0.9770050048828124,-0.2548065185546875
20608,-0.028045654296875,0.98065185546875,-0.2704315185546875
20609,-0.0308990478515625,0.9816131591796876,-0.29718017578125
20610,-0.02362060546875,0.9925994873046876,-0.3195648193359375
20611,-0.0213775634765625,0.9935150146484376,-0.3165435791015625
20612,-0.0273895263671875,0.9752197265625,-0.2959136962890625
20613,-0.0316009521484375,0.97021484375,-0.2790679931640625
20614,-0.0265655517578125,0.9795989990234376,-0.275634765625
20615,-0.020263671875,0.99676513671875,-0.274078369140625
20616,-0.0189361572265625,1.002578735351562,-0.2847442626953125
20617,-0.0165557861328125,1.000289916992188,-0.2988433837890625
20618,-0.017578125,0.9941864013671876,-0.2985382080078125
20619,-0.0167388916015625,0.983551025390625,-0.2902984619140625
20620,-0.0121307373046875,0.97186279296875,-0.2803955078125
20621,0.0010528564453125,0.96868896484375,-0.2774810791015625
20622,0.0151824951171875,0.969146728515625,-0.267974853515625
20623,0.0282135009765625,0.96173095703125,-0.2609405517578125
20624,0.034088134765625,0.9557952880859376,-0.2635498046875
20625,0.034393310546875,0.939697265625,-0.2535858154296875
20626,0.0307159423828125,0.9345703125,-0.256683349609375
20627,0.019622802734375,0.9278564453125,-0.2547607421875
20628,0.00396728515625,0.9316253662109376,-0.248077392578125
20629,-0.0098419189453125,0.92572021484375,-0.24139404296875
20630,-0.0211944580078125,0.9313507080078124,-0.23553466796875
20631,-0.03289794921875,0.9359588623046876,-0.232147216796875
20632,-0.0409088134765625,0.936676025390625,-0.236663818359375
20633,-0.050262451171875,0.9395751953125,-0.236907958984375
20634,-0.060516357421875,0.9434814453125,-0.2430877685546875
20635,-0.0655517578125,0.95361328125,-0.253997802734375
20636,-0.0670318603515625,0.9585418701171876,-0.25933837890625
20637,-0.0654144287109375,0.95794677734375,-0.26458740234375
20638,-0.062225341796875,0.953369140625,-0.2673492431640625
20639,-0.05731201171875,0.954254150390625,-0.2671966552734375
20640,-0.052337646484375,0.96026611328125,-0.2725830078125
20641,-0.0499267578125,0.957183837890625,-0.27227783203125
20642,-0.046844482421875,0.9534454345703124,-0.2696685791015625
20643,-0.046295166015625,0.95184326171875,-0.269622802734375
20644,-0.0481109619140625,0.9508514404296876,-0.2708282470703125
20645,-0.049957275390625,0.9490814208984376,-0.270355224609375
20646,-0.052947998046875,0.947845458984375,-0.2698974609375
20647,-0.058349609375,0.9470977783203124,-0.2680511474609375
20648,-0.060211181640625,0.94952392578125,-0.26324462890625
20649,-0.0582122802734375,0.9546661376953124,-0.2593231201171875
20650,-0.056396484375,0.9544219970703124,-0.2562255859375
20651,-0.05731201171875,0.9542236328125,-0.2509765625
20652,-0.0565643310546875,0.954071044921875,-0.2464752197265625
20653,-0.0561981201171875,0.95526123046875,-0.2472991943359375
20654,-0.053558349609375,0.954193115234375,-0.24591064453125
20655,-0.0510101318359375,0.951507568359375,-0.248626708984375
20656,-0.04925537109375,0.9515533447265624,-0.251800537109375
20657,-0.0479278564453125,0.952606201171875,-0.2540130615234375
20658,-0.048797607421875,0.9545135498046876,-0.2549591064453125
20659,-0.0494232177734375,0.955718994140625,-0.2554779052734375
20660,-0.05078125,0.9569854736328124,-0.255706787109375
20661,-0.0522613525390625,0.9567413330078124,-0.2564697265625
20662,-0.0534210205078125,0.95611572265625,-0.2580413818359375
20663,-0.05352783203125,0.9596405029296876,-0.261871337890625
20664,-0.05267333984375,0.9593505859375,-0.26251220703125
20665,-0.0526885986328125,0.957244873046875,-0.258636474609375
20666,-0.05242919921875,0.9576873779296876,-0.2569122314453125
20667,-0.05426025390625,0.9603729248046876,-0.2553253173828125
20668,-0.056121826171875,0.961639404296875,-0.251068115234375
20669,-0.0579681396484375,0.959808349609375,-0.2491912841796875
20670,-0.0595703125,0.9576873779296876,-0.25048828125
20671,-0.0605621337890625,0.954742431640625,-0.2526397705078125
20672,-0.0601348876953125,0.95147705078125,-0.25390625
20673,-0.0592803955078125,0.9492034912109376,-0.252288818359375
20674,-0.0589141845703125,0.947052001953125,-0.24884033203125
20675,-0.05633544921875,0.9475860595703124,-0.245819091796875
20676,-0.056610107421875,0.9492340087890624,-0.2438812255859375
20677,-0.0559844970703125,0.951385498046875,-0.244140625
20678,-0.0548858642578125,0.9553070068359376,-0.2440032958984375
20679,-0.051971435546875,0.958984375,-0.2457275390625
20680,-0.0494232177734375,0.962677001953125,-0.2464447021484375
20681,-0.0486297607421875,0.966217041015625,-0.247528076171875
20682,-0.04864501953125,0.967132568359375,-0.245361328125
20683,-0.0509185791015625,0.967529296875,-0.246917724609375
20684,-0.0565338134765625,0.968994140625,-0.24737548828125
20685,-0.0605010986328125,0.9692840576171876,-0.249664306640625
20686,-0.065093994140625,0.9692535400390624,-0.2535247802734375
20687,-0.0660858154296875,0.968170166015625,-0.2553558349609375
20688,-0.063720703125,0.968414306640625,-0.2590789794921875
20689,-0.062896728515625,0.9704132080078124,-0.2618255615234375
20690,-0.061309814453125,0.970672607421875,-0.26171875
20691,-0.059478759765625,0.970733642578125,-0.260986328125
20692,-0.0590972900390625,0.9708099365234376,-0.2595367431640625
20693,-0.0590362548828125,0.9717864990234376,-0.2582550048828125
20694,-0.062164306640625,0.9711151123046876,-0.257537841796875
20695,-0.0644683837890625,0.9672698974609376,-0.2578887939453125
20696,-0.063995361328125,0.9628753662109376,-0.2557220458984375
20697,-0.061767578125,0.9599609375,-0.2588043212890625
20698,-0.0604705810546875,0.9588775634765624,-0.261871337890625
20699,-0.0594482421875,0.9587249755859376,-0.26324462890625
20700,-0.0580291748046875,0.9563446044921876,-0.2603759765625
20701,-0.056304931640625,0.952423095703125,-0.2574005126953125
20702,-0.0562286376953125,0.95416259765625,-0.25408935546875
20703,-0.056060791015625,0.954681396484375,-0.2519989013671875
20704,-0.05792236328125,0.9535675048828124,-0.2530059814453125
20705,-0.0604400634765625,0.956634521484375,-0.2570037841796875
20706,-0.0632476806640625,0.9588775634765624,-0.26019287109375
20707,-0.0659027099609375,0.9598846435546876,-0.2599334716796875
20708,-0.0676422119140625,0.9605865478515624,-0.257171630859375
20709,-0.0689544677734375,0.96417236328125,-0.256500244140625
20710,-0.0687408447265625,0.965362548828125,-0.2559356689453125
20711,-0.0677337646484375,0.9666748046875,-0.2574462890625
20712,-0.0665740966796875,0.969024658203125,-0.25677490234375
20713,-0.0666656494140625,0.973297119140625,-0.2575836181640625
20714,-0.0649566650390625,0.9765777587890624,-0.2541351318359375
20715,-0.0608673095703125,0.976165771484375,-0.248565673828125
20716,-0.0567169189453125,0.975372314453125,-0.24932861328125
20717,-0.0518951416015625,0.978424072265625,-0.2565765380859375
20718,-0.0471343994140625,0.9824676513671876,-0.2615509033203125
20719,-0.042938232421875,0.9842071533203124,-0.260528564453125
20720,-0.0410003662109375,0.983062744140625,-0.2647247314453125
20721,-0.0411376953125,0.9816131591796876,-0.2671356201171875
20722,-0.0401611328125,0.978302001953125,-0.26519775390625
20723,-0.041168212890625,0.9721221923828124,-0.262115478515625
20724,-0.04052734375,0.96453857421875,-0.25872802734375
20725,-0.042236328125,0.9599151611328124,-0.255340576171875
20726,-0.0406494140625,0.9613037109375,-0.2578887939453125
20727,-0.0426177978515625,0.961181640625,-0.261688232421875
20728,-0.0449981689453125,0.957977294921875,-0.2603759765625
20729,-0.04473876953125,0.95428466796875,-0.262725830078125
20730,-0.0466461181640625,0.9556121826171876,-0.26519775390625
20731,-0.050689697265625,0.956207275390625,-0.265350341796875
20732,-0.0523834228515625,0.9547882080078124,-0.2677459716796875
20733,-0.05474853515625,0.9559783935546876,-0.27850341796875
20734,-0.0577545166015625,0.9521026611328124,-0.28729248046875
20735,-0.0632476806640625,0.94525146484375,-0.2922210693359375
20736,-0.0696258544921875,0.9398040771484376,-0.2930908203125
20737,-0.0787353515625,0.93505859375,-0.29534912109375
20738,-0.0816497802734375,0.9302215576171876,-0.297119140625
20739,-0.0809783935546875,0.9265899658203124,-0.2995758056640625
20740,-0.0879669189453125,0.9349517822265624,-0.2989501953125
20741,-0.09332275390625,0.943328857421875,-0.2950439453125
20742,-0.095489501953125,0.947235107421875,-0.2951202392578125
20743,-0.0989227294921875,0.946441650390625,-0.30029296875
20744,-0.1008148193359375,0.9513702392578124,-0.2958984375
20745,-0.111114501953125,0.964111328125,-0.2978057861328125
20746,-0.1224822998046875,0.97015380859375,-0.2976226806640625
20747,-0.1348876953125,0.9736785888671876,-0.29534912109375
20748,-0.145172119140625,0.9765167236328124,-0.2845611572265625
20749,-0.1541748046875,0.9666748046875,-0.2777099609375
20750,-0.16632080078125,0.9467620849609376,-0.2852020263671875
20751,-0.1815185546875,0.9390106201171876,-0.28912353515625
20752,-0.192413330078125,0.9398345947265624,-0.289794921875
20753,-0.1972503662109375,0.9406280517578124,-0.281707763671875
20754,-0.2021942138671875,0.9322662353515624,-0.2713165283203125
20755,-0.20245361328125,0.927734375,-0.270904541015625
20756,-0.1951904296875,0.912689208984375,-0.2684173583984375
20757,-0.177886962890625,0.896453857421875,-0.2674713134765625
20758,-0.1448211669921875,0.8819122314453125,-0.2715606689453125
20759,-0.1280059814453125,0.8851470947265625,-0.273956298828125
20760,-0.146392822265625,0.8994140625,-0.2639617919921875
20761,-0.1286773681640625,0.8973236083984375,-0.23980712890625
20762,-0.1034088134765625,0.8929901123046875,-0.248687744140625
20763,-0.0850830078125,0.9114837646484376,-0.271392822265625
20764,-0.0732574462890625,0.9189605712890624,-0.2678070068359375
20765,-0.06903076171875,0.9066314697265624,-0.264373779296875
20766,-0.06842041015625,0.9156341552734376,-0.279541015625
20767,-0.0660552978515625,0.9304351806640624,-0.287261962890625
20768,-0.0629119873046875,0.9512939453125,-0.2955780029296875
20769,-0.0621795654296875,0.9823760986328124,-0.2972564697265625
20770,-0.068450927734375,0.9910888671875,-0.2900543212890625
20771,-0.062042236328125,0.9815216064453124,-0.303466796875
20772,-0.053192138671875,0.98846435546875,-0.3272857666015625
20773,-0.0445098876953125,0.960968017578125,-0.322662353515625
20774,-0.0424346923828125,0.922027587890625,-0.264404296875
20775,-0.0699920654296875,0.955718994140625,-0.31475830078125
20776,-0.10223388671875,0.971771240234375,-0.3560791015625
20777,-0.1215972900390625,0.9808807373046876,-0.371002197265625
20778,-0.1207427978515625,0.974212646484375,-0.3894805908203125
20779,-0.119842529296875,0.930145263671875,-0.381591796875
20780,-0.1273345947265625,0.88616943359375,-0.3771820068359375
20781,-0.144012451171875,0.88226318359375,-0.3796539306640625
20782,-0.166290283203125,0.8847503662109375,-0.383026123046875
20783,-0.1839599609375,0.8519134521484375,-0.36614990234375
20784,-0.1618194580078125,0.8441619873046875,-0.311767578125
20785,-0.167449951171875,0.8430328369140625,-0.2785491943359375
20786,-0.1950225830078125,0.8932952880859375,-0.305999755859375
20787,-0.201385498046875,0.8754119873046875,-0.3018646240234375
20788,-0.1932525634765625,0.8708343505859375,-0.2697296142578125
20789,-0.2062225341796875,0.89459228515625,-0.285980224609375
20790,-0.21954345703125,0.8917999267578125,-0.3890228271484375
20791,-0.230621337890625,0.9174652099609376,-0.5560302734375
20792,-0.2054290771484375,0.964691162109375,-0.5864715576171875
20793,-0.16583251953125,0.942138671875,-0.4832916259765625
20794,-0.1561431884765625,0.9343414306640624,-0.4033355712890625
20795,-0.160064697265625,0.990081787109375,-0.35693359375
20796,-0.167144775390625,1.015289306640625,-0.3271942138671875
20797,-0.1981201171875,1.011001586914062,-0.3090972900390625
20798,-0.225128173828125,1.008346557617188,-0.2978363037109375
20799,-0.23529052734375,0.9522705078125,-0.2841033935546875
20800,-0.2332305908203125,0.951751708984375,-0.2736053466796875
20801,-0.228302001953125,0.9714813232421876,-0.2644500732421875
20802,-0.220123291015625,0.9969482421875,-0.2676544189453125
20803,-0.2207794189453125,1.004638671875,-0.216400146484375
20804,-0.264129638671875,0.9904327392578124,-0.2225341796875
20805,-0.300750732421875,0.993072509765625,-0.2122344970703125
20806,-0.2055206298828125,0.966949462890625,0.4448699951171875
20807,-0.105560302734375,0.6572113037109375,0.7819366455078125
20808,-0.1127471923828125,0.4399566650390625,0.23736572265625
20809,-0.21539306640625,0.2495880126953125,-0.3676300048828125
20810,-0.237335205078125,0.3064727783203125,-0.8925628662109375
20811,-0.0885467529296875,0.3182373046875,-1.337905883789062
20812,0.029815673828125,0.1541748046875,-1.546249389648438
20813,0.10211181640625,-0.0350189208984375,-1.424392700195312
20814,0.1222686767578125,0.4645538330078125,-1.596145629882812
20815,-0.0551910400390625,0.8882293701171875,-1.51031494140625
20816,-0.153533935546875,0.9134521484375,-1.148605346679688
20817,-0.1794586181640625,0.976806640625,-1.146774291992188
20818,-0.1830291748046875,1.09197998046875,-1.1815185546875
20819,-0.18951416015625,1.08868408203125,-0.9087371826171876
20820,-0.185699462890625,0.9837493896484376,-0.5962371826171875
20821,-0.21539306640625,0.9557647705078124,-0.490997314453125
20822,-0.2698516845703125,0.981536865234375,-0.4109649658203125
20823,-0.220489501953125,0.9997100830078124,-0.3810272216796875
20824,-0.0967559814453125,0.961090087890625,-0.555877685546875
20825,-0.0704193115234375,0.87884521484375,-0.8533172607421875
20826,-0.0612640380859375,0.8984375,-0.7088775634765625
20827,-0.0974578857421875,0.916107177734375,-1.329315185546875
20828,-0.0324554443359375,1.06549072265625,-1.085800170898438
20829,0.27972412109375,1.052566528320312,-0.084808349609375
20830,0.4379730224609375,0.803070068359375,0.465789794921875
20831,0.2126617431640625,0.8201751708984375,-0.7586822509765625
20832,0.295379638671875,0.9603118896484376,-0.444244384765625
20833,0.09490966796875,0.8690948486328125,-0.398284912109375
20834,-0.0190582275390625,0.868560791015625,-0.438446044921875
20835,-0.053863525390625,0.9895782470703124,-0.426055908203125
20836,-0.0623779296875,1.14898681640625,-0.333251953125
20837,-0.070098876953125,1.090560913085938,-0.3286590576171875
20838,-0.107269287109375,1.068862915039062,-0.4061431884765625
20839,-0.1603546142578125,0.942626953125,-0.5060882568359375
20840,-0.207489013671875,0.719146728515625,-0.55908203125
20841,-0.2098541259765625,0.446441650390625,-0.5240325927734375
20842,-0.2081756591796875,0.1790771484375,-0.466217041015625
20843,-0.2230072021484375,-0.0744781494140625,-0.4710235595703125
20844,-0.2598114013671875,-0.2205352783203125,0.0296173095703125
20845,-0.418975830078125,-0.3423309326171875,-0.489501953125
20846,-0.52618408203125,-0.241180419921875,-1.011550903320312
20847,-0.557281494140625,0.07562255859375,-1.298141479492188
20848,-0.5700531005859375,0.423004150390625,-1.29364013671875
20849,-0.632110595703125,0.7086181640625,-1.02752685546875
20850,-0.7164154052734375,1.060775756835938,-0.865142822265625
20851,-0.678070068359375,1.556594848632812,-0.8713836669921875
20852,-0.4302978515625,2.009078979492188,-0.877105712890625
20853,-0.1457977294921875,2.133575439453125,-0.6925048828125
20854,0.069488525390625,1.807769775390625,-0.4691162109375
20855,0.154449462890625,1.401718139648438,-0.28955078125
20856,0.078643798828125,1.025421142578125,0.0421142578125
20857,-0.01470947265625,0.7224884033203125,-0.2310333251953125
20858,0.3551177978515625,0.70916748046875,-0.4119415283203125
20859,0.5689849853515625,0.51043701171875,-0.3536376953125
20860,0.5132293701171875,0.4464874267578125,-0.465362548828125
20861,0.324951171875,0.6103057861328125,-0.58251953125
20862,0.118682861328125,0.578826904296875,-0.5167236328125
20863,-0.0222320556640625,0.4140167236328125,-0.54364013671875
20864,-0.1177978515625,0.4080047607421875,-0.599578857421875
20865,-0.180572509765625,0.4597625732421875,-0.648468017578125
20866,-0.1807708740234375,0.42926025390625,-0.6549835205078125
20867,-0.1953582763671875,0.3994140625,-0.6520843505859375
20868,-0.2484130859375,0.484130859375,-0.708953857421875
20869,-0.32159423828125,0.638397216796875,-0.705596923828125
20870,-0.442047119140625,0.8791046142578125,-0.81640625
20871,-0.5419158935546875,1.054519653320312,-0.902130126953125
20872,-0.5404205322265625,1.12469482421875,-0.808441162109375
20873,-0.490966796875,1.10382080078125,-0.6546173095703125
20874,-0.41217041015625,0.991943359375,-0.43585205078125
20875,-0.3365936279296875,0.9379119873046876,-0.326385498046875
20876,-0.2870330810546875,0.9139556884765624,-0.35455322265625
20877,-0.2702484130859375,0.9012451171875,-0.3719635009765625
20878,-0.2602081298828125,0.923309326171875,-0.3448028564453125
20879,-0.2621917724609375,0.976898193359375,-0.3755035400390625
20880,-0.230560302734375,0.980987548828125,-0.4180908203125
20881,-0.16351318359375,0.8721771240234375,-0.4858551025390625
20882,-0.0646209716796875,0.77764892578125,-0.5592498779296875
20883,-0.0338287353515625,0.7366485595703125,-0.6183319091796875
20884,-0.1292724609375,0.7369537353515625,-0.620208740234375
20885,-0.2329254150390625,0.74298095703125,-0.573638916015625
20886,-0.3008270263671875,0.7560882568359375,-0.5199432373046875
20887,-0.3125,0.7640380859375,-0.5856475830078125
20888,-0.27880859375,0.7725982666015625,-0.57330322265625
20889,-0.2502288818359375,0.8136749267578125,-0.6331939697265625
20890,-0.2183990478515625,0.84326171875,-0.6413726806640625
20891,-0.1921844482421875,0.8287200927734375,-0.6016387939453125
20892,-0.153717041015625,0.824432373046875,-0.589874267578125
20893,-0.0741119384765625,0.73284912109375,-0.5782012939453125
20894,-0.070648193359375,0.6717681884765625,-0.6341552734375
20895,-0.0976715087890625,0.7167205810546875,-0.6631622314453125
20896,-0.1295318603515625,0.804168701171875,-0.679229736328125
20897,-0.1679840087890625,0.835174560546875,-0.59783935546875
20898,-0.1995849609375,0.85906982421875,-0.504730224609375
20899,-0.20086669921875,0.7858123779296875,-0.458343505859375
20900,-0.1770477294921875,0.8320465087890625,-0.14703369140625
20901,-0.1837921142578125,0.862548828125,-0.369049072265625
20902,-0.1972198486328125,0.9135284423828124,-0.5143280029296875
20903,-0.2213287353515625,0.8292999267578125,-0.5696868896484375
20904,-0.1170806884765625,0.8655853271484375,-0.912353515625
20905,-0.0244903564453125,0.844940185546875,-0.4046478271484375
20906,-0.0886688232421875,0.8181304931640625,-0.2415618896484375
20907,-0.2117919921875,0.8381805419921875,-0.343017578125
20908,-0.3357391357421875,0.8392791748046875,-0.4804840087890625
20909,-0.4756622314453125,0.8824310302734375,-0.5549468994140625
20910,-0.4738616943359375,0.893280029296875,-0.53546142578125
20911,-0.371917724609375,0.8527679443359375,-0.4813385009765625
20912,-0.245574951171875,0.903533935546875,-0.49884033203125
20913,-0.1414947509765625,1.026107788085938,-0.5643157958984375
20914,-0.137603759765625,1.011947631835938,-0.6331939697265625
20915,-0.13043212890625,0.8295135498046875,-0.4682769775390625
20916,-0.187713623046875,0.8439483642578125,-0.3328399658203125
20917,-0.1829833984375,0.845184326171875,-0.478790283203125
20918,-0.149261474609375,0.9036102294921876,-0.6575469970703125
20919,-0.1699981689453125,0.9294891357421876,-0.535736083984375
20920,-0.2257232666015625,0.904144287109375,-0.446075439453125
20921,-0.261566162109375,0.7966156005859375,-0.6460418701171875
20922,-0.2606353759765625,0.6520843505859375,-0.7915496826171875
20923,-0.2272186279296875,0.5881500244140625,-0.8539581298828125
20924,-0.16473388671875,0.6240386962890625,-0.81683349609375
20925,-0.1871337890625,0.5739898681640625,-0.55548095703125
20926,-0.2278289794921875,0.5277099609375,-0.5801849365234375
20927,-0.227996826171875,0.664886474609375,-0.36767578125
20928,-0.224578857421875,0.8437347412109375,-0.2866973876953125
20929,-0.2042388916015625,0.9617462158203124,-0.2976837158203125
20930,-0.3064117431640625,0.781890869140625,-0.3261566162109375
20931,-0.4993133544921875,0.6679840087890625,-0.54156494140625
20932,-0.481536865234375,0.8332366943359375,-0.5971527099609375
20933,-0.3689422607421875,0.952880859375,-0.4700775146484375
20934,-0.31500244140625,0.8657989501953125,-0.267242431640625
20935,-0.306060791015625,0.79034423828125,-0.0196380615234375
20936,-0.27587890625,0.9073333740234376,-0.1015167236328125
20937,-0.25262451171875,0.9945068359375,-0.759613037109375
20938,-0.2117919921875,0.92724609375,-0.79705810546875
20939,-0.0811614990234375,0.8841552734375,-0.43896484375
20940,0.010711669921875,0.949676513671875,-0.1481475830078125
20941,-0.0697784423828125,0.9308624267578124,-0.2129058837890625
20942,-0.13275146484375,0.8811187744140625,-0.3564605712890625
20943,-0.1220245361328125,0.8689117431640625,-0.4236297607421875
20944,-0.102294921875,0.841461181640625,-0.4897613525390625
20945,-0.078125,0.7958221435546875,-0.506683349609375
20946,-0.0534210205078125,0.7287445068359375,-0.4543609619140625
20947,-0.0396575927734375,0.7642669677734375,-0.5782928466796875
20948,-0.040771484375,0.727508544921875,-0.57366943359375
20949,-0.0737762451171875,0.7615509033203125,-0.6091766357421875
20950,-0.1308135986328125,0.85614013671875,-0.7568359375
20951,-0.201934814453125,0.92340087890625,-0.7686309814453125
20952,-0.2748870849609375,0.9885101318359376,-0.7127685546875
20953,-0.3016357421875,0.9949493408203124,-0.597320556640625
20954,-0.305023193359375,0.88861083984375,-0.4267730712890625
20955,-0.2633819580078125,0.7902679443359375,-0.3777008056640625
20956,-0.2246551513671875,0.8028717041015625,-0.4322052001953125
20957,-0.20416259765625,0.8067626953125,-0.4611053466796875
20958,-0.209808349609375,0.795684814453125,-0.3862457275390625
20959,-0.18634033203125,0.7855224609375,-0.450592041015625
20960,-0.136993408203125,0.797088623046875,-0.4907379150390625
20961,-0.1113739013671875,0.8452911376953125,-0.5284271240234375
20962,-0.11175537109375,0.8735504150390625,-0.5725860595703125
20963,-0.122100830078125,0.8616790771484375,-0.5033416748046875
20964,-0.1370391845703125,0.845916748046875,-0.4903411865234375
20965,-0.149444580078125,0.8592681884765625,-0.430938720703125
20966,-0.1715240478515625,0.8595123291015625,-0.3196868896484375
20967,-0.2075958251953125,0.8529815673828125,-0.3237457275390625
20968,-0.2311248779296875,0.840423583984375,-0.4754638671875
20969,-0.23956298828125,0.864227294921875,-0.55718994140625
20970,-0.2382965087890625,0.9159088134765624,-0.536956787109375
20971,-0.2358856201171875,0.9316558837890624,-0.520111083984375
20972,-0.19085693359375,0.873199462890625,-0.6094970703125
20973,-0.1875762939453125,0.827484130859375,-0.5206451416015625
20974,-0.2003631591796875,0.798126220703125,-0.5232696533203125
20975,-0.1926422119140625,0.7633514404296875,-0.539886474609375
20976,-0.181976318359375,0.7290802001953125,-0.54888916015625
20977,-0.170501708984375,0.7089385986328125,-0.5642852783203125
20978,-0.1584014892578125,0.7018890380859375,-0.5813140869140625
20979,-0.14678955078125,0.704986572265625,-0.602630615234375
20980,-0.1290283203125,0.71661376953125,-0.626953125
20981,-0.1120452880859375,0.725982666015625,-0.6550445556640625
20982,-0.104766845703125,0.7300262451171875,-0.68792724609375
20983,-0.10284423828125,0.737091064453125,-0.7172698974609375
20984,-0.102691650390625,0.74298095703125,-0.737091064453125
20985,-0.110076904296875,0.7437286376953125,-0.7360687255859375
20986,-0.1302337646484375,0.7415618896484375,-0.7155609130859375
20987,-0.1488494873046875,0.7266387939453125,-0.6981658935546875
20988,-0.15228271484375,0.7004241943359375,-0.660308837890625
20989,-0.1504974365234375,0.6748199462890625,-0.6086883544921875
20990,-0.1250457763671875,0.6506500244140625,-0.5706024169921875
20991,-0.094482421875,0.6351470947265625,-0.561004638671875
20992,-0.0644378662109375,0.6407012939453125,-0.5771636962890625
20993,-0.04998779296875,0.671417236328125,-0.586517333984375
20994,-0.0441131591796875,0.7214202880859375,-0.60198974609375
20995,-0.0484161376953125,0.785125732421875,-0.6251983642578125
20996,-0.0723419189453125,0.8546295166015625,-0.6431884765625
20997,-0.1014404296875,0.900482177734375,-0.64080810546875
20998,-0.129150390625,0.931060791015625,-0.648223876953125
20999,-0.133758544921875,0.94061279296875,-0.643707275390625
21000,-0.1070404052734375,0.9007720947265624,-0.6421051025390625
21001,-0.073822021484375,0.82952880859375,-0.6644134521484375
21002,-0.00555419921875,0.756927490234375,-0.660858154296875
21003,0.056884765625,0.6930084228515625,-0.6780242919921875
21004,0.1065826416015625,0.6528167724609375,-0.694732666015625
21005,0.1456146240234375,0.6342926025390625,-0.7038421630859375
21006,0.1627960205078125,0.635406494140625,-0.7201690673828125
21007,0.1402740478515625,0.6613922119140625,-0.7186737060546875
21008,0.0919952392578125,0.6997833251953125,-0.7027740478515625
21009,0.05352783203125,0.75079345703125,-0.69342041015625
21010,0.018768310546875,0.776519775390625,-0.6630096435546875
21011,-0.01983642578125,0.7849884033203125,-0.656646728515625
21012,-0.071533203125,0.7825164794921875,-0.65557861328125
21013,-0.117156982421875,0.7646942138671875,-0.66351318359375
21014,-0.15203857421875,0.73248291015625,-0.6600189208984375
21015,-0.17498779296875,0.690704345703125,-0.683135986328125
21016,-0.19049072265625,0.6510772705078125,-0.6995697021484375
21017,-0.195404052734375,0.609619140625,-0.7304840087890625
21018,-0.1919097900390625,0.569061279296875,-0.76776123046875
21019,-0.192901611328125,0.5409088134765625,-0.8329620361328125
21020,-0.178802490234375,0.531005859375,-0.873626708984375
21021,-0.1358642578125,0.529144287109375,-0.891693115234375
21022,-0.0727386474609375,0.558197021484375,-0.8935394287109375
21023,-0.0222320556640625,0.6073150634765625,-0.8794708251953125
21024,0.0009307861328125,0.6578369140625,-0.843048095703125
21025,-0.0256805419921875,0.6965789794921875,-0.7897491455078125
21026,-0.1136322021484375,0.722412109375,-0.8006744384765625
21027,-0.187744140625,0.735992431640625,-0.7820892333984375
21028,-0.2474212646484375,0.7198333740234375,-0.776214599609375
21029,-0.2908782958984375,0.668731689453125,-0.7800445556640625
21030,-0.3190765380859375,0.6047515869140625,-0.8018646240234375
21031,-0.3370513916015625,0.5413055419921875,-0.8094482421875
21032,-0.3426513671875,0.473175048828125,-0.8274383544921875
21033,-0.3510589599609375,0.4334564208984375,-0.8162841796875
21034,-0.3333282470703125,0.4319915771484375,-0.79852294921875
21035,-0.2894287109375,0.4516754150390625,-0.7866973876953125
21036,-0.2411346435546875,0.5001220703125,-0.7911224365234375
21037,-0.201507568359375,0.5625762939453125,-0.8154296875
21038,-0.1822662353515625,0.618621826171875,-0.840850830078125
21039,-0.18292236328125,0.6526641845703125,-0.8585968017578125
21040,-0.210357666015625,0.649505615234375,-0.8623809814453125
21041,-0.2411346435546875,0.6162109375,-0.8756103515625
21042,-0.2769775390625,0.5608367919921875,-0.8935394287109375
21043,-0.3125762939453125,0.5082550048828125,-0.8728179931640625
21044,-0.3384552001953125,0.468536376953125,-0.8563079833984375
21045,-0.35302734375,0.444915771484375,-0.84521484375
21046,-0.3620758056640625,0.4385833740234375,-0.833648681640625
21047,-0.3626251220703125,0.450653076171875,-0.8202667236328125
21048,-0.3583526611328125,0.468994140625,-0.8132171630859375
21049,-0.3463287353515625,0.48150634765625,-0.8171539306640625
21050,-0.340576171875,0.485992431640625,-0.8290252685546875
21051,-0.3400726318359375,0.4868621826171875,-0.8383331298828125
21052,-0.338104248046875,0.4836883544921875,-0.8386077880859375
21053,-0.3399505615234375,0.473297119140625,-0.84320068359375
21054,-0.3452606201171875,0.4606781005859375,-0.85394287109375
21055,-0.3398895263671875,0.44781494140625,-0.843048095703125
21056,-0.3394927978515625,0.4303131103515625,-0.8524169921875
21057,-0.34637451171875,0.4161224365234375,-0.8537445068359375
21058,-0.3466796875,0.411529541015625,-0.8516387939453125
21059,-0.3403778076171875,0.412109375,-0.850555419921875
21060,-0.3387908935546875,0.41009521484375,-0.85809326171875
21061,-0.3336639404296875,0.4181671142578125,-0.8651580810546875
21062,-0.3237152099609375,0.42547607421875,-0.8605194091796875
21063,-0.3178253173828125,0.431121826171875,-0.85400390625
21064,-0.3146514892578125,0.4363555908203125,-0.852386474609375
21065,-0.3133392333984375,0.4391632080078125,-0.851409912109375
21066,-0.3120269775390625,0.4381561279296875,-0.8513641357421875
21067,-0.312408447265625,0.4370880126953125,-0.854705810546875
21068,-0.31121826171875,0.43963623046875,-0.8539886474609375
21069,-0.31475830078125,0.4432220458984375,-0.8468780517578125
21070,-0.31817626953125,0.4398193359375,-0.853118896484375
21071,-0.319061279296875,0.4355010986328125,-0.851776123046875
21072,-0.3191375732421875,0.4310302734375,-0.8585357666015625
21073,-0.3178253173828125,0.4297332763671875,-0.87591552734375
21074,-0.319305419921875,0.4276885986328125,-0.8880157470703125
21075,-0.3271331787109375,0.4231109619140625,-0.89666748046875
21076,-0.3330230712890625,0.420257568359375,-0.895721435546875
21077,-0.3307342529296875,0.4194488525390625,-0.8846588134765625
21078,-0.3249053955078125,0.4140472412109375,-0.8741455078125
21079,-0.3173675537109375,0.4036102294921875,-0.8692626953125
21080,-0.3080596923828125,0.3921356201171875,-0.86419677734375
21081,-0.300323486328125,0.3849029541015625,-0.8550872802734375
21082,-0.2959747314453125,0.3831329345703125,-0.84783935546875
21083,-0.2958984375,0.3827056884765625,-0.84991455078125
21084,-0.3012237548828125,0.3827667236328125,-0.8588714599609375
21085,-0.3063812255859375,0.3872528076171875,-0.86492919921875
21086,-0.305389404296875,0.394805908203125,-0.8662567138671875
21087,-0.301544189453125,0.4041595458984375,-0.8647613525390625
21088,-0.2989959716796875,0.4094696044921875,-0.8641510009765625
21089,-0.2964935302734375,0.4132080078125,-0.867462158203125
21090,-0.292572021484375,0.4131622314453125,-0.8677520751953125
21091,-0.28778076171875,0.4086151123046875,-0.8683929443359375
21092,-0.28369140625,0.402679443359375,-0.8713226318359375
21093,-0.2791900634765625,0.3986968994140625,-0.87542724609375
21094,-0.2715911865234375,0.3972625732421875,-0.8751220703125
21095,-0.2624053955078125,0.3984222412109375,-0.8685760498046875
21096,-0.2528533935546875,0.4002838134765625,-0.8588714599609375
21097,-0.2452392578125,0.398681640625,-0.855682373046875
21098,-0.2382354736328125,0.3961334228515625,-0.8591156005859375
21099,-0.2333526611328125,0.3964691162109375,-0.86602783203125
21100,-0.2318267822265625,0.39752197265625,-0.862518310546875
21101,-0.235443115234375,0.39544677734375,-0.861328125
21102,-0.2415924072265625,0.3948974609375,-0.8650970458984375
21103,-0.2469482421875,0.39996337890625,-0.8701629638671875
21104,-0.2552490234375,0.40960693359375,-0.8714447021484375
21105,-0.2637939453125,0.4161834716796875,-0.8760528564453125
21106,-0.2695465087890625,0.4220733642578125,-0.876953125
21107,-0.2722015380859375,0.42413330078125,-0.8806915283203125
21108,-0.2723846435546875,0.423187255859375,-0.887451171875
21109,-0.265625,0.4263916015625,-0.8874969482421875
21110,-0.2568359375,0.4283294677734375,-0.8855438232421875
21111,-0.252288818359375,0.428436279296875,-0.879547119140625
21112,-0.2465972900390625,0.42828369140625,-0.878875732421875
21113,-0.2434844970703125,0.42779541015625,-0.8778076171875
21114,-0.2465972900390625,0.424346923828125,-0.8795928955078125
21115,-0.25079345703125,0.4201507568359375,-0.87689208984375
21116,-0.25244140625,0.4184112548828125,-0.8743743896484375
21117,-0.253753662109375,0.418609619140625,-0.8764801025390625
21118,-0.2543792724609375,0.4172821044921875,-0.882354736328125
21119,-0.25469970703125,0.4134521484375,-0.8868408203125
21120,-0.2547454833984375,0.409271240234375,-0.89013671875
21121,-0.256378173828125,0.4064178466796875,-0.8880462646484375
21122,-0.2601318359375,0.4021453857421875,-0.8822021484375
21123,-0.2667083740234375,0.3978118896484375,-0.8784942626953125
21124,-0.27301025390625,0.396270751953125,-0.876953125
21125,-0.278839111328125,0.394989013671875,-0.875762939453125
21126,-0.2794036865234375,0.3986358642578125,-0.8760223388671875
21127,-0.2757110595703125,0.4073638916015625,-0.883209228515625
21128,-0.268218994140625,0.4221649169921875,-0.8926239013671875
21129,-0.2590484619140625,0.4340057373046875,-0.9023284912109376
21130,-0.2528839111328125,0.440399169921875,-0.9181671142578124
21131,-0.249786376953125,0.4380645751953125,-0.9275665283203124
21132,-0.2501220703125,0.426849365234375,-0.92950439453125
21133,-0.250213623046875,0.410888671875,-0.9249267578125
21134,-0.2493743896484375,0.3929443359375,-0.9152984619140624
21135,-0.2511138916015625,0.3755950927734375,-0.9022216796875
21136,-0.2534027099609375,0.3624114990234375,-0.8863067626953125
21137,-0.25469970703125,0.355499267578125,-0.87335205078125
21138,-0.2561798095703125,0.3542938232421875,-0.8674163818359375
21139,-0.2538299560546875,0.3566131591796875,-0.8664398193359375
21140,-0.248077392578125,0.3632049560546875,-0.867584228515625
21141,-0.241241455078125,0.370147705078125,-0.8712615966796875
21142,-0.2351226806640625,0.375946044921875,-0.873504638671875
21143,-0.229736328125,0.3831634521484375,-0.8765716552734375
21144,-0.230560302734375,0.3914947509765625,-0.8835296630859375
21145,-0.2364959716796875,0.40008544921875,-0.8892669677734375
21146,-0.2439727783203125,0.4099884033203125,-0.8955078125
21147,-0.2506103515625,0.4197235107421875,-0.8990478515625
21148,-0.2569427490234375,0.4244232177734375,-0.904022216796875
21149,-0.261810302734375,0.4244232177734375,-0.9104156494140624
21150,-0.2642974853515625,0.4239349365234375,-0.912200927734375
21151,-0.2637481689453125,0.41961669921875,-0.908355712890625
21152,-0.2612457275390625,0.413482666015625,-0.8979034423828125
21153,-0.25592041015625,0.4055633544921875,-0.8902587890625
21154,-0.24530029296875,0.399505615234375,-0.8843536376953125
21155,-0.230682373046875,0.3986358642578125,-0.8789825439453125
21156,-0.2141876220703125,0.40460205078125,-0.8746185302734375
21157,-0.2000732421875,0.40838623046875,-0.8722991943359375
21158,-0.19244384765625,0.407135009765625,-0.872283935546875
21159,-0.1908721923828125,0.4029693603515625,-0.8725433349609375
21160,-0.1962890625,0.39764404296875,-0.8701324462890625
21161,-0.207366943359375,0.394989013671875,-0.867828369140625
21162,-0.2178497314453125,0.3953704833984375,-0.868927001953125
21163,-0.2292633056640625,0.397369384765625,-0.873443603515625
21164,-0.23699951171875,0.3998870849609375,-0.8777008056640625
21165,-0.243255615234375,0.401458740234375,-0.878448486328125
21166,-0.2501373291015625,0.4018707275390625,-0.8740386962890625
21167,-0.254791259765625,0.40081787109375,-0.8658905029296875
21168,-0.257049560546875,0.4030303955078125,-0.8588104248046875
21169,-0.258087158203125,0.4068756103515625,-0.8571014404296875
21170,-0.261505126953125,0.41253662109375,-0.8632354736328125
21171,-0.26519775390625,0.42108154296875,-0.874481201171875
21172,-0.2658233642578125,0.4260711669921875,-0.8814544677734375
21173,-0.2678375244140625,0.427398681640625,-0.889190673828125
21174,-0.2697906494140625,0.425506591796875,-0.893463134765625
21175,-0.2707977294921875,0.420654296875,-0.8927459716796875
21176,-0.2692718505859375,0.41876220703125,-0.8874359130859375
21177,-0.2661895751953125,0.4190521240234375,-0.8805694580078125
21178,-0.2624359130859375,0.4187164306640625,-0.8739471435546875
21179,-0.2601776123046875,0.42047119140625,-0.861907958984375
21180,-0.257965087890625,0.4236297607421875,-0.8657073974609375
21181,-0.2537841796875,0.4294586181640625,-0.86920166015625
21182,-0.251068115234375,0.42962646484375,-0.8658599853515625
21183,-0.2513885498046875,0.4250030517578125,-0.8616943359375
21184,-0.2509613037109375,0.419189453125,-0.86138916015625
21185,-0.2503509521484375,0.416046142578125,-0.8582305908203125
21186,-0.24932861328125,0.417083740234375,-0.8535003662109375
21187,-0.2470703125,0.4213714599609375,-0.860382080078125
21188,-0.24664306640625,0.4312286376953125,-0.87213134765625
21189,-0.2475738525390625,0.44384765625,-0.8816680908203125
21190,-0.24755859375,0.455322265625,-0.88671875
21191,-0.2476654052734375,0.4619903564453125,-0.887969970703125
21192,-0.24847412109375,0.4662933349609375,-0.8873291015625
21193,-0.2462921142578125,0.4687652587890625,-0.88311767578125
21194,-0.24237060546875,0.46435546875,-0.876495361328125
21195,-0.23944091796875,0.4592742919921875,-0.868743896484375
21196,-0.2403564453125,0.4543609619140625,-0.8692474365234375
21197,-0.2473297119140625,0.45013427734375,-0.8740997314453125
21198,-0.25823974609375,0.4441070556640625,-0.8794708251953125
21199,-0.2706298828125,0.4369049072265625,-0.8813323974609375
21200,-0.281463623046875,0.426055908203125,-0.881744384765625
21201,-0.2845306396484375,0.41583251953125,-0.881134033203125
21202,-0.2855987548828125,0.407928466796875,-0.877838134765625
21203,-0.2855224609375,0.401824951171875,-0.8685302734375
21204,-0.2846221923828125,0.3948211669921875,-0.858917236328125
21205,-0.281158447265625,0.387603759765625,-0.852386474609375
21206,-0.2758941650390625,0.383087158203125,-0.8516998291015625
21207,-0.268280029296875,0.3799285888671875,-0.8540496826171875
21208,-0.2600250244140625,0.3801116943359375,-0.860504150390625
21209,-0.253875732421875,0.385406494140625,-0.8668365478515625
21210,-0.249542236328125,0.3963165283203125,-0.8715972900390625
21211,-0.2444915771484375,0.4097747802734375,-0.8678131103515625
21212,-0.2412261962890625,0.416748046875,-0.864990234375
21213,-0.2392425537109375,0.4185333251953125,-0.863006591796875
21214,-0.2394866943359375,0.415985107421875,-0.8616485595703125
21215,-0.2438201904296875,0.413909912109375,-0.859344482421875
21216,-0.2506561279296875,0.41552734375,-0.85858154296875
21217,-0.2595672607421875,0.4210052490234375,-0.8607330322265625
21218,-0.2666778564453125,0.4299163818359375,-0.86358642578125
21219,-0.2709808349609375,0.4378662109375,-0.864898681640625
21220,-0.27252197265625,0.4442901611328125,-0.8649749755859375
21221,-0.2721405029296875,0.4490966796875,-0.8687896728515625
21222,-0.272552490234375,0.4536895751953125,-0.8722381591796875
21223,-0.2740478515625,0.46014404296875,-0.87274169921875
21224,-0.277496337890625,0.4637908935546875,-0.8759613037109375
21225,-0.2801971435546875,0.466094970703125,-0.882110595703125
21226,-0.2830963134765625,0.4668426513671875,-0.886260986328125
21227,-0.2859344482421875,0.4658660888671875,-0.8863372802734375
21228,-0.2868499755859375,0.4610595703125,-0.88427734375
21229,-0.2859039306640625,0.4546051025390625,-0.883209228515625
21230,-0.276275634765625,0.44927978515625,-0.8799285888671875
21231,-0.2558135986328125,0.4450225830078125,-0.87164306640625
21232,-0.2314910888671875,0.441741943359375,-0.8561553955078125
21233,-0.2130889892578125,0.432891845703125,-0.8435211181640625
21234,-0.206146240234375,0.4216461181640625,-0.8406829833984375
21235,-0.204742431640625,0.4139251708984375,-0.8403778076171875
21236,-0.2059326171875,0.41204833984375,-0.841888427734375
21237,-0.21099853515625,0.41546630859375,-0.8479461669921875
21238,-0.218353271484375,0.422393798828125,-0.8544464111328125
21239,-0.2252197265625,0.4304962158203125,-0.85723876953125
21240,-0.2323455810546875,0.440460205078125,-0.8579864501953125
21241,-0.2382049560546875,0.444793701171875,-0.857025146484375
21242,-0.244293212890625,0.44830322265625,-0.8545074462890625
21243,-0.2501678466796875,0.4505157470703125,-0.857147216796875
21244,-0.2533111572265625,0.4528045654296875,-0.8612518310546875
21245,-0.25531005859375,0.45233154296875,-0.86383056640625
21246,-0.2567291259765625,0.450775146484375,-0.8658905029296875
21247,-0.258514404296875,0.445709228515625,-0.87200927734375
21248,-0.259033203125,0.438568115234375,-0.8708953857421875
21249,-0.2574462890625,0.43267822265625,-0.863494873046875
21250,-0.2551116943359375,0.4256744384765625,-0.8582916259765625
21251,-0.2558746337890625,0.419158935546875,-0.856781005859375
21252,-0.2555084228515625,0.413818359375,-0.8541259765625
21253,-0.253814697265625,0.4083099365234375,-0.8527984619140625
21254,-0.2531890869140625,0.40582275390625,-0.848968505859375
21255,-0.2529449462890625,0.405059814453125,-0.8456878662109375
21256,-0.2534027099609375,0.408966064453125,-0.8416900634765625
21257,-0.25372314453125,0.4167938232421875,-0.8407440185546875
21258,-0.2551727294921875,0.4284820556640625,-0.841522216796875
21259,-0.25799560546875,0.4421234130859375,-0.845672607421875
21260,-0.256256103515625,0.4585418701171875,-0.855194091796875
21261,-0.2541351318359375,0.475555419921875,-0.863555908203125
21262,-0.2540435791015625,0.493682861328125,-0.8742218017578125
21263,-0.2549896240234375,0.50543212890625,-0.8837432861328125
21264,-0.2554473876953125,0.5054168701171875,-0.8890533447265625
21265,-0.254241943359375,0.4999542236328125,-0.8919525146484375
21266,-0.2547454833984375,0.4874114990234375,-0.888458251953125
21267,-0.2580718994140625,0.471038818359375,-0.8794708251953125
21268,-0.2584381103515625,0.4586181640625,-0.8650665283203125
21269,-0.2571868896484375,0.4501495361328125,-0.855255126953125
21270,-0.256378173828125,0.4463348388671875,-0.8535919189453125
21271,-0.2548980712890625,0.4480438232421875,-0.8589324951171875
21272,-0.2503509521484375,0.4547882080078125,-0.8627777099609375
21273,-0.243988037109375,0.462188720703125,-0.8603973388671875
21274,-0.23931884765625,0.4631500244140625,-0.8607177734375
21275,-0.235565185546875,0.4560089111328125,-0.8723602294921875
21276,-0.231658935546875,0.44610595703125,-0.88092041015625
21277,-0.2311553955078125,0.4358978271484375,-0.87860107421875
21278,-0.2375946044921875,0.4231719970703125,-0.861053466796875
21279,-0.2429046630859375,0.4118804931640625,-0.843475341796875
21280,-0.2464599609375,0.412109375,-0.8352508544921875
21281,-0.2476043701171875,0.423492431640625,-0.8334808349609375
21282,-0.2416839599609375,0.4438934326171875,-0.834625244140625
21283,-0.2320404052734375,0.4678192138671875,-0.8448944091796875
21284,-0.2220306396484375,0.4876708984375,-0.8615570068359375
21285,-0.2149505615234375,0.4957427978515625,-0.874481201171875
21286,-0.2107696533203125,0.4896240234375,-0.8728790283203125
21287,-0.2105560302734375,0.476715087890625,-0.8605194091796875
21288,-0.2100830078125,0.4679107666015625,-0.8502197265625
21289,-0.207794189453125,0.46539306640625,-0.85052490234375
21290,-0.206298828125,0.4694671630859375,-0.852203369140625
21291,-0.208038330078125,0.475311279296875,-0.8547210693359375
21292,-0.2150115966796875,0.4788360595703125,-0.85748291015625
21293,-0.2229156494140625,0.4778594970703125,-0.861907958984375
21294,-0.2321929931640625,0.4734649658203125,-0.8627166748046875
21295,-0.24127197265625,0.466033935546875,-0.8596343994140625
21296,-0.2496185302734375,0.4596405029296875,-0.8544921875
21297,-0.256561279296875,0.4521331787109375,-0.848663330078125
21298,-0.2598724365234375,0.4483489990234375,-0.846710205078125
21299,-0.2622222900390625,0.447601318359375,-0.84222412109375
21300,-0.2642974853515625,0.448699951171875,-0.842010498046875
21301,-0.26641845703125,0.4496612548828125,-0.84552001953125
21302,-0.269134521484375,0.452667236328125,-0.851776123046875
21303,-0.2719573974609375,0.4547119140625,-0.8559112548828125
21304,-0.2689971923828125,0.45648193359375,-0.85894775390625
21305,-0.261383056640625,0.4615325927734375,-0.867431640625
21306,-0.257781982421875,0.4680938720703125,-0.86517333984375
21307,-0.25433349609375,0.4732208251953125,-0.8527069091796875
21308,-0.245361328125,0.47930908203125,-0.8440093994140625
21309,-0.2308197021484375,0.490264892578125,-0.8469696044921875
21310,-0.2154541015625,0.499755859375,-0.859893798828125
21311,-0.201995849609375,0.50665283203125,-0.865234375
21312,-0.1933746337890625,0.5056610107421875,-0.86187744140625
21313,-0.188201904296875,0.4991912841796875,-0.85809326171875
21314,-0.1870574951171875,0.4911956787109375,-0.85626220703125
21315,-0.185821533203125,0.4844512939453125,-0.85260009765625
21316,-0.1865234375,0.4769439697265625,-0.8512115478515625
21317,-0.189117431640625,0.4691009521484375,-0.84893798828125
21318,-0.196380615234375,0.4638671875,-0.8432464599609375
21319,-0.2047119140625,0.45928955078125,-0.83856201171875
21320,-0.2139129638671875,0.453948974609375,-0.83740234375
21321,-0.2231903076171875,0.4472198486328125,-0.842010498046875
21322,-0.230926513671875,0.4392852783203125,-0.852203369140625
21323,-0.239044189453125,0.43292236328125,-0.864044189453125
21324,-0.2460174560546875,0.4295654296875,-0.8753662109375
21325,-0.2543487548828125,0.42919921875,-0.8851165771484375
21326,-0.2579193115234375,0.4345245361328125,-0.8882598876953125
21327,-0.2566680908203125,0.4430389404296875,-0.88592529296875
21328,-0.2509307861328125,0.4498443603515625,-0.8787994384765625
21329,-0.2444610595703125,0.450775146484375,-0.872528076171875
21330,-0.2390289306640625,0.446929931640625,-0.8674468994140625
21331,-0.234527587890625,0.4407806396484375,-0.864410400390625
21332,-0.2314605712890625,0.434173583984375,-0.8648834228515625
21333,-0.232452392578125,0.432708740234375,-0.86627197265625
21334,-0.23388671875,0.4323883056640625,-0.8687744140625
21335,-0.234710693359375,0.4371185302734375,-0.8686370849609375
21336,-0.2341156005859375,0.4429473876953125,-0.8672637939453125
21337,-0.2347869873046875,0.4454193115234375,-0.8681793212890625
21338,-0.2364959716796875,0.445953369140625,-0.871917724609375
21339,-0.236541748046875,0.4461517333984375,-0.874603271484375
21340,-0.237396240234375,0.4466094970703125,-0.8746795654296875
21341,-0.2378692626953125,0.448089599609375,-0.87542724609375
21342,-0.23785400390625,0.44940185546875,-0.8766021728515625
21343,-0.2367401123046875,0.45068359375,-0.87738037109375
21344,-0.2333984375,0.4527740478515625,-0.87548828125
21345,-0.2274017333984375,0.45196533203125,-0.873321533203125
21346,-0.2193450927734375,0.448211669921875,-0.8739471435546875
21347,-0.2100677490234375,0.4484405517578125,-0.8732147216796875
21348,-0.2019195556640625,0.4511566162109375,-0.8694915771484375
21349,-0.2004852294921875,0.4489898681640625,-0.863433837890625
21350,-0.2036590576171875,0.4480438232421875,-0.8597412109375
21351,-0.2053375244140625,0.449554443359375,-0.859283447265625
21352,-0.2077789306640625,0.4538421630859375,-0.8636627197265625
21353,-0.2123260498046875,0.4615631103515625,-0.864776611328125
21354,-0.215179443359375,0.4674835205078125,-0.8606109619140625
21355,-0.2170867919921875,0.471588134765625,-0.8548126220703125
21356,-0.220855712890625,0.4733123779296875,-0.8504180908203125
21357,-0.224853515625,0.47296142578125,-0.8497314453125
21358,-0.2266082763671875,0.472015380859375,-0.85003662109375
21359,-0.2289581298828125,0.4752960205078125,-0.8520660400390625
21360,-0.23388671875,0.480224609375,-0.8524932861328125
21361,-0.24066162109375,0.4812164306640625,-0.852630615234375
21362,-0.248870849609375,0.478912353515625,-0.8542022705078125
21363,-0.2532958984375,0.47601318359375,-0.8543701171875
21364,-0.2557525634765625,0.4715423583984375,-0.8547210693359375
21365,-0.2561798095703125,0.466949462890625,-0.854949951171875
21366,-0.253082275390625,0.463623046875,-0.8541259765625
21367,-0.2500457763671875,0.4641876220703125,-0.8544464111328125
21368,-0.2482147216796875,0.46734619140625,-0.8561553955078125
21369,-0.248870849609375,0.4710235595703125,-0.857635498046875
21370,-0.2528533935546875,0.4766082763671875,-0.856353759765625
21371,-0.2540740966796875,0.4799041748046875,-0.8511810302734375
21372,-0.2558441162109375,0.4805755615234375,-0.85052490234375
21373,-0.2557373046875,0.4788818359375,-0.8491363525390625
21374,-0.2533721923828125,0.477325439453125,-0.8476104736328125
21375,-0.250274658203125,0.4771575927734375,-0.844818115234375
21376,-0.2447967529296875,0.475738525390625,-0.8480224609375
21377,-0.2386322021484375,0.4747772216796875,-0.8517303466796875
21378,-0.233062744140625,0.4745330810546875,-0.8492279052734375
21379,-0.227142333984375,0.472991943359375,-0.850738525390625
21380,-0.223785400390625,0.4693450927734375,-0.8516998291015625
21381,-0.2232818603515625,0.46392822265625,-0.8490447998046875
21382,-0.2227020263671875,0.456207275390625,-0.843963623046875
21383,-0.2219390869140625,0.44793701171875,-0.837158203125
21384,-0.220489501953125,0.4419708251953125,-0.8275146484375
21385,-0.2185821533203125,0.4398345947265625,-0.8306884765625
21386,-0.2204742431640625,0.44207763671875,-0.835418701171875
21387,-0.2250823974609375,0.4473419189453125,-0.8423919677734375
21388,-0.23419189453125,0.4542388916015625,-0.8459320068359375
21389,-0.2426300048828125,0.4609375,-0.846466064453125
21390,-0.2492218017578125,0.4677581787109375,-0.84796142578125
21391,-0.2536773681640625,0.4754638671875,-0.84637451171875
21392,-0.2568359375,0.479217529296875,-0.845916748046875
21393,-0.2609405517578125,0.4806671142578125,-0.851806640625
21394,-0.2646331787109375,0.48260498046875,-0.859405517578125
21395,-0.2662200927734375,0.485565185546875,-0.866455078125
21396,-0.26910400390625,0.4888153076171875,-0.8709259033203125
21397,-0.2728118896484375,0.4875946044921875,-0.8746337890625
21398,-0.273651123046875,0.4828948974609375,-0.8739013671875
21399,-0.27081298828125,0.477294921875,-0.867156982421875
21400,-0.26544189453125,0.4683380126953125,-0.8578033447265625
21401,-0.257110595703125,0.460845947265625,-0.8455657958984375
21402,-0.2505340576171875,0.4561920166015625,-0.8348388671875
21403,-0.2466888427734375,0.4560699462890625,-0.826751708984375
21404,-0.24310302734375,0.4579620361328125,-0.825592041015625
21405,-0.236663818359375,0.4613494873046875,-0.8290252685546875
21406,-0.2291259765625,0.463714599609375,-0.832000732421875
21407,-0.22259521484375,0.464569091796875,-0.835693359375
21408,-0.2170867919921875,0.4640350341796875,-0.8481903076171875
21409,-0.2153472900390625,0.4665985107421875,-0.8622589111328125
21410,-0.2146453857421875,0.467620849609375,-0.865447998046875
21411,-0.2179107666015625,0.4674224853515625,-0.859893798828125
21412,-0.224456787109375,0.4667510986328125,-0.851959228515625
21413,-0.2297210693359375,0.466217041015625,-0.8515625
21414,-0.2352447509765625,0.4666900634765625,-0.850921630859375
21415,-0.2377471923828125,0.472137451171875,-0.8477935791015625
21416,-0.2384490966796875,0.4809417724609375,-0.849334716796875
21417,-0.23626708984375,0.4881744384765625,-0.854766845703125
21418,-0.235198974609375,0.4936981201171875,-0.8603973388671875
21419,-0.235595703125,0.497039794921875,-0.869598388671875
21420,-0.237274169921875,0.4970550537109375,-0.8785400390625
21421,-0.240570068359375,0.493133544921875,-0.8849639892578125
21422,-0.2438201904296875,0.485748291015625,-0.8872528076171875
21423,-0.2489013671875,0.4730072021484375,-0.8867950439453125
21424,-0.25347900390625,0.4538726806640625,-0.8856353759765625
21425,-0.256805419921875,0.4339599609375,-0.8785858154296875
21426,-0.2586822509765625,0.4137725830078125,-0.8686676025390625
21427,-0.2602081298828125,0.3955841064453125,-0.8535614013671875
21428,-0.2614898681640625,0.3805389404296875,-0.8385772705078125
21429,-0.260711669921875,0.3740081787109375,-0.8279266357421875
21430,-0.259033203125,0.3765106201171875,-0.8265838623046875
21431,-0.255401611328125,0.387359619140625,-0.8327484130859375
21432,-0.251800537109375,0.40496826171875,-0.8437042236328125
21433,-0.248016357421875,0.4213409423828125,-0.8528900146484375
21434,-0.2444610595703125,0.435302734375,-0.8610076904296875
21435,-0.2425689697265625,0.44549560546875,-0.8670806884765625
21436,-0.241668701171875,0.452667236328125,-0.870361328125
21437,-0.2399139404296875,0.45953369140625,-0.8692169189453125
21438,-0.2408294677734375,0.464019775390625,-0.8715362548828125
21439,-0.2432861328125,0.4665069580078125,-0.8731536865234375
21440,-0.2482757568359375,0.468170166015625,-0.872528076171875
21441,-0.2505035400390625,0.46832275390625,-0.8680267333984375
21442,-0.24798583984375,0.467437744140625,-0.86376953125
21443,-0.243408203125,0.4694366455078125,-0.863677978515625
21444,-0.2400054931640625,0.472381591796875,-0.8647613525390625
21445,-0.2359619140625,0.4741058349609375,-0.8647918701171875
21446,-0.231597900390625,0.474456787109375,-0.8610992431640625
21447,-0.2301483154296875,0.4716339111328125,-0.855987548828125
21448,-0.231475830078125,0.4647674560546875,-0.8571624755859375
21449,-0.23663330078125,0.4575347900390625,-0.8602294921875
21450,-0.2432861328125,0.4527130126953125,-0.86181640625
21451,-0.2501373291015625,0.449554443359375,-0.86102294921875
21452,-0.255889892578125,0.44915771484375,-0.8625335693359375
21453,-0.2587738037109375,0.44921875,-0.86004638671875
21454,-0.2607269287109375,0.451873779296875,-0.8575439453125
21455,-0.2581939697265625,0.454010009765625,-0.8562774658203125
21456,-0.2549285888671875,0.457366943359375,-0.85418701171875
21457,-0.2527313232421875,0.46075439453125,-0.855743408203125
21458,-0.2486572265625,0.4599761962890625,-0.85858154296875
21459,-0.24658203125,0.4555816650390625,-0.8575897216796875
21460,-0.2438201904296875,0.4515838623046875,-0.8534698486328125
21461,-0.2432403564453125,0.447357177734375,-0.851959228515625
21462,-0.2460479736328125,0.446380615234375,-0.8522186279296875
21463,-0.249755859375,0.445343017578125,-0.8539276123046875
21464,-0.2495880126953125,0.44873046875,-0.8543243408203125
21465,-0.2468414306640625,0.4501495361328125,-0.8553924560546875
21466,-0.242523193359375,0.4524078369140625,-0.857269287109375
21467,-0.2396697998046875,0.45599365234375,-0.8590850830078125
21468,-0.2363433837890625,0.45892333984375,-0.8623046875
21469,-0.2332763671875,0.4591827392578125,-0.862091064453125
21470,-0.232635498046875,0.45660400390625,-0.860076904296875
21471,-0.232025146484375,0.453155517578125,-0.86041259765625
21472,-0.230804443359375,0.45166015625,-0.8635101318359375
21473,-0.2307281494140625,0.4508514404296875,-0.86529541015625
21474,-0.2308502197265625,0.451568603515625,-0.8648529052734375
21475,-0.232421875,0.452301025390625,-0.8625946044921875
21476,-0.233306884765625,0.45166015625,-0.86029052734375
21477,-0.23382568359375,0.4515838623046875,-0.85888671875
21478,-0.2357177734375,0.4521331787109375,-0.8584747314453125
21479,-0.238433837890625,0.45330810546875,-0.8590087890625
21480,-0.242584228515625,0.453338623046875,-0.8592071533203125
21481,-0.244415283203125,0.4520721435546875,-0.8609771728515625
21482,-0.2458953857421875,0.449310302734375,-0.861846923828125
21483,-0.24725341796875,0.4473419189453125,-0.860443115234375
21484,-0.2504425048828125,0.44573974609375,-0.861541748046875
21485,-0.2509002685546875,0.4474639892578125,-0.86138916015625
21486,-0.2481231689453125,0.4537353515625,-0.8583831787109375
21487,-0.2452850341796875,0.457916259765625,-0.856903076171875
21488,-0.2445220947265625,0.45770263671875,-0.8596954345703125
21489,-0.2420196533203125,0.45751953125,-0.86260986328125
21490,-0.23773193359375,0.455810546875,-0.860107421875
21491,-0.23614501953125,0.451080322265625,-0.856231689453125
21492,-0.23724365234375,0.4495086669921875,-0.85455322265625
21493,-0.2371063232421875,0.4528656005859375,-0.85589599609375
21494,-0.236907958984375,0.4608306884765625,-0.855926513671875
21495,-0.2400054931640625,0.4675140380859375,-0.856781005859375
21496,-0.2440643310546875,0.47222900390625,-0.860107421875
21497,-0.2476654052734375,0.4705047607421875,-0.8638458251953125
21498,-0.2510528564453125,0.463348388671875,-0.866668701171875
21499,-0.253692626953125,0.4549407958984375,-0.86993408203125
21500,-0.253509521484375,0.4493408203125,-0.8699951171875
21501,-0.2509307861328125,0.4473419189453125,-0.8694000244140625
21502,-0.248748779296875,0.44573974609375,-0.8662872314453125
21503,-0.245452880859375,0.4439239501953125,-0.8639678955078125
21504,-0.2419586181640625,0.444915771484375,-0.8634033203125
21505,-0.2403411865234375,0.4467010498046875,-0.862274169921875
21506,-0.2390594482421875,0.445404052734375,-0.8606414794921875
21507,-0.2402801513671875,0.4422760009765625,-0.8605194091796875
21508,-0.2425994873046875,0.43951416015625,-0.861175537109375
21509,-0.2471923828125,0.4356842041015625,-0.859466552734375
21510,-0.251922607421875,0.4326629638671875,-0.858062744140625
21511,-0.256011962890625,0.4340362548828125,-0.85614013671875
21512,-0.2583160400390625,0.438018798828125,-0.8555908203125
21513,-0.2580718994140625,0.4412078857421875,-0.853546142578125
21514,-0.2556304931640625,0.4446868896484375,-0.854522705078125
21515,-0.2515716552734375,0.449432373046875,-0.8557891845703125
21516,-0.2451171875,0.454681396484375,-0.8568878173828125
21517,-0.240386962890625,0.4593658447265625,-0.8552398681640625
21518,-0.2349700927734375,0.4620208740234375,-0.8548431396484375
21519,-0.23101806640625,0.4620513916015625,-0.8550872802734375
21520,-0.230133056640625,0.46038818359375,-0.8548736572265625
21521,-0.231781005859375,0.461212158203125,-0.854705810546875
21522,-0.23468017578125,0.4602203369140625,-0.8553619384765625
21523,-0.2378692626953125,0.4599609375,-0.8560638427734375
21524,-0.2431640625,0.4623870849609375,-0.8551788330078125
21525,-0.251434326171875,0.4696502685546875,-0.851654052734375
21526,-0.25555419921875,0.4744873046875,-0.8489990234375
21527,-0.260986328125,0.481353759765625,-0.8509674072265625
21528,-0.2640380859375,0.4842987060546875,-0.8548431396484375
21529,-0.2657623291015625,0.48565673828125,-0.855804443359375
21530,-0.2639007568359375,0.483062744140625,-0.85394287109375
21531,-0.2617034912109375,0.47528076171875,-0.850860595703125
21532,-0.2622528076171875,0.466705322265625,-0.8480072021484375
21533,-0.2641143798828125,0.4602813720703125,-0.8451690673828125
21534,-0.2661590576171875,0.456451416015625,-0.84185791015625
21535,-0.2719573974609375,0.4539947509765625,-0.8413848876953125
21536,-0.279571533203125,0.4549713134765625,-0.844482421875
21537,-0.2851104736328125,0.4596405029296875,-0.847564697265625
21538,-0.28631591796875,0.46600341796875,-0.847900390625
21539,-0.2820587158203125,0.47357177734375,-0.85101318359375
21540,-0.273590087890625,0.4801788330078125,-0.8525848388671875
21541,-0.265045166015625,0.4845428466796875,-0.8533782958984375
21542,-0.2572174072265625,0.4864959716796875,-0.8546295166015625
21543,-0.2486724853515625,0.4850921630859375,-0.8568878173828125
21544,-0.241058349609375,0.48480224609375,-0.8581695556640625
21545,-0.236541748046875,0.482208251953125,-0.8560333251953125
21546,-0.232574462890625,0.4762420654296875,-0.851104736328125
21547,-0.23052978515625,0.471282958984375,-0.8460235595703125
21548,-0.2303619384765625,0.463043212890625,-0.8382110595703125
21549,-0.23333740234375,0.456787109375,-0.8310394287109375
21550,-0.2409210205078125,0.455413818359375,-0.8270111083984375
21551,-0.24847412109375,0.4591522216796875,-0.826263427734375
21552,-0.2543792724609375,0.4640960693359375,-0.83056640625
21553,-0.259063720703125,0.4677276611328125,-0.8361053466796875
21554,-0.2631378173828125,0.4696197509765625,-0.84039306640625
21555,-0.2658538818359375,0.469146728515625,-0.8430328369140625
21556,-0.266845703125,0.4703826904296875,-0.8455352783203125
21557,-0.2682647705078125,0.472198486328125,-0.8482666015625
21558,-0.2672882080078125,0.472442626953125,-0.8516693115234375
21559,-0.265838623046875,0.470550537109375,-0.8531341552734375
21560,-0.2666168212890625,0.468017578125,-0.8506317138671875
21561,-0.2664794921875,0.4648895263671875,-0.847900390625
21562,-0.265716552734375,0.462432861328125,-0.8444976806640625
21563,-0.2659759521484375,0.4608001708984375,-0.8405303955078125
21564,-0.26568603515625,0.4621734619140625,-0.8412017822265625
21565,-0.264739990234375,0.4653167724609375,-0.8438262939453125
21566,-0.2637786865234375,0.4677581787109375,-0.8440704345703125
21567,-0.26220703125,0.4674072265625,-0.84454345703125
21568,-0.26025390625,0.467559814453125,-0.8412322998046875
21569,-0.2584075927734375,0.469879150390625,-0.83795166015625
21570,-0.2572784423828125,0.472259521484375,-0.8358306884765625
21571,-0.2567138671875,0.477935791015625,-0.8347015380859375
21572,-0.2548828125,0.483306884765625,-0.8369903564453125
21573,-0.25445556640625,0.4879608154296875,-0.8427276611328125
21574,-0.252685546875,0.4885101318359375,-0.847503662109375
21575,-0.25146484375,0.4852294921875,-0.850433349609375
21576,-0.2500762939453125,0.481414794921875,-0.848236083984375
21577,-0.2494964599609375,0.47906494140625,-0.84246826171875
21578,-0.246063232421875,0.4792327880859375,-0.835906982421875
21579,-0.24200439453125,0.48291015625,-0.83099365234375
21580,-0.239410400390625,0.4891815185546875,-0.830108642578125
21581,-0.2367706298828125,0.492889404296875,-0.8335723876953125
21582,-0.2386932373046875,0.4926300048828125,-0.8394317626953125
21583,-0.2413330078125,0.48675537109375,-0.8441619873046875
21584,-0.243255615234375,0.4781646728515625,-0.847412109375
21585,-0.245147705078125,0.47381591796875,-0.850311279296875
21586,-0.246307373046875,0.4753875732421875,-0.8499298095703125
21587,-0.2470703125,0.477935791015625,-0.847991943359375
21588,-0.248046875,0.4789886474609375,-0.846038818359375
21589,-0.2503509521484375,0.4786376953125,-0.8440704345703125
21590,-0.253509521484375,0.474822998046875,-0.8422393798828125
21591,-0.2584991455078125,0.4730377197265625,-0.8421783447265625
21592,-0.2636260986328125,0.4704437255859375,-0.83990478515625
21593,-0.2683563232421875,0.472625732421875,-0.8421630859375
21594,-0.2723388671875,0.475128173828125,-0.845123291015625
21595,-0.27227783203125,0.4778900146484375,-0.8474578857421875
21596,-0.2701568603515625,0.4802703857421875,-0.8466949462890625
21597,-0.2669830322265625,0.4824066162109375,-0.8431396484375
21598,-0.2630157470703125,0.484893798828125,-0.8391265869140625
21599,-0.2589263916015625,0.4847412109375,-0.8370513916015625
21600,-0.25543212890625,0.4811553955078125,-0.8367767333984375
21601,-0.253753662109375,0.4772491455078125,-0.8367156982421875
21602,-0.251556396484375,0.4709930419921875,-0.8377227783203125
21603,-0.25091552734375,0.469482421875,-0.8386077880859375
21604,-0.2523651123046875,0.47271728515625,-0.839080810546875
21605,-0.254791259765625,0.4794158935546875,-0.842041015625
21606,-0.253936767578125,0.4869537353515625,-0.844482421875
21607,-0.2517547607421875,0.4933013916015625,-0.8444976806640625
21608,-0.2500457763671875,0.498626708984375,-0.8447418212890625
21609,-0.24609375,0.49798583984375,-0.843231201171875
21610,-0.2430267333984375,0.4947662353515625,-0.8391265869140625
21611,-0.2413330078125,0.4903106689453125,-0.836822509765625
21612,-0.238250732421875,0.4869232177734375,-0.83746337890625
21613,-0.235809326171875,0.483184814453125,-0.838592529296875
21614,-0.23382568359375,0.4812164306640625,-0.8368988037109375
21615,-0.233734130859375,0.483062744140625,-0.8372650146484375
21616,-0.2364959716796875,0.4837799072265625,-0.8382415771484375
21617,-0.238800048828125,0.485015869140625,-0.8398895263671875
21618,-0.23992919921875,0.486480712890625,-0.8420257568359375
21619,-0.24102783203125,0.485015869140625,-0.8446807861328125
21620,-0.2422027587890625,0.4801025390625,-0.847869873046875
21621,-0.24322509765625,0.4765625,-0.845794677734375
21622,-0.2449493408203125,0.4739837646484375,-0.8424835205078125
21623,-0.247344970703125,0.4702911376953125,-0.8392181396484375
21624,-0.251983642578125,0.4647064208984375,-0.8390350341796875
21625,-0.2553558349609375,0.4620208740234375,-0.835906982421875
21626,-0.2529449462890625,0.464080810546875,-0.833953857421875
21627,-0.2492523193359375,0.4699249267578125,-0.8355255126953125
21628,-0.245880126953125,0.47930908203125,-0.8395233154296875
21629,-0.242584228515625,0.4904632568359375,-0.8434906005859375
21630,-0.23907470703125,0.5037078857421875,-0.8467864990234375
21631,-0.2366180419921875,0.5129852294921875,-0.8480072021484375
21632,-0.237060546875,0.5190277099609375,-0.8498077392578125
21633,-0.2377777099609375,0.520263671875,-0.8509368896484375
21634,-0.2388763427734375,0.5168914794921875,-0.8483428955078125
21635,-0.23944091796875,0.50860595703125,-0.8480377197265625
21636,-0.24114990234375,0.499114990234375,-0.847137451171875
21637,-0.2424774169921875,0.4929962158203125,-0.844146728515625
21638,-0.242645263671875,0.4905548095703125,-0.839263916015625
21639,-0.2399749755859375,0.492156982421875,-0.8365020751953125
21640,-0.239410400390625,0.4945220947265625,-0.8392791748046875
21641,-0.2356109619140625,0.4969024658203125,-0.8450775146484375
21642,-0.2321929931640625,0.4978485107421875,-0.8472747802734375
21643,-0.2310638427734375,0.496429443359375,-0.8447265625
21644,-0.2324371337890625,0.4893951416015625,-0.842742919921875
21645,-0.2350311279296875,0.4839324951171875,-0.84222412109375
21646,-0.2379302978515625,0.482086181640625,-0.8418426513671875
21647,-0.240753173828125,0.48114013671875,-0.842010498046875
21648,-0.242767333984375,0.4800262451171875,-0.843231201171875
21649,-0.243072509765625,0.478851318359375,-0.843902587890625
21650,-0.241424560546875,0.473541259765625,-0.846466064453125
21651,-0.238250732421875,0.4663238525390625,-0.8472900390625
21652,-0.2387542724609375,0.464202880859375,-0.843719482421875
21653,-0.233428955078125,0.461700439453125,-0.842193603515625
21654,-0.2308807373046875,0.4630889892578125,-0.838348388671875
21655,-0.2320556640625,0.4642791748046875,-0.8372650146484375
21656,-0.2341156005859375,0.4671783447265625,-0.834991455078125
21657,-0.236175537109375,0.4701385498046875,-0.83197021484375
21658,-0.239349365234375,0.471710205078125,-0.8325347900390625
21659,-0.245269775390625,0.473175048828125,-0.8373260498046875
21660,-0.25042724609375,0.475677490234375,-0.8429412841796875
21661,-0.2525482177734375,0.47900390625,-0.8469696044921875
21662,-0.2550506591796875,0.4816741943359375,-0.8465728759765625
21663,-0.2557373046875,0.48291015625,-0.8474578857421875
21664,-0.253448486328125,0.4815826416015625,-0.8481292724609375
21665,-0.2512054443359375,0.481781005859375,-0.8464202880859375
21666,-0.250396728515625,0.4825439453125,-0.8446807861328125
21667,-0.2498779296875,0.482177734375,-0.8447265625
21668,-0.247833251953125,0.4823455810546875,-0.84710693359375
21669,-0.2478790283203125,0.4841766357421875,-0.850433349609375
21670,-0.249542236328125,0.4873199462890625,-0.856353759765625
21671,-0.2544403076171875,0.489166259765625,-0.8614501953125
21672,-0.259857177734375,0.4882659912109375,-0.8614044189453125
21673,-0.26171875,0.4829254150390625,-0.8566436767578125
21674,-0.26348876953125,0.477264404296875,-0.852569580078125
21675,-0.2633819580078125,0.470062255859375,-0.8473663330078125
21676,-0.262115478515625,0.4649200439453125,-0.8414459228515625
21677,-0.259521484375,0.4624786376953125,-0.8375091552734375
21678,-0.2552032470703125,0.4621124267578125,-0.8344268798828125
21679,-0.2518310546875,0.464141845703125,-0.836090087890625
21680,-0.2480621337890625,0.4677581787109375,-0.8421478271484375
21681,-0.2453155517578125,0.4715576171875,-0.8486480712890625
21682,-0.2431793212890625,0.4742279052734375,-0.8523712158203125
21683,-0.2420196533203125,0.4766845703125,-0.8508758544921875
21684,-0.2400970458984375,0.47943115234375,-0.8491058349609375
21685,-0.2403717041015625,0.483245849609375,-0.847625732421875
21686,-0.2413177490234375,0.4886627197265625,-0.846343994140625
21687,-0.2423095703125,0.4933929443359375,-0.8463134765625
21688,-0.2442779541015625,0.497406005859375,-0.844512939453125
21689,-0.2448577880859375,0.498382568359375,-0.8404693603515625
21690,-0.243988037109375,0.49853515625,-0.837158203125
21691,-0.2425079345703125,0.4944305419921875,-0.8306427001953125
21692,-0.2428741455078125,0.48675537109375,-0.8269195556640625
21693,-0.242401123046875,0.4813690185546875,-0.8262176513671875
21694,-0.2447967529296875,0.475921630859375,-0.825927734375
21695,-0.248199462890625,0.4747314453125,-0.8268890380859375
21696,-0.252593994140625,0.472686767578125,-0.82562255859375
21697,-0.2580108642578125,0.4737091064453125,-0.829864501953125
21698,-0.2614288330078125,0.4769439697265625,-0.83319091796875
21699,-0.2615814208984375,0.483245849609375,-0.8354644775390625
21700,-0.260955810546875,0.4907073974609375,-0.8399810791015625
21701,-0.2549285888671875,0.4954681396484375,-0.8467864990234375
21702,-0.2476043701171875,0.5007171630859375,-0.85272216796875
21703,-0.2380218505859375,0.506744384765625,-0.8551177978515625
21704,-0.22869873046875,0.506744384765625,-0.8537445068359375
21705,-0.2239837646484375,0.500274658203125,-0.8495330810546875
21706,-0.2239990234375,0.4898681640625,-0.843353271484375
21707,-0.2273712158203125,0.4793701171875,-0.843780517578125
21708,-0.2321624755859375,0.4736175537109375,-0.84197998046875
21709,-0.2347259521484375,0.4685211181640625,-0.8393402099609375
21710,-0.236785888671875,0.4670257568359375,-0.836669921875
21711,-0.2403411865234375,0.4691925048828125,-0.83575439453125
21712,-0.2440948486328125,0.471343994140625,-0.836883544921875
21713,-0.244476318359375,0.473876953125,-0.8388214111328125
21714,-0.24456787109375,0.47601318359375,-0.8401641845703125
21715,-0.2415313720703125,0.4782257080078125,-0.8400115966796875
21716,-0.23919677734375,0.480255126953125,-0.84161376953125
21717,-0.2407073974609375,0.4824676513671875,-0.84381103515625
21718,-0.2447509765625,0.4844207763671875,-0.8444671630859375
21719,-0.246826171875,0.4850006103515625,-0.8468170166015625
21720,-0.24713134765625,0.485504150390625,-0.8535308837890625
21721,-0.2468414306640625,0.4846954345703125,-0.85858154296875
21722,-0.24560546875,0.482696533203125,-0.858551025390625
21723,-0.243682861328125,0.4779205322265625,-0.8552398681640625
21724,-0.2387542724609375,0.4751739501953125,-0.8524322509765625
21725,-0.2331695556640625,0.4715576171875,-0.8531036376953125
21726,-0.2303466796875,0.4691925048828125,-0.8471527099609375
21727,-0.2313690185546875,0.46826171875,-0.838226318359375
21728,-0.2372589111328125,0.4682159423828125,-0.8368072509765625
21729,-0.24041748046875,0.4687347412109375,-0.838775634765625
21730,-0.23944091796875,0.4732513427734375,-0.8406829833984375
21731,-0.2378692626953125,0.4774169921875,-0.8394927978515625
21732,-0.235198974609375,0.4802703857421875,-0.83892822265625
21733,-0.2315216064453125,0.4842071533203125,-0.8387603759765625
21734,-0.226593017578125,0.4887847900390625,-0.841156005859375
21735,-0.2230072021484375,0.4934844970703125,-0.8463134765625
21736,-0.2187042236328125,0.499786376953125,-0.8466949462890625
21737,-0.213775634765625,0.5061798095703125,-0.8488922119140625
21738,-0.215972900390625,0.510772705078125,-0.85076904296875
21739,-0.2203216552734375,0.5128173828125,-0.8533172607421875
21740,-0.2254486083984375,0.51275634765625,-0.8555145263671875
21741,-0.23175048828125,0.5099945068359375,-0.854644775390625
21742,-0.235748291015625,0.5044708251953125,-0.8551025390625
21743,-0.2406768798828125,0.4962615966796875,-0.8517303466796875
21744,-0.2410125732421875,0.4892730712890625,-0.84649658203125
21745,-0.237091064453125,0.4837493896484375,-0.8429718017578125
21746,-0.2320098876953125,0.478363037109375,-0.8376312255859375
21747,-0.22955322265625,0.4728240966796875,-0.8343963623046875
21748,-0.2297821044921875,0.4667205810546875,-0.8318328857421875
21749,-0.2284393310546875,0.4648284912109375,-0.8293914794921875
21750,-0.2266845703125,0.4646759033203125,-0.8287353515625
21751,-0.2271881103515625,0.46728515625,-0.8304595947265625
21752,-0.22930908203125,0.4738006591796875,-0.832855224609375
21753,-0.2311553955078125,0.482147216796875,-0.8344268798828125
21754,-0.2313232421875,0.490325927734375,-0.837615966796875
21755,-0.2321014404296875,0.4947509765625,-0.8433685302734375
21756,-0.2332763671875,0.497894287109375,-0.8494720458984375
21757,-0.23382568359375,0.502197265625,-0.8513031005859375
21758,-0.2342987060546875,0.5078277587890625,-0.85101318359375
21759,-0.23370361328125,0.5110015869140625,-0.8547821044921875
21760,-0.2353668212890625,0.5110626220703125,-0.8598480224609375
21761,-0.235687255859375,0.5071868896484375,-0.8595733642578125
21762,-0.232879638671875,0.498931884765625,-0.8563385009765625
21763,-0.230133056640625,0.4894866943359375,-0.849273681640625
21764,-0.22833251953125,0.4787445068359375,-0.8447418212890625
21765,-0.229248046875,0.4705810546875,-0.8394927978515625
21766,-0.2336883544921875,0.4663238525390625,-0.8370361328125
21767,-0.2366485595703125,0.4642333984375,-0.8361358642578125
21768,-0.2386474609375,0.462921142578125,-0.83721923828125
21769,-0.236968994140625,0.462432861328125,-0.8392333984375
21770,-0.2317962646484375,0.4637603759765625,-0.842193603515625
21771,-0.22772216796875,0.466461181640625,-0.8465728759765625
21772,-0.2272186279296875,0.468658447265625,-0.8529052734375
21773,-0.23016357421875,0.466522216796875,-0.8603668212890625
21774,-0.232269287109375,0.464874267578125,-0.8637542724609375
21775,-0.236114501953125,0.468109130859375,-0.8615570068359375
21776,-0.24237060546875,0.4705657958984375,-0.8570098876953125
21777,-0.248931884765625,0.47320556640625,-0.8489990234375
21778,-0.2522125244140625,0.4764862060546875,-0.8422393798828125
21779,-0.2534332275390625,0.4788818359375,-0.838104248046875
21780,-0.25616455078125,0.4836883544921875,-0.836761474609375
21781,-0.2562103271484375,0.4901123046875,-0.837005615234375
21782,-0.2538299560546875,0.495697021484375,-0.8421478271484375
21783,-0.248779296875,0.5008087158203125,-0.84771728515625
21784,-0.2410888671875,0.50445556640625,-0.8542938232421875
21785,-0.2312164306640625,0.508148193359375,-0.855987548828125
21786,-0.221160888671875,0.51007080078125,-0.85931396484375
21787,-0.2132568359375,0.50885009765625,-0.8595733642578125
21788,-0.206512451171875,0.5065155029296875,-0.85504150390625
21789,-0.204193115234375,0.4991607666015625,-0.8504638671875
21790,-0.2047882080078125,0.4920654296875,-0.8427581787109375
21791,-0.2054290771484375,0.4838409423828125,-0.8385467529296875
21792,-0.20855712890625,0.4787750244140625,-0.8385162353515625
21793,-0.2147979736328125,0.4771881103515625,-0.840911865234375
21794,-0.220245361328125,0.4773406982421875,-0.83990478515625
21795,-0.2282867431640625,0.477020263671875,-0.837738037109375
21796,-0.2345428466796875,0.473480224609375,-0.8385009765625
21797,-0.2379608154296875,0.4669342041015625,-0.8485870361328125
21798,-0.2363739013671875,0.4611053466796875,-0.8520965576171875
21799,-0.2317657470703125,0.45703125,-0.8508453369140625
21800,-0.22662353515625,0.4524078369140625,-0.8476715087890625
21801,-0.222198486328125,0.4502410888671875,-0.848541259765625
21802,-0.219085693359375,0.44989013671875,-0.8482666015625
21803,-0.2189788818359375,0.4520263671875,-0.846435546875
21804,-0.224853515625,0.45538330078125,-0.8438720703125
21805,-0.232666015625,0.4618377685546875,-0.8446044921875
21806,-0.238006591796875,0.469635009765625,-0.850830078125
21807,-0.240386962890625,0.47576904296875,-0.8550872802734375
21808,-0.2390899658203125,0.481658935546875,-0.855010986328125
21809,-0.236175537109375,0.484893798828125,-0.8521270751953125
21810,-0.230621337890625,0.486053466796875,-0.846588134765625
21811,-0.2221832275390625,0.4870147705078125,-0.8431549072265625
21812,-0.213592529296875,0.489166259765625,-0.843902587890625
21813,-0.206451416015625,0.4929046630859375,-0.8447113037109375
21814,-0.1977386474609375,0.4986114501953125,-0.8462677001953125
21815,-0.190338134765625,0.504547119140625,-0.84942626953125
21816,-0.1872406005859375,0.50933837890625,-0.8521575927734375
21817,-0.1889495849609375,0.5134735107421875,-0.8538055419921875
21818,-0.195556640625,0.5173492431640625,-0.8527679443359375
21819,-0.2059783935546875,0.5178985595703125,-0.8546905517578125
21820,-0.2166748046875,0.5190277099609375,-0.8567657470703125
21821,-0.2275543212890625,0.518585205078125,-0.8604583740234375
21822,-0.23382568359375,0.5144500732421875,-0.868927001953125
21823,-0.2326507568359375,0.5097503662109375,-0.870819091796875
21824,-0.225555419921875,0.507293701171875,-0.86480712890625
21825,-0.2153472900390625,0.5036773681640625,-0.855682373046875
21826,-0.2046051025390625,0.4974212646484375,-0.85162353515625
21827,-0.1969757080078125,0.4922332763671875,-0.8476715087890625
21828,-0.1943511962890625,0.4874267578125,-0.8408660888671875
21829,-0.1977996826171875,0.4838104248046875,-0.8352813720703125
21830,-0.208038330078125,0.47802734375,-0.831207275390625
21831,-0.22210693359375,0.4726409912109375,-0.831634521484375
21832,-0.23370361328125,0.4660797119140625,-0.833465576171875
21833,-0.2400970458984375,0.4603271484375,-0.83526611328125
21834,-0.2457122802734375,0.4559173583984375,-0.8341217041015625
21835,-0.24774169921875,0.4554290771484375,-0.8302764892578125
21836,-0.2457427978515625,0.458953857421875,-0.8300933837890625
21837,-0.23980712890625,0.4642181396484375,-0.8349609375
21838,-0.2336883544921875,0.4695892333984375,-0.84307861328125
21839,-0.22796630859375,0.4747161865234375,-0.8480224609375
21840,-0.222015380859375,0.478515625,-0.85137939453125
21841,-0.219085693359375,0.4806671142578125,-0.8551025390625
21842,-0.21771240234375,0.480560302734375,-0.855865478515625
21843,-0.2190093994140625,0.4844970703125,-0.854339599609375
21844,-0.2206268310546875,0.490386962890625,-0.8533172607421875
21845,-0.2195281982421875,0.4991912841796875,-0.8514862060546875
21846,-0.2170562744140625,0.5059051513671875,-0.85064697265625
21847,-0.2139129638671875,0.50994873046875,-0.849761962890625
21848,-0.2077484130859375,0.511871337890625,-0.846435546875
21849,-0.2003173828125,0.5095367431640625,-0.8431854248046875
21850,-0.1989898681640625,0.5024871826171875,-0.8399658203125
21851,-0.1998291015625,0.4925384521484375,-0.837615966796875
21852,-0.2006683349609375,0.485809326171875,-0.83367919921875
21853,-0.2007598876953125,0.4824676513671875,-0.8339691162109375
21854,-0.1991424560546875,0.485198974609375,-0.8359375
21855,-0.1970977783203125,0.4963836669921875,-0.8393096923828125
21856,-0.193115234375,0.5123138427734375,-0.845977783203125
21857,-0.190185546875,0.5273895263671875,-0.853607177734375
21858,-0.18798828125,0.538482666015625,-0.861328125
21859,-0.1822509765625,0.5408782958984375,-0.867095947265625
21860,-0.1743621826171875,0.5340423583984375,-0.870697021484375
21861,-0.1670989990234375,0.5228118896484375,-0.864410400390625
21862,-0.164520263671875,0.510955810546875,-0.8564605712890625
21863,-0.16436767578125,0.5004425048828125,-0.8489532470703125
21864,-0.1668243408203125,0.4935150146484375,-0.8455963134765625
21865,-0.1717071533203125,0.488311767578125,-0.8460235595703125
21866,-0.1789093017578125,0.4871826171875,-0.844940185546875
21867,-0.18792724609375,0.49078369140625,-0.8412628173828125
21868,-0.1912384033203125,0.491943359375,-0.8403472900390625
21869,-0.1905975341796875,0.491668701171875,-0.843475341796875
21870,-0.188507080078125,0.4919586181640625,-0.848663330078125
21871,-0.183746337890625,0.4904632568359375,-0.854248046875
21872,-0.180908203125,0.4845428466796875,-0.8618927001953125
21873,-0.180877685546875,0.4777069091796875,-0.868804931640625
21874,-0.183837890625,0.46826171875,-0.8710174560546875
21875,-0.19073486328125,0.457916259765625,-0.865875244140625
21876,-0.2025604248046875,0.4445343017578125,-0.862579345703125
21877,-0.214630126953125,0.4323577880859375,-0.8602447509765625
21878,-0.22674560546875,0.423797607421875,-0.8611602783203125
21879,-0.236083984375,0.4209442138671875,-0.8595733642578125
21880,-0.2427825927734375,0.424224853515625,-0.85333251953125
21881,-0.2462158203125,0.4267120361328125,-0.850067138671875
21882,-0.2452239990234375,0.4349822998046875,-0.8516387939453125
21883,-0.2422332763671875,0.4471893310546875,-0.8530426025390625
21884,-0.2399749755859375,0.4609375,-0.85296630859375
21885,-0.236846923828125,0.4734344482421875,-0.8532257080078125
21886,-0.23321533203125,0.482879638671875,-0.856597900390625
21887,-0.227691650390625,0.4913330078125,-0.8596038818359375
21888,-0.21728515625,0.5007781982421875,-0.86083984375
21889,-0.2040252685546875,0.5115509033203125,-0.8632659912109375
21890,-0.190643310546875,0.51971435546875,-0.866241455078125
21891,-0.177886962890625,0.525299072265625,-0.8665771484375
21892,-0.168548583984375,0.5237274169921875,-0.86285400390625
21893,-0.1624755859375,0.5192718505859375,-0.855987548828125
21894,-0.1590423583984375,0.51416015625,-0.8503265380859375
21895,-0.1595306396484375,0.5110015869140625,-0.849151611328125
21896,-0.1644744873046875,0.507415771484375,-0.8447113037109375
21897,-0.17236328125,0.5020294189453125,-0.8439788818359375
21898,-0.1841278076171875,0.4972686767578125,-0.8438262939453125
21899,-0.1940460205078125,0.4925079345703125,-0.84466552734375
21900,-0.2037506103515625,0.4886627197265625,-0.850494384765625
21901,-0.2111663818359375,0.4849700927734375,-0.85919189453125
21902,-0.2148284912109375,0.4810791015625,-0.8694000244140625
21903,-0.213836669921875,0.4756622314453125,-0.87298583984375
21904,-0.2133331298828125,0.4666290283203125,-0.870513916015625
21905,-0.2135772705078125,0.4573211669921875,-0.86322021484375
21906,-0.2172698974609375,0.4500885009765625,-0.8537139892578125
21907,-0.2230987548828125,0.4447021484375,-0.8524932861328125
21908,-0.2266082763671875,0.444976806640625,-0.8548431396484375
21909,-0.228118896484375,0.4498443603515625,-0.853851318359375
21910,-0.226715087890625,0.452911376953125,-0.853607177734375
21911,-0.22314453125,0.4580535888671875,-0.8556976318359375
21912,-0.2177886962890625,0.4631195068359375,-0.8623504638671875
21913,-0.2089385986328125,0.4695587158203125,-0.866912841796875
21914,-0.201629638671875,0.4757232666015625,-0.8668975830078125
21915,-0.196533203125,0.48016357421875,-0.866363525390625
21916,-0.1926422119140625,0.481353759765625,-0.8643798828125
21917,-0.1916656494140625,0.4800567626953125,-0.8614501953125
21918,-0.1923675537109375,0.47833251953125,-0.8593597412109375
21919,-0.195068359375,0.4737396240234375,-0.8567657470703125
21920,-0.1969757080078125,0.470306396484375,-0.85467529296875
21921,-0.19818115234375,0.472381591796875,-0.8534698486328125
21922,-0.19921875,0.476104736328125,-0.8558807373046875
21923,-0.19873046875,0.47955322265625,-0.858673095703125
21924,-0.1974639892578125,0.485137939453125,-0.8593292236328125
21925,-0.1950225830078125,0.4890899658203125,-0.855010986328125
21926,-0.1932830810546875,0.487060546875,-0.851593017578125
21927,-0.1949462890625,0.4822998046875,-0.85015869140625
21928,-0.1977996826171875,0.479278564453125,-0.848968505859375
21929,-0.2000885009765625,0.47894287109375,-0.8515777587890625
21930,-0.20098876953125,0.4787750244140625,-0.8517303466796875
21931,-0.20318603515625,0.4814300537109375,-0.8510589599609375
21932,-0.2057952880859375,0.4840240478515625,-0.8509674072265625
21933,-0.20849609375,0.4865570068359375,-0.85308837890625
21934,-0.21051025390625,0.488739013671875,-0.8575897216796875
21935,-0.2122802734375,0.48931884765625,-0.863372802734375
21936,-0.2146453857421875,0.487640380859375,-0.8643341064453125
21937,-0.2172698974609375,0.48297119140625,-0.8612213134765625
21938,-0.2157135009765625,0.478118896484375,-0.85150146484375
21939,-0.2156982421875,0.4749603271484375,-0.84259033203125
21940,-0.21759033203125,0.4733428955078125,-0.8402252197265625
21941,-0.220977783203125,0.472503662109375,-0.8476715087890625
21942,-0.2223052978515625,0.4707489013671875,-0.8557586669921875
