time_idx,accelerometerAccelerationX(G),accelerometerAccelerationY(G),accelerometerAccelerationZ(G)
100000,-0.066131591796875,0.7593994140625,0.847686767578125
100001,-0.031890869140625,0.743621826171875,0.8190765380859375
100002,0.0102081298828125,0.725860595703125,0.7520751953125
100003,0.0696868896484375,0.70159912109375,0.650360107421875
100004,0.131256103515625,0.667633056640625,0.533203125
100005,0.1875,0.6137237548828125,0.416046142578125
100006,0.2356414794921875,0.5626678466796875,0.3503875732421875
100007,0.287841796875,0.552459716796875,0.3182220458984375
100008,0.322906494140625,0.5640869140625,0.3031768798828125
100009,0.3326263427734375,0.5816497802734375,0.32171630859375
100010,0.3243865966796875,0.60223388671875,0.3850860595703125
100011,0.3378753662109375,0.6278839111328125,0.4724884033203125
100012,0.3509674072265625,0.6762542724609375,0.4910125732421875
100013,0.3532257080078125,0.7997589111328125,0.42919921875
100014,0.3778228759765625,0.9419097900390624,0.3889923095703125
100015,0.4067840576171875,0.98773193359375,0.316131591796875
100016,0.43389892578125,1.079803466796875,0.2534332275390625
100017,0.4339752197265625,1.211563110351562,0.2672271728515625
100018,0.424285888671875,1.291534423828125,0.344940185546875
100019,0.4439544677734375,1.3194580078125,0.463958740234375
100020,0.4781494140625,1.302978515625,0.527923583984375
100021,0.51739501953125,1.255325317382812,0.522552490234375
100022,0.5216827392578125,1.1903076171875,0.483551025390625
100023,0.471282958984375,1.115142822265625,0.4066314697265625
100024,0.423431396484375,1.044158935546875,0.350433349609375
100025,0.4027557373046875,0.970123291015625,0.3690643310546875
100026,0.3908843994140625,0.883270263671875,0.41015625
100027,0.367279052734375,0.8083648681640625,0.4678955078125
100028,0.3350830078125,0.75146484375,0.5412139892578125
100029,0.3074951171875,0.6711883544921875,0.6270904541015625
100030,0.2900390625,0.605010986328125,0.6795196533203125
100031,0.2599945068359375,0.565155029296875,0.69464111328125
100032,0.20977783203125,0.5227508544921875,0.7055511474609375
100033,0.137237548828125,0.4693450927734375,0.7451629638671875
100034,0.0559844970703125,0.4444427490234375,0.8058929443359375
100035,-0.0276641845703125,0.4001312255859375,0.8491363525390625
100036,-0.1034698486328125,0.3462982177734375,0.8957366943359375
100037,-0.1751251220703125,0.3261260986328125,0.9785308837890624
100038,-0.24578857421875,0.300567626953125,1.090896606445312
100039,-0.312957763671875,0.292999267578125,1.2010498046875
100040,-0.3726806640625,0.313140869140625,1.279632568359375
100041,-0.4182281494140625,0.3325958251953125,1.321823120117188
100042,-0.4372711181640625,0.363677978515625,1.316299438476562
100043,-0.4333648681640625,0.4050445556640625,1.262100219726562
100044,-0.3917999267578125,0.45037841796875,1.179855346679688
100045,-0.2940673828125,0.478851318359375,1.08013916015625
100046,-0.1444244384765625,0.4763031005859375,0.975799560546875
100047,0.016265869140625,0.474639892578125,0.8814849853515625
100048,0.14093017578125,0.4888916015625,0.788604736328125
100049,0.2211151123046875,0.536102294921875,0.7337493896484375
100050,0.2630767822265625,0.591827392578125,0.7270050048828125
100051,0.267303466796875,0.6353912353515625,0.7210845947265625
100052,0.2510986328125,0.6947021484375,0.7039337158203125
100053,0.209442138671875,0.7425994873046875,0.6524505615234375
100054,0.1582183837890625,0.7415313720703125,0.5906524658203125
100055,0.101409912109375,0.704620361328125,0.5415496826171875
100056,0.0496826171875,0.6659088134765625,0.500579833984375
100057,0.0058135986328125,0.6455535888671875,0.4900360107421875
100058,-0.030609130859375,0.6394805908203125,0.514068603515625
100059,-0.0578460693359375,0.6541595458984375,0.5607147216796875
100060,-0.07080078125,0.68658447265625,0.6267852783203125
100061,-0.054412841796875,0.7180938720703125,0.7161102294921875
100062,0.017181396484375,0.7299652099609375,0.8077239990234375
100063,0.137176513671875,0.720550537109375,0.850555419921875
100064,0.281524658203125,0.7046966552734375,0.8155975341796875
100065,0.4185028076171875,0.6865081787109375,0.70458984375
100066,0.5212860107421875,0.673065185546875,0.53985595703125
100067,0.5855255126953125,0.647125244140625,0.3923187255859375
100068,0.6015777587890625,0.621856689453125,0.297821044921875
100069,0.5634307861328125,0.6143646240234375,0.28472900390625
100070,0.500396728515625,0.6271514892578125,0.38824462890625
100071,0.4445037841796875,0.62890625,0.545867919921875
100072,0.4099578857421875,0.631072998046875,0.6518402099609375
100073,0.40777587890625,0.6524505615234375,0.6832275390625
100074,0.4470977783203125,0.6738433837890625,0.72137451171875
100075,0.5106964111328125,0.6845550537109375,0.7282867431640625
100076,0.5648040771484375,0.6819915771484375,0.6792755126953125
100077,0.5923004150390625,0.66748046875,0.5970611572265625
100078,0.5461883544921875,0.65118408203125,0.5599365234375
100079,0.43719482421875,0.661163330078125,0.5996551513671875
100080,0.32208251953125,0.673553466796875,0.6619720458984375
100081,0.22265625,0.685699462890625,0.7180938720703125
100082,0.13616943359375,0.6988067626953125,0.799468994140625
100083,0.0657501220703125,0.6786651611328125,0.885345458984375
100084,0.0224761962890625,0.65338134765625,0.9378509521484376
100085,-0.0174560546875,0.631591796875,0.9479827880859376
100086,-0.0595703125,0.62127685546875,0.9444427490234376
100087,-0.1129913330078125,0.59906005859375,0.9422454833984376
100088,-0.1897430419921875,0.5897064208984375,0.99737548828125
100089,-0.272796630859375,0.5784454345703125,1.077194213867188
100090,-0.342071533203125,0.589263916015625,1.114990234375
100091,-0.40008544921875,0.605499267578125,1.125747680664062
100092,-0.4420928955078125,0.6142578125,1.129913330078125
100093,-0.4523468017578125,0.630035400390625,1.12939453125
100094,-0.432373046875,0.657135009765625,1.089691162109375
100095,-0.3947601318359375,0.679534912109375,1.032806396484375
100096,-0.33612060546875,0.6936798095703125,1.017578125
100097,-0.2483367919921875,0.70166015625,1.034408569335938
100098,-0.1452789306640625,0.70245361328125,1.050201416015625
100099,-0.057891845703125,0.69732666015625,1.034164428710938
100100,0.0139617919921875,0.6880950927734375,0.9889373779296876
100101,0.090667724609375,0.6685943603515625,0.92816162109375
100102,0.1549530029296875,0.621337890625,0.8464813232421875
100103,0.2056732177734375,0.5566864013671875,0.75604248046875
100104,0.2431640625,0.5106353759765625,0.6563262939453125
100105,0.27532958984375,0.49658203125,0.5947113037109375
100106,0.310211181640625,0.5223236083984375,0.5956573486328125
100107,0.3465728759765625,0.5679931640625,0.602294921875
100108,0.380584716796875,0.5777435302734375,0.586700439453125
100109,0.38311767578125,0.612579345703125,0.601654052734375
100110,0.362213134765625,0.5959930419921875,0.60955810546875
100111,0.3343658447265625,0.533538818359375,0.5998992919921875
100112,0.307708740234375,0.5019989013671875,0.5890045166015625
100113,0.287994384765625,0.4978179931640625,0.5888824462890625
100114,0.258331298828125,0.5009002685546875,0.57861328125
100115,0.2356414794921875,0.4904937744140625,0.561248779296875
100116,0.2062225341796875,0.5418548583984375,0.54962158203125
100117,0.1877899169921875,0.64654541015625,0.549591064453125
100118,0.196685791015625,0.7665252685546875,0.5800018310546875
100119,0.2194976806640625,0.8216094970703125,0.589019775390625
100120,0.223785400390625,0.8516845703125,0.553131103515625
100121,0.2217254638671875,0.92108154296875,0.5531463623046875
100122,0.2491302490234375,0.9874267578125,0.5685882568359375
100123,0.3057708740234375,1.0325927734375,0.531463623046875
100124,0.385009765625,1.03265380859375,0.4694976806640625
100125,0.4584197998046875,1.013381958007812,0.4106597900390625
100126,0.4918975830078125,1.003646850585938,0.3973388671875
100127,0.4947052001953125,0.9978179931640624,0.423858642578125
100128,0.46820068359375,0.984283447265625,0.4589385986328125
100129,0.4196929931640625,0.9431915283203124,0.483245849609375
100130,0.363922119140625,0.8855438232421875,0.4828033447265625
100131,0.314910888671875,0.81634521484375,0.4786376953125
100132,0.2820281982421875,0.763427734375,0.48333740234375
100133,0.2612457275390625,0.7258758544921875,0.50384521484375
100134,0.2397003173828125,0.67633056640625,0.5509796142578125
100135,0.214996337890625,0.63232421875,0.6247711181640625
100136,0.1848907470703125,0.594970703125,0.7076568603515625
100137,0.1509552001953125,0.5771026611328125,0.7616119384765625
100138,0.1038665771484375,0.55523681640625,0.7937469482421875
100139,0.0440216064453125,0.5270843505859375,0.818695068359375
100140,-0.0059814453125,0.476104736328125,0.8213043212890625
100141,-0.0747222900390625,0.431488037109375,0.831573486328125
100142,-0.1661529541015625,0.398590087890625,0.87725830078125
100143,-0.25433349609375,0.3551025390625,0.943206787109375
100144,-0.339630126953125,0.3286590576171875,1.038528442382812
100145,-0.4057159423828125,0.3271636962890625,1.165725708007812
100146,-0.4576568603515625,0.3507537841796875,1.296844482421875
100147,-0.4943084716796875,0.37554931640625,1.38623046875
100148,-0.4891815185546875,0.394317626953125,1.435348510742188
100149,-0.4525909423828125,0.4108734130859375,1.431488037109375
100150,-0.3743133544921875,0.396575927734375,1.370895385742188
100151,-0.2424163818359375,0.352081298828125,1.255325317382812
100152,-0.1057586669921875,0.308837890625,1.079666137695312
100153,0.0431976318359375,0.2996826171875,0.9076080322265624
100154,0.204010009765625,0.4201202392578125,0.826171875
100155,0.3500213623046875,0.5987548828125,0.7995452880859375
100156,0.4423065185546875,0.745819091796875,0.7753448486328125
100157,0.4902191162109375,0.852569580078125,0.73236083984375
100158,0.5046844482421875,0.915557861328125,0.6816558837890625
100159,0.4940032958984375,0.945892333984375,0.6555023193359375
100160,0.4701385498046875,0.9505462646484376,0.6320037841796875
100161,0.4172515869140625,0.911773681640625,0.596527099609375
100162,0.3404998779296875,0.8319854736328125,0.5625762939453125
100163,0.243743896484375,0.7545013427734375,0.51080322265625
100164,0.131317138671875,0.7018890380859375,0.4778594970703125
100165,0.0142974853515625,0.674652099609375,0.4687042236328125
100166,-0.0857086181640625,0.6319732666015625,0.461212158203125
100167,-0.1503753662109375,0.5648193359375,0.4461212158203125
100168,-0.177734375,0.5321197509765625,0.485198974609375
100169,-0.169097900390625,0.52655029296875,0.545806884765625
100170,-0.115325927734375,0.5426483154296875,0.619537353515625
100171,-0.0271759033203125,0.5938568115234375,0.7076263427734375
100172,0.080657958984375,0.6478424072265625,0.7571563720703125
100173,0.2130126953125,0.6958465576171875,0.7512664794921875
100174,0.341644287109375,0.7321624755859375,0.688018798828125
100175,0.432159423828125,0.7606048583984375,0.5859527587890625
100176,0.4593048095703125,0.7831268310546875,0.4918975830078125
100177,0.41754150390625,0.8291473388671875,0.45587158203125
100178,0.3538665771484375,0.8766937255859375,0.489990234375
100179,0.329925537109375,0.9083251953125,0.55609130859375
100180,0.3328857421875,0.9352874755859376,0.615325927734375
100181,0.34686279296875,0.941253662109375,0.64105224609375
100182,0.3678436279296875,0.9224700927734376,0.634735107421875
100183,0.39483642578125,0.8772430419921875,0.586822509765625
100184,0.414947509765625,0.817108154296875,0.5155487060546875
100185,0.41552734375,0.75543212890625,0.477996826171875
100186,0.39959716796875,0.7182464599609375,0.4942474365234375
100187,0.3542938232421875,0.6950836181640625,0.5427398681640625
100188,0.287384033203125,0.6800994873046875,0.597320556640625
100189,0.2216796875,0.6486968994140625,0.62689208984375
100190,0.16192626953125,0.6173248291015625,0.6385345458984375
100191,0.11541748046875,0.60943603515625,0.6285552978515625
100192,0.0921478271484375,0.566497802734375,0.6100311279296875
100193,0.07733154296875,0.5135955810546875,0.613616943359375
100194,0.0684967041015625,0.4730682373046875,0.6553802490234375
100195,0.05633544921875,0.446014404296875,0.755584716796875
100196,0.0027008056640625,0.44073486328125,0.852508544921875
100197,-0.0970611572265625,0.426849365234375,0.9715576171875
100198,-0.2060699462890625,0.435516357421875,1.110397338867188
100199,-0.321502685546875,0.4732208251953125,1.203231811523438
100200,-0.4450225830078125,0.5131988525390625,1.226226806640625
100201,-0.5270538330078125,0.5343017578125,1.222732543945312
100202,-0.5372161865234375,0.5496978759765625,1.222579956054688
100203,-0.511627197265625,0.61529541015625,1.199859619140625
100204,-0.4490203857421875,0.7046661376953125,1.1689453125
100205,-0.33447265625,0.7650146484375,1.139297485351562
100206,-0.204864501953125,0.7906494140625,1.106475830078125
100207,-0.112274169921875,0.7924652099609375,1.074737548828125
100208,-0.05865478515625,0.7789154052734375,1.059280395507812
100209,-0.010528564453125,0.7412567138671875,1.042373657226562
100210,0.034637451171875,0.704345703125,1.026168823242188
100211,0.0711212158203125,0.675933837890625,0.9886627197265624
100212,0.114593505859375,0.64404296875,0.94415283203125
100213,0.16473388671875,0.6066741943359375,0.8379974365234375
100214,0.217742919921875,0.5740966796875,0.7011871337890625
100215,0.2738037109375,0.5570220947265625,0.57464599609375
100216,0.3264312744140625,0.5669403076171875,0.5085296630859375
100217,0.382537841796875,0.5879364013671875,0.5311431884765625
100218,0.431671142578125,0.5999908447265625,0.5777130126953125
100219,0.458648681640625,0.581024169921875,0.597381591796875
100220,0.439697265625,0.54864501953125,0.5717315673828125
100221,0.3846588134765625,0.4885406494140625,0.5133056640625
100222,0.30987548828125,0.4028778076171875,0.50518798828125
100223,0.2117919921875,0.39739990234375,0.5713958740234375
100224,0.1055145263671875,0.4000091552734375,0.6551513671875
100225,0.0132293701171875,0.42132568359375,0.68463134765625
100226,-0.0155181884765625,0.46978759765625,0.62982177734375
100227,0.05731201171875,0.6433563232421875,0.509368896484375
100228,0.1935272216796875,0.88031005859375,0.3459930419921875
100229,0.2923126220703125,1.01007080078125,0.2531890869140625
100230,0.3393096923828125,1.10064697265625,0.2981109619140625
100231,0.406982421875,1.2296142578125,0.418548583984375
100232,0.4858856201171875,1.338455200195312,0.5139617919921875
100233,0.527801513671875,1.340927124023438,0.5381927490234375
100234,0.5690765380859375,1.257492065429688,0.5286407470703125
100235,0.5772247314453125,1.15655517578125,0.5152130126953125
100236,0.5125885009765625,1.112579345703125,0.4897308349609375
100237,0.421966552734375,1.066909790039062,0.4659881591796875
100238,0.35064697265625,0.99365234375,0.4720306396484375
100239,0.3114776611328125,0.914215087890625,0.488739013671875
100240,0.302490234375,0.849334716796875,0.5026397705078125
100241,0.3120269775390625,0.782012939453125,0.5167694091796875
100242,0.3243865966796875,0.719146728515625,0.5230712890625
100243,0.3397369384765625,0.6374664306640625,0.54180908203125
100244,0.34393310546875,0.551116943359375,0.5929412841796875
100245,0.321533203125,0.4774627685546875,0.646575927734375
100246,0.27996826171875,0.408538818359375,0.7174072265625
100247,0.2410125732421875,0.3582916259765625,0.7788238525390625
100248,0.1864166259765625,0.3417816162109375,0.8115081787109375
100249,0.0850372314453125,0.28619384765625,0.8118133544921875
100250,-0.0571441650390625,0.2271728515625,0.8188018798828125
100251,-0.204925537109375,0.195037841796875,0.860809326171875
100252,-0.3318328857421875,0.1863250732421875,0.9269561767578124
100253,-0.4214935302734375,0.175994873046875,1.026458740234375
100254,-0.4544677734375,0.1826934814453125,1.170074462890625
100255,-0.434417724609375,0.21783447265625,1.321884155273438
100256,-0.3906097412109375,0.2636566162109375,1.410842895507812
100257,-0.3193511962890625,0.3273773193359375,1.426864624023438
100258,-0.238616943359375,0.398712158203125,1.420608520507812
100259,-0.1649627685546875,0.4692535400390625,1.363082885742188
100260,-0.0755615234375,0.5270538330078125,1.220962524414062
100261,0.046356201171875,0.5764312744140625,1.037490844726562
100262,0.169525146484375,0.641143798828125,0.8616180419921875
100263,0.263946533203125,0.7294921875,0.749603271484375
100264,0.3303985595703125,0.81781005859375,0.71588134765625
100265,0.374237060546875,0.88385009765625,0.720977783203125
100266,0.4001617431640625,0.91680908203125,0.7097930908203125
100267,0.4029083251953125,0.9033355712890624,0.6732635498046875
100268,0.371978759765625,0.84783935546875,0.6334991455078125
100269,0.302642822265625,0.7732391357421875,0.614227294921875
100270,0.200103759765625,0.7026519775390625,0.5818634033203125
100271,0.0791778564453125,0.636474609375,0.5336761474609375
100272,-0.0375213623046875,0.59625244140625,0.49920654296875
100273,-0.11553955078125,0.5936737060546875,0.4998779296875
100274,-0.1259765625,0.605621337890625,0.526824951171875
100275,-0.0772552490234375,0.6370849609375,0.590606689453125
100276,0.0071868896484375,0.6660614013671875,0.6310882568359375
100277,0.1212158203125,0.6611480712890625,0.60723876953125
100278,0.2623291015625,0.651458740234375,0.5352630615234375
100279,0.4151611328125,0.6544342041015625,0.431854248046875
100280,0.5424346923828125,0.66583251953125,0.3322906494140625
100281,0.6301116943359375,0.6808319091796875,0.297210693359375
100282,0.65643310546875,0.6912994384765625,0.3292083740234375
100283,0.6248931884765625,0.727996826171875,0.42431640625
100284,0.5598297119140625,0.760833740234375,0.5474700927734375
100285,0.48211669921875,0.7718353271484375,0.6451263427734375
100286,0.42840576171875,0.78765869140625,0.6680908203125
100287,0.40216064453125,0.79852294921875,0.6138763427734375
100288,0.3989410400390625,0.78485107421875,0.534332275390625
100289,0.4000396728515625,0.76177978515625,0.473541259765625
100290,0.393218994140625,0.7563629150390625,0.46484375
100291,0.3632049560546875,0.757568359375,0.520294189453125
100292,0.330108642578125,0.740234375,0.63262939453125
100293,0.282440185546875,0.74072265625,0.725555419921875
100294,0.22100830078125,0.7393035888671875,0.7708892822265625
100295,0.15985107421875,0.71728515625,0.777191162109375
100296,0.0828399658203125,0.6486358642578125,0.782684326171875
100297,-0.0161285400390625,0.5808868408203125,0.811309814453125
100298,-0.13128662109375,0.5641937255859375,0.865386962890625
100299,-0.2589874267578125,0.5594635009765625,0.9404449462890624
100300,-0.3879547119140625,0.5813140869140625,1.033706665039062
100301,-0.49908447265625,0.5937347412109375,1.114059448242188
100302,-0.587890625,0.598297119140625,1.188140869140625
100303,-0.6387176513671875,0.620574951171875,1.2557373046875
100304,-0.6507568359375,0.63397216796875,1.266448974609375
100305,-0.6157684326171875,0.650115966796875,1.246002197265625
100306,-0.537811279296875,0.69873046875,1.210601806640625
100307,-0.4556427001953125,0.7365264892578125,1.170806884765625
100308,-0.3777008056640625,0.7527618408203125,1.110763549804688
100309,-0.300811767578125,0.7654266357421875,1.059661865234375
100310,-0.2558441162109375,0.7703094482421875,1.023681640625
100311,-0.240753173828125,0.76434326171875,1.036544799804688
100312,-0.235870361328125,0.7550048828125,1.0693359375
100313,-0.2176055908203125,0.7564239501953125,1.070724487304688
100314,-0.19012451171875,0.7491607666015625,1.02435302734375
100315,-0.143035888671875,0.7230682373046875,0.92120361328125
100316,-0.0688018798828125,0.6632843017578125,0.778472900390625
100317,0.0360260009765625,0.6170806884765625,0.638275146484375
100318,0.16949462890625,0.614898681640625,0.52001953125
100319,0.2986602783203125,0.628082275390625,0.447021484375
100320,0.3834686279296875,0.6363067626953125,0.4197998046875
100321,0.3983306884765625,0.59857177734375,0.4167327880859375
100322,0.378204345703125,0.522735595703125,0.3978424072265625
100323,0.38525390625,0.4986724853515625,0.3771820068359375
100324,0.4411468505859375,0.503692626953125,0.4138946533203125
100325,0.511260986328125,0.5028839111328125,0.4439697265625
100326,0.5819549560546875,0.49969482421875,0.402252197265625
100327,0.618499755859375,0.5574951171875,0.36614990234375
100328,0.6002197265625,0.715728759765625,0.3701934814453125
100329,0.5444183349609375,0.8360137939453125,0.3878173828125
100330,0.509979248046875,0.830657958984375,0.3216705322265625
100331,0.508575439453125,0.9455718994140624,0.292816162109375
100332,0.530609130859375,1.08636474609375,0.335113525390625
100333,0.5507965087890625,1.165237426757812,0.391204833984375
100334,0.5351409912109375,1.168930053710938,0.407501220703125
100335,0.486724853515625,1.123550415039062,0.4227447509765625
100336,0.4246368408203125,1.054412841796875,0.455963134765625
100337,0.3516082763671875,0.9939727783203124,0.4981689453125
100338,0.2855377197265625,0.9388275146484376,0.5240478515625
100339,0.2259368896484375,0.873809814453125,0.5494842529296875
100340,0.19036865234375,0.8282318115234375,0.585357666015625
100341,0.1897430419921875,0.786834716796875,0.6235504150390625
100342,0.1965789794921875,0.7428741455078125,0.651641845703125
100343,0.193603515625,0.7147674560546875,0.664520263671875
100344,0.188232421875,0.692413330078125,0.6686248779296875
100345,0.18719482421875,0.660797119140625,0.6839141845703125
100346,0.175384521484375,0.58038330078125,0.71051025390625
100347,0.13226318359375,0.535736083984375,0.760406494140625
100348,0.081817626953125,0.5070953369140625,0.8307952880859375
100349,0.0302581787109375,0.4661712646484375,0.9029998779296876
100350,-0.028045654296875,0.4337005615234375,0.954315185546875
100351,-0.1103668212890625,0.4210205078125,0.9684295654296876
100352,-0.199493408203125,0.3913421630859375,1.017990112304688
100353,-0.3080902099609375,0.328033447265625,1.139328002929688
100354,-0.4217071533203125,0.279327392578125,1.335891723632812
100355,-0.4724273681640625,0.298309326171875,1.452346801757812
100356,-0.44549560546875,0.3431243896484375,1.217300415039062
100357,-0.3916473388671875,0.3319244384765625,0.993804931640625
100358,-0.397613525390625,0.3043212890625,0.958892822265625
100359,-0.416473388671875,0.3344573974609375,1.058120727539062
100360,-0.41357421875,0.369415283203125,1.150238037109375
100361,-0.3604888916015625,0.3673553466796875,1.158309936523438
100362,-0.2237701416015625,0.3780975341796875,1.081329345703125
100363,-0.0607452392578125,0.4175262451171875,0.9692535400390624
100364,0.081817626953125,0.5169677734375,0.856658935546875
100365,0.1762542724609375,0.6478118896484375,0.768585205078125
100366,0.2341156005859375,0.7667694091796875,0.73223876953125
100367,0.2841033935546875,0.8480987548828125,0.728424072265625
100368,0.31805419921875,0.8807525634765625,0.7223052978515625
100369,0.3338470458984375,0.864898681640625,0.6851348876953125
100370,0.34722900390625,0.8148651123046875,0.6175994873046875
100371,0.324859619140625,0.7597198486328125,0.530059814453125
100372,0.2566375732421875,0.70062255859375,0.4752349853515625
100373,0.16705322265625,0.673553466796875,0.4955596923828125
100374,0.0818939208984375,0.68084716796875,0.557098388671875
100375,0.009307861328125,0.7146453857421875,0.6190338134765625
100376,-0.0368499755859375,0.7569427490234375,0.6688690185546875
100377,-0.04705810546875,0.781890869140625,0.7002410888671875
100378,-0.0008087158203125,0.7736663818359375,0.698089599609375
100379,0.105712890625,0.7350616455078125,0.659820556640625
100380,0.2387237548828125,0.681549072265625,0.5795745849609375
100381,0.3631439208984375,0.6567840576171875,0.4734344482421875
100382,0.471099853515625,0.654815673828125,0.3710479736328125
100383,0.558349609375,0.6443939208984375,0.308258056640625
100384,0.5931549072265625,0.6497344970703125,0.3245086669921875
100385,0.5703582763671875,0.6773681640625,0.4092864990234375
100386,0.501312255859375,0.689178466796875,0.5303497314453125
100387,0.4247894287109375,0.6897735595703125,0.6201934814453125
100388,0.37432861328125,0.70233154296875,0.64508056640625
100389,0.3354949951171875,0.7207794189453125,0.616607666015625
100390,0.3167724609375,0.73052978515625,0.5519561767578125
100391,0.333099365234375,0.7351226806640625,0.4720916748046875
100392,0.367706298828125,0.7270660400390625,0.4291229248046875
100393,0.380340576171875,0.705535888671875,0.4590301513671875
100394,0.3607940673828125,0.6904449462890625,0.53326416015625
100395,0.3313751220703125,0.710540771484375,0.6237640380859375
100396,0.299163818359375,0.7339935302734375,0.705902099609375
100397,0.2377166748046875,0.7118988037109375,0.739959716796875
100398,0.1656646728515625,0.6681060791015625,0.764862060546875
100399,0.09039306640625,0.664825439453125,0.777130126953125
100400,0.000457763671875,0.663299560546875,0.7923126220703125
100401,-0.1157379150390625,0.644378662109375,0.825286865234375
100402,-0.2521514892578125,0.64208984375,0.893524169921875
100403,-0.368377685546875,0.6473846435546875,0.9960479736328124
100404,-0.4688262939453125,0.670196533203125,1.04345703125
100405,-0.551788330078125,0.7069549560546875,1.061019897460938
100406,-0.592803955078125,0.7317047119140625,1.110763549804688
100407,-0.584686279296875,0.7540130615234375,1.18389892578125
100408,-0.5630035400390625,0.7759246826171875,1.257339477539062
100409,-0.556640625,0.7994232177734375,1.290878295898438
100410,-0.54974365234375,0.81121826171875,1.2359619140625
100411,-0.51324462890625,0.8155517578125,1.15118408203125
100412,-0.4597320556640625,0.8293914794921875,1.048660278320312
100413,-0.390380859375,0.828857421875,0.9428253173828124
100414,-0.3052978515625,0.7767486572265625,0.866424560546875
100415,-0.1922454833984375,0.7130889892578125,0.7997283935546875
100416,-0.07073974609375,0.670013427734375,0.733673095703125
100417,0.03497314453125,0.645904541015625,0.672821044921875
100418,0.13629150390625,0.6231231689453125,0.631622314453125
100419,0.2290802001953125,0.59027099609375,0.5884246826171875
100420,0.30450439453125,0.587432861328125,0.5161895751953125
100421,0.3754425048828125,0.6118316650390625,0.4332427978515625
100422,0.442108154296875,0.6327972412109375,0.3759613037109375
100423,0.4910125732421875,0.6498565673828125,0.38043212890625
100424,0.485107421875,0.69000244140625,0.450042724609375
100425,0.44598388671875,0.708038330078125,0.525115966796875
100426,0.412994384765625,0.7111358642578125,0.5461578369140625
100427,0.386199951171875,0.7356109619140625,0.5041961669921875
100428,0.3660736083984375,0.741943359375,0.42864990234375
100429,0.3377685546875,0.774627685546875,0.368682861328125
100430,0.2971649169921875,0.8975982666015625,0.36541748046875
100431,0.2681884765625,0.9956512451171876,0.3891754150390625
100432,0.2534027099609375,1.046371459960938,0.409515380859375
100433,0.2649993896484375,1.116378784179688,0.45025634765625
100434,0.3107452392578125,1.168563842773438,0.5019073486328125
100435,0.3549652099609375,1.201202392578125,0.553741455078125
100436,0.4090118408203125,1.221282958984375,0.5981903076171875
100437,0.43756103515625,1.192825317382812,0.5947418212890625
100438,0.4301605224609375,1.100021362304688,0.5451812744140625
100439,0.40875244140625,0.9785614013671876,0.509307861328125
100440,0.387451171875,0.8912506103515625,0.48065185546875
100441,0.384307861328125,0.82550048828125,0.4828643798828125
100442,0.36370849609375,0.7850341796875,0.4308319091796875
100443,0.3330841064453125,0.7532196044921875,0.3278656005859375
100444,0.314056396484375,0.6960601806640625,0.253936767578125
100445,0.246856689453125,0.5970611572265625,0.3599853515625
100446,0.1522979736328125,0.5610504150390625,0.5397796630859375
100447,0.092376708984375,0.557525634765625,0.7140045166015625
100448,0.064208984375,0.540679931640625,0.8375701904296875
100449,0.058685302734375,0.5701904296875,0.87109375
100450,0.0480499267578125,0.56756591796875,0.8705596923828125
100451,0.020111083984375,0.5090484619140625,0.86871337890625
100452,-0.029876708984375,0.4681549072265625,0.84759521484375
100453,-0.1015167236328125,0.4288330078125,0.8396759033203125
100454,-0.1866455078125,0.38214111328125,0.8473968505859375
100455,-0.2782440185546875,0.34075927734375,0.8743896484375
100456,-0.3722686767578125,0.3004913330078125,0.9524078369140624
100457,-0.468780517578125,0.286407470703125,1.051437377929688
100458,-0.552337646484375,0.2932281494140625,1.12335205078125
100459,-0.6097412109375,0.3054046630859375,1.148300170898438
100460,-0.6129302978515625,0.3144073486328125,1.142196655273438
100461,-0.553436279296875,0.315185546875,1.103134155273438
100462,-0.4336700439453125,0.3170166015625,1.051773071289062
100463,-0.2709503173828125,0.3471832275390625,1.00341796875
100464,-0.083343505859375,0.40496826171875,0.9663543701171876
100465,0.107940673828125,0.471343994140625,0.92034912109375
100466,0.279541015625,0.5687713623046875,0.88885498046875
100467,0.4119415283203125,0.70159912109375,0.8748626708984375
100468,0.506988525390625,0.833282470703125,0.866455078125
100469,0.5740966796875,0.908233642578125,0.808197021484375
100470,0.5922698974609375,0.9345703125,0.7014007568359375
100471,0.541717529296875,0.9617462158203124,0.621490478515625
100472,0.4439239501953125,0.9575958251953124,0.5864715576171875
100473,0.3539886474609375,0.9008636474609376,0.5568084716796875
100474,0.30224609375,0.798553466796875,0.5654144287109375
100475,0.268341064453125,0.6823883056640625,0.613739013671875
100476,0.204345703125,0.639434814453125,0.652618408203125
100477,0.1008453369140625,0.654876708984375,0.6664886474609375
100478,-0.008880615234375,0.6277923583984375,0.6855316162109375
100479,-0.097564697265625,0.5832977294921875,0.716949462890625
100480,-0.1414794921875,0.5941162109375,0.7420501708984375
100481,-0.1138458251953125,0.6325531005859375,0.7660980224609375
100482,-0.0253753662109375,0.654510498046875,0.7687225341796875
100483,0.1025390625,0.641387939453125,0.7183380126953125
100484,0.24688720703125,0.6295013427734375,0.641815185546875
100485,0.376312255859375,0.65252685546875,0.548248291015625
100486,0.4637908935546875,0.6873626708984375,0.48388671875
100487,0.5046844482421875,0.717620849609375,0.484130859375
100488,0.4988250732421875,0.7327117919921875,0.58013916015625
100489,0.4326171875,0.7274932861328125,0.6836090087890625
100490,0.3495025634765625,0.692413330078125,0.7273712158203125
100491,0.3299102783203125,0.675506591796875,0.7305450439453125
100492,0.3502655029296875,0.6880035400390625,0.686309814453125
100493,0.3697967529296875,0.7140045166015625,0.5666961669921875
100494,0.380523681640625,0.7237091064453125,0.4203033447265625
100495,0.35906982421875,0.7058258056640625,0.4056243896484375
100496,0.300811767578125,0.69403076171875,0.5099029541015625
100497,0.238067626953125,0.701873779296875,0.6116485595703125
100498,0.1864013671875,0.6929931640625,0.6603851318359375
100499,0.1452789306640625,0.6339569091796875,0.6726531982421875
100500,0.11358642578125,0.547027587890625,0.684478759765625
100501,0.09332275390625,0.4917449951171875,0.7234954833984375
100502,0.07684326171875,0.47076416015625,0.7857818603515625
100503,0.0550537109375,0.454315185546875,0.8280029296875
100504,0.0126495361328125,0.4186553955078125,0.8482513427734375
100505,-0.0699615478515625,0.404327392578125,0.8524169921875
100506,-0.1851348876953125,0.4101409912109375,0.86907958984375
100507,-0.3096160888671875,0.4268035888671875,0.9111328125
100508,-0.42584228515625,0.4373779296875,0.9604644775390624
100509,-0.5039520263671875,0.4564056396484375,0.9970703125
100510,-0.519195556640625,0.5146484375,1.0186767578125
100511,-0.494293212890625,0.599517822265625,1.037338256835938
100512,-0.4540252685546875,0.6823577880859375,1.057342529296875
100513,-0.4044189453125,0.7657623291015625,1.103775024414062
100514,-0.3638763427734375,0.8518218994140625,1.135940551757812
100515,-0.32293701171875,0.9559783935546876,1.115432739257812
100516,-0.28546142578125,1.038833618164062,1.077194213867188
100517,-0.2513885498046875,1.014129638671875,1.046249389648438
100518,-0.2159271240234375,0.91888427734375,1.024795532226562
100519,-0.189300537109375,0.85162353515625,0.9842376708984376
100520,-0.1646728515625,0.8385162353515625,0.9320220947265624
100521,-0.1227874755859375,0.8168487548828125,0.864288330078125
100522,-0.061676025390625,0.7811279296875,0.752044677734375
100523,-0.0062713623046875,0.7298583984375,0.6014251708984375
100524,0.04656982421875,0.703582763671875,0.4876556396484375
100525,0.110992431640625,0.717498779296875,0.4405517578125
100526,0.169677734375,0.7009735107421875,0.422149658203125
100527,0.203399658203125,0.6124114990234375,0.3877716064453125
100528,0.2147674560546875,0.4928131103515625,0.3697662353515625
100529,0.2220458984375,0.467529296875,0.4417266845703125
100530,0.2396697998046875,0.501800537109375,0.5199127197265625
100531,0.27935791015625,0.577239990234375,0.52947998046875
100532,0.3502655029296875,0.78948974609375,0.4636688232421875
100533,0.4585113525390625,0.965911865234375,0.3625335693359375
100534,0.5266571044921875,0.9660797119140624,0.2334442138671875
100535,0.5917205810546875,1.0582275390625,0.1919403076171875
100536,0.6823883056640625,1.134262084960938,0.2319488525390625
100537,0.74517822265625,1.14837646484375,0.2766876220703125
100538,0.7261505126953125,1.14617919921875,0.3388214111328125
100539,0.6339569091796875,1.173233032226562,0.43072509765625
100540,0.5109405517578125,1.192947387695312,0.442413330078125
100541,0.3979949951171875,1.183029174804688,0.4182586669921875
100542,0.31158447265625,1.107894897460938,0.427886962890625
100543,0.265411376953125,1.004043579101562,0.504852294921875
100544,0.2573699951171875,0.90972900390625,0.6349334716796875
100545,0.2707672119140625,0.8731689453125,0.72772216796875
100546,0.2982940673828125,0.849853515625,0.750701904296875
100547,0.3175201416015625,0.7815704345703125,0.680450439453125
100548,0.3194122314453125,0.715240478515625,0.59783935546875
100549,0.294281005859375,0.631500244140625,0.5842132568359375
100550,0.2416839599609375,0.5245513916015625,0.6352081298828125
100551,0.175628662109375,0.4821014404296875,0.7108001708984375
100552,0.11346435546875,0.47381591796875,0.7992706298828125
100553,0.010009765625,0.489532470703125,0.8401336669921875
100554,-0.1090850830078125,0.48736572265625,0.85302734375
100555,-0.233184814453125,0.439697265625,0.8802032470703125
100556,-0.362518310546875,0.372711181640625,0.97320556640625
100557,-0.4827117919921875,0.337188720703125,1.11541748046875
100558,-0.5695037841796875,0.346527099609375,1.215652465820312
100559,-0.6225738525390625,0.3666839599609375,1.251632690429688
100560,-0.644927978515625,0.36541748046875,1.258087158203125
100561,-0.64154052734375,0.3462066650390625,1.255584716796875
100562,-0.6073760986328125,0.3734283447265625,1.227874755859375
100563,-0.5348052978515625,0.4116363525390625,1.16571044921875
100564,-0.3894805908203125,0.4093170166015625,1.081008911132812
100565,-0.2092742919921875,0.4044189453125,0.9709625244140624
100566,-0.0571746826171875,0.4273529052734375,0.846221923828125
100567,0.063079833984375,0.4869384765625,0.760986328125
100568,0.1533660888671875,0.5765228271484375,0.723968505859375
100569,0.231842041015625,0.6922454833984375,0.7396087646484375
100570,0.2983551025390625,0.80828857421875,0.7686309814453125
100571,0.3394622802734375,0.889739990234375,0.7788238525390625
100572,0.3577117919921875,0.9217681884765624,0.74212646484375
100573,0.36212158203125,0.8978271484375,0.6868896484375
100574,0.3490753173828125,0.8466796875,0.6013336181640625
100575,0.313079833984375,0.782470703125,0.5103759765625
100576,0.23876953125,0.7138214111328125,0.4853515625
100577,0.12744140625,0.65545654296875,0.4994049072265625
100578,0.01434326171875,0.637359619140625,0.5544891357421875
100579,-0.052703857421875,0.6461944580078125,0.6436614990234375
100580,-0.0569915771484375,0.66082763671875,0.7269744873046875
100581,0.0093841552734375,0.68280029296875,0.7518157958984375
100582,0.1414794921875,0.69696044921875,0.704254150390625
100583,0.30999755859375,0.6864471435546875,0.59332275390625
100584,0.479705810546875,0.674835205078125,0.4427947998046875
100585,0.593414306640625,0.693145751953125,0.326568603515625
100586,0.6264801025390625,0.707000732421875,0.2599639892578125
100587,0.5859375,0.7183685302734375,0.2878570556640625
100588,0.5079803466796875,0.71630859375,0.413116455078125
100589,0.4118804931640625,0.6891326904296875,0.5328216552734375
100590,0.320159912109375,0.6643524169921875,0.600494384765625
100591,0.2616729736328125,0.6430816650390625,0.6014404296875
100592,0.2367706298828125,0.6376953125,0.5566864013671875
100593,0.2469482421875,0.641204833984375,0.5318756103515625
100594,0.2867279052734375,0.649993896484375,0.5330047607421875
100595,0.32403564453125,0.67138671875,0.5441741943359375
100596,0.3332672119140625,0.69287109375,0.54388427734375
100597,0.308349609375,0.6945648193359375,0.5407562255859375
100598,0.2568359375,0.68768310546875,0.56585693359375
100599,0.1876220703125,0.6782684326171875,0.604095458984375
100600,0.1251373291015625,0.67877197265625,0.657073974609375
100601,0.08087158203125,0.6845550537109375,0.739837646484375
100602,0.039154052734375,0.7122344970703125,0.8484954833984375
100603,-0.037567138671875,0.721649169921875,0.9408416748046876
100604,-0.1402130126953125,0.6711578369140625,1.018630981445312
100605,-0.221282958984375,0.6212158203125,1.006683349609375
100606,-0.2411956787109375,0.5914154052734375,0.918914794921875
100607,-0.2371063232421875,0.6010284423828125,0.857147216796875
100608,-0.2529449462890625,0.629425048828125,0.909393310546875
100609,-0.3003082275390625,0.661529541015625,1.04022216796875
100610,-0.35650634765625,0.7154388427734375,1.119552612304688
100611,-0.3847198486328125,0.783172607421875,1.178359985351562
100612,-0.3920135498046875,0.8321685791015625,1.220977783203125
100613,-0.380950927734375,0.8776092529296875,1.195663452148438
100614,-0.3486785888671875,0.9147491455078124,1.097366333007812
100615,-0.3097381591796875,0.9007568359375,0.983245849609375
100616,-0.2660980224609375,0.85748291015625,0.9333343505859376
100617,-0.1994781494140625,0.8027191162109375,0.908111572265625
100618,-0.1400604248046875,0.7652435302734375,0.8817596435546875
100619,-0.098358154296875,0.746002197265625,0.8445587158203125
100620,-0.07098388671875,0.7264404296875,0.8301849365234375
100621,-0.05419921875,0.7171478271484375,0.842926025390625
100622,-0.043975830078125,0.7342987060546875,0.84539794921875
100623,-0.03106689453125,0.742584228515625,0.7975311279296875
100624,-0.007965087890625,0.6923065185546875,0.6667327880859375
100625,0.0251922607421875,0.6281585693359375,0.508453369140625
100626,0.071258544921875,0.6063385009765625,0.415435791015625
100627,0.1037139892578125,0.600799560546875,0.374725341796875
100628,0.1325836181640625,0.5420684814453125,0.331085205078125
100629,0.173828125,0.4338836669921875,0.3046722412109375
100630,0.221038818359375,0.410797119140625,0.3440093994140625
100631,0.283721923828125,0.5037689208984375,0.424652099609375
100632,0.3622894287109375,0.6235198974609375,0.473846435546875
100633,0.437774658203125,0.77056884765625,0.4367523193359375
100634,0.499298095703125,0.90966796875,0.348114013671875
100635,0.5057830810546875,0.9067230224609376,0.2354278564453125
100636,0.5116424560546875,0.98223876953125,0.20013427734375
100637,0.5528564453125,1.11676025390625,0.2305450439453125
100638,0.545501708984375,1.22039794921875,0.267425537109375
100639,0.475921630859375,1.248443603515625,0.2938385009765625
100640,0.4172515869140625,1.240859985351562,0.3906402587890625
100641,0.4012451171875,1.226242065429688,0.47308349609375
100642,0.3893280029296875,1.179153442382812,0.5237579345703125
100643,0.3329315185546875,1.108734130859375,0.5125885009765625
100644,0.2822723388671875,1.031784057617188,0.4794769287109375
100645,0.256561279296875,0.9427032470703124,0.4489288330078125
100646,0.2447967529296875,0.87469482421875,0.4400177001953125
100647,0.2354736328125,0.8208465576171875,0.46783447265625
100648,0.227783203125,0.76141357421875,0.5139312744140625
100649,0.2276763916015625,0.6991119384765625,0.5515594482421875
100650,0.2428741455078125,0.678192138671875,0.587310791015625
100651,0.2731170654296875,0.6346282958984375,0.6439971923828125
100652,0.2880401611328125,0.549285888671875,0.707733154296875
100653,0.245513916015625,0.5356597900390625,0.757965087890625
100654,0.1687469482421875,0.49102783203125,0.7999420166015625
100655,0.073089599609375,0.4422454833984375,0.8346099853515625
100656,-0.02008056640625,0.403106689453125,0.854156494140625
100657,-0.132049560546875,0.399078369140625,0.9163055419921876
100658,-0.281158447265625,0.4380340576171875,1.021713256835938
100659,-0.4188079833984375,0.4247894287109375,1.128173828125
100660,-0.5171661376953125,0.3925933837890625,1.18743896484375
100661,-0.5806121826171875,0.38641357421875,1.204803466796875
100662,-0.62384033203125,0.38702392578125,1.214553833007812
100663,-0.6200714111328125,0.3909759521484375,1.190521240234375
100664,-0.5658111572265625,0.37786865234375,1.15643310546875
100665,-0.4689788818359375,0.358917236328125,1.161209106445312
100666,-0.3361663818359375,0.35430908203125,1.138809204101562
100667,-0.174530029296875,0.3597259521484375,1.057220458984375
100668,-0.01275634765625,0.389129638671875,0.955657958984375
100669,0.1169891357421875,0.411285400390625,0.8530426025390625
100670,0.205780029296875,0.4706268310546875,0.76922607421875
100671,0.2705230712890625,0.5805816650390625,0.7500457763671875
100672,0.308929443359375,0.7091217041015625,0.7926483154296875
100673,0.32110595703125,0.812103271484375,0.842315673828125
100674,0.316192626953125,0.860382080078125,0.8380126953125
100675,0.309326171875,0.85491943359375,0.7645111083984375
100676,0.298492431640625,0.832550048828125,0.65936279296875
100677,0.2723388671875,0.8170928955078125,0.56060791015625
100678,0.2437744140625,0.8057098388671875,0.5058746337890625
100679,0.2309417724609375,0.789794921875,0.46636962890625
100680,0.2068023681640625,0.790802001953125,0.4307861328125
100681,0.1528167724609375,0.817840576171875,0.4406585693359375
100682,0.07452392578125,0.85675048828125,0.5416412353515625
100683,-0.013824462890625,0.8669586181640625,0.68310546875
100684,-0.0821380615234375,0.8407745361328125,0.799560546875
100685,-0.111297607421875,0.7841796875,0.8476715087890625
100686,-0.1003265380859375,0.730865478515625,0.815887451171875
100687,-0.0646820068359375,0.7175140380859375,0.737579345703125
100688,-0.0062408447265625,0.7258453369140625,0.623199462890625
100689,0.07794189453125,0.731597900390625,0.5164642333984375
100690,0.1760101318359375,0.7395172119140625,0.446319580078125
100691,0.2697906494140625,0.77703857421875,0.4296722412109375
100692,0.3546142578125,0.803466796875,0.437255859375
100693,0.4349517822265625,0.7769775390625,0.4629364013671875
100694,0.502655029296875,0.7358551025390625,0.4919586181640625
100695,0.539825439453125,0.726318359375,0.5098114013671875
100696,0.5350189208984375,0.7210845947265625,0.50506591796875
100697,0.5464324951171875,0.746826171875,0.455078125
100698,0.57476806640625,0.754150390625,0.3963775634765625
100699,0.5760955810546875,0.7404022216796875,0.3548736572265625
100700,0.553497314453125,0.719085693359375,0.349212646484375
100701,0.506439208984375,0.6957244873046875,0.407684326171875
100702,0.4282684326171875,0.675933837890625,0.5154876708984375
100703,0.342559814453125,0.6616668701171875,0.61151123046875
100704,0.262542724609375,0.6313629150390625,0.6478118896484375
100705,0.185302734375,0.5978851318359375,0.6151123046875
100706,0.107086181640625,0.5884552001953125,0.5790252685546875
100707,0.026458740234375,0.5928802490234375,0.6018218994140625
100708,-0.058563232421875,0.6019439697265625,0.65130615234375
100709,-0.1335906982421875,0.6025238037109375,0.730133056640625
100710,-0.192718505859375,0.6571502685546875,0.8452911376953125
100711,-0.2683563232421875,0.7282867431640625,0.977813720703125
100712,-0.3718414306640625,0.75518798828125,1.1043701171875
100713,-0.4658660888671875,0.7967987060546875,1.219940185546875
100714,-0.5372772216796875,0.8511810302734375,1.309844970703125
100715,-0.5816497802734375,0.8978118896484375,1.345550537109375
100716,-0.587432861328125,0.9060821533203124,1.281906127929688
100717,-0.5472259521484375,0.9036102294921876,1.174530029296875
100718,-0.476806640625,0.8840789794921875,1.07586669921875
100719,-0.4212493896484375,0.8302459716796875,0.985748291015625
100720,-0.391754150390625,0.7705230712890625,0.9219207763671876
100721,-0.335693359375,0.7108612060546875,0.8878936767578125
100722,-0.2581787109375,0.6790771484375,0.882080078125
100723,-0.188934326171875,0.6761627197265625,0.8745574951171875
100724,-0.1390838623046875,0.6871490478515625,0.864410400390625
100725,-0.1233367919921875,0.698272705078125,0.8750762939453125
100726,-0.1152801513671875,0.7052459716796875,0.8647003173828125
100727,-0.094818115234375,0.6842193603515625,0.8151702880859375
100728,-0.0668182373046875,0.626495361328125,0.72369384765625
100729,-0.012054443359375,0.5792083740234375,0.6239013671875
100730,0.071746826171875,0.5666351318359375,0.531219482421875
100731,0.1649322509765625,0.533905029296875,0.4393463134765625
100732,0.243682861328125,0.458953857421875,0.3631134033203125
100733,0.296173095703125,0.3377227783203125,0.297210693359375
100734,0.323394775390625,0.2552337646484375,0.2917327880859375
100735,0.3344268798828125,0.2403717041015625,0.4007110595703125
100736,0.3394012451171875,0.2861785888671875,0.5321502685546875
100737,0.345794677734375,0.325775146484375,0.608367919921875
100738,0.3387298583984375,0.446441650390625,0.6313018798828125
100739,0.3184051513671875,0.6907196044921875,0.6020355224609375
100740,0.2945709228515625,0.827484130859375,0.5024871826171875
100741,0.2704925537109375,0.886627197265625,0.4140167236328125
100742,0.2872772216796875,1.054946899414062,0.380706787109375
100743,0.3380889892578125,1.231002807617188,0.3745574951171875
100744,0.3898162841796875,1.354522705078125,0.404937744140625
100745,0.434234619140625,1.376296997070312,0.464141845703125
100746,0.451080322265625,1.357147216796875,0.5655364990234375
100747,0.4350738525390625,1.366485595703125,0.6177978515625
100748,0.419281005859375,1.300704956054688,0.56744384765625
100749,0.391571044921875,1.164169311523438,0.5125732421875
100750,0.3535614013671875,0.97662353515625,0.4966583251953125
100751,0.3214111328125,0.8116607666015625,0.5120849609375
100752,0.3039093017578125,0.7332763671875,0.5358428955078125
100753,0.3063812255859375,0.6822662353515625,0.553070068359375
100754,0.3229522705078125,0.616729736328125,0.5381011962890625
100755,0.3369293212890625,0.525787353515625,0.50616455078125
100756,0.332122802734375,0.4966583251953125,0.522308349609375
100757,0.3078155517578125,0.4633941650390625,0.5663299560546875
100758,0.2621002197265625,0.422943115234375,0.62939453125
100759,0.190460205078125,0.3675079345703125,0.7271728515625
100760,0.0826416015625,0.348297119140625,0.8730316162109375
100761,-0.0482635498046875,0.318603515625,1.042938232421875
100762,-0.1738433837890625,0.3493804931640625,1.158905029296875
100763,-0.285858154296875,0.3916473388671875,1.192047119140625
100764,-0.40252685546875,0.4363861083984375,1.171737670898438
100765,-0.5315704345703125,0.4993743896484375,1.196578979492188
100766,-0.645538330078125,0.547698974609375,1.22607421875
100767,-0.68389892578125,0.55474853515625,1.235427856445312
100768,-0.6207427978515625,0.5401458740234375,1.23236083984375
100769,-0.467010498046875,0.5434722900390625,1.183364868164062
100770,-0.2772216796875,0.529541015625,1.074493408203125
100771,-0.0975799560546875,0.5401763916015625,0.92559814453125
100772,0.0459747314453125,0.594390869140625,0.8038330078125
100773,0.1332244873046875,0.6791534423828125,0.757720947265625
100774,0.17822265625,0.7589263916015625,0.777008056640625
100775,0.2017364501953125,0.8294219970703125,0.822021484375
100776,0.216278076171875,0.8598785400390625,0.8680572509765625
100777,0.243682861328125,0.87591552734375,0.865142822265625
100778,0.2828369140625,0.896881103515625,0.8099517822265625
100779,0.3231964111328125,0.893402099609375,0.726043701171875
100780,0.3493499755859375,0.8674468994140625,0.66363525390625
100781,0.340545654296875,0.813812255859375,0.5911102294921875
100782,0.2860260009765625,0.7413177490234375,0.4964141845703125
100783,0.18109130859375,0.66162109375,0.434356689453125
100784,0.05194091796875,0.607666015625,0.4362640380859375
100785,-0.0759735107421875,0.573516845703125,0.504180908203125
100786,-0.1681060791015625,0.5439453125,0.6162872314453125
100787,-0.1880035400390625,0.5311279296875,0.7369232177734375
100788,-0.1318817138671875,0.5499114990234375,0.8260650634765625
100789,-0.0198211669921875,0.5925750732421875,0.815643310546875
100790,0.12860107421875,0.617401123046875,0.6937713623046875
100791,0.2845458984375,0.6493377685546875,0.5295562744140625
100792,0.420806884765625,0.675750732421875,0.3743743896484375
100793,0.525482177734375,0.6936187744140625,0.2394561767578125
100794,0.594696044921875,0.7348785400390625,0.1609649658203125
100795,0.6230316162109375,0.7948150634765625,0.201324462890625
100796,0.608551025390625,0.8464508056640625,0.333587646484375
100797,0.5797119140625,0.848175048828125,0.5272674560546875
100798,0.54510498046875,0.829742431640625,0.6611328125
100799,0.5191650390625,0.804901123046875,0.6832275390625
100800,0.489532470703125,0.7946014404296875,0.5790863037109375
100801,0.4673919677734375,0.7894439697265625,0.3850555419921875
100802,0.4481201171875,0.7419586181640625,0.280853271484375
100803,0.41827392578125,0.6672821044921875,0.3206024169921875
100804,0.352813720703125,0.637908935546875,0.4483184814453125
100805,0.2572479248046875,0.6435546875,0.56610107421875
100806,0.1511993408203125,0.6661529541015625,0.672607421875
100807,0.0373077392578125,0.64971923828125,0.7668609619140625
100808,-0.068695068359375,0.6463165283203125,0.7920074462890625
100809,-0.1417083740234375,0.6410369873046875,0.806640625
100810,-0.2044525146484375,0.64703369140625,0.8284912109375
100811,-0.2622528076171875,0.6392364501953125,0.8870391845703125
100812,-0.3269500732421875,0.643951416015625,1.019027709960938
100813,-0.38616943359375,0.6717681884765625,1.17474365234375
100814,-0.4429931640625,0.7161102294921875,1.317276000976562
100815,-0.5102386474609375,0.7731475830078125,1.39715576171875
100816,-0.5494537353515625,0.7979583740234375,1.3758544921875
100817,-0.5374603271484375,0.8235931396484375,1.27252197265625
100818,-0.46734619140625,0.83453369140625,1.167953491210938
100819,-0.3533935546875,0.80035400390625,1.08819580078125
100820,-0.2737579345703125,0.7394256591796875,1.0169677734375
100821,-0.22216796875,0.679473876953125,0.9676513671875
100822,-0.1840972900390625,0.671844482421875,0.9583587646484376
100823,-0.161712646484375,0.69976806640625,0.9730377197265624
100824,-0.143524169921875,0.722381591796875,0.9935760498046876
100825,-0.1380462646484375,0.7210845947265625,0.9779510498046876
100826,-0.13519287109375,0.6824188232421875,0.922210693359375
100827,-0.1188507080078125,0.6524658203125,0.8379058837890625
100828,-0.0768890380859375,0.610260009765625,0.727294921875
100829,-0.01220703125,0.5241241455078125,0.5752716064453125
100830,0.0626068115234375,0.4788970947265625,0.4753265380859375
100831,0.152618408203125,0.4928741455078125,0.44769287109375
100832,0.2321014404296875,0.473663330078125,0.4146881103515625
100833,0.2943115234375,0.412506103515625,0.3632965087890625
100834,0.3154754638671875,0.33673095703125,0.301727294921875
100835,0.307464599609375,0.30499267578125,0.2908935546875
100836,0.2811126708984375,0.330596923828125,0.361846923828125
100837,0.2484130859375,0.353668212890625,0.4404144287109375
100838,0.2150421142578125,0.3446197509765625,0.4971923828125
100839,0.160919189453125,0.430999755859375,0.520416259765625
100840,0.1363983154296875,0.6126708984375,0.521697998046875
100841,0.1358795166015625,0.81353759765625,0.451568603515625
100842,0.1579437255859375,0.9057159423828124,0.2955169677734375
100843,0.229644775390625,1.026535034179688,0.2162933349609375
100844,0.3512725830078125,1.228271484375,0.1950836181640625
100845,0.4877166748046875,1.337142944335938,0.20208740234375
100846,0.5767364501953125,1.338729858398438,0.3343048095703125
100847,0.6086273193359375,1.366470336914062,0.5987091064453125
100848,0.5821380615234375,1.454910278320312,0.759124755859375
100849,0.5549774169921875,1.483917236328125,0.7494354248046875
100850,0.515411376953125,1.334274291992188,0.6612548828125
100851,0.4268798828125,1.123764038085938,0.5792694091796875
100852,0.3799591064453125,0.89923095703125,0.6366729736328125
100853,0.3476409912109375,0.8552398681640625,0.722137451171875
100854,0.28570556640625,0.8787994384765625,0.623992919921875
100855,0.241851806640625,0.7888031005859375,0.4941864013671875
100856,0.22662353515625,0.662750244140625,0.465118408203125
100857,0.184906005859375,0.6285400390625,0.51885986328125
100858,0.150054931640625,0.5962371826171875,0.6429595947265625
100859,0.101043701171875,0.57110595703125,0.7397003173828125
100860,0.0411224365234375,0.5253448486328125,0.8309326171875
100861,-0.04339599609375,0.4828338623046875,0.9556121826171876
100862,-0.1421051025390625,0.4700469970703125,1.097824096679688
100863,-0.23260498046875,0.461761474609375,1.177703857421875
100864,-0.321868896484375,0.4408111572265625,1.198150634765625
100865,-0.40203857421875,0.427886962890625,1.206130981445312
100866,-0.4721221923828125,0.4288787841796875,1.210159301757812
100867,-0.5132904052734375,0.4347381591796875,1.245437622070312
100868,-0.5113372802734375,0.4212799072265625,1.2210693359375
100869,-0.452789306640625,0.4003753662109375,1.119216918945312
100870,-0.352294921875,0.3888092041015625,0.9829864501953124
100871,-0.2075347900390625,0.4161376953125,0.8643035888671875
100872,-0.0698699951171875,0.4843902587890625,0.7767791748046875
100873,0.02215576171875,0.5457611083984375,0.74176025390625
100874,0.07647705078125,0.6121673583984375,0.768707275390625
100875,0.1111907958984375,0.6721038818359375,0.8412933349609375
100876,0.1436767578125,0.7211761474609375,0.9187469482421876
100877,0.196990966796875,0.774505615234375,0.9546661376953124
100878,0.2752227783203125,0.8149871826171875,0.9199981689453124
100879,0.35479736328125,0.8374786376953125,0.8178253173828125
100880,0.386322021484375,0.8013153076171875,0.6796875
100881,0.3578948974609375,0.7152099609375,0.5304107666015625
100882,0.3045654296875,0.61517333984375,0.3921356201171875
100883,0.2445068359375,0.55743408203125,0.3047332763671875
100884,0.1626129150390625,0.53460693359375,0.297393798828125
100885,0.0633392333984375,0.5229339599609375,0.353240966796875
100886,-0.02728271484375,0.51031494140625,0.4365692138671875
100887,-0.120513916015625,0.5206146240234375,0.54058837890625
100888,-0.193939208984375,0.5529327392578125,0.630767822265625
100889,-0.218841552734375,0.591278076171875,0.7080078125
100890,-0.1801300048828125,0.601470947265625,0.7366485595703125
100891,-0.081298828125,0.6236419677734375,0.742523193359375
100892,0.0577545166015625,0.6701507568359375,0.711822509765625
100893,0.2170867919921875,0.7014312744140625,0.606414794921875
100894,0.3458709716796875,0.7082977294921875,0.4619903564453125
100895,0.407135009765625,0.7225341796875,0.335968017578125
100896,0.448516845703125,0.7354888916015625,0.286956787109375
100897,0.488311767578125,0.7477874755859375,0.3260955810546875
100898,0.49139404296875,0.7674560546875,0.4505615234375
100899,0.46893310546875,0.75982666015625,0.6270904541015625
100900,0.4505615234375,0.757171630859375,0.737457275390625
100901,0.462738037109375,0.7669219970703125,0.7048492431640625
100902,0.488189697265625,0.78253173828125,0.5734100341796875
100903,0.511016845703125,0.7533721923828125,0.4456939697265625
100904,0.496917724609375,0.6714935302734375,0.423553466796875
100905,0.4127197265625,0.6161956787109375,0.5084228515625
100906,0.2843475341796875,0.6586456298828125,0.65948486328125
100907,0.15234375,0.7168121337890625,0.8049774169921875
100908,0.0233917236328125,0.739654541015625,0.88580322265625
100909,-0.10784912109375,0.7465057373046875,0.907684326171875
100910,-0.19964599609375,0.7387237548828125,0.8979339599609375
100911,-0.2610931396484375,0.7079925537109375,0.8838043212890625
100912,-0.3081817626953125,0.6743927001953125,0.8999786376953125
100913,-0.3494415283203125,0.659027099609375,0.9400787353515624
100914,-0.3885345458984375,0.6637115478515625,0.9945220947265624
100915,-0.4150848388671875,0.6776275634765625,1.077789306640625
100916,-0.4299468994140625,0.717987060546875,1.180923461914062
100917,-0.458282470703125,0.7630157470703125,1.248153686523438
100918,-0.496002197265625,0.79913330078125,1.225692749023438
100919,-0.4943084716796875,0.849578857421875,1.134262084960938
100920,-0.437591552734375,0.9007415771484376,1.038711547851562
100921,-0.3576812744140625,0.9006805419921875,0.999114990234375
100922,-0.26837158203125,0.8398895263671875,1.011276245117188
100923,-0.1832427978515625,0.78680419921875,1.0135498046875
100924,-0.1164703369140625,0.77117919921875,0.94610595703125
100925,-0.073760986328125,0.771240234375,0.8860321044921875
100926,-0.0516204833984375,0.7860870361328125,0.87750244140625
100927,-0.04290771484375,0.7913665771484375,0.892120361328125
100928,-0.0409088134765625,0.770965576171875,0.86895751953125
100929,-0.0353546142578125,0.7187347412109375,0.7890472412109375
100930,-0.015838623046875,0.636566162109375,0.65435791015625
100931,0.0235443115234375,0.5670013427734375,0.5032958984375
100932,0.0835113525390625,0.5591583251953125,0.431884765625
100933,0.1421661376953125,0.5427093505859375,0.3746490478515625
100934,0.1928863525390625,0.4814605712890625,0.2933502197265625
100935,0.2380828857421875,0.380859375,0.2365875244140625
100936,0.2532501220703125,0.32696533203125,0.3043975830078125
100937,0.23583984375,0.3412322998046875,0.44482421875
100938,0.2138824462890625,0.3697052001953125,0.5463104248046875
100939,0.208099365234375,0.4285125732421875,0.6025848388671875
100940,0.208770751953125,0.5626983642578125,0.610137939453125
100941,0.2418365478515625,0.7486724853515625,0.5439453125
100942,0.3198394775390625,0.81378173828125,0.4021148681640625
100943,0.367340087890625,0.83831787109375,0.3172454833984375
100944,0.401214599609375,0.9501800537109376,0.320404052734375
100945,0.4653778076171875,1.039031982421875,0.3032379150390625
100946,0.528076171875,1.107162475585938,0.3108978271484375
100947,0.511474609375,1.1326904296875,0.4017486572265625
100948,0.432525634765625,1.095977783203125,0.4904327392578125
100949,0.360107421875,1.083663940429688,0.5312652587890625
100950,0.2772369384765625,1.076370239257812,0.5457305908203125
100951,0.2071380615234375,1.0369873046875,0.567138671875
100952,0.1382904052734375,0.9683380126953124,0.6496734619140625
100953,0.08245849609375,0.8895416259765625,0.7624359130859375
100954,0.0697784423828125,0.8401641845703125,0.8096923828125
100955,0.1068878173828125,0.801727294921875,0.7899932861328125
100956,0.15594482421875,0.7840423583984375,0.7397003173828125
100957,0.2100677490234375,0.7537078857421875,0.669464111328125
100958,0.251190185546875,0.6597442626953125,0.621185302734375
100959,0.2426300048828125,0.60137939453125,0.6549530029296875
100960,0.1897125244140625,0.560089111328125,0.7585601806640625
100961,0.10028076171875,0.5287322998046875,0.786163330078125
100962,-0.016754150390625,0.4938507080078125,0.8132476806640625
100963,-0.145294189453125,0.424102783203125,0.884490966796875
100964,-0.2815093994140625,0.38275146484375,0.9747161865234376
100965,-0.398651123046875,0.38397216796875,1.067550659179688
100966,-0.4778289794921875,0.3826751708984375,1.142837524414062
100967,-0.532379150390625,0.365631103515625,1.187347412109375
100968,-0.58465576171875,0.364044189453125,1.195022583007812
100969,-0.6107940673828125,0.373931884765625,1.163055419921875
100970,-0.5938720703125,0.3797149658203125,1.111099243164062
100971,-0.532958984375,0.39312744140625,1.050888061523438
100972,-0.4263763427734375,0.421844482421875,0.95794677734375
100973,-0.2870025634765625,0.4412841796875,0.865386962890625
100974,-0.13006591796875,0.4748382568359375,0.814727783203125
100975,0.020843505859375,0.5131988525390625,0.810150146484375
100976,0.1513824462890625,0.5675811767578125,0.86328125
100977,0.252410888671875,0.6566314697265625,0.9574737548828124
100978,0.34320068359375,0.7860870361328125,1.013870239257812
100979,0.4108734130859375,0.910308837890625,0.9388275146484376
100980,0.444549560546875,0.986297607421875,0.767425537109375
100981,0.4579315185546875,0.98040771484375,0.61273193359375
100982,0.4487457275390625,0.8936767578125,0.496734619140625
100983,0.3975830078125,0.787078857421875,0.40411376953125
100984,0.3145904541015625,0.7369384765625,0.3615264892578125
100985,0.2151336669921875,0.7129974365234375,0.410614013671875
100986,0.0995025634765625,0.674957275390625,0.5183868408203125
100987,-0.029754638671875,0.661376953125,0.625640869140625
100988,-0.1473846435546875,0.6533050537109375,0.7214202880859375
100989,-0.2073516845703125,0.660675048828125,0.8087005615234375
100990,-0.1957244873046875,0.6959228515625,0.8566436767578125
100991,-0.1314239501953125,0.71929931640625,0.8526153564453125
100992,-0.0518951416015625,0.747314453125,0.819793701171875
100993,0.04010009765625,0.76019287109375,0.7068939208984375
100994,0.1337127685546875,0.752227783203125,0.56170654296875
100995,0.1962738037109375,0.736541748046875,0.4565582275390625
100996,0.2258758544921875,0.7034454345703125,0.4253082275390625
100997,0.2454376220703125,0.6891937255859375,0.4533843994140625
100998,0.25714111328125,0.7198333740234375,0.5160675048828125
100999,0.2721405029296875,0.746185302734375,0.5774383544921875
101000,0.2970733642578125,0.75189208984375,0.592742919921875
101001,0.3383026123046875,0.750946044921875,0.570343017578125
101002,0.40478515625,0.758575439453125,0.5338897705078125
101003,0.4656524658203125,0.768524169921875,0.493988037109375
101004,0.50726318359375,0.7524871826171875,0.4500732421875
101005,0.526214599609375,0.7233734130859375,0.400604248046875
101006,0.50885009765625,0.6873321533203125,0.375396728515625
101007,0.44769287109375,0.6539764404296875,0.3829193115234375
101008,0.3581085205078125,0.6224517822265625,0.408111572265625
101009,0.2477264404296875,0.5816650390625,0.4899139404296875
101010,0.1304779052734375,0.560516357421875,0.601898193359375
101011,0.0204620361328125,0.567138671875,0.6959075927734375
101012,-0.0732269287109375,0.583221435546875,0.769317626953125
101013,-0.1580047607421875,0.60748291015625,0.8392333984375
101014,-0.2314910888671875,0.638519287109375,0.8898468017578125
101015,-0.303314208984375,0.645599365234375,0.9225311279296876
101016,-0.3813323974609375,0.629791259765625,0.9433746337890624
101017,-0.46484375,0.6210479736328125,0.9632415771484376
101018,-0.524566650390625,0.625640869140625,1.009078979492188
101019,-0.559112548828125,0.66168212890625,1.074066162109375
101020,-0.5676422119140625,0.722869873046875,1.110687255859375
101021,-0.54498291015625,0.7959747314453125,1.126968383789062
101022,-0.48980712890625,0.8513336181640625,1.1138916015625
101023,-0.408843994140625,0.86907958984375,1.068649291992188
101024,-0.3275299072265625,0.870361328125,1.003799438476562
101025,-0.25762939453125,0.8488006591796875,0.9373016357421876
101026,-0.17822265625,0.8201446533203125,0.8962249755859375
101027,-0.0948028564453125,0.7898712158203125,0.8790283203125
101028,-0.034423828125,0.765594482421875,0.8534088134765625
101029,0.003662109375,0.74847412109375,0.83990478515625
101030,0.0230865478515625,0.696044921875,0.8165740966796875
101031,0.04766845703125,0.6537933349609375,0.764739990234375
101032,0.08544921875,0.62554931640625,0.690704345703125
101033,0.1277923583984375,0.5995635986328125,0.6098480224609375
101034,0.17596435546875,0.6259613037109375,0.568603515625
101035,0.2245635986328125,0.6523284912109375,0.5213623046875
101036,0.260223388671875,0.666717529296875,0.4903106689453125
101037,0.2590484619140625,0.64508056640625,0.4900970458984375
101038,0.2469024658203125,0.6121063232421875,0.5099029541015625
101039,0.25775146484375,0.6142120361328125,0.538543701171875
101040,0.304351806640625,0.751983642578125,0.555450439453125
101041,0.371185302734375,0.9637298583984376,0.5378570556640625
101042,0.4550628662109375,0.998504638671875,0.4503631591796875
101043,0.522674560546875,1.022415161132812,0.3373260498046875
101044,0.5502166748046875,1.0867919921875,0.3023223876953125
101045,0.52105712890625,1.115554809570312,0.3394927978515625
101046,0.4776458740234375,1.12908935546875,0.4293060302734375
101047,0.4355621337890625,1.12261962890625,0.4986724853515625
101048,0.3900299072265625,1.117507934570312,0.499359130859375
101049,0.3485870361328125,1.083724975585938,0.4576873779296875
101050,0.305328369140625,1.036773681640625,0.4298858642578125
101051,0.2783355712890625,0.9870452880859376,0.4174957275390625
101052,0.2899322509765625,0.93206787109375,0.4237518310546875
101053,0.327789306640625,0.879730224609375,0.4800567626953125
101054,0.3715972900390625,0.7958526611328125,0.544219970703125
101055,0.3985748291015625,0.7041015625,0.5723876953125
101056,0.40069580078125,0.647369384765625,0.57940673828125
101057,0.3883056640625,0.580474853515625,0.6057586669921875
101058,0.3478851318359375,0.52325439453125,0.64642333984375
101059,0.271575927734375,0.4892425537109375,0.6763458251953125
101060,0.1908721923828125,0.47357177734375,0.7175750732421875
101061,0.1001434326171875,0.443145751953125,0.789581298828125
101062,0.00384521484375,0.45538330078125,0.8540191650390625
101063,-0.1029205322265625,0.4394378662109375,0.84814453125
101064,-0.21038818359375,0.367645263671875,0.839935302734375
101065,-0.3115081787109375,0.290130615234375,0.8902130126953125
101066,-0.40277099609375,0.290802001953125,1.002105712890625
101067,-0.4857025146484375,0.2980804443359375,1.168716430664062
101068,-0.569610595703125,0.3111114501953125,1.299240112304688
101069,-0.6563873291015625,0.3336639404296875,1.337249755859375
101070,-0.70489501953125,0.3519287109375,1.341842651367188
101071,-0.6859130859375,0.39117431640625,1.312103271484375
101072,-0.58673095703125,0.4288177490234375,1.225311279296875
101073,-0.413238525390625,0.440093994140625,1.115737915039062
101074,-0.2202606201171875,0.4135894775390625,0.9864044189453124
101075,-0.050506591796875,0.376007080078125,0.853302001953125
101076,0.081573486328125,0.3914794921875,0.7882080078125
101077,0.1683197021484375,0.48211669921875,0.825531005859375
101078,0.2363433837890625,0.642913818359375,0.9171142578125
101079,0.2852783203125,0.8166046142578125,0.93292236328125
101080,0.300537109375,0.9337005615234376,0.872039794921875
101081,0.2879791259765625,0.96832275390625,0.7888336181640625
101082,0.2628326416015625,0.959991455078125,0.6894378662109375
101083,0.23565673828125,0.925201416015625,0.605255126953125
101084,0.203826904296875,0.85345458984375,0.57647705078125
101085,0.1576080322265625,0.772735595703125,0.558990478515625
101086,0.089508056640625,0.7000274658203125,0.5501251220703125
101087,-0.008941650390625,0.650238037109375,0.564971923828125
101088,-0.117218017578125,0.6128387451171875,0.6096038818359375
101089,-0.17681884765625,0.5987701416015625,0.6797027587890625
101090,-0.1437835693359375,0.58502197265625,0.7324066162109375
101091,-0.0406036376953125,0.6014251708984375,0.7669525146484375
101092,0.108001708984375,0.644256591796875,0.761871337890625
101093,0.2943115234375,0.6776885986328125,0.6781158447265625
101094,0.47222900390625,0.6958160400390625,0.5131072998046875
101095,0.5884857177734375,0.6910552978515625,0.3356475830078125
101096,0.6123046875,0.66717529296875,0.24664306640625
101097,0.5667266845703125,0.6644439697265625,0.295806884765625
101098,0.505340576171875,0.697418212890625,0.475494384765625
101099,0.4600372314453125,0.7071075439453125,0.652557373046875
101100,0.4589996337890625,0.68408203125,0.7097930908203125
101101,0.4930267333984375,0.6827392578125,0.6815338134765625
101102,0.5451507568359375,0.711456298828125,0.5519256591796875
101103,0.616241455078125,0.726898193359375,0.3378448486328125
101104,0.665069580078125,0.714752197265625,0.175079345703125
101105,0.6272430419921875,0.687713623046875,0.1932220458984375
101106,0.4957275390625,0.662994384765625,0.3413238525390625
101107,0.3187255859375,0.634765625,0.5033111572265625
101108,0.157318115234375,0.599273681640625,0.6302032470703125
101109,0.0292510986328125,0.586883544921875,0.696563720703125
101110,-0.073211669921875,0.60015869140625,0.7283782958984375
101111,-0.1674957275390625,0.6042327880859375,0.76678466796875
101112,-0.238922119140625,0.6135711669921875,0.8425445556640625
101113,-0.2974395751953125,0.6358642578125,0.909423828125
101114,-0.3513336181640625,0.647064208984375,0.9579925537109376
101115,-0.417724609375,0.65118408203125,1.003021240234375
101116,-0.4799652099609375,0.6781463623046875,1.108551025390625
101117,-0.5358123779296875,0.7239837646484375,1.238677978515625
101118,-0.59490966796875,0.74432373046875,1.299789428710938
101119,-0.6256561279296875,0.7465057373046875,1.283843994140625
101120,-0.605712890625,0.7461700439453125,1.178955078125
101121,-0.551300048828125,0.7483673095703125,1.0419921875
101122,-0.494781494140625,0.759979248046875,0.9332275390625
101123,-0.4609832763671875,0.7645721435546875,0.9033660888671876
101124,-0.4433441162109375,0.7544097900390625,0.9453582763671876
101125,-0.4000244140625,0.7341461181640625,1.018829345703125
101126,-0.3455352783203125,0.735687255859375,1.042526245117188
101127,-0.28961181640625,0.758209228515625,0.9957122802734376
101128,-0.2122650146484375,0.7690582275390625,0.9414520263671876
101129,-0.133056640625,0.7472381591796875,0.892059326171875
101130,-0.07037353515625,0.701385498046875,0.8284759521484375
101131,-0.019378662109375,0.6737823486328125,0.7731170654296875
101132,0.028045654296875,0.685546875,0.7292938232421875
101133,0.0855560302734375,0.6717071533203125,0.67364501953125
101134,0.1363677978515625,0.588714599609375,0.587432861328125
101135,0.153900146484375,0.513946533203125,0.5048675537109375
101136,0.1670074462890625,0.5033721923828125,0.505615234375
101137,0.19598388671875,0.544769287109375,0.5002899169921875
101138,0.2486724853515625,0.5832366943359375,0.4773712158203125
101139,0.30523681640625,0.689849853515625,0.4409027099609375
101140,0.37469482421875,0.874298095703125,0.4025421142578125
101141,0.430023193359375,0.985382080078125,0.380096435546875
101142,0.4447021484375,0.9774627685546876,0.35113525390625
101143,0.5037078857421875,1.08538818359375,0.3861846923828125
101144,0.609375,1.162460327148438,0.447906494140625
101145,0.6721038818359375,1.199935913085938,0.46923828125
101146,0.648406982421875,1.226638793945312,0.4464569091796875
101147,0.557830810546875,1.220840454101562,0.4100799560546875
101148,0.418670654296875,1.205581665039062,0.399871826171875
101149,0.2829742431640625,1.172622680664062,0.4098358154296875
101150,0.188934326171875,1.104171752929688,0.45037841796875
101151,0.1377716064453125,0.9971771240234376,0.4947662353515625
101152,0.1383514404296875,0.8785858154296875,0.5484619140625
101153,0.176544189453125,0.794952392578125,0.583343505859375
101154,0.221221923828125,0.729278564453125,0.611541748046875
101155,0.2442474365234375,0.652099609375,0.5946807861328125
101156,0.254364013671875,0.559814453125,0.5583038330078125
101157,0.26544189453125,0.4898529052734375,0.554290771484375
101158,0.2614898681640625,0.4701385498046875,0.5825958251953125
101159,0.23974609375,0.432891845703125,0.60894775390625
101160,0.1907958984375,0.3994598388671875,0.6477203369140625
101161,0.11431884765625,0.389862060546875,0.69677734375
101162,0.0278167724609375,0.391937255859375,0.7360992431640625
101163,-0.0698699951171875,0.372528076171875,0.76654052734375
101164,-0.16558837890625,0.33489990234375,0.815765380859375
101165,-0.2538604736328125,0.28570556640625,0.887969970703125
101166,-0.3434295654296875,0.258514404296875,1.001327514648438
101167,-0.429168701171875,0.262939453125,1.122879028320312
101168,-0.5076904296875,0.2730712890625,1.216461181640625
101169,-0.583953857421875,0.2695465087890625,1.280258178710938
101170,-0.63836669921875,0.2537384033203125,1.3121337890625
101171,-0.6421966552734375,0.2796783447265625,1.2772216796875
101172,-0.5934906005859375,0.3428192138671875,1.181442260742188
101173,-0.4897613525390625,0.3929901123046875,1.100051879882812
101174,-0.34564208984375,0.403228759765625,1.066375732421875
101175,-0.200469970703125,0.415618896484375,1.05120849609375
101176,-0.089508056640625,0.4754638671875,1.034042358398438
101177,-0.00885009765625,0.5693817138671875,1.015304565429688
101178,0.06915283203125,0.69708251953125,0.9935150146484376
101179,0.1429290771484375,0.8483428955078125,0.9674530029296876
101180,0.20361328125,0.9652099609375,0.8930511474609375
101181,0.2458953857421875,1.005615234375,0.7916717529296875
101182,0.268798828125,0.986572265625,0.6621856689453125
101183,0.2837677001953125,0.9536895751953124,0.5508880615234375
101184,0.2843170166015625,0.8910369873046875,0.494781494140625
101185,0.226318359375,0.805145263671875,0.50030517578125
101186,0.119720458984375,0.7208709716796875,0.5480804443359375
101187,-0.0021209716796875,0.661773681640625,0.629547119140625
101188,-0.0996246337890625,0.6484375,0.742034912109375
101189,-0.1511077880859375,0.6622772216796875,0.8374176025390625
101190,-0.1381988525390625,0.691864013671875,0.85888671875
101191,-0.059844970703125,0.738128662109375,0.786895751953125
101192,0.0632171630859375,0.775634765625,0.6728363037109375
101193,0.20703125,0.7797698974609375,0.5367279052734375
101194,0.3455810546875,0.776092529296875,0.397491455078125
101195,0.4654541015625,0.7743377685546875,0.3260498046875
101196,0.5557403564453125,0.8033599853515625,0.3443145751953125
101197,0.5878143310546875,0.8770294189453125,0.4068145751953125
101198,0.580413818359375,0.9368896484375,0.46337890625
101199,0.5575408935546875,0.934844970703125,0.4769744873046875
101200,0.55401611328125,0.917144775390625,0.453857421875
101201,0.57110595703125,0.9181671142578124,0.405487060546875
101202,0.5869903564453125,0.884490966796875,0.349700927734375
101203,0.5863189697265625,0.831085205078125,0.312225341796875
101204,0.55975341796875,0.764495849609375,0.30364990234375
101205,0.495086669921875,0.6964569091796875,0.3081207275390625
101206,0.3986663818359375,0.643310546875,0.32073974609375
101207,0.285186767578125,0.5740203857421875,0.3648681640625
101208,0.1717376708984375,0.5069427490234375,0.43292236328125
101209,0.0863189697265625,0.493408203125,0.5117950439453125
101210,0.02349853515625,0.48883056640625,0.568511962890625
101211,-0.035736083984375,0.4980010986328125,0.5870208740234375
101212,-0.1004180908203125,0.5148468017578125,0.60595703125
101213,-0.1703948974609375,0.556640625,0.628082275390625
101214,-0.2252197265625,0.6259765625,0.66925048828125
101215,-0.261138916015625,0.6187896728515625,0.76226806640625
101216,-0.2772369384765625,0.5929107666015625,0.8836669921875
101217,-0.285491943359375,0.6054229736328125,1.019439697265625
101218,-0.3029022216796875,0.654876708984375,1.16473388671875
101219,-0.3336334228515625,0.7154541015625,1.267730712890625
101220,-0.3411407470703125,0.762176513671875,1.277359008789062
101221,-0.3349761962890625,0.8107452392578125,1.19921875
101222,-0.3251800537109375,0.852081298828125,1.085800170898438
101223,-0.322357177734375,0.8849945068359375,1.035110473632812
101224,-0.306121826171875,0.8873138427734375,1.045364379882812
101225,-0.2549285888671875,0.7994384765625,1.113021850585938
101226,-0.17645263671875,0.70782470703125,1.188583374023438
101227,-0.1144561767578125,0.6902008056640625,1.164718627929688
101228,-0.05914306640625,0.67791748046875,1.093765258789062
101229,-0.0049591064453125,0.6567840576171875,1.003387451171875
101230,0.0232086181640625,0.6036224365234375,0.8989715576171875
101231,0.02044677734375,0.5447540283203125,0.8043365478515625
101232,0.0146331787109375,0.5285491943359375,0.7390289306640625
101233,0.0285491943359375,0.5323944091796875,0.6613922119140625
101234,0.0691070556640625,0.55548095703125,0.58660888671875
101235,0.1077117919921875,0.6409454345703125,0.5687713623046875
101236,0.1213836669921875,0.688812255859375,0.5790252685546875
101237,0.12286376953125,0.6478118896484375,0.592254638671875
101238,0.1246490478515625,0.6112518310546875,0.59765625
101239,0.13531494140625,0.66839599609375,0.6199188232421875
101240,0.1907501220703125,0.8182525634765625,0.6104888916015625
101241,0.3078460693359375,1.007308959960938,0.49884033203125
101242,0.443939208984375,1.062789916992188,0.3054656982421875
101243,0.508087158203125,1.025039672851562,0.173553466796875
101244,0.5522613525390625,1.075149536132812,0.166412353515625
101245,0.626708984375,1.125228881835938,0.2130889892578125
101246,0.6538543701171875,1.156356811523438,0.2734222412109375
101247,0.618804931640625,1.183029174804688,0.364593505859375
101248,0.547210693359375,1.217071533203125,0.4416351318359375
101249,0.4680633544921875,1.269073486328125,0.4741363525390625
101250,0.4291229248046875,1.259658813476562,0.457427978515625
101251,0.43255615234375,1.218551635742188,0.4590301513671875
101252,0.45867919921875,1.0830078125,0.4996490478515625
101253,0.49395751953125,0.9131622314453124,0.5519561767578125
101254,0.5235595703125,0.79083251953125,0.55657958984375
101255,0.526397705078125,0.716400146484375,0.5418548583984375
101256,0.4825286865234375,0.625030517578125,0.5149383544921875
101257,0.416961669921875,0.5187225341796875,0.4867095947265625
101258,0.35247802734375,0.466552734375,0.4597930908203125
101259,0.280548095703125,0.4324493408203125,0.4915008544921875
101260,0.170196533203125,0.4260406494140625,0.5515289306640625
101261,0.057891845703125,0.4482879638671875,0.63299560546875
101262,-0.0504302978515625,0.4415283203125,0.7071380615234375
101263,-0.180267333984375,0.4303436279296875,0.8497772216796875
101264,-0.32647705078125,0.4461822509765625,1.024673461914062
101265,-0.437713623046875,0.437225341796875,1.149078369140625
101266,-0.510986328125,0.415924072265625,1.203094482421875
101267,-0.562164306640625,0.3948822021484375,1.2275390625
101268,-0.5796356201171875,0.4157257080078125,1.261856079101562
101269,-0.5746612548828125,0.455535888671875,1.257919311523438
101270,-0.583282470703125,0.4509429931640625,1.240676879882812
101271,-0.576263427734375,0.4486541748046875,1.188385009765625
101272,-0.5055389404296875,0.483917236328125,1.132781982421875
101273,-0.3984375,0.48504638671875,1.08441162109375
101274,-0.295135498046875,0.4663238525390625,1.02313232421875
101275,-0.1806488037109375,0.459442138671875,0.9472808837890624
101276,-0.0580596923828125,0.4893341064453125,0.8692626953125
101277,0.0539093017578125,0.579010009765625,0.8239288330078125
101278,0.14508056640625,0.717681884765625,0.8188629150390625
101279,0.217926025390625,0.871612548828125,0.821075439453125
101280,0.263763427734375,0.9727020263671876,0.799468994140625
101281,0.2813720703125,1.003250122070312,0.7470245361328125
101282,0.26763916015625,0.9875335693359376,0.6521759033203125
101283,0.2352142333984375,0.940093994140625,0.56036376953125
101284,0.18597412109375,0.835296630859375,0.510101318359375
101285,0.108856201171875,0.6951446533203125,0.472564697265625
101286,0.0060577392578125,0.5846099853515625,0.4798583984375
101287,-0.09918212890625,0.52972412109375,0.5471038818359375
101288,-0.1949615478515625,0.5030059814453125,0.61810302734375
101289,-0.2172698974609375,0.4931182861328125,0.667633056640625
101290,-0.1451568603515625,0.51629638671875,0.6665802001953125
101291,-0.0124664306640625,0.5669403076171875,0.61279296875
101292,0.153656005859375,0.5904998779296875,0.5308685302734375
101293,0.3445281982421875,0.5678253173828125,0.3890838623046875
101294,0.5052642822265625,0.52227783203125,0.2349395751953125
101295,0.573883056640625,0.4886322021484375,0.14404296875
101296,0.5576019287109375,0.5302886962890625,0.1685333251953125
101297,0.5140380859375,0.6632537841796875,0.3074188232421875
101298,0.4757080078125,0.793548583984375,0.489410400390625
101299,0.4577484130859375,0.8307342529296875,0.6275634765625
101300,0.46917724609375,0.8482818603515625,0.6711883544921875
101301,0.495086669921875,0.87835693359375,0.5970306396484375
101302,0.5290374755859375,0.8977203369140625,0.5085601806640625
101303,0.5585784912109375,0.902618408203125,0.45867919921875
101304,0.57177734375,0.869354248046875,0.435791015625
101305,0.54083251953125,0.7834625244140625,0.4440460205078125
101306,0.4396820068359375,0.7236480712890625,0.4663543701171875
101307,0.31085205078125,0.6992645263671875,0.5047454833984375
101308,0.1607666015625,0.6793975830078125,0.5741119384765625
101309,0.0101165771484375,0.6739501953125,0.6677093505859375
101310,-0.119842529296875,0.677703857421875,0.7416839599609375
101311,-0.210357666015625,0.726318359375,0.795135498046875
101312,-0.264434814453125,0.7980499267578125,0.8455047607421875
101313,-0.2926788330078125,0.856292724609375,0.9034423828125
101314,-0.3209991455078125,0.9415283203125,0.9684295654296876
101315,-0.3597564697265625,1.02734375,1.052383422851562
101316,-0.4036102294921875,1.084304809570312,1.14447021484375
101317,-0.4556121826171875,1.116256713867188,1.218170166015625
101318,-0.51470947265625,1.115402221679688,1.254867553710938
101319,-0.559417724609375,1.076690673828125,1.23712158203125
101320,-0.543731689453125,0.99365234375,1.1707763671875
101321,-0.4896087646484375,0.8798370361328125,1.065750122070312
101322,-0.4339752197265625,0.793487548828125,0.98223876953125
101323,-0.345184326171875,0.71978759765625,0.920654296875
101324,-0.257781982421875,0.6915130615234375,0.848388671875
101325,-0.194366455078125,0.6827239990234375,0.7748260498046875
101326,-0.15606689453125,0.6603851318359375,0.7183074951171875
101327,-0.12158203125,0.6384429931640625,0.6761627197265625
101328,-0.0810546875,0.6099700927734375,0.6403045654296875
101329,-0.03228759765625,0.5726318359375,0.5925445556640625
101330,0.004791259765625,0.503204345703125,0.51287841796875
101331,0.0407257080078125,0.4321746826171875,0.4256744384765625
101332,0.081329345703125,0.418548583984375,0.401397705078125
101333,0.107269287109375,0.405670166015625,0.3862457275390625
101334,0.1300506591796875,0.3677978515625,0.374755859375
101335,0.1428375244140625,0.324981689453125,0.3790130615234375
101336,0.1260223388671875,0.4184417724609375,0.3967132568359375
101337,0.120697021484375,0.674102783203125,0.3822784423828125
101338,0.1456298828125,0.8951263427734375,0.36199951171875
101339,0.1788177490234375,0.911651611328125,0.268829345703125
101340,0.199493408203125,0.9787139892578124,0.19122314453125
101341,0.2667083740234375,1.133255004882812,0.239959716796875
101342,0.341064453125,1.239013671875,0.292694091796875
101343,0.3800201416015625,1.320510864257812,0.3323211669921875
101344,0.3977813720703125,1.3426513671875,0.4109954833984375
101345,0.4053497314453125,1.3758544921875,0.4783172607421875
101346,0.439453125,1.352081298828125,0.4634857177734375
101347,0.4681396484375,1.253631591796875,0.425140380859375
101348,0.4502716064453125,1.101882934570312,0.38043212890625
101349,0.4180908203125,0.964202880859375,0.3531341552734375
101350,0.3980712890625,0.8876800537109375,0.3394317626953125
101351,0.380615234375,0.8311004638671875,0.3550567626953125
101352,0.346343994140625,0.7658538818359375,0.389129638671875
101353,0.2975311279296875,0.7212982177734375,0.438323974609375
101354,0.2705841064453125,0.6553955078125,0.49969482421875
101355,0.2759552001953125,0.645751953125,0.54443359375
101356,0.29205322265625,0.6322479248046875,0.5928192138671875
101357,0.2762908935546875,0.5533599853515625,0.6759796142578125
101358,0.1997833251953125,0.5006561279296875,0.748626708984375
101359,0.0968780517578125,0.463775634765625,0.8426055908203125
101360,-0.0052032470703125,0.448394775390625,0.9372100830078124
101361,-0.09393310546875,0.4680328369140625,1.019882202148438
101362,-0.170501708984375,0.5081787109375,1.078826904296875
101363,-0.2392730712890625,0.5572662353515625,1.058944702148438
101364,-0.307708740234375,0.5658721923828125,1.051467895507812
101365,-0.37896728515625,0.59521484375,1.127334594726562
101366,-0.4115447998046875,0.631317138671875,1.145339965820312
101367,-0.3697509765625,0.62841796875,1.117080688476562
101368,-0.271881103515625,0.623870849609375,1.08306884765625
101369,-0.1252288818359375,0.622467041015625,1.074462890625
101370,0.027801513671875,0.6236724853515625,1.0777587890625
101371,0.1192626953125,0.6502532958984375,1.049942016601562
101372,0.1567535400390625,0.6985931396484375,0.981719970703125
101373,0.172515869140625,0.733001708984375,0.9042510986328124
101374,0.1809539794921875,0.7531890869140625,0.850555419921875
101375,0.1838226318359375,0.759979248046875,0.8415679931640625
101376,0.17340087890625,0.75933837890625,0.8408050537109375
101377,0.16387939453125,0.7559661865234375,0.7964630126953125
101378,0.1644287109375,0.756195068359375,0.7095489501953125
101379,0.167327880859375,0.745330810546875,0.6251678466796875
101380,0.17742919921875,0.7244720458984375,0.572235107421875
101381,0.178466796875,0.714691162109375,0.5337677001953125
101382,0.150360107421875,0.7044830322265625,0.50653076171875
101383,0.076751708984375,0.6663360595703125,0.5088043212890625
101384,-0.0275115966796875,0.589752197265625,0.5239410400390625
101385,-0.12841796875,0.5402374267578125,0.598297119140625
101386,-0.210174560546875,0.535003662109375,0.686431884765625
101387,-0.2521514892578125,0.51812744140625,0.74285888671875
101388,-0.2282257080078125,0.50335693359375,0.7715301513671875
101389,-0.1427459716796875,0.5268096923828125,0.759552001953125
101390,-0.0322265625,0.5957489013671875,0.73095703125
101391,0.0920562744140625,0.6491241455078125,0.6996612548828125
101392,0.252838134765625,0.662811279296875,0.616729736328125
101393,0.420074462890625,0.678192138671875,0.4942169189453125
101394,0.548736572265625,0.701568603515625,0.380584716796875
101395,0.649169921875,0.6800994873046875,0.3264923095703125
101396,0.7066802978515625,0.658599853515625,0.369232177734375
101397,0.68182373046875,0.6495361328125,0.5033721923828125
101398,0.5957489013671875,0.6523284912109375,0.6504364013671875
101399,0.5205230712890625,0.663238525390625,0.6871795654296875
101400,0.501251220703125,0.6740570068359375,0.5868072509765625
101401,0.518768310546875,0.6783447265625,0.482025146484375
101402,0.5257415771484375,0.67669677734375,0.4592742919921875
101403,0.51861572265625,0.67340087890625,0.46490478515625
101404,0.4779205322265625,0.65789794921875,0.49066162109375
101405,0.392120361328125,0.651580810546875,0.5690765380859375
101406,0.279296875,0.6479949951171875,0.6565399169921875
101407,0.16680908203125,0.6493072509765625,0.734527587890625
101408,0.0634765625,0.642578125,0.8017120361328125
101409,-0.038330078125,0.606719970703125,0.8776397705078125
101410,-0.1201629638671875,0.605987548828125,0.95458984375
101411,-0.1898040771484375,0.638916015625,1.047821044921875
101412,-0.266265869140625,0.6610870361328125,1.15203857421875
101413,-0.3322296142578125,0.704132080078125,1.220016479492188
101414,-0.377716064453125,0.737060546875,1.244888305664062
101415,-0.3988037109375,0.7736053466796875,1.261199951171875
101416,-0.396087646484375,0.8006591796875,1.2496337890625
101417,-0.35211181640625,0.8047943115234375,1.19171142578125
101418,-0.26727294921875,0.77203369140625,1.136306762695312
101419,-0.17974853515625,0.7311248779296875,1.075653076171875
101420,-0.152618408203125,0.6811065673828125,1.014862060546875
101421,-0.1615447998046875,0.62225341796875,0.976348876953125
101422,-0.1629638671875,0.5918426513671875,0.9338531494140624
101423,-0.1560516357421875,0.588104248046875,0.9078521728515624
101424,-0.1450347900390625,0.5955963134765625,0.9024810791015624
101425,-0.1244964599609375,0.61749267578125,0.9038848876953124
101426,-0.0991363525390625,0.6297149658203125,0.8876190185546875
101427,-0.0659942626953125,0.6303253173828125,0.8399658203125
101428,-0.0201873779296875,0.6060638427734375,0.75390625
101429,0.02593994140625,0.5630950927734375,0.655548095703125
101430,0.075775146484375,0.548736572265625,0.5890350341796875
101431,0.1276702880859375,0.55523681640625,0.541748046875
101432,0.1686859130859375,0.5356903076171875,0.4806060791015625
101433,0.1981048583984375,0.409423828125,0.394683837890625
101434,0.216064453125,0.24383544921875,0.3624267578125
101435,0.2010040283203125,0.185791015625,0.43560791015625
101436,0.1846466064453125,0.226837158203125,0.54998779296875
101437,0.1965789794921875,0.31646728515625,0.6175384521484375
101438,0.2365264892578125,0.4578399658203125,0.609954833984375
101439,0.2687530517578125,0.664215087890625,0.5496063232421875
101440,0.27593994140625,0.816986083984375,0.4437255859375
101441,0.253509521484375,0.88165283203125,0.3730010986328125
101442,0.267242431640625,0.9824981689453124,0.373748779296875
101443,0.339813232421875,1.14373779296875,0.347381591796875
101444,0.4075469970703125,1.280197143554688,0.3133392333984375
101445,0.432586669921875,1.319046020507812,0.34619140625
101446,0.41998291015625,1.249496459960938,0.414581298828125
101447,0.3841094970703125,1.219268798828125,0.4637298583984375
101448,0.3473358154296875,1.190048217773438,0.487548828125
101449,0.3069610595703125,1.089767456054688,0.50189208984375
101450,0.2598419189453125,0.98333740234375,0.534942626953125
101451,0.228851318359375,0.92022705078125,0.5665435791015625
101452,0.1988372802734375,0.864532470703125,0.56927490234375
101453,0.177642822265625,0.814208984375,0.5678558349609375
101454,0.1531219482421875,0.7768402099609375,0.54449462890625
101455,0.1380767822265625,0.726470947265625,0.5213775634765625
101456,0.129791259765625,0.678985595703125,0.521514892578125
101457,0.127410888671875,0.6309814453125,0.5594329833984375
101458,0.11480712890625,0.5999603271484375,0.6172637939453125
101459,0.09112548828125,0.5548858642578125,0.6801300048828125
101460,0.055389404296875,0.4900970458984375,0.7393646240234375
101461,0.004547119140625,0.428985595703125,0.775543212890625
101462,-0.0763702392578125,0.3979034423828125,0.8230133056640625
101463,-0.18585205078125,0.38055419921875,0.90460205078125
101464,-0.290252685546875,0.3968048095703125,0.99932861328125
101465,-0.3565826416015625,0.409149169921875,1.100112915039062
101466,-0.388519287109375,0.4037322998046875,1.186111450195312
101467,-0.3861846923828125,0.43572998046875,1.223464965820312
101468,-0.3385009765625,0.4954681396484375,1.211502075195312
101469,-0.2518463134765625,0.55230712890625,1.16387939453125
101470,-0.10870361328125,0.5845794677734375,1.135848999023438
101471,0.054962158203125,0.58697509765625,1.113311767578125
101472,0.1815185546875,0.5953216552734375,1.048477172851562
101473,0.2493438720703125,0.63336181640625,0.96221923828125
101474,0.293365478515625,0.68011474609375,0.8810577392578125
101475,0.3260955810546875,0.7229766845703125,0.796905517578125
101476,0.3410797119140625,0.7833709716796875,0.7374420166015625
101477,0.324554443359375,0.8370208740234375,0.705230712890625
101478,0.2880859375,0.8555755615234375,0.689239501953125
101479,0.242279052734375,0.8433685302734375,0.6724700927734375
101480,0.19476318359375,0.80706787109375,0.6630706787109375
101481,0.1476898193359375,0.7354888916015625,0.657379150390625
101482,0.085601806640625,0.6466064453125,0.64959716796875
101483,-0.0056610107421875,0.5699005126953125,0.6446533203125
101484,-0.1236114501953125,0.50360107421875,0.6694488525390625
101485,-0.2276763916015625,0.4805450439453125,0.724456787109375
101486,-0.2798309326171875,0.4970550537109375,0.7842559814453125
101487,-0.271820068359375,0.5300140380859375,0.812744140625
101488,-0.2081756591796875,0.573272705078125,0.7711944580078125
101489,-0.09515380859375,0.60455322265625,0.69744873046875
101490,0.0480499267578125,0.617706298828125,0.6141815185546875
101491,0.1808624267578125,0.619293212890625,0.51556396484375
101492,0.2965087890625,0.605560302734375,0.43804931640625
101493,0.385101318359375,0.6165771484375,0.40924072265625
101494,0.429595947265625,0.6923828125,0.43963623046875
101495,0.4421844482421875,0.8117523193359375,0.5181884765625
101496,0.4483489990234375,0.8972930908203125,0.583160400390625
101497,0.4976043701171875,0.9422760009765624,0.607513427734375
101498,0.577056884765625,0.97821044921875,0.5846099853515625
101499,0.654205322265625,0.992919921875,0.5286407470703125
101500,0.70709228515625,0.992950439453125,0.46771240234375
101501,0.728973388671875,0.956695556640625,0.4393310546875
101502,0.6959228515625,0.8613739013671875,0.4249114990234375
101503,0.598907470703125,0.732177734375,0.4287109375
101504,0.4579925537109375,0.6319427490234375,0.4847259521484375
101505,0.2975006103515625,0.56964111328125,0.5622711181640625
101506,0.1447296142578125,0.5223388671875,0.6453704833984375
101507,0.0234375,0.5018768310546875,0.7384490966796875
101508,-0.068328857421875,0.55224609375,0.7967681884765625
101509,-0.1435394287109375,0.6174163818359375,0.843841552734375
101510,-0.220916748046875,0.680572509765625,0.938568115234375
101511,-0.3191986083984375,0.670379638671875,1.043441772460938
101512,-0.414947509765625,0.630279541015625,1.118698120117188
101513,-0.4774322509765625,0.6317901611328125,1.167190551757812
101514,-0.5136566162109375,0.660980224609375,1.229400634765625
101515,-0.5530853271484375,0.663970947265625,1.220504760742188
101516,-0.5499267578125,0.6472015380859375,1.0980224609375
101517,-0.477264404296875,0.65618896484375,0.9769744873046876
101518,-0.382843017578125,0.678802490234375,0.8991851806640625
101519,-0.288055419921875,0.70849609375,0.8854217529296875
101520,-0.2286529541015625,0.744659423828125,0.910186767578125
101521,-0.2048797607421875,0.7646331787109375,0.92779541015625
101522,-0.1705474853515625,0.719268798828125,0.947509765625
101523,-0.108154296875,0.6566009521484375,0.9570465087890624
101524,-0.0349273681640625,0.6143798828125,0.9296417236328124
101525,0.0377197265625,0.5949554443359375,0.866424560546875
101526,0.0873565673828125,0.5692901611328125,0.7763214111328125
101527,0.108551025390625,0.5249786376953125,0.645111083984375
101528,0.1295928955078125,0.5269317626953125,0.54595947265625
101529,0.1446075439453125,0.5751953125,0.51165771484375
101530,0.164306640625,0.6638641357421875,0.538543701171875
101531,0.199462890625,0.746978759765625,0.5689697265625
101532,0.2290496826171875,0.80438232421875,0.582000732421875
101533,0.2192230224609375,0.803192138671875,0.5854339599609375
101534,0.173614501953125,0.7364501953125,0.579803466796875
101535,0.137115478515625,0.6142120361328125,0.5386810302734375
101536,0.1257781982421875,0.538970947265625,0.47540283203125
101537,0.150543212890625,0.53216552734375,0.409149169921875
101538,0.1873321533203125,0.627166748046875,0.350555419921875
101539,0.2447662353515625,0.8109588623046875,0.3386688232421875
101540,0.279266357421875,0.935638427734375,0.39068603515625
101541,0.25372314453125,0.9379730224609376,0.42706298828125
101542,0.2694244384765625,1.0245361328125,0.47406005859375
101543,0.3287811279296875,1.128829956054688,0.548309326171875
101544,0.3723297119140625,1.181381225585938,0.5900421142578125
101545,0.3818359375,1.172195434570312,0.5802764892578125
101546,0.36383056640625,1.087646484375,0.5649566650390625
101547,0.3379974365234375,0.97454833984375,0.5278472900390625
101548,0.32708740234375,0.913848876953125,0.48663330078125
101549,0.327728271484375,0.88421630859375,0.4800872802734375
101550,0.327056884765625,0.8296661376953125,0.5204315185546875
101551,0.324737548828125,0.7789306640625,0.5641326904296875
101552,0.3252410888671875,0.7660980224609375,0.6031951904296875
101553,0.32147216796875,0.7801361083984375,0.6223297119140625
101554,0.3002166748046875,0.741455078125,0.5977020263671875
101555,0.28680419921875,0.6692962646484375,0.5612640380859375
101556,0.276031494140625,0.6165924072265625,0.55682373046875
101557,0.2410430908203125,0.5759735107421875,0.6193084716796875
101558,0.1669158935546875,0.54412841796875,0.703094482421875
101559,0.05255126953125,0.5257415771484375,0.749847412109375
101560,-0.0681304931640625,0.4888153076171875,0.7899322509765625
101561,-0.1927947998046875,0.4368896484375,0.84088134765625
101562,-0.314300537109375,0.4250946044921875,0.9256591796875
101563,-0.4172821044921875,0.43011474609375,1.043441772460938
101564,-0.4876861572265625,0.4351806640625,1.157272338867188
101565,-0.51129150390625,0.447235107421875,1.246856689453125
101566,-0.51300048828125,0.45111083984375,1.306671142578125
101567,-0.5157012939453125,0.44476318359375,1.334381103515625
101568,-0.4736328125,0.4515380859375,1.305328369140625
101569,-0.358917236328125,0.4417266845703125,1.231033325195312
101570,-0.235687255859375,0.3964385986328125,1.111618041992188
101571,-0.1424713134765625,0.36474609375,0.989349365234375
101572,-0.0571136474609375,0.3813934326171875,0.9037322998046876
101573,0.023681640625,0.47711181640625,0.8690643310546875
101574,0.1047515869140625,0.6244659423828125,0.85711669921875
101575,0.18994140625,0.76885986328125,0.836456298828125
101576,0.2688446044921875,0.870361328125,0.8049774169921875
101577,0.3241729736328125,0.93646240234375,0.7863311767578125
101578,0.3430023193359375,0.9854736328125,0.766021728515625
101579,0.3218994140625,0.991973876953125,0.738311767578125
101580,0.2633819580078125,0.9491729736328124,0.6990509033203125
101581,0.1663055419921875,0.8760833740234375,0.6519927978515625
101582,0.057464599609375,0.7848358154296875,0.6472320556640625
101583,-0.046844482421875,0.691436767578125,0.6379241943359375
101584,-0.144256591796875,0.5959625244140625,0.575958251953125
101585,-0.2264862060546875,0.5166168212890625,0.51416015625
101586,-0.288299560546875,0.4394378662109375,0.488494873046875
101587,-0.3037872314453125,0.398834228515625,0.5267333984375
101588,-0.25390625,0.4109649658203125,0.5850677490234375
101589,-0.1445770263671875,0.4483184814453125,0.6054840087890625
101590,0.0093994140625,0.4777069091796875,0.633453369140625
101591,0.1937103271484375,0.48724365234375,0.6478424072265625
101592,0.388519287109375,0.4915313720703125,0.5409698486328125
101593,0.5542144775390625,0.4926605224609375,0.3606109619140625
101594,0.6396026611328125,0.4906768798828125,0.222991943359375
101595,0.63848876953125,0.4988250732421875,0.217926025390625
101596,0.57623291015625,0.54010009765625,0.3228607177734375
101597,0.4954833984375,0.6019134521484375,0.48193359375
101598,0.4464874267578125,0.6581573486328125,0.6277618408203125
101599,0.4276580810546875,0.7223968505859375,0.6666259765625
101600,0.4374847412109375,0.7721710205078125,0.587554931640625
101601,0.4632110595703125,0.8078155517578125,0.484466552734375
101602,0.47747802734375,0.8521270751953125,0.42694091796875
101603,0.4541778564453125,0.8635406494140625,0.457611083984375
101604,0.3947296142578125,0.8557586669921875,0.5201263427734375
101605,0.3046875,0.8266754150390625,0.6055450439453125
101606,0.1897125244140625,0.7814788818359375,0.69677734375
101607,0.073486328125,0.7418060302734375,0.78997802734375
101608,-0.033172607421875,0.73699951171875,0.84906005859375
101609,-0.12152099609375,0.7165679931640625,0.8796539306640625
101610,-0.180145263671875,0.714935302734375,0.896240234375
101611,-0.1978912353515625,0.73675537109375,0.940673828125
101612,-0.2252960205078125,0.7794189453125,1.008865356445312
101613,-0.2669525146484375,0.8177337646484375,1.108688354492188
101614,-0.3300933837890625,0.82708740234375,1.20770263671875
101615,-0.3942108154296875,0.884674072265625,1.25946044921875
101616,-0.4318084716796875,0.9380340576171876,1.234970092773438
101617,-0.4373779296875,0.988037109375,1.185012817382812
101618,-0.4310760498046875,1.0313720703125,1.126419067382812
101619,-0.3988800048828125,1.0482177734375,1.069198608398438
101620,-0.3565673828125,0.9969940185546876,1.003662109375
101621,-0.3208160400390625,0.87713623046875,0.9044342041015624
101622,-0.2850799560546875,0.780914306640625,0.8603363037109375
101623,-0.2517852783203125,0.7239990234375,0.878143310546875
101624,-0.2177734375,0.715576171875,0.8909149169921875
101625,-0.189849853515625,0.7048797607421875,0.8525848388671875
101626,-0.1572113037109375,0.70257568359375,0.7778167724609375
101627,-0.1151885986328125,0.6985321044921875,0.675140380859375
101628,-0.0634307861328125,0.6812591552734375,0.5471343994140625
101629,0.001129150390625,0.6371307373046875,0.440887451171875
101630,0.0738525390625,0.60504150390625,0.3793792724609375
101631,0.1511993408203125,0.56341552734375,0.341583251953125
101632,0.189666748046875,0.5137176513671875,0.3350372314453125
101633,0.18719482421875,0.4632568359375,0.3636322021484375
101634,0.1722869873046875,0.465484619140625,0.43096923828125
101635,0.17352294921875,0.551055908203125,0.46380615234375
101636,0.2021331787109375,0.7187042236328125,0.4449310302734375
101637,0.2489776611328125,0.9271240234375,0.3958282470703125
101638,0.3024444580078125,0.942047119140625,0.269683837890625
101639,0.3233489990234375,0.9492950439453124,0.158477783203125
101640,0.36602783203125,1.062484741210938,0.1457366943359375
101641,0.4318389892578125,1.164382934570312,0.1928863525390625
101642,0.463836669921875,1.23028564453125,0.2744140625
101643,0.44464111328125,1.250900268554688,0.345489501953125
101644,0.393798828125,1.225540161132812,0.35675048828125
101645,0.323883056640625,1.202957153320312,0.31549072265625
101646,0.2631683349609375,1.158340454101562,0.299102783203125
101647,0.23663330078125,1.059234619140625,0.3170928955078125
101648,0.2398529052734375,0.975616455078125,0.387420654296875
101649,0.261444091796875,0.90704345703125,0.4749603271484375
101650,0.296142578125,0.857666015625,0.536773681640625
101651,0.317352294921875,0.783172607421875,0.5707855224609375
101652,0.3127593994140625,0.711761474609375,0.585723876953125
101653,0.2988433837890625,0.6497955322265625,0.6008453369140625
101654,0.2834320068359375,0.5822296142578125,0.6127166748046875
101655,0.25048828125,0.5461273193359375,0.6521759033203125
101656,0.1854095458984375,0.569610595703125,0.7366485595703125
101657,0.0923614501953125,0.6456756591796875,0.81060791015625
101658,-0.0177154541015625,0.6420745849609375,0.8406829833984375
101659,-0.12432861328125,0.5461883544921875,0.821197509765625
101660,-0.230316162109375,0.437591552734375,0.815399169921875
101661,-0.33013916015625,0.355804443359375,0.9024200439453124
101662,-0.4168548583984375,0.325775146484375,1.057083129882812
101663,-0.4817962646484375,0.3253173828125,1.210464477539062
101664,-0.5301055908203125,0.3516845703125,1.340240478515625
101665,-0.5687713623046875,0.3882293701171875,1.423233032226562
101666,-0.5465240478515625,0.4098968505859375,1.422012329101562
101667,-0.4265289306640625,0.42449951171875,1.320648193359375
101668,-0.24957275390625,0.42620849609375,1.160079956054688
101669,-0.0660247802734375,0.4100341796875,1.014602661132812
101670,0.0809173583984375,0.4235992431640625,0.8930511474609375
101671,0.173370361328125,0.45233154296875,0.7824859619140625
101672,0.2154083251953125,0.53399658203125,0.7410736083984375
101673,0.215789794921875,0.6611480712890625,0.7938995361328125
101674,0.1949005126953125,0.788970947265625,0.8552703857421875
101675,0.173095703125,0.8954620361328125,0.8582763671875
101676,0.1616973876953125,0.950347900390625,0.80426025390625
101677,0.153106689453125,0.963958740234375,0.7228851318359375
101678,0.142547607421875,0.9477691650390624,0.6300811767578125
101679,0.1287689208984375,0.9151763916015624,0.5504608154296875
101680,0.1085357666015625,0.8611602783203125,0.5051422119140625
101681,0.073211669921875,0.79443359375,0.490509033203125
101682,0.0058746337890625,0.7197113037109375,0.467132568359375
101683,-0.103729248046875,0.64324951171875,0.46246337890625
101684,-0.226531982421875,0.5713348388671875,0.48968505859375
101685,-0.3165130615234375,0.5361785888671875,0.5918731689453125
101686,-0.331512451171875,0.5413818359375,0.714202880859375
101687,-0.2422943115234375,0.5711669921875,0.7646942138671875
101688,-0.122528076171875,0.5982666015625,0.7418975830078125
101689,0.0061187744140625,0.59552001953125,0.7097320556640625
101690,0.1579437255859375,0.618011474609375,0.6017913818359375
101691,0.3027191162109375,0.6567840576171875,0.4823150634765625
101692,0.41705322265625,0.6507415771484375,0.440826416015625
101693,0.5175933837890625,0.6295318603515625,0.4411468505859375
101694,0.61737060546875,0.629241943359375,0.437469482421875
101695,0.6902923583984375,0.6708221435546875,0.4864349365234375
101696,0.701202392578125,0.730224609375,0.57476806640625
101697,0.688934326171875,0.76275634765625,0.6426849365234375
101698,0.6924896240234375,0.7839813232421875,0.63592529296875
101699,0.6778411865234375,0.7994537353515625,0.59271240234375
101700,0.6260223388671875,0.818634033203125,0.5321807861328125
101701,0.5463409423828125,0.8189849853515625,0.447296142578125
101702,0.4167327880859375,0.7883758544921875,0.3950653076171875
101703,0.2237548828125,0.6997222900390625,0.470367431640625
101704,0.0202484130859375,0.631103515625,0.645538330078125
101705,-0.11651611328125,0.6364593505859375,0.7860870361328125
101706,-0.1870269775390625,0.663238525390625,0.839935302734375
101707,-0.2079620361328125,0.653106689453125,0.8308563232421875
101708,-0.22412109375,0.64532470703125,0.8469390869140625
101709,-0.2600250244140625,0.6559600830078125,0.9023895263671876
101710,-0.304351806640625,0.6683197021484375,0.9850006103515624
101711,-0.3627777099609375,0.6818389892578125,1.0889892578125
101712,-0.431854248046875,0.7040252685546875,1.174285888671875
101713,-0.498016357421875,0.7129974365234375,1.201202392578125
101714,-0.541748046875,0.69964599609375,1.152786254882812
101715,-0.536376953125,0.717803955078125,1.054428100585938
101716,-0.48846435546875,0.74652099609375,0.9863433837890624
101717,-0.4283599853515625,0.7707366943359375,0.943145751953125
101718,-0.3833160400390625,0.77398681640625,0.92333984375
101719,-0.3449859619140625,0.7366180419921875,0.9539642333984376
101720,-0.2957611083984375,0.6843719482421875,1.014663696289062
101721,-0.242889404296875,0.6703338623046875,1.011199951171875
101722,-0.1901092529296875,0.680908203125,0.9793853759765624
101723,-0.159088134765625,0.69171142578125,0.9775543212890624
101724,-0.139007568359375,0.7032470703125,0.9712371826171876
101725,-0.125732421875,0.689453125,0.8935699462890625
101726,-0.112030029296875,0.6481781005859375,0.7541656494140625
101727,-0.06817626953125,0.639129638671875,0.622100830078125
101728,-0.003509521484375,0.6243133544921875,0.5026702880859375
101729,0.0719451904296875,0.5567626953125,0.3829803466796875
101730,0.140655517578125,0.4723358154296875,0.3274993896484375
101731,0.194366455078125,0.4873046875,0.3491973876953125
101732,0.2366790771484375,0.5264892578125,0.414398193359375
101733,0.28753662109375,0.55316162109375,0.4684600830078125
101734,0.3525543212890625,0.6192474365234375,0.5076904296875
101735,0.4132080078125,0.72064208984375,0.5314483642578125
101736,0.464813232421875,0.850555419921875,0.4659881591796875
101737,0.4634246826171875,0.86126708984375,0.348876953125
101738,0.431121826171875,0.9290618896484376,0.3075408935546875
101739,0.4440460205078125,1.046249389648438,0.305389404296875
101740,0.455474853515625,1.135635375976562,0.3110198974609375
101741,0.4058837890625,1.175064086914062,0.3260650634765625
101742,0.3029327392578125,1.132400512695312,0.3919525146484375
101743,0.19085693359375,1.05999755859375,0.4895172119140625
101744,0.1016387939453125,1.002456665039062,0.5362091064453125
101745,0.045318603515625,1.011932373046875,0.5703887939453125
101746,0.0148162841796875,1.00689697265625,0.6112060546875
101747,0.0292816162109375,0.9333648681640624,0.6820220947265625
101748,0.0640411376953125,0.83514404296875,0.73046875
101749,0.1255035400390625,0.7635650634765625,0.697174072265625
101750,0.1826629638671875,0.754119873046875,0.599609375
101751,0.2237701416015625,0.711639404296875,0.521820068359375
101752,0.243743896484375,0.642242431640625,0.5219879150390625
101753,0.239654541015625,0.58917236328125,0.57037353515625
101754,0.227630615234375,0.547332763671875,0.6346435546875
101755,0.212127685546875,0.51910400390625,0.6881561279296875
101756,0.15869140625,0.4740447998046875,0.7263641357421875
101757,0.0701141357421875,0.4471435546875,0.7535858154296875
101758,-0.05706787109375,0.424896240234375,0.77935791015625
101759,-0.1917877197265625,0.384735107421875,0.8267059326171875
101760,-0.3141632080078125,0.366729736328125,0.8759765625
101761,-0.399932861328125,0.3682098388671875,0.9627227783203124
101762,-0.4430694580078125,0.3733367919921875,1.108810424804688
101763,-0.4521942138671875,0.3975067138671875,1.253707885742188
101764,-0.4384307861328125,0.4364776611328125,1.360992431640625
101765,-0.415069580078125,0.4556732177734375,1.42083740234375
101766,-0.3581695556640625,0.4727020263671875,1.413528442382812
101767,-0.2606658935546875,0.477020263671875,1.328781127929688
101768,-0.156982421875,0.4382476806640625,1.184890747070312
101769,-0.061248779296875,0.4219970703125,1.029632568359375
101770,0.0290374755859375,0.4904632568359375,0.925994873046875
101771,0.094024658203125,0.611114501953125,0.8992919921875
101772,0.1273040771484375,0.7509307861328125,0.8909454345703125
101773,0.1591339111328125,0.8751220703125,0.876953125
101774,0.2077484130859375,0.968841552734375,0.860260009765625
101775,0.2635040283203125,1.026290893554688,0.812225341796875
101776,0.3056793212890625,1.027496337890625,0.74041748046875
101777,0.30804443359375,0.9775848388671876,0.625030517578125
101778,0.2704010009765625,0.870849609375,0.5185089111328125
101779,0.203765869140625,0.745452880859375,0.4674072265625
101780,0.0915985107421875,0.646240234375,0.474273681640625
101781,-0.0555267333984375,0.58062744140625,0.5220184326171875
101782,-0.2037506103515625,0.530609130859375,0.58880615234375
101783,-0.3087005615234375,0.5010986328125,0.6425018310546875
101784,-0.3356170654296875,0.4835968017578125,0.6534576416015625
101785,-0.2753448486328125,0.4642486572265625,0.6280364990234375
101786,-0.1560211181640625,0.453460693359375,0.56695556640625
101787,-0.0067138671875,0.4651336669921875,0.4659271240234375
101788,0.161163330078125,0.4860992431640625,0.3147430419921875
101789,0.3154296875,0.5453948974609375,0.1957244873046875
101790,0.40740966796875,0.6321258544921875,0.202972412109375
101791,0.426361083984375,0.703125,0.3242340087890625
101792,0.4208221435546875,0.7477874755859375,0.482330322265625
101793,0.473297119140625,0.817779541015625,0.5665740966796875
101794,0.56329345703125,0.8953094482421875,0.5625152587890625
101795,0.6470794677734375,0.9631195068359376,0.5146026611328125
101796,0.692626953125,1.02752685546875,0.4662933349609375
101797,0.676666259765625,1.0550537109375,0.442291259765625
101798,0.601898193359375,1.022064208984375,0.466644287109375
101799,0.491485595703125,0.9015655517578124,0.5365447998046875
101800,0.3637542724609375,0.772430419921875,0.63226318359375
101801,0.2555389404296875,0.6709136962890625,0.7071075439453125
101802,0.1485595703125,0.6486358642578125,0.778289794921875
101803,0.0399932861328125,0.6609954833984375,0.830902099609375
101804,-0.06365966796875,0.66339111328125,0.8751983642578125
101805,-0.1585845947265625,0.6659393310546875,0.9167633056640624
101806,-0.2419281005859375,0.7020416259765625,0.9278106689453124
101807,-0.3054656982421875,0.71142578125,0.9461669921875
101808,-0.35791015625,0.7093353271484375,1.000595092773438
101809,-0.4171142578125,0.7056121826171875,1.0474853515625
101810,-0.4638824462890625,0.6915435791015625,1.097885131835938
101811,-0.49627685546875,0.6615753173828125,1.197998046875
101812,-0.507293701171875,0.6810455322265625,1.252212524414062
101813,-0.4807586669921875,0.7204742431640625,1.219314575195312
101814,-0.4411773681640625,0.75189208984375,1.10235595703125
101815,-0.4056854248046875,0.76324462890625,0.9838714599609376
101816,-0.3668212890625,0.78009033203125,0.8999481201171875
101817,-0.332427978515625,0.80902099609375,0.860565185546875
101818,-0.3164520263671875,0.767120361328125,0.867462158203125
101819,-0.275421142578125,0.6640625,0.9116973876953124
101820,-0.2177886962890625,0.6096038818359375,0.926727294921875
101821,-0.1745452880859375,0.597381591796875,0.8864288330078125
101822,-0.1540069580078125,0.5811767578125,0.81597900390625
101823,-0.1399383544921875,0.545562744140625,0.7179107666015625
101824,-0.1250457763671875,0.5138092041015625,0.6146087646484375
101825,-0.0996246337890625,0.5115203857421875,0.5635833740234375
101826,-0.061187744140625,0.5459747314453125,0.563995361328125
101827,-0.0069427490234375,0.564361572265625,0.5818634033203125
101828,0.037567138671875,0.5648345947265625,0.597747802734375
101829,0.08135986328125,0.559234619140625,0.6077423095703125
101830,0.1375732421875,0.55322265625,0.6165771484375
101831,0.19384765625,0.574188232421875,0.6084442138671875
101832,0.2575225830078125,0.6176300048828125,0.551788330078125
101833,0.3179168701171875,0.683135986328125,0.4463348388671875
101834,0.361175537109375,0.82098388671875,0.329833984375
101835,0.38177490234375,0.9509429931640624,0.2570037841796875
101836,0.378997802734375,1.011215209960938,0.2816162109375
101837,0.361175537109375,1.075775146484375,0.3787994384765625
101838,0.3758087158203125,1.17034912109375,0.4629058837890625
101839,0.42803955078125,1.275466918945312,0.465057373046875
101840,0.475250244140625,1.330398559570312,0.408172607421875
101841,0.4910888671875,1.319290161132812,0.355743408203125
101842,0.464996337890625,1.268646240234375,0.3241424560546875
101843,0.4083099365234375,1.192703247070312,0.31988525390625
101844,0.3453521728515625,1.085617065429688,0.323760986328125
101845,0.3025054931640625,0.926177978515625,0.314697265625
101846,0.281707763671875,0.761199951171875,0.31536865234375
101847,0.2545166015625,0.6515960693359375,0.33050537109375
101848,0.2083282470703125,0.61895751953125,0.412872314453125
101849,0.1450958251953125,0.6500244140625,0.5964813232421875
101850,0.1142425537109375,0.6300811767578125,0.8166351318359375
101851,0.1270751953125,0.588348388671875,0.922393798828125
101852,0.1212615966796875,0.5996246337890625,0.8950347900390625
101853,0.0683746337890625,0.5501556396484375,0.8135986328125
101854,-0.0124664306640625,0.4452056884765625,0.7233123779296875
101855,-0.09063720703125,0.3690948486328125,0.649017333984375
101856,-0.1446990966796875,0.3428955078125,0.644317626953125
101857,-0.1882476806640625,0.3227386474609375,0.712799072265625
101858,-0.2472686767578125,0.3004608154296875,0.819793701171875
101859,-0.317901611328125,0.2783050537109375,0.953399658203125
101860,-0.36993408203125,0.277862548828125,1.117111206054688
101861,-0.396881103515625,0.2959747314453125,1.253768920898438
101862,-0.3995513916015625,0.305267333984375,1.302825927734375
101863,-0.3513336181640625,0.308563232421875,1.249053955078125
101864,-0.2495269775390625,0.328765869140625,1.124465942382812
101865,-0.1216278076171875,0.3271942138671875,1.000473022460938
101866,-0.00634765625,0.326690673828125,0.9102935791015624
101867,0.090545654296875,0.3570404052734375,0.8494415283203125
101868,0.17510986328125,0.46002197265625,0.80816650390625
101869,0.2265167236328125,0.6224517822265625,0.78790283203125
101870,0.243438720703125,0.7926177978515625,0.8153076171875
101871,0.2353363037109375,0.9302520751953124,0.878509521484375
101872,0.2059173583984375,1.005783081054688,0.9112396240234376
101873,0.167022705078125,1.038009643554688,0.8609466552734375
101874,0.1256103515625,1.037384033203125,0.799163818359375
101875,0.06866455078125,1.022659301757812,0.760284423828125
101876,0.0037841796875,0.9649505615234376,0.729217529296875
101877,-0.0548553466796875,0.851470947265625,0.70404052734375
101878,-0.1133575439453125,0.7296142578125,0.6629180908203125
101879,-0.1770477294921875,0.6340484619140625,0.6116943359375
101880,-0.2444305419921875,0.577667236328125,0.592926025390625
101881,-0.3065643310546875,0.5460052490234375,0.6169586181640625
101882,-0.3381195068359375,0.522735595703125,0.644866943359375
101883,-0.322540283203125,0.4985809326171875,0.708404541015625
101884,-0.244354248046875,0.4945068359375,0.7523956298828125
101885,-0.124603271484375,0.5466461181640625,0.75067138671875
101886,0.0299835205078125,0.58831787109375,0.7526092529296875
101887,0.2060089111328125,0.576263427734375,0.6541290283203125
101888,0.3743743896484375,0.5751495361328125,0.481414794921875
101889,0.4779815673828125,0.58013916015625,0.3956756591796875
101890,0.5090179443359375,0.5767974853515625,0.381011962890625
101891,0.5191192626953125,0.621063232421875,0.3790740966796875
101892,0.536590576171875,0.7449493408203125,0.4188232421875
101893,0.5473785400390625,0.8429107666015625,0.49688720703125
101894,0.56207275390625,0.879058837890625,0.57147216796875
101895,0.5816802978515625,0.9216461181640624,0.5813751220703125
101896,0.583770751953125,0.957855224609375,0.5278472900390625
101897,0.5722808837890625,0.9783935546875,0.47479248046875
101898,0.536895751953125,0.96246337890625,0.46185302734375
101899,0.4659576416015625,0.87109375,0.46697998046875
101900,0.35894775390625,0.783721923828125,0.4923095703125
101901,0.208709716796875,0.75115966796875,0.5510101318359375
101902,0.06707763671875,0.737396240234375,0.6632537841796875
101903,-0.0298004150390625,0.6978302001953125,0.76019287109375
101904,-0.086517333984375,0.704010009765625,0.783843994140625
101905,-0.112457275390625,0.7254180908203125,0.7636260986328125
101906,-0.139373779296875,0.7488250732421875,0.74810791015625
101907,-0.1695098876953125,0.7507781982421875,0.77996826171875
101908,-0.21002197265625,0.7584228515625,0.8626556396484375
101909,-0.2803497314453125,0.746124267578125,0.937896728515625
101910,-0.3598480224609375,0.7431640625,1.04205322265625
101911,-0.4269866943359375,0.7581024169921875,1.156982421875
101912,-0.4828033447265625,0.796417236328125,1.200820922851562
101913,-0.5090179443359375,0.8328857421875,1.174911499023438
101914,-0.4888458251953125,0.8747406005859375,1.10906982421875
101915,-0.418609619140625,0.9252471923828124,1.037567138671875
101916,-0.3303985595703125,0.963165283203125,0.9813690185546876
101917,-0.25848388671875,0.926483154296875,0.9511871337890624
101918,-0.2144775390625,0.797149658203125,0.976531982421875
101919,-0.1974639892578125,0.70703125,1.01165771484375
101920,-0.20123291015625,0.691680908203125,0.99420166015625
101921,-0.198944091796875,0.6991119384765625,0.969573974609375
101922,-0.1965789794921875,0.7200927734375,0.945556640625
101923,-0.1866455078125,0.7257537841796875,0.8622589111328125
101924,-0.1537933349609375,0.6929168701171875,0.7115325927734375
101925,-0.0948486328125,0.636474609375,0.561431884765625
101926,-0.0135040283203125,0.546142578125,0.40423583984375
101927,0.0831451416015625,0.5074310302734375,0.344207763671875
101928,0.17236328125,0.522369384765625,0.3804168701171875
101929,0.217864990234375,0.5006866455078125,0.3873291015625
101930,0.2368927001953125,0.4129180908203125,0.40179443359375
101931,0.2501678466796875,0.38934326171875,0.470703125
101932,0.268280029296875,0.4275970458984375,0.5253753662109375
101933,0.3047637939453125,0.50970458984375,0.531707763671875
101934,0.362640380859375,0.6704864501953125,0.4849700927734375
101935,0.4328765869140625,0.88433837890625,0.38446044921875
101936,0.490692138671875,0.9112701416015624,0.2635345458984375
101937,0.515838623046875,0.9288787841796876,0.2171630859375
101938,0.5451507568359375,1.047698974609375,0.2302093505859375
101939,0.5563507080078125,1.154739379882812,0.2897491455078125
101940,0.5191650390625,1.2169189453125,0.3689117431640625
101941,0.426544189453125,1.167648315429688,0.4305877685546875
101942,0.3046875,1.10455322265625,0.4547882080078125
101943,0.183868408203125,1.056747436523438,0.45941162109375
101944,0.0674896240234375,1.019683837890625,0.4840545654296875
101945,-0.0010833740234375,0.9614410400390624,0.5438995361328125
101946,-0.0171661376953125,0.91619873046875,0.6292266845703125
101947,0.004974365234375,0.8564453125,0.6970672607421875
101948,0.0558624267578125,0.8021240234375,0.7109222412109375
101949,0.118560791015625,0.7663421630859375,0.687225341796875
101950,0.17926025390625,0.7494354248046875,0.6809234619140625
101951,0.228759765625,0.71002197265625,0.69854736328125
101952,0.2432403564453125,0.6685638427734375,0.7174072265625
101953,0.2313079833984375,0.622467041015625,0.730194091796875
101954,0.1780242919921875,0.5832977294921875,0.7318878173828125
101955,0.1097869873046875,0.541900634765625,0.7364501953125
