time_idx,accelerometerAccelerationX(G),accelerometerAccelerationY(G),accelerometerAccelerationZ(G)
260000,0.4802093505859375,-0.42730712890625,-0.61676025390625
260001,0.4798736572265625,-0.4244232177734375,-0.62164306640625
260002,0.46929931640625,-0.4137115478515625,-0.638458251953125
260003,0.467010498046875,-0.398834228515625,-0.659942626953125
260004,0.4473419189453125,-0.377777099609375,-0.6719818115234375
260005,0.4176483154296875,-0.355743408203125,-0.681121826171875
260006,0.391143798828125,-0.3412933349609375,-0.6836090087890625
260007,0.3851776123046875,-0.3325347900390625,-0.686065673828125
260008,0.3930816650390625,-0.3229827880859375,-0.6835784912109375
260009,0.40521240234375,-0.314849853515625,-0.68206787109375
260010,0.4290008544921875,-0.311126708984375,-0.6794281005859375
260011,0.4492340087890625,-0.306396484375,-0.6712493896484375
260012,0.4638214111328125,-0.3006591796875,-0.6728515625
260013,0.4842681884765625,-0.29473876953125,-0.6902008056640625
260014,0.50909423828125,-0.2863922119140625,-0.7353057861328125
260015,0.539947509765625,-0.2841644287109375,-0.7965545654296875
260016,0.5713653564453125,-0.2827301025390625,-0.8483734130859375
260017,0.6055450439453125,-0.2810211181640625,-0.8900299072265625
260018,0.616851806640625,-0.2740325927734375,-0.909271240234375
260019,0.6175079345703125,-0.255340576171875,-0.9068603515625
260020,0.5915679931640625,-0.2218017578125,-0.892242431640625
260021,0.5544281005859375,-0.1726837158203125,-0.8975372314453125
260022,0.4980316162109375,-0.1330108642578125,-0.91339111328125
260023,0.442047119140625,-0.116485595703125,-0.94451904296875
260024,0.3992767333984375,-0.1070404052734375,-0.9680328369140624
260025,0.36614990234375,-0.1121368408203125,-0.95648193359375
260026,0.3414459228515625,-0.1268463134765625,-0.949249267578125
260027,0.31756591796875,-0.1546783447265625,-0.9285736083984376
260028,0.292388916015625,-0.156494140625,-0.9168853759765624
260029,0.2662506103515625,-0.142181396484375,-0.912506103515625
260030,0.2441253662109375,-0.11383056640625,-0.9147796630859376
260031,0.2272186279296875,-0.06939697265625,-0.9240875244140624
260032,0.20806884765625,-0.036895751953125,-0.9414520263671876
260033,0.187957763671875,-0.0160064697265625,-0.9501190185546876
260034,0.1683502197265625,-0.0087127685546875,-0.9519500732421876
260035,0.15386962890625,-0.0165252685546875,-0.946868896484375
260036,0.1546630859375,-0.03076171875,-0.9498443603515624
260037,0.16644287109375,-0.059051513671875,-0.9617156982421876
260038,0.1873321533203125,-0.0950775146484375,-0.9790191650390624
260039,0.22454833984375,-0.1413421630859375,-0.9921722412109376
260040,0.269378662109375,-0.1916961669921875,-1.00958251953125
260041,0.3140716552734375,-0.233551025390625,-1.037033081054688
260042,0.35076904296875,-0.276763916015625,-1.069427490234375
260043,0.400177001953125,-0.3255615234375,-1.083221435546875
260044,0.45062255859375,-0.362030029296875,-1.060760498046875
260045,0.499481201171875,-0.3701324462890625,-1.028854370117188
260046,0.5369415283203125,-0.3575439453125,-0.9888458251953124
260047,0.5602264404296875,-0.3300628662109375,-0.9359893798828124
260048,0.5694580078125,-0.2936248779296875,-0.88470458984375
260049,0.561309814453125,-0.25537109375,-0.842041015625
260050,0.5334320068359375,-0.2367401123046875,-0.809783935546875
260051,0.4903106689453125,-0.23583984375,-0.7944488525390625
260052,0.450836181640625,-0.24749755859375,-0.7856597900390625
260053,0.4251861572265625,-0.274505615234375,-0.7845306396484375
260054,0.4344635009765625,-0.3119659423828125,-0.7988433837890625
260055,0.4661865234375,-0.355194091796875,-0.812408447265625
260056,0.5069580078125,-0.3932647705078125,-0.8194427490234375
260057,0.5623016357421875,-0.4175567626953125,-0.81158447265625
260058,0.6302642822265625,-0.4368743896484375,-0.7852020263671875
260059,0.6912994384765625,-0.4534454345703125,-0.7456512451171875
260060,0.7191925048828125,-0.4654541015625,-0.7198944091796875
260061,0.7044677734375,-0.465728759765625,-0.7097015380859375
260062,0.6549530029296875,-0.4485015869140625,-0.713714599609375
260063,0.59722900390625,-0.43505859375,-0.7433319091796875
260064,0.5553436279296875,-0.428924560546875,-0.76568603515625
260065,0.527069091796875,-0.41424560546875,-0.77313232421875
260066,0.5073394775390625,-0.3955841064453125,-0.77215576171875
260067,0.49713134765625,-0.3739471435546875,-0.7547454833984375
260068,0.4886932373046875,-0.358734130859375,-0.7116546630859375
260069,0.47015380859375,-0.336700439453125,-0.668670654296875
260070,0.442962646484375,-0.298065185546875,-0.6439208984375
260071,0.4165496826171875,-0.2503509521484375,-0.653411865234375
260072,0.4031219482421875,-0.2053985595703125,-0.7019195556640625
260073,0.4146881103515625,-0.1695404052734375,-0.76220703125
260074,0.4558258056640625,-0.1558074951171875,-0.8100433349609375
260075,0.511383056640625,-0.1400909423828125,-0.8284759521484375
260076,0.558624267578125,-0.14019775390625,-0.808837890625
260077,0.58099365234375,-0.1565093994140625,-0.7626495361328125
260078,0.595489501953125,-0.18670654296875,-0.7276611328125
260079,0.6082000732421875,-0.19256591796875,-0.7129058837890625
260080,0.606536865234375,-0.2104949951171875,-0.7134857177734375
260081,0.592376708984375,-0.256988525390625,-0.72125244140625
260082,0.58502197265625,-0.304351806640625,-0.728790283203125
260083,0.5792236328125,-0.364715576171875,-0.758819580078125
260084,0.5774383544921875,-0.4221038818359375,-0.82635498046875
260085,0.5626068115234375,-0.4695281982421875,-0.8974761962890625
260086,0.5306396484375,-0.505615234375,-0.951995849609375
260087,0.4990234375,-0.5050811767578125,-0.990478515625
260088,0.47198486328125,-0.4819488525390625,-1.015518188476562
260089,0.460357666015625,-0.46124267578125,-1.017440795898438
260090,0.4586334228515625,-0.44158935546875,-1.001235961914062
260091,0.4684295654296875,-0.415557861328125,-0.9945526123046876
260092,0.4613494873046875,-0.3949737548828125,-0.9842681884765624
260093,0.441131591796875,-0.3672943115234375,-0.969512939453125
260094,0.422332763671875,-0.3240814208984375,-0.9519195556640624
260095,0.4044036865234375,-0.2762298583984375,-0.9326934814453124
260096,0.3956146240234375,-0.2230682373046875,-0.91656494140625
260097,0.3787078857421875,-0.1791534423828125,-0.9035797119140624
260098,0.3550567626953125,-0.1353912353515625,-0.8984832763671875
260099,0.324066162109375,-0.097076416015625,-0.9065093994140624
260100,0.29180908203125,-0.0634002685546875,-0.926483154296875
260101,0.2550048828125,-0.0342864990234375,-0.9425201416015624
260102,0.2130584716796875,-0.0127716064453125,-0.9430999755859376
260103,0.1735992431640625,0.0142364501953125,-0.9511871337890624
260104,0.140899658203125,0.040985107421875,-0.964630126953125
260105,0.1165313720703125,0.0496673583984375,-0.9609222412109376
260106,0.095550537109375,0.0585479736328125,-0.933441162109375
260107,0.0876617431640625,0.0723724365234375,-0.9204864501953124
260108,0.100006103515625,0.077362060546875,-0.9207763671875
260109,0.1239013671875,0.0703887939453125,-0.916595458984375
260110,0.155548095703125,0.0494232177734375,-0.9173431396484376
260111,0.194915771484375,0.0038604736328125,-0.915069580078125
260112,0.241607666015625,-0.069580078125,-0.9049072265625
260113,0.288665771484375,-0.1506195068359375,-0.9066314697265624
260114,0.3306427001953125,-0.2082977294921875,-0.93878173828125
260115,0.3623809814453125,-0.2514495849609375,-0.97283935546875
260116,0.3945465087890625,-0.29107666015625,-0.9730682373046876
260117,0.441802978515625,-0.3352508544921875,-0.9259490966796876
260118,0.478057861328125,-0.3556365966796875,-0.8650054931640625
260119,0.4871673583984375,-0.3408966064453125,-0.82196044921875
260120,0.479949951171875,-0.313507080078125,-0.8210906982421875
260121,0.4590301513671875,-0.2929229736328125,-0.8461761474609375
260122,0.4324798583984375,-0.2762603759765625,-0.8479766845703125
260123,0.417205810546875,-0.2604217529296875,-0.844757080078125
260124,0.427947998046875,-0.2473297119140625,-0.848388671875
260125,0.4533843994140625,-0.2321929931640625,-0.84954833984375
260126,0.4869232177734375,-0.207977294921875,-0.86224365234375
260127,0.5329742431640625,-0.1782989501953125,-0.881805419921875
260128,0.5844268798828125,-0.1553192138671875,-0.913482666015625
260129,0.6296539306640625,-0.154510498046875,-0.9311065673828124
260130,0.665924072265625,-0.169769287109375,-0.926177978515625
260131,0.68408203125,-0.2095794677734375,-0.9181671142578124
260132,0.679656982421875,-0.279449462890625,-0.9093475341796876
260133,0.66461181640625,-0.352447509765625,-0.903076171875
260134,0.6547393798828125,-0.411407470703125,-0.90167236328125
260135,0.646575927734375,-0.4439697265625,-0.8982086181640625
260136,0.628021240234375,-0.448944091796875,-0.9114837646484376
260137,0.602294921875,-0.4389495849609375,-0.9464111328125
260138,0.58935546875,-0.4285736083984375,-0.9682159423828124
260139,0.5970306396484375,-0.4241943359375,-0.9409637451171876
260140,0.6092681884765625,-0.4235076904296875,-0.8807220458984375
260141,0.6165313720703125,-0.421783447265625,-0.8283843994140625
260142,0.61346435546875,-0.4132843017578125,-0.778533935546875
260143,0.598602294921875,-0.401123046875,-0.735595703125
260144,0.5731201171875,-0.3858642578125,-0.7019805908203125
260145,0.53411865234375,-0.355743408203125,-0.68701171875
260146,0.485687255859375,-0.3184814453125,-0.6931915283203125
260147,0.44171142578125,-0.291229248046875,-0.7001190185546875
260148,0.4055938720703125,-0.28363037109375,-0.702484130859375
260149,0.379974365234375,-0.286102294921875,-0.71533203125
260150,0.3791961669921875,-0.29058837890625,-0.7230224609375
260151,0.39605712890625,-0.2887725830078125,-0.7142791748046875
260152,0.4188690185546875,-0.2821197509765625,-0.6944732666015625
260153,0.4450225830078125,-0.2728729248046875,-0.674652099609375
260154,0.47259521484375,-0.2580413818359375,-0.656494140625
260155,0.49407958984375,-0.2432098388671875,-0.659149169921875
260156,0.5093994140625,-0.2418212890625,-0.685882568359375
260157,0.521148681640625,-0.2525177001953125,-0.7276458740234375
260158,0.531768798828125,-0.2656707763671875,-0.7827911376953125
260159,0.5326690673828125,-0.2789459228515625,-0.85430908203125
260160,0.5337371826171875,-0.2859649658203125,-0.90087890625
260161,0.533203125,-0.282989501953125,-0.9146728515625
260162,0.5276031494140625,-0.274139404296875,-0.9150238037109376
260163,0.5140533447265625,-0.25628662109375,-0.9103240966796876
260164,0.4898223876953125,-0.227752685546875,-0.89923095703125
260165,0.4487762451171875,-0.206146240234375,-0.88446044921875
260166,0.414520263671875,-0.1927337646484375,-0.881622314453125
260167,0.37982177734375,-0.1754302978515625,-0.885162353515625
260168,0.3466033935546875,-0.16357421875,-0.909088134765625
260169,0.3145294189453125,-0.1524810791015625,-0.9419708251953124
260170,0.2833709716796875,-0.13702392578125,-0.9693756103515624
260171,0.2541351318359375,-0.116790771484375,-0.9881744384765624
260172,0.2266387939453125,-0.1107177734375,-0.98876953125
260173,0.2104949951171875,-0.10101318359375,-0.9558868408203124
260174,0.20172119140625,-0.0771026611328125,-0.9267578125
260175,0.2002105712890625,-0.0641937255859375,-0.9089202880859376
260176,0.202667236328125,-0.051177978515625,-0.885772705078125
260177,0.197967529296875,-0.0501251220703125,-0.8572998046875
260178,0.186431884765625,-0.0659332275390625,-0.8273773193359375
260179,0.1767425537109375,-0.075927734375,-0.8262481689453125
260180,0.18072509765625,-0.0772705078125,-0.861480712890625
260181,0.1970062255859375,-0.0691070556640625,-0.9171295166015624
260182,0.231842041015625,-0.0743255615234375,-0.96588134765625
260183,0.2893524169921875,-0.1002655029296875,-0.9963226318359376
260184,0.36151123046875,-0.12017822265625,-0.982696533203125
260185,0.43359375,-0.1284637451171875,-0.9819488525390624
260186,0.48614501953125,-0.1481170654296875,-1.00213623046875
260187,0.535186767578125,-0.1507110595703125,-0.9779815673828124
260188,0.570709228515625,-0.15203857421875,-0.95989990234375
260189,0.5856781005859375,-0.1553802490234375,-0.9576416015625
260190,0.5815582275390625,-0.1557769775390625,-0.9389495849609376
260191,0.5615386962890625,-0.1656646728515625,-0.9026031494140624
260192,0.5343475341796875,-0.1906280517578125,-0.873291015625
260193,0.5055084228515625,-0.2264862060546875,-0.8474578857421875
260194,0.4774169921875,-0.27166748046875,-0.8414764404296875
260195,0.4608612060546875,-0.306488037109375,-0.843963623046875
260196,0.44781494140625,-0.3425750732421875,-0.84906005859375
260197,0.4412689208984375,-0.3796539306640625,-0.868133544921875
260198,0.4558258056640625,-0.4172821044921875,-0.8973236083984375
260199,0.4939117431640625,-0.46417236328125,-0.917327880859375
260200,0.545745849609375,-0.5054168701171875,-0.9106903076171876
260201,0.5991973876953125,-0.543121337890625,-0.874359130859375
260202,0.6364288330078125,-0.5622100830078125,-0.8211212158203125
260203,0.6446075439453125,-0.573272705078125,-0.773895263671875
260204,0.623443603515625,-0.5851287841796875,-0.733978271484375
260205,0.594451904296875,-0.59039306640625,-0.707244873046875
260206,0.5595703125,-0.5855560302734375,-0.6845855712890625
260207,0.5204620361328125,-0.5767822265625,-0.676025390625
260208,0.4861907958984375,-0.5707550048828125,-0.6851959228515625
260209,0.46661376953125,-0.5582733154296875,-0.690155029296875
260210,0.4598541259765625,-0.5375213623046875,-0.6764068603515625
260211,0.4546356201171875,-0.5097198486328125,-0.64898681640625
260212,0.4364471435546875,-0.4661407470703125,-0.621490478515625
260213,0.41619873046875,-0.4156951904296875,-0.6140899658203125
260214,0.414794921875,-0.3747100830078125,-0.62322998046875
260215,0.4272003173828125,-0.349029541015625,-0.630279541015625
260216,0.4537200927734375,-0.33319091796875,-0.6403656005859375
260217,0.4932861328125,-0.33612060546875,-0.6495819091796875
260218,0.5220947265625,-0.344940185546875,-0.65167236328125
260219,0.5316009521484375,-0.3404693603515625,-0.6622772216796875
260220,0.5312347412109375,-0.3316192626953125,-0.6804046630859375
260221,0.532135009765625,-0.3219146728515625,-0.7133331298828125
260222,0.5417022705078125,-0.2999114990234375,-0.7533721923828125
260223,0.55950927734375,-0.28216552734375,-0.7945404052734375
260224,0.57818603515625,-0.291778564453125,-0.8320770263671875
260225,0.5822296142578125,-0.3553314208984375,-0.80841064453125
260226,0.5757293701171875,-0.435333251953125,-0.777679443359375
260227,0.5661773681640625,-0.501922607421875,-0.77789306640625
260228,0.5590362548828125,-0.5272979736328125,-0.8203277587890625
260229,0.5434417724609375,-0.509063720703125,-0.879669189453125
260230,0.5242919921875,-0.4660186767578125,-0.92706298828125
260231,0.511322021484375,-0.4247283935546875,-0.9594573974609376
260232,0.5001220703125,-0.39581298828125,-0.989044189453125
260233,0.4799652099609375,-0.3785247802734375,-0.9991607666015624
260234,0.46728515625,-0.3641357421875,-0.9901275634765624
260235,0.449371337890625,-0.365966796875,-0.9744110107421876
260236,0.412872314453125,-0.36083984375,-0.9502105712890624
260237,0.36688232421875,-0.34149169921875,-0.926025390625
260238,0.3329315185546875,-0.308013916015625,-0.9082489013671876
260239,0.292449951171875,-0.2855987548828125,-0.888336181640625
260240,0.251312255859375,-0.2672882080078125,-0.887481689453125
260241,0.2223663330078125,-0.248565673828125,-0.9135589599609376
260242,0.1937103271484375,-0.2141876220703125,-0.9611053466796876
260243,0.1661224365234375,-0.165924072265625,-1.012374877929688
260244,0.1278533935546875,-0.13507080078125,-1.039825439453125
260245,0.09539794921875,-0.1177215576171875,-1.038970947265625
260246,0.0539703369140625,-0.0997467041015625,-1.015380859375
260247,0.01092529296875,-0.089599609375,-0.989776611328125
260248,-0.021453857421875,-0.08831787109375,-0.9647064208984376
260249,-0.0520172119140625,-0.0953521728515625,-0.951446533203125
260250,-0.0754852294921875,-0.10626220703125,-0.970916748046875
260251,-0.0717620849609375,-0.0974884033203125,-1.007583618164062
260252,-0.0427093505859375,-0.098236083984375,-1.036376953125
260253,0.0056304931640625,-0.1053314208984375,-1.066619873046875
260254,0.061737060546875,-0.1395263671875,-1.104049682617188
260255,0.0986480712890625,-0.2660369873046875,-1.120635986328125
260256,0.1585540771484375,-0.347259521484375,-1.101348876953125
260257,0.2323760986328125,-0.3969879150390625,-1.083267211914062
260258,0.2862396240234375,-0.4309234619140625,-1.061355590820312
260259,0.3277130126953125,-0.427642822265625,-1.044113159179688
260260,0.348846435546875,-0.3972930908203125,-1.032302856445312
260261,0.35870361328125,-0.3583221435546875,-1.021728515625
260262,0.3657684326171875,-0.3293609619140625,-0.9996490478515624
260263,0.38885498046875,-0.2943267822265625,-0.9716033935546876
260264,0.3895263671875,-0.29681396484375,-0.914886474609375
260265,0.3937835693359375,-0.3034820556640625,-0.8631134033203125
260266,0.3911895751953125,-0.277435302734375,-0.8251953125
260267,0.3966064453125,-0.2353057861328125,-0.8137359619140625
260268,0.4130096435546875,-0.1957855224609375,-0.8274688720703125
260269,0.4442596435546875,-0.163665771484375,-0.8451385498046875
260270,0.5025177001953125,-0.155426025390625,-0.8746185302734375
260271,0.56201171875,-0.172821044921875,-0.8873291015625
260272,0.6203155517578125,-0.2162628173828125,-0.884124755859375
260273,0.6665496826171875,-0.281341552734375,-0.8748931884765625
260274,0.6902923583984375,-0.3536834716796875,-0.86761474609375
260275,0.70745849609375,-0.4287567138671875,-0.8555145263671875
260276,0.7060699462890625,-0.4816131591796875,-0.8285369873046875
260277,0.6774139404296875,-0.502471923828125,-0.8162994384765625
260278,0.6216888427734375,-0.5059356689453125,-0.821441650390625
260279,0.559539794921875,-0.5037384033203125,-0.8241424560546875
260280,0.51824951171875,-0.50091552734375,-0.81591796875
260281,0.501556396484375,-0.4953460693359375,-0.79534912109375
260282,0.5128173828125,-0.4826812744140625,-0.7589111328125
260283,0.5399017333984375,-0.466796875,-0.721099853515625
260284,0.5684051513671875,-0.45050048828125,-0.695526123046875
260285,0.5876922607421875,-0.4269256591796875,-0.6775054931640625
260286,0.6014556884765625,-0.396759033203125,-0.6624298095703125
260287,0.6060791015625,-0.3604888916015625,-0.6483154296875
260288,0.59808349609375,-0.3183746337890625,-0.6326904296875
260289,0.574737548828125,-0.2804412841796875,-0.6212005615234375
260290,0.5372161865234375,-0.25531005859375,-0.6220245361328125
260291,0.4897003173828125,-0.251678466796875,-0.619842529296875
260292,0.4365997314453125,-0.2614593505859375,-0.6127471923828125
260293,0.392791748046875,-0.2721099853515625,-0.614654541015625
260294,0.3624420166015625,-0.277191162109375,-0.629058837890625
260295,0.3467254638671875,-0.277191162109375,-0.64776611328125
260296,0.3480224609375,-0.2713775634765625,-0.6717681884765625
260297,0.3599395751953125,-0.2632598876953125,-0.7051239013671875
260298,0.3820648193359375,-0.2606964111328125,-0.7525482177734375
260299,0.4065399169921875,-0.2702789306640625,-0.7970428466796875
260300,0.443511962890625,-0.287261962890625,-0.8485107421875
260301,0.4845733642578125,-0.3024139404296875,-0.89764404296875
260302,0.5233306884765625,-0.298797607421875,-0.9431610107421876
260303,0.5622100830078125,-0.2830810546875,-0.985137939453125
260304,0.5767974853515625,-0.264251708984375,-0.979034423828125
260305,0.56927490234375,-0.2541656494140625,-0.9438629150390624
260306,0.5548095703125,-0.2404937744140625,-0.907440185546875
260307,0.5169677734375,-0.211151123046875,-0.889892578125
260308,0.48028564453125,-0.18377685546875,-0.89013671875
260309,0.448028564453125,-0.1693572998046875,-0.8988189697265625
260310,0.4099884033203125,-0.172088623046875,-0.8960418701171875
260311,0.373291015625,-0.1769866943359375,-0.9036712646484376
260312,0.3461761474609375,-0.171722412109375,-0.9371337890625
260313,0.3282623291015625,-0.1572418212890625,-0.97900390625
260314,0.304534912109375,-0.153839111328125,-1.0028076171875
260315,0.2839202880859375,-0.14825439453125,-1.008590698242188
260316,0.2656402587890625,-0.13385009765625,-1.0028076171875
260317,0.2422332763671875,-0.11370849609375,-0.9789276123046876
260318,0.21466064453125,-0.0860443115234375,-0.94769287109375
260319,0.187652587890625,-0.051727294921875,-0.93463134765625
260320,0.1490020751953125,-0.0399017333984375,-0.9541473388671876
260321,0.11431884765625,-0.0617523193359375,-0.9640350341796876
260322,0.092620849609375,-0.0764617919921875,-0.9624176025390624
260323,0.086822509765625,-0.09027099609375,-0.9689178466796876
260324,0.0987091064453125,-0.1006927490234375,-0.97772216796875
260325,0.1333160400390625,-0.1115264892578125,-0.99786376953125
260326,0.1816864013671875,-0.1184844970703125,-1.012863159179688
260327,0.2647552490234375,-0.11376953125,-1.0301513671875
260328,0.3499908447265625,-0.129852294921875,-1.07977294921875
260329,0.42236328125,-0.1498565673828125,-1.0517578125
260330,0.4918670654296875,-0.1534423828125,-1.007827758789062
260331,0.5589141845703125,-0.1560211181640625,-0.9532318115234376
260332,0.5977325439453125,-0.1595001220703125,-0.894561767578125
260333,0.6179656982421875,-0.1551361083984375,-0.85418701171875
260334,0.6111602783203125,-0.15936279296875,-0.822265625
260335,0.5800933837890625,-0.1771392822265625,-0.7956390380859375
260336,0.5461578369140625,-0.215545654296875,-0.7729644775390625
260337,0.503509521484375,-0.26409912109375,-0.76177978515625
260338,0.4672088623046875,-0.325958251953125,-0.771881103515625
260339,0.454986572265625,-0.3857269287109375,-0.7977142333984375
260340,0.4822845458984375,-0.4388427734375,-0.8421173095703125
260341,0.5372161865234375,-0.476959228515625,-0.8746185302734375
260342,0.5972442626953125,-0.5110015869140625,-0.8798675537109375
260343,0.6547393798828125,-0.5318450927734375,-0.8548126220703125
260344,0.704376220703125,-0.5370025634765625,-0.80084228515625
260345,0.73516845703125,-0.528106689453125,-0.740081787109375
260346,0.730926513671875,-0.5242462158203125,-0.6823883056640625
260347,0.68603515625,-0.5294952392578125,-0.650604248046875
260348,0.621246337890625,-0.52203369140625,-0.6348876953125
260349,0.559356689453125,-0.516693115234375,-0.636566162109375
260350,0.5124969482421875,-0.515899658203125,-0.662353515625
260351,0.480804443359375,-0.5270843505859375,-0.6761322021484375
260352,0.4598541259765625,-0.5213775634765625,-0.651153564453125
260353,0.4490966796875,-0.48370361328125,-0.6085968017578125
260354,0.443206787109375,-0.4432830810546875,-0.58447265625
260355,0.435516357421875,-0.4075469970703125,-0.586212158203125
260356,0.427703857421875,-0.36480712890625,-0.61175537109375
260357,0.4362945556640625,-0.3217620849609375,-0.6615753173828125
260358,0.46429443359375,-0.289703369140625,-0.724609375
260359,0.4984283447265625,-0.2686614990234375,-0.782745361328125
260360,0.53143310546875,-0.2722320556640625,-0.8181610107421875
260361,0.5469818115234375,-0.3070220947265625,-0.8179779052734375
260362,0.5615386962890625,-0.330841064453125,-0.8123626708984375
260363,0.576507568359375,-0.3404388427734375,-0.8149261474609375
260364,0.5959930419921875,-0.3479461669921875,-0.8098297119140625
260365,0.60552978515625,-0.3592987060546875,-0.7832489013671875
260366,0.5939788818359375,-0.377166748046875,-0.736053466796875
260367,0.591278076171875,-0.4084625244140625,-0.69940185546875
260368,0.5897674560546875,-0.44976806640625,-0.6959228515625
260369,0.5886688232421875,-0.4778594970703125,-0.7222442626953125
260370,0.572540283203125,-0.50103759765625,-0.7740478515625
260371,0.5542449951171875,-0.5033111572265625,-0.847259521484375
260372,0.5345611572265625,-0.481689453125,-0.9092254638671876
260373,0.5191497802734375,-0.4528045654296875,-0.9594879150390624
260374,0.5103912353515625,-0.42633056640625,-0.9798736572265624
260375,0.5072174072265625,-0.4136810302734375,-0.97027587890625
260376,0.485748291015625,-0.3954315185546875,-0.925994873046875
260377,0.45281982421875,-0.3746795654296875,-0.9014434814453124
260378,0.41259765625,-0.3483123779296875,-0.9027252197265624
260379,0.3783111572265625,-0.32000732421875,-0.9003143310546875
260380,0.3503570556640625,-0.2869415283203125,-0.874114990234375
260381,0.3221282958984375,-0.2608489990234375,-0.85552978515625
260382,0.2854461669921875,-0.2349090576171875,-0.859619140625
260383,0.2539825439453125,-0.1937103271484375,-0.8868865966796875
260384,0.21319580078125,-0.1480865478515625,-0.9423828125
260385,0.16644287109375,-0.1072235107421875,-1.0118408203125
260386,0.1148529052734375,-0.08831787109375,-1.05950927734375
260387,0.0707550048828125,-0.0735931396484375,-1.055526733398438
260388,0.034088134765625,-0.0522918701171875,-1.044082641601562
260389,0.0193023681640625,-0.0351104736328125,-1.029861450195312
260390,0.005157470703125,-0.0334625244140625,-0.996246337890625
260391,-0.0048675537109375,-0.013671875,-0.97125244140625
260392,-0.0019378662109375,0.0104827880859375,-0.9777984619140624
260393,0.014678955078125,0.0270843505859375,-1.018997192382812
260394,0.044525146484375,0.0173492431640625,-1.058547973632812
260395,0.1033172607421875,-0.0324859619140625,-1.068450927734375
260396,0.1635589599609375,-0.11456298828125,-1.04046630859375
260397,0.232391357421875,-0.2032928466796875,-1.008895874023438
260398,0.2976837158203125,-0.28277587890625,-0.977996826171875
260399,0.3426666259765625,-0.344512939453125,-0.9552459716796876
260400,0.3662872314453125,-0.3763427734375,-0.9490203857421876
260401,0.380889892578125,-0.3914337158203125,-0.9609375
260402,0.3907928466796875,-0.4018707275390625,-0.9680938720703124
260403,0.3861541748046875,-0.407470703125,-0.9680023193359376
260404,0.3744354248046875,-0.40057373046875,-0.962188720703125
260405,0.3759002685546875,-0.3796234130859375,-0.960052490234375
260406,0.3818511962890625,-0.3502349853515625,-0.951751708984375
260407,0.3886260986328125,-0.33172607421875,-0.9327239990234376
260408,0.408477783203125,-0.3305206298828125,-0.910491943359375
260409,0.4411468505859375,-0.3368988037109375,-0.89776611328125
260410,0.491973876953125,-0.3447723388671875,-0.9127655029296876
260411,0.5507049560546875,-0.3510284423828125,-0.9331512451171876
260412,0.6112518310546875,-0.3623199462890625,-0.9514617919921876
260413,0.677337646484375,-0.388641357421875,-0.951873779296875
260414,0.73602294921875,-0.4283447265625,-0.912322998046875
260415,0.7867431640625,-0.4619598388671875,-0.852813720703125
260416,0.8099365234375,-0.466705322265625,-0.8153839111328125
260417,0.8026580810546875,-0.460113525390625,-0.795623779296875
260418,0.7755584716796875,-0.4563140869140625,-0.773193359375
260419,0.73583984375,-0.455535888671875,-0.7584991455078125
260420,0.6992340087890625,-0.450225830078125,-0.7416534423828125
260421,0.67620849609375,-0.4491119384765625,-0.7054443359375
260422,0.6609039306640625,-0.4500885009765625,-0.660308837890625
260423,0.6501312255859375,-0.442108154296875,-0.628814697265625
260424,0.6322479248046875,-0.42059326171875,-0.6247711181640625
260425,0.605194091796875,-0.403076171875,-0.63946533203125
260426,0.569671630859375,-0.382843017578125,-0.653228759765625
260427,0.5303497314453125,-0.360443115234375,-0.6586151123046875
260428,0.49688720703125,-0.3420257568359375,-0.65631103515625
260429,0.4659423828125,-0.323486328125,-0.653533935546875
260430,0.429595947265625,-0.306060791015625,-0.65997314453125
260431,0.39056396484375,-0.29632568359375,-0.67138671875
260432,0.361480712890625,-0.295318603515625,-0.67840576171875
260433,0.3453369140625,-0.295501708984375,-0.6746063232421875
260434,0.3431549072265625,-0.2904815673828125,-0.6684112548828125
260435,0.3476104736328125,-0.278472900390625,-0.6642608642578125
260436,0.355865478515625,-0.2681732177734375,-0.678558349609375
260437,0.37255859375,-0.2621917724609375,-0.7062530517578125
260438,0.3975982666015625,-0.253662109375,-0.7419281005859375
260439,0.4329986572265625,-0.2429351806640625,-0.78143310546875
260440,0.4711456298828125,-0.241119384765625,-0.8209075927734375
260441,0.51123046875,-0.246124267578125,-0.8616790771484375
260442,0.5539093017578125,-0.24652099609375,-0.8957672119140625
260443,0.5759429931640625,-0.2361907958984375,-0.891754150390625
260444,0.57861328125,-0.22198486328125,-0.8499603271484375
260445,0.57562255859375,-0.19757080078125,-0.816497802734375
260446,0.5513153076171875,-0.1689300537109375,-0.8017425537109375
260447,0.51812744140625,-0.161895751953125,-0.8060302734375
260448,0.4925689697265625,-0.1799468994140625,-0.81884765625
260449,0.4762115478515625,-0.194244384765625,-0.8333892822265625
260450,0.4575042724609375,-0.197418212890625,-0.854248046875
260451,0.4332427978515625,-0.1964874267578125,-0.879180908203125
260452,0.4006195068359375,-0.1935272216796875,-0.8961334228515625
260453,0.3633575439453125,-0.1876373291015625,-0.9014129638671876
260454,0.3196258544921875,-0.180084228515625,-0.9034881591796876
260455,0.27569580078125,-0.1726837158203125,-0.8977203369140625
260456,0.2347259521484375,-0.159271240234375,-0.898406982421875
260457,0.1925048828125,-0.138397216796875,-0.910308837890625
260458,0.143218994140625,-0.1168365478515625,-0.9325408935546876
260459,0.0961761474609375,-0.1044921875,-0.9663848876953124
260460,0.0638427734375,-0.10858154296875,-0.9825897216796876
260461,0.049163818359375,-0.1089630126953125,-0.9881134033203124
260462,0.0546112060546875,-0.1106719970703125,-1.006942749023438
260463,0.0837554931640625,-0.11309814453125,-1.023284912109375
260464,0.1329803466796875,-0.126312255859375,-1.044082641601562
260465,0.1868896484375,-0.1448211669921875,-1.051620483398438
260466,0.2481842041015625,-0.1657562255859375,-1.061996459960938
260467,0.323333740234375,-0.1992340087890625,-1.069015502929688
260468,0.3858184814453125,-0.235595703125,-1.06390380859375
260469,0.4375762939453125,-0.25,-1.044113159179688
260470,0.4957427978515625,-0.2501220703125,-1.0252685546875
260471,0.54522705078125,-0.236236572265625,-1.000259399414062
260472,0.5752105712890625,-0.22454833984375,-0.9782562255859376
260473,0.5885009765625,-0.2038726806640625,-0.94830322265625
260474,0.5790557861328125,-0.20599365234375,-0.9093170166015624
260475,0.555572509765625,-0.2237396240234375,-0.86431884765625
260476,0.5237579345703125,-0.2580108642578125,-0.825592041015625
260477,0.4949798583984375,-0.2928619384765625,-0.79718017578125
260478,0.4746246337890625,-0.331573486328125,-0.78350830078125
260479,0.4685516357421875,-0.36773681640625,-0.78558349609375
260480,0.4754791259765625,-0.414154052734375,-0.803131103515625
260481,0.50555419921875,-0.4681243896484375,-0.836273193359375
260482,0.5361175537109375,-0.5166015625,-0.8503570556640625
260483,0.559356689453125,-0.5572052001953125,-0.8272247314453125
260484,0.5747833251953125,-0.579498291015625,-0.786834716796875
260485,0.5647125244140625,-0.5739593505859375,-0.7451934814453125
260486,0.5394744873046875,-0.5566864013671875,-0.7444305419921875
260487,0.5131988525390625,-0.5339813232421875,-0.77044677734375
260488,0.4897308349609375,-0.527130126953125,-0.7797393798828125
260489,0.4852142333984375,-0.5335845947265625,-0.7760162353515625
260490,0.5018310546875,-0.53240966796875,-0.7606658935546875
260491,0.5230712890625,-0.5268402099609375,-0.736175537109375
260492,0.53839111328125,-0.5129547119140625,-0.70220947265625
260493,0.5267181396484375,-0.4829864501953125,-0.6705322265625
260494,0.5033721923828125,-0.440460205078125,-0.6543426513671875
260495,0.4866790771484375,-0.393310546875,-0.6525726318359375
260496,0.4848785400390625,-0.3609161376953125,-0.658172607421875
260497,0.498809814453125,-0.33331298828125,-0.666107177734375
260498,0.5239715576171875,-0.3087310791015625,-0.6704254150390625
260499,0.5561676025390625,-0.29937744140625,-0.6767425537109375
260500,0.582244873046875,-0.303863525390625,-0.672698974609375
260501,0.5895843505859375,-0.3082427978515625,-0.6557769775390625
260502,0.58172607421875,-0.296875,-0.6371002197265625
260503,0.5686187744140625,-0.2829742431640625,-0.6409454345703125
260504,0.559539794921875,-0.27984619140625,-0.6667327880859375
260505,0.551025390625,-0.293670654296875,-0.695159912109375
260506,0.5296783447265625,-0.316497802734375,-0.72723388671875
260507,0.507171630859375,-0.34686279296875,-0.7923736572265625
260508,0.48858642578125,-0.388702392578125,-0.861480712890625
260509,0.4637451171875,-0.4339752197265625,-0.90924072265625
260510,0.4437713623046875,-0.4667510986328125,-0.949554443359375
260511,0.4145965576171875,-0.48651123046875,-0.9679718017578124
260512,0.3914031982421875,-0.4856414794921875,-0.9741668701171876
260513,0.3829193115234375,-0.4624786376953125,-0.9840545654296876
260514,0.380706787109375,-0.4276275634765625,-0.9907684326171876
260515,0.376861572265625,-0.4081268310546875,-0.993255615234375
260516,0.3827667236328125,-0.3943939208984375,-0.9754180908203124
260517,0.381561279296875,-0.3838348388671875,-0.9458465576171876
260518,0.37042236328125,-0.363555908203125,-0.9221649169921876
260519,0.35467529296875,-0.3283538818359375,-0.90924072265625
260520,0.3327484130859375,-0.299713134765625,-0.8961639404296875
260521,0.3139190673828125,-0.2636260986328125,-0.88299560546875
260522,0.2983551025390625,-0.22113037109375,-0.8769989013671875
260523,0.285675048828125,-0.1829986572265625,-0.88720703125
260524,0.268768310546875,-0.15313720703125,-0.9099884033203124
260525,0.25390625,-0.1284332275390625,-0.92950439453125
260526,0.2365875244140625,-0.102569580078125,-0.9346466064453124
260527,0.212188720703125,-0.090118408203125,-0.9167938232421876
260528,0.186859130859375,-0.076507568359375,-0.896759033203125
260529,0.158660888671875,-0.0535430908203125,-0.886474609375
260530,0.1219940185546875,-0.03485107421875,-0.8884429931640625
260531,0.08868408203125,-0.024383544921875,-0.9131317138671876
260532,0.0695037841796875,-0.020263671875,-0.9501190185546876
260533,0.0723724365234375,-0.0277099609375,-0.9922943115234376
260534,0.089202880859375,-0.056182861328125,-1.012603759765625
260535,0.122589111328125,-0.10906982421875,-1.030624389648438
260536,0.16644287109375,-0.171142578125,-1.04107666015625
260537,0.2084503173828125,-0.2353668212890625,-1.040695190429688
260538,0.2546539306640625,-0.314971923828125,-1.020782470703125
260539,0.2923126220703125,-0.38134765625,-0.9939727783203124
260540,0.312469482421875,-0.424102783203125,-0.965911865234375
260541,0.324981689453125,-0.4294281005859375,-0.96435546875
260542,0.3191375732421875,-0.4077606201171875,-0.9636993408203124
260543,0.313690185546875,-0.380828857421875,-0.962921142578125
260544,0.3018951416015625,-0.3508148193359375,-0.958770751953125
260545,0.312744140625,-0.3181304931640625,-0.975555419921875
260546,0.3216552734375,-0.2966766357421875,-0.9593353271484376
260547,0.31719970703125,-0.304840087890625,-0.934600830078125
260548,0.3499298095703125,-0.306243896484375,-0.9432830810546876
260549,0.3995819091796875,-0.3020172119140625,-0.944580078125
260550,0.4747772216796875,-0.3072357177734375,-0.9497528076171876
260551,0.5594635009765625,-0.32733154296875,-0.9396514892578124
260552,0.6403350830078125,-0.354827880859375,-0.9158172607421876
260553,0.70538330078125,-0.3837432861328125,-0.881805419921875
260554,0.758148193359375,-0.407440185546875,-0.8428955078125
260555,0.8007049560546875,-0.42657470703125,-0.8029632568359375
260556,0.8121337890625,-0.4528656005859375,-0.77154541015625
260557,0.7847747802734375,-0.4703521728515625,-0.753082275390625
260558,0.7332000732421875,-0.4798583984375,-0.74871826171875
260559,0.6929779052734375,-0.479278564453125,-0.7670440673828125
260560,0.6697845458984375,-0.4725799560546875,-0.767730712890625
260561,0.664337158203125,-0.473876953125,-0.7379608154296875
260562,0.6667327880859375,-0.4752655029296875,-0.706634521484375
260563,0.664886474609375,-0.4670257568359375,-0.6952972412109375
260564,0.6586456298828125,-0.4479827880859375,-0.7032928466796875
260565,0.6402130126953125,-0.4282073974609375,-0.708740234375
260566,0.6095428466796875,-0.41259765625,-0.6982269287109375
260567,0.565460205078125,-0.4010009765625,-0.6850738525390625
260568,0.520477294921875,-0.38360595703125,-0.68719482421875
260569,0.48046875,-0.3651123046875,-0.696502685546875
260570,0.4496307373046875,-0.35247802734375,-0.69659423828125
260571,0.432098388671875,-0.33819580078125,-0.6894073486328125
260572,0.426666259765625,-0.3231658935546875,-0.6804962158203125
260573,0.4308319091796875,-0.3170928955078125,-0.659393310546875
260574,0.4372100830078125,-0.310394287109375,-0.63812255859375
260575,0.4459381103515625,-0.290374755859375,-0.6363677978515625
260576,0.4643402099609375,-0.2684326171875,-0.6539459228515625
260577,0.4835052490234375,-0.248748779296875,-0.685760498046875
260578,0.5093841552734375,-0.2324371337890625,-0.739501953125
260579,0.5347747802734375,-0.218475341796875,-0.7866363525390625
260580,0.55914306640625,-0.2063446044921875,-0.8235015869140625
260581,0.579376220703125,-0.2003021240234375,-0.831634521484375
260582,0.5784454345703125,-0.1742095947265625,-0.834564208984375
260583,0.5668182373046875,-0.1427764892578125,-0.84075927734375
260584,0.5417327880859375,-0.10223388671875,-0.82513427734375
260585,0.494354248046875,-0.0724945068359375,-0.8299560546875
260586,0.4497528076171875,-0.0621490478515625,-0.84515380859375
260587,0.401153564453125,-0.073272705078125,-0.8679046630859375
260588,0.3605499267578125,-0.088165283203125,-0.8927459716796875
260589,0.3311309814453125,-0.0951080322265625,-0.9183197021484376
260590,0.305267333984375,-0.1002044677734375,-0.9399871826171876
260591,0.2849273681640625,-0.0905609130859375,-0.9485015869140624
260592,0.2703399658203125,-0.083740234375,-0.9537353515625
260593,0.2589569091796875,-0.081146240234375,-0.9508819580078124
260594,0.244598388671875,-0.0889129638671875,-0.9334716796875
260595,0.2316741943359375,-0.093963623046875,-0.913360595703125
260596,0.216094970703125,-0.0891265869140625,-0.9055633544921876
260597,0.2012176513671875,-0.083343505859375,-0.9020843505859376
260598,0.1837615966796875,-0.0728759765625,-0.905517578125
260599,0.168182373046875,-0.0751800537109375,-0.909942626953125
260600,0.1702728271484375,-0.06805419921875,-0.9327392578125
260601,0.1779632568359375,-0.0506439208984375,-0.9710235595703124
260602,0.2037353515625,-0.0469818115234375,-1.012069702148438
260603,0.2389373779296875,-0.041229248046875,-1.04644775390625
260604,0.2861328125,-0.04931640625,-1.063323974609375
260605,0.344512939453125,-0.081878662109375,-1.068710327148438
260606,0.40472412109375,-0.13824462890625,-1.062042236328125
260607,0.461822509765625,-0.2052764892578125,-1.042251586914062
260608,0.56146240234375,-0.2431182861328125,-1.02862548828125
260609,0.5166778564453125,-0.23480224609375,-1.004058837890625
260610,0.587738037109375,-0.25689697265625,-1.030929565429688
260611,0.593170166015625,-0.247222900390625,-0.9831390380859376
260612,0.59027099609375,-0.2292938232421875,-0.9176177978515624
260613,0.5857696533203125,-0.2259674072265625,-0.871673583984375
260614,0.5608978271484375,-0.22930908203125,-0.8611907958984375
260615,0.520904541015625,-0.2534942626953125,-0.8699951171875
260616,0.47711181640625,-0.295196533203125,-0.8553924560546875
260617,0.451568603515625,-0.34393310546875,-0.8415679931640625
260618,0.4409942626953125,-0.3895111083984375,-0.8322601318359375
260619,0.4556884765625,-0.4374847412109375,-0.8313140869140625
260620,0.4901275634765625,-0.4670257568359375,-0.8381805419921875
260621,0.52813720703125,-0.493621826171875,-0.8363189697265625
260622,0.568756103515625,-0.5239105224609375,-0.814544677734375
260623,0.6081085205078125,-0.5496063232421875,-0.7590179443359375
260624,0.631927490234375,-0.55010986328125,-0.694122314453125
260625,0.631072998046875,-0.5392608642578125,-0.6592559814453125
260626,0.61505126953125,-0.5244293212890625,-0.6599884033203125
260627,0.60565185546875,-0.50579833984375,-0.688140869140625
260628,0.59149169921875,-0.5031280517578125,-0.7066497802734375
260629,0.5978546142578125,-0.493743896484375,-0.7148895263671875
260630,0.5894317626953125,-0.5217437744140625,-0.6794891357421875
260631,0.5870513916015625,-0.5206451416015625,-0.624298095703125
260632,0.5684661865234375,-0.4911041259765625,-0.560028076171875
260633,0.53594970703125,-0.44110107421875,-0.5166778564453125
260634,0.5025634765625,-0.396636962890625,-0.51556396484375
260635,0.4796142578125,-0.3679351806640625,-0.550811767578125
260636,0.46905517578125,-0.34307861328125,-0.6063690185546875
260637,0.481292724609375,-0.311065673828125,-0.679443359375
260638,0.5220489501953125,-0.29376220703125,-0.7412567138671875
260639,0.571319580078125,-0.3033905029296875,-0.767242431640625
260640,0.590728759765625,-0.3359527587890625,-0.761810302734375
260641,0.5890045166015625,-0.36053466796875,-0.7438201904296875
260642,0.5929412841796875,-0.36627197265625,-0.738922119140625
260643,0.59619140625,-0.3637847900390625,-0.7461700439453125
260644,0.5916290283203125,-0.3753662109375,-0.75030517578125
260645,0.579345703125,-0.4014129638671875,-0.7549591064453125
260646,0.578277587890625,-0.4343414306640625,-0.7919921875
260647,0.5638580322265625,-0.4754638671875,-0.8308563232421875
260648,0.5410919189453125,-0.518585205078125,-0.8745574951171875
260649,0.5117950439453125,-0.5552215576171875,-0.923492431640625
260650,0.4678802490234375,-0.557403564453125,-0.960662841796875
260651,0.441619873046875,-0.5350189208984375,-0.99267578125
260652,0.4263763427734375,-0.494049072265625,-1.018310546875
260653,0.42926025390625,-0.45123291015625,-1.037979125976562
260654,0.4300689697265625,-0.420257568359375,-1.034561157226562
260655,0.4301605224609375,-0.396209716796875,-1.00439453125
260656,0.4251861572265625,-0.369720458984375,-0.9707794189453124
260657,0.406982421875,-0.339752197265625,-0.9459991455078124
260658,0.3836212158203125,-0.3018646240234375,-0.921539306640625
260659,0.354583740234375,-0.25799560546875,-0.9017791748046876
260660,0.320404052734375,-0.212615966796875,-0.883514404296875
260661,0.28509521484375,-0.1702880859375,-0.88397216796875
260662,0.2481842041015625,-0.128814697265625,-0.90045166015625
260663,0.2101898193359375,-0.086761474609375,-0.9282379150390624
260664,0.1748809814453125,-0.0548553466796875,-0.958404541015625
260665,0.1436767578125,-0.02117919921875,-0.9764862060546876
260666,0.1123809814453125,0.0110321044921875,-0.9773101806640624
260667,0.091796875,0.0251922607421875,-0.957427978515625
260668,0.0801239013671875,0.0347900390625,-0.92230224609375
260669,0.0642547607421875,0.039581298828125,-0.888946533203125
260670,0.0513916015625,0.0528411865234375,-0.884002685546875
260671,0.0460968017578125,0.064849853515625,-0.8915557861328125
260672,0.0472259521484375,0.0601348876953125,-0.8987274169921875
260673,0.0595245361328125,0.03619384765625,-0.9011077880859376
260674,0.0887451171875,-0.0087127685546875,-0.9048309326171876
260675,0.1370849609375,-0.070709228515625,-0.9134674072265624
260676,0.2046966552734375,-0.1424713134765625,-0.91436767578125
260677,0.2651214599609375,-0.22857666015625,-0.8962249755859375
260678,0.3085479736328125,-0.315643310546875,-0.8903350830078125
260679,0.339080810546875,-0.3975982666015625,-0.90423583984375
260680,0.363372802734375,-0.4593353271484375,-0.91595458984375
260681,0.3699951171875,-0.4923095703125,-0.9252777099609376
260682,0.3647918701171875,-0.499298095703125,-0.920501708984375
260683,0.361541748046875,-0.4820556640625,-0.913909912109375
260684,0.3582611083984375,-0.4375,-0.9349212646484376
260685,0.3684844970703125,-0.3991241455078125,-0.9575653076171876
260686,0.38458251953125,-0.3646697998046875,-0.9760894775390624
260687,0.3952789306640625,-0.3514862060546875,-0.9755401611328124
260688,0.3952484130859375,-0.362213134765625,-0.9456939697265624
260689,0.41534423828125,-0.374603271484375,-0.918182373046875
260690,0.4480133056640625,-0.38226318359375,-0.910736083984375
260691,0.5134124755859375,-0.36956787109375,-0.9163360595703124
260692,0.5835113525390625,-0.36163330078125,-0.8939666748046875
260693,0.6358489990234375,-0.3851165771484375,-0.86590576171875
260694,0.6917724609375,-0.4243011474609375,-0.824310302734375
260695,0.729827880859375,-0.482025146484375,-0.779083251953125
260696,0.7613983154296875,-0.5377655029296875,-0.7622528076171875
260697,0.7686614990234375,-0.5737457275390625,-0.771575927734375
260698,0.7465972900390625,-0.5918121337890625,-0.810211181640625
260699,0.7171783447265625,-0.597259521484375,-0.848480224609375
260700,0.6941375732421875,-0.5874176025390625,-0.8808135986328125
260701,0.68914794921875,-0.560943603515625,-0.8844146728515625
260702,0.6897125244140625,-0.53741455078125,-0.8529205322265625
260703,0.686676025390625,-0.5161590576171875,-0.8092041015625
260704,0.6858367919921875,-0.5029449462890625,-0.761688232421875
260705,0.6741943359375,-0.4973602294921875,-0.71636962890625
260706,0.6435089111328125,-0.484710693359375,-0.6781005859375
260707,0.5938262939453125,-0.458465576171875,-0.6318359375
260708,0.532073974609375,-0.4311065673828125,-0.5955047607421875
260709,0.4627532958984375,-0.40264892578125,-0.5812835693359375
260710,0.410400390625,-0.3623199462890625,-0.59613037109375
260711,0.369232177734375,-0.32470703125,-0.6138153076171875
260712,0.3368988037109375,-0.301361083984375,-0.6305084228515625
260713,0.3255615234375,-0.2888031005859375,-0.649078369140625
260714,0.3360443115234375,-0.27447509765625,-0.661224365234375
260715,0.363037109375,-0.2557525634765625,-0.6695098876953125
260716,0.4018402099609375,-0.2294158935546875,-0.677642822265625
260717,0.4392242431640625,-0.1982421875,-0.696746826171875
260718,0.468475341796875,-0.1769866943359375,-0.72735595703125
260719,0.4896087646484375,-0.1638336181640625,-0.759918212890625
260720,0.5195770263671875,-0.1709442138671875,-0.786834716796875
260721,0.553955078125,-0.1932373046875,-0.811676025390625
260722,0.5830535888671875,-0.204925537109375,-0.8328094482421875
260723,0.592010498046875,-0.1963958740234375,-0.8492889404296875
260724,0.5746917724609375,-0.1846160888671875,-0.8530731201171875
260725,0.533172607421875,-0.169921875,-0.8585357666015625
260726,0.488983154296875,-0.1647796630859375,-0.8703155517578125
260727,0.4557342529296875,-0.1518402099609375,-0.8854827880859375
260728,0.4305877685546875,-0.134735107421875,-0.906463623046875
260729,0.4068756103515625,-0.1563720703125,-0.9001922607421875
260730,0.372802734375,-0.1744232177734375,-0.9030303955078124
260731,0.33837890625,-0.1796875,-0.930755615234375
260732,0.3001861572265625,-0.1601104736328125,-0.9552001953125
260733,0.2677001953125,-0.1268768310546875,-0.97528076171875
260734,0.2352752685546875,-0.099884033203125,-0.98590087890625
260735,0.2065887451171875,-0.083038330078125,-0.977264404296875
260736,0.1869659423828125,-0.07427978515625,-0.9583740234375
260737,0.1650543212890625,-0.0580902099609375,-0.943206787109375
260738,0.1363525390625,-0.040191650390625,-0.9469757080078124
260739,0.096221923828125,-0.0308837890625,-0.955841064453125
260740,0.0695037841796875,-0.0275115966796875,-0.98248291015625
260741,0.0702972412109375,-0.0215301513671875,-0.9950408935546876
260742,0.101318359375,-0.0107879638671875,-1.003616333007812
260743,0.158721923828125,0.0006866455078125,-1.020034790039062
260744,0.238372802734375,0.006988525390625,-1.037322998046875
260745,0.3384552001953125,-0.0128326416015625,-1.052078247070312
260746,0.4425506591796875,-0.058013916015625,-1.0697021484375
260747,0.5272369384765625,-0.140472412109375,-1.071304321289062
260748,0.5973968505859375,-0.223297119140625,-1.049087524414062
260749,0.6437835693359375,-0.273529052734375,-1.002212524414062
260750,0.6636810302734375,-0.2944488525390625,-0.957733154296875
260751,0.6738433837890625,-0.2620849609375,-0.9232330322265624
260752,0.647216796875,-0.2478790283203125,-0.931854248046875
260753,0.5948486328125,-0.2350921630859375,-0.889373779296875
260754,0.5384674072265625,-0.238525390625,-0.84466552734375
260755,0.476837158203125,-0.264312744140625,-0.8292388916015625
260756,0.417755126953125,-0.30401611328125,-0.8177490234375
260757,0.3799896240234375,-0.345611572265625,-0.819427490234375
260758,0.3536834716796875,-0.378082275390625,-0.80657958984375
260759,0.3432159423828125,-0.416351318359375,-0.79754638671875
260760,0.3823089599609375,-0.493438720703125,-0.8388519287109375
260761,0.3533782958984375,-0.451812744140625,-0.8061981201171875
260762,0.42364501953125,-0.532928466796875,-0.870849609375
260763,0.4770965576171875,-0.563018798828125,-0.87451171875
260764,0.5450592041015625,-0.5805206298828125,-0.83599853515625
260765,0.6021881103515625,-0.5775909423828125,-0.780487060546875
260766,0.6327667236328125,-0.5499725341796875,-0.7474212646484375
260767,0.63104248046875,-0.506866455078125,-0.733612060546875
260768,0.6031036376953125,-0.473968505859375,-0.721771240234375
260769,0.5759124755859375,-0.4728546142578125,-0.70892333984375
260770,0.562286376953125,-0.492156982421875,-0.6666107177734375
260771,0.5606842041015625,-0.497894287109375,-0.609649658203125
260772,0.5580596923828125,-0.4803466796875,-0.556396484375
260773,0.5499725341796875,-0.450164794921875,-0.5217437744140625
260774,0.5338897705078125,-0.4310760498046875,-0.5136871337890625
260775,0.5258636474609375,-0.411041259765625,-0.5367431640625
260776,0.5362548828125,-0.37347412109375,-0.5909423828125
260777,0.5776519775390625,-0.33251953125,-0.651947021484375
260778,0.6325225830078125,-0.32403564453125,-0.6959991455078125
260779,0.6594696044921875,-0.3438262939453125,-0.7231292724609375
260780,0.656097412109375,-0.3606719970703125,-0.7322540283203125
260781,0.6369171142578125,-0.37298583984375,-0.72198486328125
260782,0.609619140625,-0.3697052001953125,-0.7199249267578125
260783,0.5739593505859375,-0.348480224609375,-0.7353973388671875
260784,0.5430145263671875,-0.3470458984375,-0.755401611328125
260785,0.5095367431640625,-0.36474609375,-0.77484130859375
260786,0.4909210205078125,-0.397308349609375,-0.8162994384765625
260787,0.4769134521484375,-0.4432373046875,-0.8591766357421875
260788,0.4769134521484375,-0.4917755126953125,-0.91387939453125
260789,0.486419677734375,-0.5222625732421875,-0.968475341796875
260790,0.499053955078125,-0.5155487060546875,-1.007156372070312
260791,0.4978790283203125,-0.4929962158203125,-1.006423950195312
260792,0.4890594482421875,-0.449371337890625,-0.9947357177734376
260793,0.476348876953125,-0.3922576904296875,-1.012420654296875
260794,0.4660491943359375,-0.3386077880859375,-1.021682739257812
260795,0.4452362060546875,-0.30535888671875,-1.019210815429688
260796,0.4183197021484375,-0.287384033203125,-1.001724243164062
260797,0.3835601806640625,-0.2794189453125,-0.975189208984375
260798,0.3483428955078125,-0.2717742919921875,-0.9446258544921876
260799,0.31512451171875,-0.256561279296875,-0.9146270751953124
260800,0.272247314453125,-0.227569580078125,-0.88525390625
260801,0.2386016845703125,-0.1876220703125,-0.86883544921875
260802,0.2199859619140625,-0.146148681640625,-0.8750152587890625
260803,0.2044830322265625,-0.108489990234375,-0.9127197265625
260804,0.1867523193359375,-0.080780029296875,-0.9459228515625
260805,0.1725006103515625,-0.0523834228515625,-0.9706573486328124
260806,0.1531829833984375,-0.02423095703125,-1.004791259765625
260807,0.1304473876953125,-0.00311279296875,-1.001602172851562
260808,0.1035308837890625,0.0101165771484375,-0.962493896484375
260809,0.0717010498046875,0.0168914794921875,-0.9336090087890624
260810,0.045684814453125,0.0261383056640625,-0.9190521240234376
260811,0.0402069091796875,0.03533935546875,-0.894500732421875
260812,0.048797607421875,0.0436553955078125,-0.8764801025390625
260813,0.0635833740234375,0.0470123291015625,-0.8856658935546875
260814,0.0967559814453125,0.0377655029296875,-0.91162109375
260815,0.146240234375,0.002044677734375,-0.9212646484375
260816,0.2055816650390625,-0.0525970458984375,-0.8899383544921875
260817,0.2679901123046875,-0.1193695068359375,-0.8469085693359375
260818,0.3224639892578125,-0.18353271484375,-0.8270416259765625
260819,0.362884521484375,-0.237762451171875,-0.8251953125
260820,0.385894775390625,-0.2760772705078125,-0.85052490234375
260821,0.3974609375,-0.3146820068359375,-0.8832550048828125
260822,0.4011688232421875,-0.351226806640625,-0.9156646728515624
260823,0.40521240234375,-0.36956787109375,-0.9322967529296876
260824,0.4076995849609375,-0.355499267578125,-0.949615478515625
260825,0.4197540283203125,-0.3262176513671875,-0.986328125
260826,0.4333953857421875,-0.2997894287109375,-1.010330200195312
260827,0.457183837890625,-0.2798004150390625,-1.010818481445312
260828,0.4891357421875,-0.2702789306640625,-1.005294799804688
260829,0.5132293701171875,-0.2790679931640625,-1.00164794921875
260830,0.5406494140625,-0.279327392578125,-1.002105712890625
260831,0.572784423828125,-0.2682342529296875,-0.9971771240234376
260832,0.60736083984375,-0.274505615234375,-0.9831390380859376
260833,0.6447296142578125,-0.307098388671875,-0.95611572265625
260834,0.667144775390625,-0.3745880126953125,-0.924957275390625
260835,0.6739044189453125,-0.44671630859375,-0.911712646484375
260836,0.6659393310546875,-0.4877166748046875,-0.900787353515625
260837,0.658233642578125,-0.50567626953125,-0.88848876953125
260838,0.6529541015625,-0.5139312744140625,-0.8694305419921875
260839,0.654937744140625,-0.5066680908203125,-0.8471221923828125
260840,0.6653900146484375,-0.494171142578125,-0.8251495361328125
260841,0.678741455078125,-0.4746246337890625,-0.7864837646484375
260842,0.6831512451171875,-0.4571990966796875,-0.73077392578125
260843,0.6741790771484375,-0.453460693359375,-0.665740966796875
260844,0.6535186767578125,-0.458160400390625,-0.6207275390625
260845,0.627197265625,-0.4549102783203125,-0.6102447509765625
260846,0.598785400390625,-0.428314208984375,-0.6253662109375
260847,0.5724639892578125,-0.394744873046875,-0.6484375
260848,0.54254150390625,-0.3647003173828125,-0.6500701904296875
260849,0.50738525390625,-0.3447113037109375,-0.638458251953125
260850,0.47210693359375,-0.32794189453125,-0.622467041015625
260851,0.4385833740234375,-0.321380615234375,-0.6144561767578125
260852,0.416229248046875,-0.323211669921875,-0.614166259765625
260853,0.4083404541015625,-0.3280029296875,-0.612548828125
260854,0.4165802001953125,-0.333770751953125,-0.61480712890625
260855,0.427459716796875,-0.3249359130859375,-0.6318359375
260856,0.4368133544921875,-0.30023193359375,-0.6627197265625
260857,0.4431915283203125,-0.2688751220703125,-0.7163238525390625
260858,0.4617462158203125,-0.2786102294921875,-0.789703369140625
260859,0.486541748046875,-0.3068389892578125,-0.8297882080078125
260860,0.5154266357421875,-0.31500244140625,-0.8495025634765625
260861,0.537567138671875,-0.315277099609375,-0.8752593994140625
260862,0.5452728271484375,-0.298553466796875,-0.880615234375
260863,0.547088623046875,-0.2536773681640625,-0.886688232421875
260864,0.5324859619140625,-0.208770751953125,-0.883636474609375
260865,0.511474609375,-0.1637420654296875,-0.89410400390625
260866,0.485992431640625,-0.128204345703125,-0.902069091796875
260867,0.4629058837890625,-0.12359619140625,-0.8870391845703125
260868,0.4362945556640625,-0.12628173828125,-0.88714599609375
260869,0.410247802734375,-0.12176513671875,-0.8959197998046875
260870,0.379608154296875,-0.103271484375,-0.9154815673828124
260871,0.3488616943359375,-0.07989501953125,-0.9598388671875
260872,0.318023681640625,-0.06488037109375,-0.9893341064453124
260873,0.289154052734375,-0.075531005859375,-0.9914093017578124
260874,0.2733612060546875,-0.0883636474609375,-0.989654541015625
260875,0.2606353759765625,-0.0841064453125,-0.970916748046875
260876,0.2423095703125,-0.066741943359375,-0.94256591796875
260877,0.2228851318359375,-0.0349578857421875,-0.91943359375
260878,0.1982574462890625,-0.00494384765625,-0.910736083984375
260879,0.17828369140625,-0.0046234130859375,-0.9059600830078124
260880,0.1683349609375,-0.0155792236328125,-0.909393310546875
260881,0.178802490234375,-0.018157958984375,-0.9107666015625
260882,0.20550537109375,-0.024658203125,-0.9137725830078124
260883,0.23199462890625,-0.0387115478515625,-0.93359375
260884,0.28857421875,-0.019500732421875,-0.934295654296875
260885,0.3341827392578125,-0.044525146484375,-1.004531860351562
260886,0.37725830078125,-0.097412109375,-1.006057739257812
260887,0.4302978515625,-0.144287109375,-0.9936981201171876
260888,0.4748687744140625,-0.18505859375,-1.0048828125
260889,0.51031494140625,-0.21343994140625,-1.019241333007812
260890,0.5505828857421875,-0.2243194580078125,-1.017318725585938
260891,0.5827178955078125,-0.2275238037109375,-0.9951324462890624
260892,0.5923309326171875,-0.223236083984375,-0.9705810546875
260893,0.5807037353515625,-0.226715087890625,-0.932861328125
260894,0.560638427734375,-0.22576904296875,-0.9011383056640624
260895,0.5228118896484375,-0.2381439208984375,-0.87103271484375
260896,0.480712890625,-0.2741241455078125,-0.8577728271484375
260897,0.4389495849609375,-0.3151702880859375,-0.8450164794921875
260898,0.416595458984375,-0.3691253662109375,-0.837249755859375
260899,0.4287872314453125,-0.41937255859375,-0.8410491943359375
260900,0.46868896484375,-0.4663543701171875,-0.8436126708984375
260901,0.5133056640625,-0.507354736328125,-0.834564208984375
260902,0.564208984375,-0.537353515625,-0.818145751953125
260903,0.6194305419921875,-0.5551605224609375,-0.778045654296875
260904,0.649566650390625,-0.554656982421875,-0.731842041015625
260905,0.648681640625,-0.541412353515625,-0.69671630859375
260906,0.6194305419921875,-0.5252685546875,-0.6622772216796875
260907,0.57208251953125,-0.511962890625,-0.64971923828125
260908,0.5267333984375,-0.52099609375,-0.657012939453125
260909,0.5016937255859375,-0.5493011474609375,-0.6528472900390625
260910,0.5122222900390625,-0.56585693359375,-0.642181396484375
260911,0.5445098876953125,-0.549072265625,-0.6251068115234375
260912,0.5673370361328125,-0.5263671875,-0.6098175048828125
260913,0.572509765625,-0.493499755859375,-0.588043212890625
260914,0.5585479736328125,-0.4511260986328125,-0.5684661865234375
260915,0.541839599609375,-0.41143798828125,-0.57171630859375
260916,0.5337066650390625,-0.376678466796875,-0.5994873046875
260917,0.5462799072265625,-0.3531036376953125,-0.642822265625
260918,0.5726165771484375,-0.3369140625,-0.6907196044921875
260919,0.5985870361328125,-0.3336334228515625,-0.72039794921875
260920,0.6053924560546875,-0.3423919677734375,-0.7244720458984375
260921,0.586761474609375,-0.34600830078125,-0.718780517578125
260922,0.5578155517578125,-0.3444671630859375,-0.7157440185546875
260923,0.5299072265625,-0.3358154296875,-0.719940185546875
260924,0.5239105224609375,-0.3290863037109375,-0.7262115478515625
260925,0.5320587158203125,-0.33294677734375,-0.7155303955078125
260926,0.5313873291015625,-0.34930419921875,-0.73370361328125
260927,0.529937744140625,-0.3774871826171875,-0.8035430908203125
260928,0.5177154541015625,-0.42352294921875,-0.8464508056640625
260929,0.493988037109375,-0.4698944091796875,-0.85791015625
260930,0.478302001953125,-0.485931396484375,-0.8823394775390625
260931,0.45733642578125,-0.4842681884765625,-0.9164581298828124
260932,0.426544189453125,-0.472625732421875,-0.9521636962890624
260933,0.4052734375,-0.448089599609375,-0.982940673828125
260934,0.3899383544921875,-0.426177978515625,-1.008377075195312
260935,0.3819427490234375,-0.4046173095703125,-1.013641357421875
260936,0.3755645751953125,-0.384765625,-1.004302978515625
260937,0.367401123046875,-0.3673553466796875,-0.9921417236328124
260938,0.3581390380859375,-0.346954345703125,-0.9808502197265624
260939,0.336273193359375,-0.321807861328125,-0.9576263427734376
260940,0.32281494140625,-0.299041748046875,-0.9273681640625
260941,0.31134033203125,-0.2527313232421875,-0.8943634033203125
260942,0.30072021484375,-0.2028656005859375,-0.8835296630859375
260943,0.279937744140625,-0.154815673828125,-0.89581298828125
260944,0.253753662109375,-0.109832763671875,-0.9332275390625
260945,0.230072021484375,-0.0859375,-0.9512176513671876
260946,0.1902008056640625,-0.0644073486328125,-0.951690673828125
260947,0.145050048828125,-0.0445098876953125,-0.9750823974609376
260948,0.1063079833984375,-0.03717041015625,-0.9693603515625
260949,0.07415771484375,-0.0203704833984375,-0.942047119140625
260950,0.0451202392578125,0.001220703125,-0.9252166748046876
260951,0.0129852294921875,0.0189208984375,-0.9311370849609376
260952,0.0015411376953125,0.032989501953125,-0.946502685546875
260953,0.0074615478515625,0.0428924560546875,-0.9723358154296876
260954,0.03717041015625,0.042205810546875,-1.000396728515625
260955,0.08892822265625,0.0243988037109375,-1.037872314453125
260956,0.149169921875,-0.025543212890625,-1.06829833984375
260957,0.215301513671875,-0.1044769287109375,-1.062652587890625
260958,0.2743377685546875,-0.1936798095703125,-1.048171997070312
260959,0.3248291015625,-0.2794952392578125,-1.0333251953125
260960,0.3595733642578125,-0.3407745361328125,-1.020584106445312
260961,0.379119873046875,-0.351409912109375,-1.02197265625
260962,0.381317138671875,-0.4157257080078125,-1.036666870117188
260963,0.3778228759765625,-0.4376220703125,-0.9937591552734376
260964,0.38922119140625,-0.3523406982421875,-0.9475860595703124
260965,0.380462646484375,-0.396148681640625,-0.959442138671875
260966,0.417236328125,-0.3269195556640625,-0.951019287109375
260967,0.4322662353515625,-0.311248779296875,-0.941558837890625
260968,0.4460296630859375,-0.295806884765625,-0.9304351806640624
260969,0.4651336669921875,-0.2808685302734375,-0.9177398681640624
260970,0.49688720703125,-0.2688140869140625,-0.9209442138671876
260971,0.5438385009765625,-0.2590789794921875,-0.9345245361328124
260972,0.59552001953125,-0.253143310546875,-0.9406890869140624
260973,0.6552734375,-0.247650146484375,-0.9319610595703124
260974,0.7197113037109375,-0.246978759765625,-0.9086761474609376
260975,0.7549591064453125,-0.2729034423828125,-0.8856964111328125
260976,0.7589111328125,-0.3330841064453125,-0.8512420654296875
260977,0.738861083984375,-0.4049224853515625,-0.8056793212890625
260978,0.697296142578125,-0.4509429931640625,-0.7611083984375
260979,0.6523895263671875,-0.4698486328125,-0.747314453125
260980,0.604736328125,-0.46368408203125,-0.76361083984375
260981,0.566131591796875,-0.4434967041015625,-0.785858154296875
260982,0.5416107177734375,-0.4156341552734375,-0.787628173828125
260983,0.5378265380859375,-0.3993377685546875,-0.7726287841796875
260984,0.552734375,-0.39306640625,-0.7449493408203125
260985,0.5706787109375,-0.401275634765625,-0.7153167724609375
260986,0.5951995849609375,-0.403961181640625,-0.70355224609375
260987,0.616485595703125,-0.3893280029296875,-0.6974334716796875
260988,0.62786865234375,-0.3601531982421875,-0.686737060546875
260989,0.62554931640625,-0.334075927734375,-0.6639862060546875
260990,0.6092681884765625,-0.3065185546875,-0.6313018798828125
260991,0.5819244384765625,-0.2843017578125,-0.605224609375
260992,0.537933349609375,-0.2620391845703125,-0.5932159423828125
260993,0.4800567626953125,-0.2503814697265625,-0.5943450927734375
260994,0.4310760498046875,-0.254241943359375,-0.599334716796875
260995,0.3949127197265625,-0.2630462646484375,-0.6082000732421875
260996,0.3745880126953125,-0.26947021484375,-0.61712646484375
260997,0.3690032958984375,-0.27459716796875,-0.6272735595703125
260998,0.3794097900390625,-0.271026611328125,-0.6493988037109375
260999,0.3932037353515625,-0.259002685546875,-0.6778411865234375
261000,0.4132537841796875,-0.2604522705078125,-0.7142791748046875
261001,0.4362640380859375,-0.264678955078125,-0.74871826171875
261002,0.4663848876953125,-0.266845703125,-0.7900543212890625
261003,0.498687744140625,-0.2673187255859375,-0.8300933837890625
261004,0.5154571533203125,-0.259918212890625,-0.8736419677734375
261005,0.525970458984375,-0.242889404296875,-0.920135498046875
261006,0.5166168212890625,-0.22216796875,-0.946075439453125
261007,0.5146484375,-0.191925048828125,-0.981109619140625
261008,0.507049560546875,-0.163055419921875,-1.023574829101562
261009,0.4885406494140625,-0.1622772216796875,-1.007369995117188
261010,0.4646453857421875,-0.1826019287109375,-0.97174072265625
261011,0.4308319091796875,-0.2010345458984375,-0.9550018310546876
261012,0.4003753662109375,-0.2064971923828125,-0.9532928466796876
261013,0.3749542236328125,-0.19927978515625,-0.9644012451171876
261014,0.347747802734375,-0.183624267578125,-0.982818603515625
261015,0.31268310546875,-0.1877899169921875,-0.999298095703125
261016,0.285186767578125,-0.18463134765625,-1.011123657226562
261017,0.2559814453125,-0.1572723388671875,-1.002456665039062
261018,0.253509521484375,-0.114471435546875,-1.020462036132812
261019,0.24078369140625,-0.1107330322265625,-1.014511108398438
261020,0.2140350341796875,-0.09564208984375,-0.9778900146484376
261021,0.1842193603515625,-0.07763671875,-0.94732666015625
261022,0.1519317626953125,-0.072784423828125,-0.9343414306640624
261023,0.134552001953125,-0.0729217529296875,-0.9367523193359376
261024,0.1404571533203125,-0.07891845703125,-0.9386749267578124
261025,0.16070556640625,-0.0949859619140625,-0.9370574951171876
261026,0.1971893310546875,-0.105804443359375,-0.9333648681640624
261027,0.249420166015625,-0.11187744140625,-0.92767333984375
261028,0.307708740234375,-0.1100616455078125,-0.9331817626953124
261029,0.372772216796875,-0.10845947265625,-0.9441986083984376
261030,0.438140869140625,-0.10308837890625,-0.9521484375
261031,0.4993743896484375,-0.1175384521484375,-0.95672607421875
261032,0.5519256591796875,-0.121856689453125,-0.955322265625
261033,0.5938720703125,-0.1168365478515625,-0.9402618408203124
261034,0.6183929443359375,-0.11859130859375,-0.8959197998046875
261035,0.6299591064453125,-0.1178436279296875,-0.84381103515625
261036,0.629974365234375,-0.1223907470703125,-0.8013763427734375
261037,0.617523193359375,-0.142913818359375,-0.765777587890625
261038,0.6088714599609375,-0.1673126220703125,-0.747772216796875
261039,0.595703125,-0.1998291015625,-0.7338104248046875
261040,0.5805206298828125,-0.249176025390625,-0.7311859130859375
261041,0.568115234375,-0.305328369140625,-0.7439117431640625
261042,0.5684051513671875,-0.36492919921875,-0.7706146240234375
261043,0.577789306640625,-0.429443359375,-0.8130035400390625
261044,0.60211181640625,-0.4872589111328125,-0.8592987060546875
261045,0.6369781494140625,-0.5298004150390625,-0.87774658203125
261046,0.6595001220703125,-0.5625762939453125,-0.841705322265625
261047,0.6669921875,-0.584808349609375,-0.77093505859375
261048,0.65069580078125,-0.5881500244140625,-0.7075653076171875
261049,0.6154327392578125,-0.57666015625,-0.6786956787109375
261050,0.575469970703125,-0.567138671875,-0.654541015625
261051,0.5402679443359375,-0.57470703125,-0.641571044921875
261052,0.5174713134765625,-0.5828857421875,-0.65960693359375
261053,0.5139617919921875,-0.58355712890625,-0.7047882080078125
261054,0.5181732177734375,-0.5742340087890625,-0.741119384765625
261055,0.5262908935546875,-0.5450439453125,-0.7361602783203125
261056,0.531402587890625,-0.502197265625,-0.7119140625
261057,0.519073486328125,-0.4488983154296875,-0.6800994873046875
261058,0.5029449462890625,-0.3859405517578125,-0.653961181640625
261059,0.4830169677734375,-0.3365631103515625,-0.6399383544921875
261060,0.4692535400390625,-0.3113861083984375,-0.6392822265625
261061,0.46893310546875,-0.292205810546875,-0.6624298095703125
261062,0.4889373779296875,-0.2672271728515625,-0.6952972412109375
261063,0.5201263427734375,-0.250457763671875,-0.7195892333984375
261064,0.5440521240234375,-0.2528076171875,-0.7360992431640625
261065,0.5596160888671875,-0.2540435791015625,-0.7347564697265625
261066,0.567962646484375,-0.2593841552734375,-0.72723388671875
261067,0.5727081298828125,-0.264129638671875,-0.7108154296875
261068,0.5766143798828125,-0.2701263427734375,-0.6832733154296875
261069,0.594512939453125,-0.285247802734375,-0.6484832763671875
261070,0.6063079833984375,-0.31353759765625,-0.611602783203125
261071,0.6005859375,-0.3639068603515625,-0.5971221923828125
261072,0.5903778076171875,-0.424285888671875,-0.6395721435546875
261073,0.5659332275390625,-0.4714508056640625,-0.723052978515625
261074,0.54345703125,-0.48150634765625,-0.81396484375
261075,0.5180816650390625,-0.4817657470703125,-0.88946533203125
261076,0.5019378662109375,-0.4766387939453125,-0.9490966796875
261077,0.48907470703125,-0.4612579345703125,-0.972503662109375
261078,0.48614501953125,-0.455657958984375,-0.9575958251953124
261079,0.4786529541015625,-0.45098876953125,-0.9247589111328124
261080,0.4738922119140625,-0.4202423095703125,-0.881072998046875
261081,0.4713897705078125,-0.3854522705078125,-0.86285400390625
261082,0.4501495361328125,-0.3438568115234375,-0.8584442138671875
261083,0.4251251220703125,-0.3012237548828125,-0.8715362548828125
261084,0.3899383544921875,-0.2666778564453125,-0.8806304931640625
261085,0.3545379638671875,-0.2407989501953125,-0.8988494873046875
261086,0.3057861328125,-0.21270751953125,-0.914459228515625
261087,0.2539215087890625,-0.1819915771484375,-0.9572296142578124
261088,0.2124786376953125,-0.159698486328125,-1.029190063476562
261089,0.1703033447265625,-0.144805908203125,-1.077529907226562
261090,0.125823974609375,-0.1244049072265625,-1.10211181640625
261091,0.0636138916015625,-0.10009765625,-1.091949462890625
261092,0.0389251708984375,-0.095367431640625,-1.083084106445312
261093,0.0290374755859375,-0.0964508056640625,-1.077651977539062
261094,0.057037353515625,-0.1009521484375,-1.076614379882812
261095,0.0895233154296875,-0.0835418701171875,-1.072555541992188
261096,0.1363983154296875,-0.0693511962890625,-1.072341918945312
261097,0.1985931396484375,-0.07745361328125,-1.07171630859375
261098,0.25518798828125,-0.118621826171875,-1.076568603515625
261099,0.3194427490234375,-0.19366455078125,-1.0732421875
261100,0.3848114013671875,-0.280120849609375,-1.048583984375
261101,0.4555511474609375,-0.3640899658203125,-1.01611328125
261102,0.518402099609375,-0.4071197509765625,-0.991729736328125
261103,0.558319091796875,-0.42413330078125,-0.9510955810546876
261104,0.5539703369140625,-0.4435577392578125,-0.8769683837890625
261105,0.518585205078125,-0.4275360107421875,-0.8491363525390625
261106,0.47113037109375,-0.4012451171875,-0.84027099609375
261107,0.420318603515625,-0.3555450439453125,-0.8351898193359375
261108,0.36474609375,-0.3246917724609375,-0.8360137939453125
261109,0.3286895751953125,-0.3086700439453125,-0.853729248046875
261110,0.325103759765625,-0.295196533203125,-0.8818206787109375
261111,0.3294219970703125,-0.288787841796875,-0.888092041015625
261112,0.33734130859375,-0.28887939453125,-0.8996734619140625
261113,0.3524017333984375,-0.29345703125,-0.925994873046875
261114,0.386474609375,-0.31060791015625,-0.941009521484375
261115,0.459686279296875,-0.32373046875,-0.9313507080078124
261116,0.55828857421875,-0.3380126953125,-0.906341552734375
261117,0.6677703857421875,-0.3763275146484375,-0.84991455078125
261118,0.75799560546875,-0.4196014404296875,-0.766082763671875
261119,0.8074798583984375,-0.454742431640625,-0.687286376953125
261120,0.831817626953125,-0.479827880859375,-0.6247406005859375
261121,0.81805419921875,-0.485137939453125,-0.573089599609375
261122,0.767913818359375,-0.482818603515625,-0.5594024658203125
261123,0.712158203125,-0.4891357421875,-0.5945587158203125
261124,0.66082763671875,-0.527557373046875,-0.6408538818359375
261125,0.633026123046875,-0.5471038818359375,-0.6848297119140625
261126,0.631500244140625,-0.5468292236328125,-0.719879150390625
261127,0.64984130859375,-0.53753662109375,-0.7295989990234375
261128,0.6708831787109375,-0.51416015625,-0.702178955078125
261129,0.679779052734375,-0.4848480224609375,-0.6484527587890625
261130,0.674346923828125,-0.4611663818359375,-0.6079559326171875
261131,0.646881103515625,-0.449127197265625,-0.58001708984375
261132,0.5993194580078125,-0.440673828125,-0.5671234130859375
261133,0.5489654541015625,-0.4289703369140625,-0.5814971923828125
261134,0.5063629150390625,-0.41302490234375,-0.6182861328125
261135,0.4691009521484375,-0.4022064208984375,-0.6582183837890625
261136,0.437530517578125,-0.3922271728515625,-0.69061279296875
261137,0.41070556640625,-0.384307861328125,-0.7140655517578125
261138,0.39276123046875,-0.3829193115234375,-0.73675537109375
261139,0.372802734375,-0.384246826171875,-0.7433319091796875
261140,0.356658935546875,-0.3868865966796875,-0.74188232421875
261141,0.345001220703125,-0.3827056884765625,-0.735504150390625
261142,0.339508056640625,-0.3763885498046875,-0.7400970458984375
261143,0.3482513427734375,-0.3763275146484375,-0.7597808837890625
261144,0.370574951171875,-0.3800506591796875,-0.7977294921875
261145,0.4098968505859375,-0.3868865966796875,-0.8284759521484375
261146,0.4617462158203125,-0.388916015625,-0.8256683349609375
261147,0.5108795166015625,-0.385162353515625,-0.8017578125
261148,0.5582275390625,-0.3716278076171875,-0.769378662109375
261149,0.5966644287109375,-0.3478851318359375,-0.738433837890625
261150,0.621551513671875,-0.3224945068359375,-0.7129974365234375
261151,0.6324310302734375,-0.2942962646484375,-0.698028564453125
261152,0.6173248291015625,-0.2708587646484375,-0.6925048828125
261153,0.5805511474609375,-0.2609710693359375,-0.6981353759765625
261154,0.541961669921875,-0.25848388671875,-0.7200469970703125
261155,0.515716552734375,-0.253387451171875,-0.757568359375
261156,0.4902801513671875,-0.2546234130859375,-0.78338623046875
261157,0.464996337890625,-0.2574920654296875,-0.8109588623046875
261158,0.442596435546875,-0.26129150390625,-0.834259033203125
261159,0.417144775390625,-0.272247314453125,-0.844085693359375
261160,0.398895263671875,-0.28326416015625,-0.8525543212890625
261161,0.375823974609375,-0.2924041748046875,-0.8515625
261162,0.34393310546875,-0.291015625,-0.84149169921875
261163,0.312103271484375,-0.2729339599609375,-0.843994140625
261164,0.2863922119140625,-0.2422943115234375,-0.8745880126953125
261165,0.264434814453125,-0.214630126953125,-0.912994384765625
261166,0.2436065673828125,-0.1954803466796875,-0.9469451904296876
261167,0.2192230224609375,-0.1928558349609375,-0.9846343994140624
261168,0.204193115234375,-0.1952362060546875,-1.013931274414062
261169,0.2140045166015625,-0.196258544921875,-1.02667236328125
261170,0.25018310546875,-0.2010650634765625,-1.03363037109375
261171,0.2964324951171875,-0.210052490234375,-1.0367431640625
261172,0.3491973876953125,-0.2220001220703125,-1.043060302734375
261173,0.406463623046875,-0.23809814453125,-1.048721313476562
261174,0.4582366943359375,-0.263458251953125,-1.029754638671875
261175,0.510040283203125,-0.286712646484375,-0.9750518798828124
261176,0.558929443359375,-0.3048858642578125,-0.896697998046875
261177,0.5951080322265625,-0.32061767578125,-0.8172149658203125
261178,0.6068267822265625,-0.3303070068359375,-0.779632568359375
261179,0.608551025390625,-0.3357696533203125,-0.765228271484375
261180,0.59771728515625,-0.346771240234375,-0.7476959228515625
261181,0.578826904296875,-0.353851318359375,-0.735137939453125
261182,0.5624542236328125,-0.36407470703125,-0.7296905517578125
261183,0.5451507568359375,-0.38433837890625,-0.724761962890625
261184,0.5241851806640625,-0.4125518798828125,-0.740875244140625
261185,0.50714111328125,-0.4455413818359375,-0.7711029052734375
261186,0.50970458984375,-0.483428955078125,-0.80426025390625
261187,0.5323486328125,-0.5232086181640625,-0.8224945068359375
261188,0.5659942626953125,-0.55108642578125,-0.8129425048828125
261189,0.600189208984375,-0.5646820068359375,-0.77496337890625
261190,0.6232757568359375,-0.565338134765625,-0.7249298095703125
261191,0.631866455078125,-0.556121826171875,-0.68426513671875
261192,0.6283416748046875,-0.532196044921875,-0.663726806640625
261193,0.6103363037109375,-0.4975738525390625,-0.66668701171875
261194,0.5802764892578125,-0.4739990234375,-0.685791015625
261195,0.56298828125,-0.470855712890625,-0.7098541259765625
261196,0.565887451171875,-0.482147216796875,-0.726959228515625
261197,0.57958984375,-0.487274169921875,-0.7302398681640625
261198,0.587371826171875,-0.4779205322265625,-0.717864990234375
261199,0.581207275390625,-0.4609222412109375,-0.6944122314453125
261200,0.565277099609375,-0.43023681640625,-0.65533447265625
261201,0.5352630615234375,-0.3983612060546875,-0.6115264892578125
261202,0.4887847900390625,-0.364715576171875,-0.5779571533203125
261203,0.432586669921875,-0.3258209228515625,-0.562652587890625
261204,0.389862060546875,-0.3025970458984375,-0.5774993896484375
261205,0.369049072265625,-0.302642822265625,-0.613433837890625
261206,0.3782501220703125,-0.3224029541015625,-0.650054931640625
261207,0.419189453125,-0.3403472900390625,-0.674407958984375
261208,0.475341796875,-0.352691650390625,-0.6768798828125
261209,0.547760009765625,-0.3604888916015625,-0.6615753173828125
261210,0.6086273193359375,-0.3507537841796875,-0.6427764892578125
261211,0.6577606201171875,-0.3278961181640625,-0.64190673828125
261212,0.6901092529296875,-0.321319580078125,-0.6691436767578125
261213,0.70123291015625,-0.3515625,-0.7205963134765625
261214,0.681488037109375,-0.3919677734375,-0.755767822265625
261215,0.651519775390625,-0.4381561279296875,-0.7656097412109375
261216,0.6248779296875,-0.4911651611328125,-0.7797698974609375
261217,0.599700927734375,-0.538909912109375,-0.80731201171875
261218,0.5724639892578125,-0.5845184326171875,-0.8493499755859375
261219,0.5539703369140625,-0.6006317138671875,-0.90966796875
261220,0.5332794189453125,-0.601806640625,-0.9645233154296876
261221,0.5168304443359375,-0.5952301025390625,-0.9904937744140624
261222,0.5013427734375,-0.5787353515625,-0.9802398681640624
261223,0.4889068603515625,-0.555816650390625,-0.9596405029296876
261224,0.4793853759765625,-0.5300140380859375,-0.935150146484375
261225,0.4700469970703125,-0.4908905029296875,-0.9164276123046876
261226,0.455078125,-0.4509735107421875,-0.8920440673828125
261227,0.438232421875,-0.4100494384765625,-0.8559112548828125
261228,0.4219970703125,-0.353973388671875,-0.8259429931640625
261229,0.4075164794921875,-0.2931365966796875,-0.8116455078125
261230,0.3850860595703125,-0.24609375,-0.79473876953125
261231,0.3562774658203125,-0.2160797119140625,-0.775238037109375
261232,0.318603515625,-0.1895751953125,-0.7637481689453125
261233,0.28594970703125,-0.1578216552734375,-0.777069091796875
261234,0.2678985595703125,-0.133758544921875,-0.8008880615234375
261235,0.2595672607421875,-0.11883544921875,-0.8289642333984375
261236,0.247344970703125,-0.109832763671875,-0.857147216796875
261237,0.2343597412109375,-0.115692138671875,-0.892974853515625
261238,0.22088623046875,-0.14947509765625,-0.9331817626953124
261239,0.2327423095703125,-0.187591552734375,-0.961822509765625
261240,0.2617340087890625,-0.2282867431640625,-0.9850006103515624
261241,0.2864837646484375,-0.2691192626953125,-1.004974365234375
261242,0.3072509765625,-0.3040618896484375,-1.021728515625
261243,0.3271026611328125,-0.350799560546875,-1.04913330078125
261244,0.347137451171875,-0.41131591796875,-1.08355712890625
261245,0.3562469482421875,-0.481353759765625,-1.090835571289062
261246,0.350128173828125,-0.56671142578125,-1.054702758789062
261247,0.3281097412109375,-0.646270751953125,-1.006820678710938
261248,0.3006744384765625,-0.685302734375,-0.9785308837890624
261249,0.2670440673828125,-0.690277099609375,-0.933563232421875
261250,0.2356414794921875,-0.648590087890625,-0.8768463134765625
261251,0.19970703125,-0.5898284912109375,-0.823883056640625
261252,0.1839141845703125,-0.5413970947265625,-0.781341552734375
261253,0.1883087158203125,-0.5233001708984375,-0.7350311279296875
261254,0.211669921875,-0.51812744140625,-0.671722412109375
261255,0.2523956298828125,-0.5076446533203125,-0.6228485107421875
261256,0.30078125,-0.4835052490234375,-0.6374969482421875
261257,0.3770294189453125,-0.4585113525390625,-0.7172088623046875
261258,0.4861602783203125,-0.4416351318359375,-0.802520751953125
261259,0.6049652099609375,-0.4315185546875,-0.8527374267578125
261260,0.7161407470703125,-0.4413299560546875,-0.8441009521484375
261261,0.8210906982421875,-0.477020263671875,-0.775634765625
261262,0.90673828125,-0.499053955078125,-0.679779052734375
261263,0.9776611328125,-0.463348388671875,-0.621185302734375
261264,0.98492431640625,-0.4052886962890625,-0.557220458984375
261265,0.8815155029296875,-0.40069580078125,-0.4962921142578125
261266,0.749908447265625,-0.4427947998046875,-0.5071258544921875
261267,0.658416748046875,-0.484039306640625,-0.5779876708984375
261268,0.60882568359375,-0.51629638671875,-0.672760009765625
261269,0.58734130859375,-0.529998779296875,-0.752288818359375
261270,0.5792388916015625,-0.5258331298828125,-0.804290771484375
261271,0.5900115966796875,-0.5048065185546875,-0.8260498046875
261272,0.614959716796875,-0.4633331298828125,-0.813507080078125
261273,0.6301116943359375,-0.429229736328125,-0.780487060546875
261274,0.6304168701171875,-0.40716552734375,-0.7458038330078125
261275,0.621246337890625,-0.3832244873046875,-0.70965576171875
261276,0.6019439697265625,-0.36077880859375,-0.681488037109375
261277,0.570526123046875,-0.3475799560546875,-0.6651153564453125
261278,0.5330810546875,-0.3452606201171875,-0.6556854248046875
261279,0.4993743896484375,-0.33563232421875,-0.6463623046875
261280,0.4657440185546875,-0.3260040283203125,-0.6407318115234375
261281,0.4378662109375,-0.3193817138671875,-0.6341552734375
261282,0.4251708984375,-0.3071136474609375,-0.628875732421875
261283,0.4210205078125,-0.30316162109375,-0.6368560791015625
261284,0.4251861572265625,-0.3064422607421875,-0.6489410400390625
261285,0.4408416748046875,-0.309295654296875,-0.658782958984375
261286,0.4560394287109375,-0.3199615478515625,-0.6674957275390625
261287,0.477996826171875,-0.33734130859375,-0.683319091796875
261288,0.5129547119140625,-0.34832763671875,-0.7072601318359375
261289,0.563232421875,-0.3418121337890625,-0.7384490966796875
261290,0.6091156005859375,-0.3325347900390625,-0.7646331787109375
261291,0.6423187255859375,-0.3250732421875,-0.754058837890625
261292,0.6575469970703125,-0.3111724853515625,-0.7325439453125
261293,0.6385498046875,-0.2987213134765625,-0.7113037109375
261294,0.59063720703125,-0.2870941162109375,-0.718048095703125
261295,0.546142578125,-0.27886962890625,-0.7405853271484375
261296,0.51336669921875,-0.2775115966796875,-0.7770538330078125
261297,0.4852447509765625,-0.2808074951171875,-0.832489013671875
261298,0.4657135009765625,-0.280731201171875,-0.8892822265625
261299,0.4466705322265625,-0.2877960205078125,-0.9323883056640624
261300,0.426422119140625,-0.284759521484375,-0.9454498291015624
261301,0.405029296875,-0.2683563232421875,-0.944427490234375
261302,0.3821258544921875,-0.2469940185546875,-0.9369659423828124
261303,0.3553619384765625,-0.22509765625,-0.9232940673828124
261304,0.3245849609375,-0.202606201171875,-0.9053955078125
261305,0.298095703125,-0.1908721923828125,-0.9049224853515624
261306,0.272857666015625,-0.1769561767578125,-0.9227142333984376
261307,0.2485809326171875,-0.17230224609375,-0.9557647705078124
261308,0.229736328125,-0.1728363037109375,-0.9911956787109376
261309,0.214447021484375,-0.1745147705078125,-1.018218994140625
261310,0.200958251953125,-0.1725311279296875,-1.031509399414062
261311,0.2089691162109375,-0.1845703125,-1.043243408203125
261312,0.2335052490234375,-0.2050018310546875,-1.038726806640625
261313,0.274017333984375,-0.213897705078125,-1.0234375
261314,0.3230438232421875,-0.220794677734375,-1.006317138671875
261315,0.372894287109375,-0.24755859375,-0.9984588623046876
261316,0.43499755859375,-0.2775726318359375,-1.003616333007812
261317,0.491943359375,-0.308746337890625,-0.9939422607421876
261318,0.5400543212890625,-0.3417205810546875,-0.9803314208984376
261319,0.5756378173828125,-0.375518798828125,-0.96539306640625
261320,0.6041412353515625,-0.401092529296875,-0.9325408935546876
261321,0.623077392578125,-0.41766357421875,-0.8722686767578125
261322,0.6205596923828125,-0.4243011474609375,-0.7957305908203125
261323,0.60205078125,-0.416015625,-0.725433349609375
261324,0.57330322265625,-0.396514892578125,-0.688323974609375
261325,0.5316314697265625,-0.3864288330078125,-0.68829345703125
261326,0.486785888671875,-0.39166259765625,-0.701171875
261327,0.4512481689453125,-0.410858154296875,-0.7050323486328125
261328,0.42694091796875,-0.44622802734375,-0.6864776611328125
261329,0.4097747802734375,-0.4811553955078125,-0.65679931640625
261330,0.398345947265625,-0.5005950927734375,-0.634490966796875
261331,0.3975372314453125,-0.516937255859375,-0.63623046875
261332,0.4157867431640625,-0.5160980224609375,-0.6618499755859375
261333,0.442291259765625,-0.5074920654296875,-0.6895904541015625
261334,0.4794769287109375,-0.503753662109375,-0.7205810546875
261335,0.5297088623046875,-0.5012359619140625,-0.7435760498046875
261336,0.5798187255859375,-0.4963531494140625,-0.7565765380859375
261337,0.6224212646484375,-0.486480712890625,-0.7625274658203125
261338,0.64801025390625,-0.478424072265625,-0.7733917236328125
261339,0.655242919921875,-0.47711181640625,-0.7888031005859375
261340,0.635711669921875,-0.488800048828125,-0.789520263671875
261341,0.6078338623046875,-0.5065460205078125,-0.7716064453125
261342,0.583038330078125,-0.5163116455078125,-0.7398223876953125
261343,0.5568389892578125,-0.517578125,-0.708740234375
261344,0.525634765625,-0.5105743408203125,-0.6962890625
261345,0.4982147216796875,-0.51287841796875,-0.6945037841796875
261346,0.4787445068359375,-0.51788330078125,-0.694488525390625
261347,0.4647369384765625,-0.5197296142578125,-0.6838836669921875
261348,0.4492950439453125,-0.5052032470703125,-0.6547698974609375
261349,0.42706298828125,-0.4793701171875,-0.6127166748046875
261350,0.39459228515625,-0.4397430419921875,-0.573577880859375
261351,0.364044189453125,-0.397857666015625,-0.5493621826171875
261352,0.3521270751953125,-0.367279052734375,-0.5456390380859375
261353,0.3576507568359375,-0.35418701171875,-0.553436279296875
261354,0.367462158203125,-0.3717041015625,-0.5607147216796875
261355,0.3867034912109375,-0.413726806640625,-0.569671630859375
261356,0.430877685546875,-0.4508209228515625,-0.5753631591796875
261357,0.4797515869140625,-0.4714508056640625,-0.5728302001953125
261358,0.521575927734375,-0.472869873046875,-0.5723114013671875
261359,0.5727996826171875,-0.46612548828125,-0.5861053466796875
261360,0.6180572509765625,-0.4672698974609375,-0.6020660400390625
261361,0.648590087890625,-0.477294921875,-0.6312103271484375
261362,0.6656951904296875,-0.499908447265625,-0.6795501708984375
261363,0.67047119140625,-0.524261474609375,-0.730987548828125
261364,0.6583099365234375,-0.5557708740234375,-0.78131103515625
261365,0.63482666015625,-0.5784759521484375,-0.8262786865234375
261366,0.60089111328125,-0.596771240234375,-0.8423309326171875
261367,0.56781005859375,-0.5973968505859375,-0.85882568359375
261368,0.5420379638671875,-0.5904693603515625,-0.89678955078125
261369,0.5257110595703125,-0.5789794921875,-0.9415130615234376
261370,0.5125732421875,-0.5640716552734375,-0.973358154296875
261371,0.4970855712890625,-0.539947509765625,-0.9928436279296876
261372,0.4681854248046875,-0.5130157470703125,-1.003036499023438
261373,0.4264068603515625,-0.48651123046875,-1.005401611328125
261374,0.39508056640625,-0.451812744140625,-1.014419555664062
261375,0.3674774169921875,-0.4184112548828125,-1.024017333984375
261376,0.3299713134765625,-0.397064208984375,-1.03094482421875
261377,0.2905731201171875,-0.382904052734375,-1.032760620117188
261378,0.2479400634765625,-0.356964111328125,-1.026885986328125
261379,0.2177276611328125,-0.3327178955078125,-1.014358520507812
261380,0.1944122314453125,-0.30792236328125,-0.974761962890625
261381,0.1882781982421875,-0.2658538818359375,-0.9272308349609376
261382,0.1971588134765625,-0.2106781005859375,-0.911285400390625
261383,0.2205657958984375,-0.1773529052734375,-0.9371337890625
261384,0.247314453125,-0.16888427734375,-0.9490966796875
261385,0.262542724609375,-0.1711578369140625,-0.940643310546875
261386,0.2731170654296875,-0.2100372314453125,-0.9363250732421876
261387,0.290802001953125,-0.25384521484375,-0.9365386962890624
261388,0.322052001953125,-0.2740631103515625,-0.9541015625
261389,0.3480987548828125,-0.307098388671875,-0.985595703125
261390,0.368011474609375,-0.35601806640625,-1.016342163085938
261391,0.3896331787109375,-0.409271240234375,-1.027633666992188
261392,0.4025421142578125,-0.4768218994140625,-1.022476196289062
261393,0.3948822021484375,-0.5547943115234375,-0.9935302734375
261394,0.35833740234375,-0.63494873046875,-0.9535064697265624
261395,0.296661376953125,-0.71026611328125,-0.928466796875
261396,0.2346038818359375,-0.76385498046875,-0.9057769775390624
261397,0.1754913330078125,-0.7820587158203125,-0.871917724609375
261398,0.1249847412109375,-0.779205322265625,-0.7976531982421875
261399,0.08306884765625,-0.7520294189453125,-0.6926727294921875
261400,0.0498809814453125,-0.714080810546875,-0.6077880859375
261401,0.0595245361328125,-0.6251373291015625,-0.5735321044921875
261402,0.1042327880859375,-0.5257110595703125,-0.5622711181640625
261403,0.139007568359375,-0.466217041015625,-0.5121612548828125
261404,0.1850738525390625,-0.424072265625,-0.46337890625
261405,0.2442779541015625,-0.3778076171875,-0.4617919921875
261406,0.3293304443359375,-0.3392333984375,-0.512176513671875
261407,0.405548095703125,-0.3158416748046875,-0.5697784423828125
261408,0.4833526611328125,-0.305328369140625,-0.6446533203125
261409,0.5731353759765625,-0.295745849609375,-0.7239837646484375
261410,0.6568756103515625,-0.3058624267578125,-0.7826995849609375
261411,0.7131805419921875,-0.35260009765625,-0.8042449951171875
261412,0.75299072265625,-0.4400482177734375,-0.787628173828125
261413,0.77899169921875,-0.510284423828125,-0.7359466552734375
261414,0.7872467041015625,-0.5455780029296875,-0.6734161376953125
261415,0.765380859375,-0.5645751953125,-0.630462646484375
261416,0.6930084228515625,-0.5688018798828125,-0.626495361328125
261417,0.5927276611328125,-0.567901611328125,-0.684844970703125
261418,0.5124664306640625,-0.573455810546875,-0.7851104736328125
261419,0.477783203125,-0.572723388671875,-0.8634185791015625
261420,0.4869232177734375,-0.551177978515625,-0.8883056640625
261421,0.5118865966796875,-0.523529052734375,-0.864959716796875
261422,0.53955078125,-0.497467041015625,-0.821990966796875
261423,0.5691070556640625,-0.4678955078125,-0.7708587646484375
261424,0.5967559814453125,-0.4388275146484375,-0.7247467041015625
261425,0.6129150390625,-0.4219207763671875,-0.6870574951171875
261426,0.614349365234375,-0.408935546875,-0.6573028564453125
261427,0.6000213623046875,-0.396484375,-0.647430419921875
261428,0.57220458984375,-0.393646240234375,-0.658294677734375
261429,0.5350799560546875,-0.392547607421875,-0.6816253662109375
261430,0.49078369140625,-0.397216796875,-0.69610595703125
261431,0.4448699951171875,-0.4046173095703125,-0.693389892578125
261432,0.410308837890625,-0.410888671875,-0.6891937255859375
261433,0.39129638671875,-0.4172821044921875,-0.6810760498046875
261434,0.379241943359375,-0.416351318359375,-0.6740264892578125
261435,0.3753509521484375,-0.418121337890625,-0.6904754638671875
261436,0.3670196533203125,-0.426361083984375,-0.7266845703125
261437,0.37127685546875,-0.441070556640625,-0.7859649658203125
261438,0.400299072265625,-0.4556121826171875,-0.869415283203125
261439,0.438934326171875,-0.46405029296875,-0.90673828125
261440,0.4823455810546875,-0.4624176025390625,-0.8966217041015625
261441,0.5226593017578125,-0.447662353515625,-0.8690032958984375
261442,0.5570220947265625,-0.424163818359375,-0.81402587890625
261443,0.5767669677734375,-0.377349853515625,-0.7730865478515625
261444,0.5781402587890625,-0.3184661865234375,-0.772125244140625
261445,0.5609283447265625,-0.286529541015625,-0.7823486328125
261446,0.5299835205078125,-0.2770233154296875,-0.7953033447265625
261447,0.4995880126953125,-0.2799224853515625,-0.8199310302734375
261448,0.46575927734375,-0.288726806640625,-0.8585205078125
261449,0.4320831298828125,-0.3089141845703125,-0.8965301513671875
261450,0.3957366943359375,-0.326690673828125,-0.91912841796875
261451,0.3647918701171875,-0.3323822021484375,-0.938690185546875
261452,0.3384246826171875,-0.3205413818359375,-0.9620819091796876
261453,0.313232421875,-0.3026580810546875,-0.978515625
261454,0.2809906005859375,-0.2823486328125,-0.9812774658203124
261455,0.247802734375,-0.261688232421875,-0.9857025146484376
261456,0.2177734375,-0.242584228515625,-0.98431396484375
261457,0.21673583984375,-0.206756591796875,-0.9900360107421876
261458,0.2120819091796875,-0.1719970703125,-1.007766723632812
261459,0.1976165771484375,-0.1577301025390625,-1.017669677734375
261460,0.17041015625,-0.1668701171875,-1.009048461914062
261461,0.171875,-0.1382293701171875,-1.015869140625
261462,0.1896209716796875,-0.132415771484375,-1.031173706054688
261463,0.2093353271484375,-0.17529296875,-1.03985595703125
261464,0.2501983642578125,-0.204315185546875,-1.047882080078125
261465,0.319793701171875,-0.2055511474609375,-1.047149658203125
261466,0.3883819580078125,-0.2164306640625,-1.024215698242188
261467,0.4516448974609375,-0.249786376953125,-0.9981842041015624
261468,0.5029449462890625,-0.280181884765625,-0.980865478515625
261469,0.543487548828125,-0.31341552734375,-0.9680328369140624
261470,0.5737457275390625,-0.3461151123046875,-0.93499755859375
261471,0.585662841796875,-0.370513916015625,-0.879669189453125
261472,0.5774688720703125,-0.39178466796875,-0.8087921142578125
261473,0.55181884765625,-0.4196319580078125,-0.7461090087890625
261474,0.5150909423828125,-0.4465789794921875,-0.71221923828125
261475,0.478057861328125,-0.4451904296875,-0.6941986083984375
261476,0.4443206787109375,-0.4377593994140625,-0.6822662353515625
261477,0.4193878173828125,-0.43768310546875,-0.6731109619140625
261478,0.4020538330078125,-0.4454345703125,-0.6569366455078125
261479,0.39752197265625,-0.4611053466796875,-0.633056640625
261480,0.4083099365234375,-0.481689453125,-0.6186981201171875
261481,0.4281768798828125,-0.49322509765625,-0.6220550537109375
261482,0.4484405517578125,-0.4926605224609375,-0.6417694091796875
261483,0.461822509765625,-0.481414794921875,-0.6794281005859375
261484,0.471343994140625,-0.4690704345703125,-0.7169342041015625
261485,0.490081787109375,-0.4627532958984375,-0.725128173828125
261486,0.51580810546875,-0.4619293212890625,-0.7117919921875
261487,0.536529541015625,-0.4617156982421875,-0.703460693359375
261488,0.5464019775390625,-0.459075927734375,-0.7123565673828125
261489,0.541839599609375,-0.451904296875,-0.72760009765625
261490,0.5296173095703125,-0.4416351318359375,-0.743621826171875
261491,0.5140533447265625,-0.4350738525390625,-0.7600555419921875
261492,0.4953765869140625,-0.4367828369140625,-0.7686004638671875
261493,0.4834747314453125,-0.4403076171875,-0.7684173583984375
261494,0.474822998046875,-0.4503173828125,-0.7610626220703125
261495,0.469635009765625,-0.4680328369140625,-0.7562713623046875
261496,0.4661865234375,-0.4892425537109375,-0.76177978515625
261497,0.46234130859375,-0.507354736328125,-0.7686614990234375
261498,0.4631805419921875,-0.521148681640625,-0.7695159912109375
261499,0.470367431640625,-0.529022216796875,-0.7587432861328125
261500,0.472015380859375,-0.525115966796875,-0.735321044921875
261501,0.4569549560546875,-0.5139007568359375,-0.7073974609375
261502,0.4289093017578125,-0.497833251953125,-0.6804962158203125
261503,0.3953399658203125,-0.468292236328125,-0.65545654296875
261504,0.3583526611328125,-0.4362640380859375,-0.640899658203125
261505,0.329833984375,-0.4026031494140625,-0.6446685791015625
261506,0.3289337158203125,-0.3758392333984375,-0.655364990234375
261507,0.3557586669921875,-0.36602783203125,-0.65234375
261508,0.3918914794921875,-0.3734283447265625,-0.632568359375
261509,0.427093505859375,-0.3842926025390625,-0.6194610595703125
261510,0.466949462890625,-0.385894775390625,-0.6202239990234375
261511,0.5019683837890625,-0.3785858154296875,-0.630035400390625
261512,0.533172607421875,-0.3766326904296875,-0.64971923828125
261513,0.5646514892578125,-0.3885955810546875,-0.678741455078125
261514,0.5798797607421875,-0.3914642333984375,-0.720489501953125
261515,0.588958740234375,-0.396453857421875,-0.7590789794921875
261516,0.5950775146484375,-0.4097137451171875,-0.8020477294921875
261517,0.5994720458984375,-0.436981201171875,-0.844268798828125
261518,0.600128173828125,-0.47625732421875,-0.8694915771484375
261519,0.6056365966796875,-0.50421142578125,-0.884185791015625
261520,0.5953521728515625,-0.5291748046875,-0.9011993408203124
261521,0.5737762451171875,-0.5302581787109375,-0.92547607421875
261522,0.5428924560546875,-0.50164794921875,-0.9710693359375
261523,0.5080718994140625,-0.4640655517578125,-1.01959228515625
261524,0.4803924560546875,-0.4242095947265625,-1.051895141601562
261525,0.4576873779296875,-0.392181396484375,-1.074691772460938
261526,0.438690185546875,-0.362060546875,-1.093429565429688
261527,0.4097137451171875,-0.3364715576171875,-1.108871459960938
261528,0.370635986328125,-0.31207275390625,-1.114654541015625
261529,0.3266448974609375,-0.28631591796875,-1.123184204101562
261530,0.2882537841796875,-0.2636871337890625,-1.129653930664062
261531,0.25360107421875,-0.24688720703125,-1.108901977539062
261532,0.22607421875,-0.22857666015625,-1.065689086914062
261533,0.21197509765625,-0.206787109375,-1.021133422851562
261534,0.2087249755859375,-0.1919403076171875,-0.9958953857421876
261535,0.2120361328125,-0.191650390625,-0.971527099609375
261536,0.2162322998046875,-0.1987457275390625,-0.95062255859375
261537,0.225921630859375,-0.2141265869140625,-0.94189453125
261538,0.2400665283203125,-0.2333221435546875,-0.941253662109375
261539,0.25537109375,-0.259185791015625,-0.955810546875
261540,0.273834228515625,-0.2933349609375,-0.9736480712890624
261541,0.30120849609375,-0.3352203369140625,-0.9918060302734376
261542,0.3244781494140625,-0.388763427734375,-0.994171142578125
261543,0.335418701171875,-0.4397125244140625,-0.986083984375
261544,0.3339996337890625,-0.4795074462890625,-0.9615631103515624
261545,0.324493408203125,-0.5249786376953125,-0.9399871826171876
261546,0.2933197021484375,-0.565399169921875,-0.9011688232421876
261547,0.2637786865234375,-0.57513427734375,-0.82098388671875
261548,0.2303314208984375,-0.571624755859375,-0.7681121826171875
261549,0.205902099609375,-0.5466156005859375,-0.742340087890625
261550,0.19512939453125,-0.5086822509765625,-0.7136077880859375
261551,0.2210235595703125,-0.436859130859375,-0.714752197265625
261552,0.25250244140625,-0.3925933837890625,-0.6971435546875
261553,0.2732391357421875,-0.3898468017578125,-0.6378173828125
261554,0.3125762939453125,-0.3894195556640625,-0.6063690185546875
261555,0.36639404296875,-0.3766021728515625,-0.602691650390625
261556,0.436187744140625,-0.35894775390625,-0.626312255859375
261557,0.5013427734375,-0.3429412841796875,-0.6582183837890625
261558,0.5594940185546875,-0.3430938720703125,-0.685394287109375
261559,0.613433837890625,-0.356658935546875,-0.6994171142578125
261560,0.662506103515625,-0.381744384765625,-0.7166595458984375
261561,0.7136688232421875,-0.41143798828125,-0.7355804443359375
261562,0.7496490478515625,-0.440582275390625,-0.717193603515625
261563,0.771026611328125,-0.460784912109375,-0.685638427734375
261564,0.766021728515625,-0.4662933349609375,-0.6447601318359375
261565,0.73297119140625,-0.4665374755859375,-0.613494873046875
261566,0.685760498046875,-0.4611358642578125,-0.6146087646484375
261567,0.63916015625,-0.4552764892578125,-0.63580322265625
261568,0.6107177734375,-0.445892333984375,-0.6724090576171875
261569,0.6009521484375,-0.4416351318359375,-0.7115478515625
261570,0.6041107177734375,-0.4485931396484375,-0.7317047119140625
261571,0.622314453125,-0.4492340087890625,-0.7440948486328125
261572,0.6170196533203125,-0.452056884765625,-0.742431640625
261573,0.614013671875,-0.437255859375,-0.7384796142578125
261574,0.5882568359375,-0.417816162109375,-0.728851318359375
261575,0.540313720703125,-0.4001007080078125,-0.722076416015625
261576,0.4878692626953125,-0.3874664306640625,-0.7327117919921875
261577,0.4447174072265625,-0.3719635009765625,-0.7511444091796875
261578,0.415252685546875,-0.355926513671875,-0.764984130859375
261579,0.391326904296875,-0.3504791259765625,-0.78216552734375
261580,0.380340576171875,-0.350189208984375,-0.80853271484375
261581,0.3836212158203125,-0.3559417724609375,-0.818328857421875
261582,0.3922271728515625,-0.3622283935546875,-0.80584716796875
261583,0.400360107421875,-0.36663818359375,-0.7853851318359375
261584,0.4024658203125,-0.37237548828125,-0.7721099853515625
261585,0.402923583984375,-0.37200927734375,-0.7726898193359375
261586,0.4050140380859375,-0.373504638671875,-0.7847442626953125
261587,0.4214019775390625,-0.382598876953125,-0.8138580322265625
261588,0.460296630859375,-0.39715576171875,-0.8614044189453125
261589,0.516998291015625,-0.4047088623046875,-0.897705078125
261590,0.577972412109375,-0.4007415771484375,-0.9085845947265624
261591,0.6262664794921875,-0.40216064453125,-0.888885498046875
261592,0.66021728515625,-0.389923095703125,-0.8609466552734375
261593,0.66925048828125,-0.35833740234375,-0.8391571044921875
261594,0.65008544921875,-0.317626953125,-0.8276214599609375
261595,0.6167449951171875,-0.2718048095703125,-0.815765380859375
261596,0.5757904052734375,-0.245513916015625,-0.821807861328125
261597,0.5327301025390625,-0.2439422607421875,-0.84771728515625
261598,0.4901123046875,-0.252288818359375,-0.8864593505859375
261599,0.4559326171875,-0.2545013427734375,-0.9228973388671876
261600,0.4090118408203125,-0.2589569091796875,-0.9498291015625
261601,0.366973876953125,-0.25714111328125,-0.9605712890625
261602,0.3363189697265625,-0.2437744140625,-0.962982177734375
261603,0.2582244873046875,-0.2133941650390625,-0.9604339599609376
261604,0.2984161376953125,-0.2314453125,-0.96478271484375
261605,0.221954345703125,-0.186065673828125,-0.94647216796875
261606,0.1904449462890625,-0.1662445068359375,-0.945526123046875
261607,0.1654052734375,-0.1538238525390625,-0.9437713623046876
261608,0.1407470703125,-0.1399688720703125,-0.9366607666015624
261609,0.12286376953125,-0.135528564453125,-0.9151611328125
261610,0.1182098388671875,-0.1335601806640625,-0.883026123046875
261611,0.1091461181640625,-0.1446533203125,-0.8756561279296875
261612,0.1128692626953125,-0.16058349609375,-0.8696746826171875
261613,0.13580322265625,-0.1714630126953125,-0.881927490234375
261614,0.1938018798828125,-0.16094970703125,-0.9128570556640624
261615,0.26275634765625,-0.157501220703125,-0.9449005126953124
261616,0.363189697265625,-0.154815673828125,-0.9716033935546876
261617,0.46893310546875,-0.155120849609375,-0.9944305419921876
261618,0.569549560546875,-0.1508331298828125,-0.934051513671875
261619,0.6323699951171875,-0.14739990234375,-0.8766937255859375
261620,0.661529541015625,-0.1523284912109375,-0.822662353515625
261621,0.6899871826171875,-0.1591796875,-0.772308349609375
261622,0.7189178466796875,-0.1506500244140625,-0.7283477783203125
261623,0.7155609130859375,-0.1417694091796875,-0.6799468994140625
261624,0.6697235107421875,-0.1712646484375,-0.6715545654296875
261625,0.600616455078125,-0.233367919921875,-0.6766510009765625
261626,0.5362396240234375,-0.3084716796875,-0.671661376953125
261627,0.4938812255859375,-0.3648529052734375,-0.6823577880859375
261628,0.47479248046875,-0.398040771484375,-0.7248992919921875
261629,0.458099365234375,-0.4471282958984375,-0.77044677734375
261630,0.4621429443359375,-0.481597900390625,-0.794769287109375
261631,0.469512939453125,-0.497772216796875,-0.8125762939453125
261632,0.4698028564453125,-0.52410888671875,-0.8429107666015625
261633,0.4866485595703125,-0.5464019775390625,-0.858856201171875
261634,0.5111846923828125,-0.5553131103515625,-0.861602783203125
261635,0.5408782958984375,-0.555877685546875,-0.8537750244140625
261636,0.5650787353515625,-0.54791259765625,-0.8313140869140625
261637,0.5797576904296875,-0.532196044921875,-0.79522705078125
261638,0.5828704833984375,-0.505950927734375,-0.763427734375
261639,0.57574462890625,-0.4708099365234375,-0.760955810546875
261640,0.565704345703125,-0.4375152587890625,-0.7852783203125
261641,0.5628662109375,-0.434051513671875,-0.7726898193359375
261642,0.5618438720703125,-0.4361724853515625,-0.7164764404296875
261643,0.5450286865234375,-0.4146881103515625,-0.6501007080078125
261644,0.5101318359375,-0.3827362060546875,-0.60272216796875
261645,0.46575927734375,-0.335113525390625,-0.5986480712890625
261646,0.4456024169921875,-0.289520263671875,-0.6307830810546875
261647,0.453094482421875,-0.272308349609375,-0.6670684814453125
261648,0.4639129638671875,-0.265106201171875,-0.6927642822265625
261649,0.4925994873046875,-0.26751708984375,-0.7054595947265625
261650,0.529571533203125,-0.2834014892578125,-0.6938018798828125
261651,0.55975341796875,-0.2962188720703125,-0.6729278564453125
261652,0.5804290771484375,-0.305877685546875,-0.6638336181640625
261653,0.5862274169921875,-0.324798583984375,-0.669921875
261654,0.5842742919921875,-0.3482666015625,-0.6852874755859375
261655,0.59539794921875,-0.36248779296875,-0.707244873046875
261656,0.6203155517578125,-0.388458251953125,-0.729461669921875
261657,0.647491455078125,-0.4197235107421875,-0.75860595703125
261658,0.6594390869140625,-0.44183349609375,-0.7909088134765625
261659,0.650726318359375,-0.465789794921875,-0.8251800537109375
261660,0.6252288818359375,-0.4915924072265625,-0.8510589599609375
261661,0.5872650146484375,-0.5079498291015625,-0.8749847412109375
261662,0.54962158203125,-0.5081939697265625,-0.8962860107421875
261663,0.5207672119140625,-0.5022430419921875,-0.9104461669921876
261664,0.50006103515625,-0.4976043701171875,-0.9272918701171876
261665,0.48797607421875,-0.49273681640625,-0.9421844482421876
261666,0.47186279296875,-0.4741973876953125,-0.9500732421875
261667,0.4529571533203125,-0.4476470947265625,-0.957366943359375
261668,0.4296722412109375,-0.4203033447265625,-0.9653472900390624
261669,0.3995208740234375,-0.3936309814453125,-0.9657135009765624
261670,0.359710693359375,-0.364593505859375,-0.9626007080078124
261671,0.3162078857421875,-0.3343505859375,-0.957611083984375
261672,0.2734832763671875,-0.3056488037109375,-0.95611572265625
261673,0.230804443359375,-0.2814178466796875,-0.9561004638671876
261674,0.186370849609375,-0.2568206787109375,-0.9614105224609376
261675,0.145904541015625,-0.2275543212890625,-0.969329833984375
261676,0.1325836181640625,-0.1994171142578125,-0.9743499755859376
261677,0.1336669921875,-0.1794891357421875,-0.96319580078125
261678,0.1315155029296875,-0.159515380859375,-0.946197509765625
261679,0.1364898681640625,-0.151031494140625,-0.938323974609375
261680,0.1576690673828125,-0.162567138671875,-0.9395294189453124
261681,0.1945648193359375,-0.1719818115234375,-0.935546875
261682,0.2405548095703125,-0.18359375,-0.9492340087890624
261683,0.293853759765625,-0.2100677490234375,-0.9681396484375
261684,0.3531341552734375,-0.2486572265625,-0.9796295166015624
261685,0.413604736328125,-0.30426025390625,-0.976531982421875
261686,0.4705810546875,-0.3629608154296875,-0.9642181396484376
261687,0.5109710693359375,-0.4092559814453125,-0.9482421875
261688,0.5205535888671875,-0.441436767578125,-0.92462158203125
261689,0.4993743896484375,-0.476104736328125,-0.8945465087890625
261690,0.4667510986328125,-0.4960174560546875,-0.8739471435546875
261691,0.4196929931640625,-0.503570556640625,-0.8504638671875
261692,0.3579559326171875,-0.4959869384765625,-0.8107147216796875
261693,0.2973785400390625,-0.4814605712890625,-0.774078369140625
261694,0.2544403076171875,-0.4518585205078125,-0.756134033203125
261695,0.23388671875,-0.4297637939453125,-0.7440032958984375
261696,0.2363433837890625,-0.4186553955078125,-0.7372589111328125
261697,0.2620697021484375,-0.4024200439453125,-0.7541046142578125
261698,0.304473876953125,-0.396636962890625,-0.7977752685546875
261699,0.382293701171875,-0.400604248046875,-0.846405029296875
261700,0.4878692626953125,-0.41937255859375,-0.857757568359375
261701,0.5827789306640625,-0.4458160400390625,-0.83966064453125
261702,0.6826324462890625,-0.4622650146484375,-0.8270263671875
261703,0.7867889404296875,-0.4740142822265625,-0.791168212890625
261704,0.871490478515625,-0.4698028564453125,-0.73529052734375
261705,0.9127655029296876,-0.4532318115234375,-0.6838226318359375
261706,0.893585205078125,-0.4540252685546875,-0.651611328125
261707,0.8221435546875,-0.4810638427734375,-0.641845703125
261708,0.72784423828125,-0.5047149658203125,-0.6529998779296875
261709,0.6472625732421875,-0.508331298828125,-0.67822265625
261710,0.5845489501953125,-0.5003814697265625,-0.681365966796875
261711,0.5404510498046875,-0.4883880615234375,-0.6560821533203125
261712,0.5130157470703125,-0.4772796630859375,-0.6294708251953125
261713,0.49822998046875,-0.4668731689453125,-0.6236724853515625
261714,0.4893798828125,-0.4501495361328125,-0.6586151123046875
261715,0.4881439208984375,-0.436737060546875,-0.715545654296875
261716,0.491546630859375,-0.4251556396484375,-0.74884033203125
261717,0.48822021484375,-0.4183197021484375,-0.75921630859375
261718,0.4915313720703125,-0.4091796875,-0.76983642578125
261719,0.503814697265625,-0.3879547119140625,-0.7719573974609375
261720,0.5134429931640625,-0.36572265625,-0.76824951171875
261721,0.515045166015625,-0.342010498046875,-0.7621002197265625
261722,0.5041351318359375,-0.32989501953125,-0.7580413818359375
261723,0.484039306640625,-0.3279571533203125,-0.7565765380859375
261724,0.453033447265625,-0.3244171142578125,-0.75830078125
261725,0.4237060546875,-0.3259735107421875,-0.76220703125
261726,0.411529541015625,-0.297149658203125,-0.7650604248046875
261727,0.431884765625,-0.3098907470703125,-0.8150482177734375
261728,0.4564666748046875,-0.3658599853515625,-0.8140411376953125
261729,0.5033721923828125,-0.3371124267578125,-0.7937774658203125
261730,0.545501708984375,-0.3102874755859375,-0.8141937255859375
261731,0.56915283203125,-0.2882537841796875,-0.8137054443359375
261732,0.57135009765625,-0.275970458984375,-0.8148040771484375
261733,0.5559539794921875,-0.264404296875,-0.828857421875
261734,0.5259246826171875,-0.2550506591796875,-0.8433685302734375
261735,0.4886932373046875,-0.2486114501953125,-0.86383056640625
261736,0.450958251953125,-0.2447357177734375,-0.8919677734375
261737,0.407623291015625,-0.2500457763671875,-0.9231414794921876
261738,0.36505126953125,-0.26202392578125,-0.9524078369140624
261739,0.3281707763671875,-0.273773193359375,-0.969482421875
261740,0.3042449951171875,-0.278228759765625,-0.9761962890625
261741,0.2867279052734375,-0.2718505859375,-0.981109619140625
261742,0.267822265625,-0.2664642333984375,-0.9825439453125
261743,0.2424163818359375,-0.261749267578125,-0.9615631103515624
261744,0.210693359375,-0.2368011474609375,-0.9434356689453124
261745,0.1774749755859375,-0.2125091552734375,-0.938690185546875
261746,0.14764404296875,-0.1955718994140625,-0.939300537109375
261747,0.122344970703125,-0.1858062744140625,-0.929718017578125
261748,0.0977783203125,-0.1842803955078125,-0.90997314453125
261749,0.0808868408203125,-0.1872406005859375,-0.90185546875
261750,0.0745086669921875,-0.198638916015625,-0.88018798828125
261751,0.0795135498046875,-0.2210540771484375,-0.8575897216796875
261752,0.0958404541015625,-0.2283477783203125,-0.85943603515625
261753,0.1463775634765625,-0.2124481201171875,-0.8786773681640625
261754,0.2375030517578125,-0.1928253173828125,-0.9035186767578124
261755,0.34576416015625,-0.1772003173828125,-0.908935546875
261756,0.453582763671875,-0.17578125,-0.90582275390625
261757,0.5251922607421875,-0.1873626708984375,-0.893524169921875
261758,0.5822906494140625,-0.207916259765625,-0.8709716796875
261759,0.6195220947265625,-0.227630615234375,-0.8322601318359375
261760,0.628662109375,-0.2496337890625,-0.792449951171875
261761,0.6071624755859375,-0.2809295654296875,-0.7532501220703125
261762,0.572479248046875,-0.3217010498046875,-0.7383270263671875
261763,0.5296478271484375,-0.3652801513671875,-0.741668701171875
261764,0.4895782470703125,-0.4056854248046875,-0.752685546875
261765,0.4723968505859375,-0.44244384765625,-0.7787017822265625
261766,0.4752197265625,-0.4618682861328125,-0.805877685546875
261767,0.494293212890625,-0.4719390869140625,-0.8428955078125
261768,0.525177001953125,-0.47613525390625,-0.8763427734375
261769,0.5508880615234375,-0.490142822265625,-0.8744659423828125
261770,0.5713043212890625,-0.5080413818359375,-0.8552703857421875
261771,0.5729522705078125,-0.524993896484375,-0.827911376953125
261772,0.559326171875,-0.5376129150390625,-0.809722900390625
261773,0.5364227294921875,-0.53045654296875,-0.79473876953125
261774,0.5221710205078125,-0.5122833251953125,-0.791168212890625
261775,0.5142974853515625,-0.48681640625,-0.79656982421875
261776,0.5037689208984375,-0.46624755859375,-0.81219482421875
261777,0.49688720703125,-0.45648193359375,-0.8241424560546875
261778,0.50018310546875,-0.4571685791015625,-0.8231353759765625
261779,0.5090179443359375,-0.4662933349609375,-0.8119659423828125
261780,0.5143585205078125,-0.4709320068359375,-0.7949371337890625
261781,0.507232666015625,-0.45465087890625,-0.7772979736328125
261782,0.47930908203125,-0.4240570068359375,-0.7648162841796875
261783,0.434539794921875,-0.3935546875,-0.7427825927734375
261784,0.401153564453125,-0.3653106689453125,-0.7136077880859375
261785,0.3785247802734375,-0.3416595458984375,-0.6968231201171875
261786,0.3961181640625,-0.3208160400390625,-0.6890716552734375
261787,0.4419708251953125,-0.3133392333984375,-0.6746978759765625
261788,0.4688720703125,-0.3315582275390625,-0.6618194580078125
261789,0.4916839599609375,-0.3471221923828125,-0.6571502685546875
261790,0.5243377685546875,-0.346954345703125,-0.6628875732421875
261791,0.5525970458984375,-0.33453369140625,-0.676788330078125
261792,0.5704498291015625,-0.323486328125,-0.6993865966796875
261793,0.581390380859375,-0.3325042724609375,-0.7218475341796875
261794,0.58966064453125,-0.35797119140625,-0.742095947265625
261795,0.6086273193359375,-0.3845367431640625,-0.7537689208984375
261796,0.6269073486328125,-0.4120941162109375,-0.7529144287109375
261797,0.6316070556640625,-0.4391937255859375,-0.7606658935546875
261798,0.620941162109375,-0.467742919921875,-0.771575927734375
261799,0.58441162109375,-0.4796600341796875,-0.7842559814453125
261800,0.5276947021484375,-0.468902587890625,-0.8325653076171875
261801,0.47027587890625,-0.4463348388671875,-0.9028472900390624
261802,0.4400634765625,-0.4336090087890625,-0.9631195068359376
261803,0.4300079345703125,-0.428924560546875,-0.987091064453125
261804,0.43804931640625,-0.423095703125,-0.9735870361328124
261805,0.4379730224609375,-0.40374755859375,-0.9537506103515624
261806,0.4412841796875,-0.367340087890625,-0.9465484619140624
261807,0.40576171875,-0.32501220703125,-0.938690185546875
261808,0.375274658203125,-0.27734375,-0.9516143798828124
261809,0.32208251953125,-0.2226409912109375,-0.9703521728515624
261810,0.2574920654296875,-0.1795654296875,-1.00689697265625
261811,0.196258544921875,-0.144195556640625,-1.044036865234375
261812,0.1213226318359375,-0.1258544921875,-1.063751220703125
261813,0.0459442138671875,-0.122650146484375,-1.068344116210938
261814,-0.0065155029296875,-0.125518798828125,-1.059738159179688
261815,-0.0280609130859375,-0.122283935546875,-1.03424072265625
261816,-0.019622802734375,-0.1134033203125,-0.989410400390625
261817,-0.0355072021484375,-0.1300506591796875,-0.932861328125
261818,-0.0617523193359375,-0.1345977783203125,-0.92803955078125
261819,-0.0600738525390625,-0.1363067626953125,-0.9438934326171876
261820,-0.0087432861328125,-0.1525421142578125,-0.965972900390625
261821,0.0633697509765625,-0.188873291015625,-0.97662353515625
261822,0.1376953125,-0.244354248046875,-0.9904937744140624
261823,0.2081298828125,-0.3060302734375,-1.008941650390625
261824,0.2699127197265625,-0.3782806396484375,-1.009506225585938
261825,0.3235931396484375,-0.4494476318359375,-0.9973297119140624
261826,0.363189697265625,-0.4904937744140625,-0.9950408935546876
261827,0.3750762939453125,-0.5128173828125,-0.9925994873046876
261828,0.3590087890625,-0.520599365234375,-0.9788360595703124
261829,0.3198699951171875,-0.533935546875,-0.9522857666015624
261830,0.268463134765625,-0.541717529296875,-0.916748046875
261831,0.234619140625,-0.5198822021484375,-0.9066009521484376
261832,0.2302093505859375,-0.4622344970703125,-0.926910400390625
261833,0.234588623046875,-0.419921875,-0.94903564453125
261834,0.2445526123046875,-0.4060821533203125,-0.925140380859375
261835,0.2720947265625,-0.4075775146484375,-0.8886566162109375
261836,0.3321533203125,-0.410186767578125,-0.9072723388671876
261837,0.4067840576171875,-0.424652099609375,-0.928741455078125
261838,0.4825897216796875,-0.4554290771484375,-0.9306488037109376
261839,0.5717315673828125,-0.4875335693359375,-0.9157867431640624
261840,0.6746368408203125,-0.51300048828125,-0.8704071044921875
261841,0.7793121337890625,-0.5106048583984375,-0.806121826171875
261842,0.874725341796875,-0.48419189453125,-0.74737548828125
261843,0.9349212646484376,-0.4298248291015625,-0.693603515625
261844,0.938568115234375,-0.3770599365234375,-0.63958740234375
261845,0.8931121826171875,-0.3565826416015625,-0.5976104736328125
261846,0.8173828125,-0.3942108154296875,-0.570343017578125
261847,0.73876953125,-0.448760986328125,-0.574615478515625
261848,0.684417724609375,-0.4893341064453125,-0.5999603271484375
261849,0.6486053466796875,-0.51165771484375,-0.62896728515625
261850,0.6125946044921875,-0.51348876953125,-0.6444854736328125
261851,0.5811614990234375,-0.4923858642578125,-0.6529083251953125
261852,0.558441162109375,-0.4651947021484375,-0.6601104736328125
261853,0.5493316650390625,-0.447479248046875,-0.6572265625
261854,0.5417022705078125,-0.4352264404296875,-0.6510467529296875
261855,0.5273284912109375,-0.4313812255859375,-0.649078369140625
261856,0.517333984375,-0.4266510009765625,-0.6483154296875
261857,0.512939453125,-0.416351318359375,-0.650665283203125
261858,0.503662109375,-0.412322998046875,-0.6577606201171875
261859,0.487091064453125,-0.4034423828125,-0.6641998291015625
261860,0.4693450927734375,-0.399078369140625,-0.6751708984375
261861,0.4489898681640625,-0.405517578125,-0.7016754150390625
261862,0.4467620849609375,-0.42108154296875,-0.7457427978515625
261863,0.462493896484375,-0.4241790771484375,-0.7790069580078125
261864,0.4936065673828125,-0.4052581787109375,-0.810089111328125
261865,0.5338287353515625,-0.38385009765625,-0.8379364013671875
261866,0.563995361328125,-0.3563995361328125,-0.860931396484375
261867,0.5696258544921875,-0.328369140625,-0.848388671875
261868,0.55694580078125,-0.3073272705078125,-0.81329345703125
261869,0.5349273681640625,-0.27294921875,-0.7975921630859375
261870,0.496978759765625,-0.2304534912109375,-0.8005218505859375
261871,0.45404052734375,-0.1927947998046875,-0.815399169921875
261872,0.41729736328125,-0.16619873046875,-0.833404541015625
261873,0.3980865478515625,-0.1506805419921875,-0.8453216552734375
261874,0.3801422119140625,-0.1380767822265625,-0.8537750244140625
261875,0.3533935546875,-0.1293487548828125,-0.860107421875
261876,0.32861328125,-0.1240386962890625,-0.8676605224609375
261877,0.3070526123046875,-0.114501953125,-0.87835693359375
261878,0.2769317626953125,-0.1093902587890625,-0.894561767578125
261879,0.2423858642578125,-0.1086578369140625,-0.921051025390625
261880,0.2063751220703125,-0.10772705078125,-0.946319580078125
261881,0.1729888916015625,-0.1108551025390625,-0.959930419921875
261882,0.143310546875,-0.106231689453125,-0.939117431640625
261883,0.1102142333984375,-0.0778656005859375,-0.9345245361328124
261884,0.0788421630859375,-0.0576629638671875,-0.983734130859375
261885,0.0587615966796875,-0.037200927734375,-1.022537231445312
261886,0.0389404296875,-0.0153656005859375,-1.031417846679688
261887,0.0315093994140625,-0.0220489501953125,-1.03411865234375
261888,0.033355712890625,-0.04449462890625,-1.032913208007812
261889,0.054290771484375,-0.068359375,-1.034439086914062
261890,0.1042633056640625,-0.091094970703125,-1.031784057617188
261891,0.167755126953125,-0.1134490966796875,-1.00433349609375
261892,0.250640869140625,-0.1383056640625,-0.997283935546875
261893,0.336334228515625,-0.1865234375,-1.001312255859375
261894,0.4199981689453125,-0.2357177734375,-0.9588775634765624
261895,0.5172576904296875,-0.264007568359375,-0.95452880859375
261896,0.5789947509765625,-0.2844696044921875,-0.9493255615234376
261897,0.6202239990234375,-0.2863311767578125,-0.918792724609375
261898,0.643707275390625,-0.270904541015625,-0.8997955322265625
261899,0.6475982666015625,-0.26202392578125,-0.8929290771484375
261900,0.6341705322265625,-0.260955810546875,-0.8896484375
