time_idx,accelerometerAccelerationX(G),accelerometerAccelerationY(G),accelerometerAccelerationZ(G)
20000,-0.1733856201171875,0.9118194580078124,0.1991424560546875
20001,-0.1751861572265625,0.910736083984375,0.2021636962890625
20002,-0.176422119140625,0.90911865234375,0.207305908203125
20003,-0.176361083984375,0.91424560546875,0.214263916015625
20004,-0.1742401123046875,0.924102783203125,0.22161865234375
20005,-0.1709136962890625,0.9323272705078124,0.2301177978515625
20006,-0.1692352294921875,0.9384918212890624,0.24139404296875
20007,-0.16748046875,0.9432373046875,0.2494354248046875
20008,-0.16827392578125,0.947509765625,0.253631591796875
20009,-0.164337158203125,0.957122802734375,0.2607574462890625
20010,-0.1615447998046875,0.9707183837890624,0.2632904052734375
20011,-0.160552978515625,0.983734130859375,0.26654052734375
20012,-0.159912109375,0.9895782470703124,0.2646484375
20013,-0.160980224609375,0.992095947265625,0.261993408203125
20014,-0.165985107421875,0.991119384765625,0.2465667724609375
20015,-0.166351318359375,0.98394775390625,0.240325927734375
20016,-0.1649627685546875,0.98004150390625,0.2377777099609375
20017,-0.1642608642578125,0.976806640625,0.22314453125
20018,-0.1643829345703125,0.9692840576171876,0.21990966796875
20019,-0.16754150390625,0.9591827392578124,0.2166595458984375
20020,-0.16607666015625,0.95245361328125,0.217742919921875
20021,-0.167083740234375,0.946990966796875,0.21502685546875
20022,-0.16265869140625,0.94268798828125,0.2123260498046875
20023,-0.151275634765625,0.9521484375,0.204498291015625
20024,-0.1323394775390625,0.9490966796875,0.192840576171875
20025,-0.1129913330078125,0.9436492919921876,0.1898651123046875
20026,-0.10076904296875,0.9285736083984376,0.196136474609375
20027,-0.097381591796875,0.920989990234375,0.2029266357421875
20028,-0.0919189453125,0.9246368408203124,0.2002716064453125
20029,-0.0892333984375,0.93121337890625,0.20648193359375
20030,-0.0960693359375,0.9404144287109376,0.2279815673828125
20031,-0.1055145263671875,0.9425201416015624,0.253204345703125
20032,-0.1199493408203125,0.9385223388671876,0.2708587646484375
20033,-0.1343231201171875,0.935394287109375,0.281890869140625
20034,-0.146484375,0.9376068115234376,0.283935546875
20035,-0.1548614501953125,0.94110107421875,0.283538818359375
20036,-0.1584014892578125,0.950714111328125,0.2810211181640625
20037,-0.15863037109375,0.9597320556640624,0.2819061279296875
20038,-0.161376953125,0.96514892578125,0.284759521484375
20039,-0.1622314453125,0.96539306640625,0.2847900390625
20040,-0.16131591796875,0.9666595458984376,0.2828369140625
20041,-0.158416748046875,0.967742919921875,0.280670166015625
20042,-0.148712158203125,0.962066650390625,0.2725982666015625
20043,-0.1405029296875,0.956024169921875,0.264801025390625
20044,-0.13226318359375,0.9552154541015624,0.25604248046875
20045,-0.1179046630859375,0.94964599609375,0.24566650390625
20046,-0.1043243408203125,0.9437103271484376,0.2318878173828125
20047,-0.0899200439453125,0.93780517578125,0.2229766845703125
20048,-0.073760986328125,0.9329071044921876,0.2095794677734375
20049,-0.07061767578125,0.9364776611328124,0.205230712890625
20050,-0.0722198486328125,0.93756103515625,0.2079620361328125
20051,-0.0728759765625,0.9340972900390624,0.2136383056640625
20052,-0.0755157470703125,0.936431884765625,0.2188262939453125
20053,-0.079620361328125,0.9477691650390624,0.221832275390625
20054,-0.0865478515625,0.9578704833984376,0.2333526611328125
20055,-0.0972900390625,0.9681854248046876,0.2476806640625
20056,-0.1123046875,0.9754638671875,0.2669525146484375
20057,-0.12335205078125,0.974609375,0.2841644287109375
20058,-0.129425048828125,0.9711151123046876,0.2902069091796875
20059,-0.1336822509765625,0.9736785888671876,0.291656494140625
20060,-0.1380157470703125,0.9762115478515624,0.2929840087890625
20061,-0.140594482421875,0.975372314453125,0.2977752685546875
20062,-0.1397247314453125,0.96832275390625,0.3008880615234375
20063,-0.135986328125,0.958953857421875,0.2975311279296875
20064,-0.1315765380859375,0.9527587890625,0.289093017578125
20065,-0.125244140625,0.9481048583984376,0.2758331298828125
20066,-0.1176910400390625,0.942474365234375,0.26605224609375
20067,-0.10906982421875,0.9400177001953124,0.2554779052734375
20068,-0.10235595703125,0.9383697509765624,0.244384765625
20069,-0.09710693359375,0.9435577392578124,0.2370758056640625
20070,-0.0942840576171875,0.9508209228515624,0.2328033447265625
20071,-0.0950775146484375,0.952392578125,0.2386474609375
20072,-0.09979248046875,0.951995849609375,0.246551513671875
20073,-0.1059112548828125,0.9518585205078124,0.2501068115234375
20074,-0.1112060546875,0.953826904296875,0.2499542236328125
20075,-0.1139678955078125,0.9566192626953124,0.251220703125
20076,-0.1162872314453125,0.962799072265625,0.254730224609375
20077,-0.12030029296875,0.968231201171875,0.260986328125
20078,-0.126434326171875,0.9772796630859376,0.263397216796875
20079,-0.133636474609375,0.9822998046875,0.26739501953125
20080,-0.1377410888671875,0.9821624755859376,0.2675323486328125
20081,-0.1389312744140625,0.978363037109375,0.2691497802734375
20082,-0.140472412109375,0.9682769775390624,0.27154541015625
20083,-0.14068603515625,0.954254150390625,0.274749755859375
20084,-0.13970947265625,0.94110107421875,0.278076171875
20085,-0.1397705078125,0.9339752197265624,0.28118896484375
20086,-0.137603759765625,0.9340972900390624,0.2823944091796875
20087,-0.13348388671875,0.9367523193359376,0.2750701904296875
20088,-0.1287384033203125,0.942047119140625,0.2631683349609375
20089,-0.1268157958984375,0.9456329345703124,0.2544097900390625
20090,-0.125823974609375,0.95086669921875,0.24749755859375
20091,-0.127349853515625,0.955657958984375,0.248077392578125
20092,-0.130706787109375,0.96343994140625,0.2471771240234375
20093,-0.1316986083984375,0.9719085693359376,0.2429046630859375
20094,-0.1291961669921875,0.9754638671875,0.235260009765625
20095,-0.12713623046875,0.9749298095703124,0.229949951171875
20096,-0.1268768310546875,0.9737091064453124,0.2294921875
20097,-0.12689208984375,0.972076416015625,0.2313690185546875
20098,-0.1272125244140625,0.9698638916015624,0.2283935546875
20099,-0.1270294189453125,0.9684906005859376,0.2285919189453125
20100,-0.1285247802734375,0.96722412109375,0.231536865234375
20101,-0.12786865234375,0.96429443359375,0.235198974609375
20102,-0.1287841796875,0.96246337890625,0.2378387451171875
20103,-0.1290740966796875,0.9611663818359376,0.2393035888671875
20104,-0.1290283203125,0.962677001953125,0.23919677734375
20105,-0.130126953125,0.962799072265625,0.239715576171875
20106,-0.12969970703125,0.9606170654296876,0.2397918701171875
20107,-0.1300201416015625,0.9565277099609376,0.2387847900390625
20108,-0.1302947998046875,0.9533843994140624,0.2388916015625
20109,-0.1302032470703125,0.950286865234375,0.238800048828125
20110,-0.1305084228515625,0.949737548828125,0.23876953125
20111,-0.1298675537109375,0.9488067626953124,0.2379913330078125
20112,-0.1288909912109375,0.9477996826171876,0.2383270263671875
20113,-0.13031005859375,0.9491424560546876,0.2342681884765625
20114,-0.131439208984375,0.9525604248046876,0.2340240478515625
20115,-0.1319732666015625,0.9542388916015624,0.23138427734375
20116,-0.1322021484375,0.95513916015625,0.2260284423828125
20117,-0.1322174072265625,0.9550018310546876,0.2229156494140625
20118,-0.132415771484375,0.9552001953125,0.223785400390625
20119,-0.1343231201171875,0.957275390625,0.2252655029296875
20120,-0.1336822509765625,0.9569244384765624,0.222442626953125
20121,-0.13201904296875,0.9564208984375,0.224639892578125
20122,-0.1309356689453125,0.9553070068359376,0.2252349853515625
20123,-0.13177490234375,0.953643798828125,0.22613525390625
20124,-0.1329498291015625,0.954132080078125,0.226593017578125
20125,-0.1339111328125,0.9555816650390624,0.2278594970703125
20126,-0.1333465576171875,0.955535888671875,0.2276611328125
20127,-0.13299560546875,0.9554290771484376,0.227569580078125
20128,-0.1337127685546875,0.9557037353515624,0.227325439453125
20129,-0.1315765380859375,0.9582672119140624,0.23004150390625
20130,-0.12939453125,0.965606689453125,0.2336578369140625
20131,-0.12896728515625,0.9712371826171876,0.2380218505859375
20132,-0.1304931640625,0.96783447265625,0.2411651611328125
20133,-0.13128662109375,0.9638519287109376,0.239471435546875
20134,-0.1302032470703125,0.9601593017578124,0.239898681640625
20135,-0.1286163330078125,0.95989990234375,0.241668701171875
20136,-0.129791259765625,0.9615478515625,0.242645263671875
20137,-0.1296539306640625,0.9655914306640624,0.2405242919921875
20138,-0.1278076171875,0.967803955078125,0.235626220703125
20139,-0.123016357421875,0.96649169921875,0.2282867431640625
20140,-0.1190338134765625,0.9678955078125,0.2249298095703125
20141,-0.118896484375,0.9687042236328124,0.228759765625
20142,-0.120849609375,0.9680633544921876,0.2322845458984375
20143,-0.12274169921875,0.9627532958984376,0.2352447509765625
20144,-0.1248016357421875,0.9558563232421876,0.23748779296875
20145,-0.126312255859375,0.95367431640625,0.237274169921875
20146,-0.1280059814453125,0.9544219970703124,0.235931396484375
20147,-0.1280364990234375,0.9565277099609376,0.23394775390625
20148,-0.1280517578125,0.9575958251953124,0.234039306640625
20149,-0.127166748046875,0.9608917236328124,0.23486328125
20150,-0.1253509521484375,0.962066650390625,0.232086181640625
20151,-0.1240692138671875,0.96282958984375,0.229766845703125
20152,-0.1228485107421875,0.9657745361328124,0.2264251708984375
20153,-0.1246185302734375,0.969085693359375,0.2259368896484375
20154,-0.1254730224609375,0.966400146484375,0.23260498046875
20155,-0.1263427734375,0.9636688232421876,0.2378692626953125
20156,-0.126861572265625,0.9632110595703124,0.2360992431640625
20157,-0.12652587890625,0.9639129638671876,0.2309722900390625
20158,-0.1255645751953125,0.965484619140625,0.23046875
20159,-0.125579833984375,0.9644775390625,0.23114013671875
20160,-0.125732421875,0.95953369140625,0.23052978515625
20161,-0.1239471435546875,0.9590301513671876,0.2277679443359375
20162,-0.121185302734375,0.960418701171875,0.223388671875
20163,-0.120147705078125,0.96368408203125,0.2234344482421875
20164,-0.12091064453125,0.9645538330078124,0.2270050048828125
20165,-0.1235198974609375,0.961700439453125,0.2329254150390625
20166,-0.12603759765625,0.9577789306640624,0.2367401123046875
20167,-0.1265411376953125,0.9546356201171876,0.2354736328125
20168,-0.1263885498046875,0.9546966552734376,0.2333526611328125
20169,-0.1245269775390625,0.95574951171875,0.231353759765625
20170,-0.1243438720703125,0.9563751220703124,0.2314453125
20171,-0.1254730224609375,0.9593658447265624,0.2308349609375
20172,-0.126678466796875,0.9634857177734376,0.231719970703125
20173,-0.129150390625,0.9678192138671876,0.236236572265625
20174,-0.128448486328125,0.9681396484375,0.2390594482421875
20175,-0.126373291015625,0.9640655517578124,0.23699951171875
20176,-0.122650146484375,0.9632110595703124,0.235137939453125
20177,-0.1215362548828125,0.963104248046875,0.235992431640625
20178,-0.120391845703125,0.9620819091796876,0.2370452880859375
20179,-0.119049072265625,0.959442138671875,0.234375
20180,-0.1186676025390625,0.9567413330078124,0.2276763916015625
20181,-0.1177215576171875,0.9556427001953124,0.221221923828125
20182,-0.1195526123046875,0.9561614990234376,0.220672607421875
20183,-0.1190032958984375,0.954498291015625,0.2235565185546875
20184,-0.1202239990234375,0.957427978515625,0.2277984619140625
20185,-0.1195526123046875,0.962493896484375,0.2351226806640625
20186,-0.1172637939453125,0.9706878662109376,0.2411041259765625
20187,-0.11395263671875,0.9747161865234376,0.247100830078125
20188,-0.1121978759765625,0.9710693359375,0.251556396484375
20189,-0.1110687255859375,0.968414306640625,0.2503814697265625
20190,-0.111053466796875,0.96466064453125,0.24957275390625
20191,-0.1129302978515625,0.9607086181640624,0.2464752197265625
20192,-0.11602783203125,0.959075927734375,0.242218017578125
20193,-0.1166534423828125,0.9569549560546876,0.2429351806640625
20194,-0.1174468994140625,0.95574951171875,0.242462158203125
20195,-0.11920166015625,0.9563751220703124,0.2405853271484375
20196,-0.121917724609375,0.956878662109375,0.2369232177734375
20197,-0.1236419677734375,0.956634521484375,0.2349090576171875
20198,-0.122955322265625,0.955230712890625,0.229034423828125
20199,-0.1218109130859375,0.9532470703125,0.2262420654296875
20200,-0.1194305419921875,0.9517822265625,0.2278900146484375
20201,-0.1195220947265625,0.95263671875,0.2309417724609375
20202,-0.1179351806640625,0.951019287109375,0.2359466552734375
20203,-0.1158599853515625,0.95684814453125,0.2368316650390625
20204,-0.115692138671875,0.96240234375,0.2366943359375
20205,-0.1157379150390625,0.968109130859375,0.2361602783203125
20206,-0.1180877685546875,0.97314453125,0.23681640625
20207,-0.1163177490234375,0.973175048828125,0.2385101318359375
20208,-0.1156158447265625,0.9702301025390624,0.240386962890625
20209,-0.117431640625,0.9677581787109376,0.2436370849609375
20210,-0.1197662353515625,0.96539306640625,0.246826171875
20211,-0.1216583251953125,0.9607086181640624,0.2418975830078125
20212,-0.1214599609375,0.9557342529296876,0.2394561767578125
20213,-0.121185302734375,0.9528656005859376,0.2358856201171875
20214,-0.1199951171875,0.9517669677734376,0.2340850830078125
20215,-0.119537353515625,0.951141357421875,0.2361297607421875
20216,-0.11688232421875,0.9533843994140624,0.2384490966796875
20217,-0.115447998046875,0.9543304443359376,0.2409820556640625
20218,-0.113616943359375,0.9547576904296876,0.240814208984375
20219,-0.1128387451171875,0.9573516845703124,0.239288330078125
20220,-0.11199951171875,0.95684814453125,0.2355194091796875
20221,-0.11138916015625,0.95269775390625,0.2338714599609375
20222,-0.1103668212890625,0.9492950439453124,0.234375
20223,-0.109344482421875,0.9482421875,0.2347412109375
20224,-0.1085968017578125,0.95050048828125,0.236236572265625
20225,-0.1105194091796875,0.954620361328125,0.23590087890625
20226,-0.110626220703125,0.95703125,0.2363128662109375
20227,-0.1109466552734375,0.95867919921875,0.2373504638671875
20228,-0.111083984375,0.958831787109375,0.23785400390625
20229,-0.1118621826171875,0.958770751953125,0.239654541015625
20230,-0.1139373779296875,0.9593505859375,0.240875244140625
20231,-0.114715576171875,0.960968017578125,0.240966796875
20232,-0.116546630859375,0.960205078125,0.2413177490234375
20233,-0.1193084716796875,0.959686279296875,0.240570068359375
20234,-0.1212615966796875,0.957489013671875,0.23876953125
20235,-0.1226348876953125,0.958709716796875,0.2368316650390625
20236,-0.12188720703125,0.957763671875,0.2342529296875
20237,-0.120635986328125,0.9580535888671876,0.231536865234375
20238,-0.1197052001953125,0.959625244140625,0.230316162109375
20239,-0.1182403564453125,0.9594573974609376,0.22979736328125
20240,-0.119140625,0.962158203125,0.2328033447265625
20241,-0.119720458984375,0.9658355712890624,0.2372589111328125
20242,-0.1205902099609375,0.9679412841796876,0.2436981201171875
20243,-0.1205596923828125,0.97003173828125,0.2486419677734375
20244,-0.1201324462890625,0.973358154296875,0.2491302490234375
20245,-0.1221466064453125,0.9759063720703124,0.247100830078125
20246,-0.123931884765625,0.9746551513671876,0.24462890625
20247,-0.1242523193359375,0.972015380859375,0.240234375
20248,-0.126312255859375,0.9701385498046876,0.23541259765625
20249,-0.1276397705078125,0.9666900634765624,0.2331695556640625
20250,-0.1278076171875,0.9652862548828124,0.23370361328125
20251,-0.1284027099609375,0.965087890625,0.2355499267578125
20252,-0.128570556640625,0.9649200439453124,0.2368927001953125
20253,-0.128631591796875,0.9658966064453124,0.23846435546875
20254,-0.1291961669921875,0.966522216796875,0.2382049560546875
20255,-0.1287384033203125,0.967071533203125,0.2371673583984375
20256,-0.128143310546875,0.967926025390625,0.2356109619140625
20257,-0.12646484375,0.9670257568359376,0.2338714599609375
20258,-0.1254119873046875,0.968597412109375,0.2324676513671875
20259,-0.1247711181640625,0.9685516357421876,0.2328033447265625
20260,-0.124786376953125,0.968963623046875,0.23345947265625
20261,-0.1240234375,0.967864990234375,0.2333221435546875
20262,-0.1224212646484375,0.9669189453125,0.23211669921875
20263,-0.120269775390625,0.967132568359375,0.230194091796875
20264,-0.1182098388671875,0.9661407470703124,0.228057861328125
20265,-0.1168365478515625,0.9663848876953124,0.2250518798828125
20266,-0.113983154296875,0.9664306640625,0.2237548828125
20267,-0.1123504638671875,0.96636962890625,0.2219696044921875
20268,-0.1110382080078125,0.966064453125,0.2183990478515625
20269,-0.10791015625,0.9643402099609376,0.216064453125
20270,-0.1052093505859375,0.962249755859375,0.2127838134765625
20271,-0.1033935546875,0.959686279296875,0.2104034423828125
20272,-0.1027679443359375,0.957977294921875,0.2085418701171875
20273,-0.1029205322265625,0.9584197998046876,0.2076873779296875
20274,-0.104095458984375,0.9613800048828124,0.2097625732421875
20275,-0.1069793701171875,0.96380615234375,0.21051025390625
20276,-0.1082916259765625,0.9665985107421876,0.2100372314453125
20277,-0.110198974609375,0.968780517578125,0.2105560302734375
20278,-0.1104888916015625,0.9675445556640624,0.2138214111328125
20279,-0.11181640625,0.9655914306640624,0.2160491943359375
20280,-0.11175537109375,0.9658050537109376,0.2169952392578125
20281,-0.112518310546875,0.9651641845703124,0.2216339111328125
20282,-0.1153564453125,0.96502685546875,0.2247161865234375
20283,-0.1142120361328125,0.9630126953125,0.225189208984375
20284,-0.11328125,0.96002197265625,0.2254180908203125
20285,-0.1112213134765625,0.958892822265625,0.225738525390625
20286,-0.109893798828125,0.960205078125,0.22601318359375
20287,-0.1093292236328125,0.9612579345703124,0.2267608642578125
20288,-0.1099700927734375,0.962432861328125,0.2269134521484375
20289,-0.109649658203125,0.9634246826171876,0.2259368896484375
20290,-0.1080474853515625,0.9611663818359376,0.2238006591796875
20291,-0.107025146484375,0.959991455078125,0.224365234375
20292,-0.1061859130859375,0.9605865478515624,0.217315673828125
20293,-0.10498046875,0.9623260498046876,0.2146453857421875
20294,-0.10211181640625,0.9640350341796876,0.2131805419921875
20295,-0.1013031005859375,0.9656524658203124,0.211334228515625
20296,-0.0986175537109375,0.96722412109375,0.2133941650390625
20297,-0.0977783203125,0.96551513671875,0.2134246826171875
20298,-0.0988922119140625,0.963592529296875,0.2137451171875
20299,-0.1003875732421875,0.963470458984375,0.2147216796875
20300,-0.101104736328125,0.96478271484375,0.2158355712890625
20301,-0.1014251708984375,0.9648895263671876,0.215423583984375
20302,-0.0998687744140625,0.965118408203125,0.2142181396484375
20303,-0.09869384765625,0.966339111328125,0.2137603759765625
20304,-0.0982818603515625,0.9688568115234376,0.2149505615234375
20305,-0.09857177734375,0.9698486328125,0.21600341796875
20306,-0.10003662109375,0.970306396484375,0.2156219482421875
20307,-0.101348876953125,0.9690093994140624,0.21868896484375
20308,-0.1033477783203125,0.9669647216796876,0.2222137451171875
20309,-0.105133056640625,0.96661376953125,0.223480224609375
20310,-0.10540771484375,0.968017578125,0.2256011962890625
20311,-0.10467529296875,0.9713897705078124,0.226226806640625
20312,-0.1043853759765625,0.973388671875,0.225860595703125
20313,-0.10418701171875,0.9741363525390624,0.2238311767578125
20314,-0.10467529296875,0.973480224609375,0.221893310546875
20315,-0.1059722900390625,0.972625732421875,0.2185821533203125
20316,-0.1055755615234375,0.9714202880859376,0.2159271240234375
20317,-0.1045989990234375,0.9708709716796876,0.2149200439453125
20318,-0.1049041748046875,0.9694671630859376,0.2131805419921875
20319,-0.1045379638671875,0.9681243896484376,0.2117156982421875
20320,-0.1045989990234375,0.966766357421875,0.2104644775390625
20321,-0.106658935546875,0.963897705078125,0.210357666015625
20322,-0.1065826416015625,0.9622650146484376,0.20977783203125
20323,-0.1070556640625,0.9630279541015624,0.211669921875
20324,-0.1066131591796875,0.9651336669921876,0.21246337890625
20325,-0.105560302734375,0.96820068359375,0.2113189697265625
20326,-0.1051177978515625,0.9703826904296876,0.2118072509765625
20327,-0.1062774658203125,0.9720001220703124,0.214324951171875
20328,-0.1094818115234375,0.972564697265625,0.215057373046875
20329,-0.111572265625,0.9716949462890624,0.215087890625
20330,-0.113189697265625,0.9698944091796876,0.2157745361328125
20331,-0.11395263671875,0.9684600830078124,0.2145538330078125
20332,-0.1125335693359375,0.9676666259765624,0.214111328125
20333,-0.11181640625,0.9671478271484376,0.2152557373046875
20334,-0.1107940673828125,0.967071533203125,0.216400146484375
20335,-0.1110076904296875,0.96697998046875,0.2180023193359375
20336,-0.1124420166015625,0.967193603515625,0.216949462890625
20337,-0.113983154296875,0.967315673828125,0.21649169921875
20338,-0.1151580810546875,0.96771240234375,0.2147369384765625
20339,-0.116302490234375,0.9666595458984376,0.2140045166015625
20340,-0.114898681640625,0.9653472900390624,0.2126922607421875
20341,-0.113433837890625,0.965118408203125,0.21185302734375
20342,-0.11151123046875,0.964599609375,0.212860107421875
20343,-0.1118621826171875,0.966461181640625,0.2157745361328125
20344,-0.112518310546875,0.9673614501953124,0.2174072265625
20345,-0.11334228515625,0.9687652587890624,0.2165374755859375
20346,-0.1135406494140625,0.96923828125,0.21630859375
20347,-0.1130828857421875,0.9694061279296876,0.2160797119140625
20348,-0.1125640869140625,0.9699249267578124,0.2160491943359375
20349,-0.1118316650390625,0.970703125,0.2173919677734375
20350,-0.1119537353515625,0.969940185546875,0.2195587158203125
20351,-0.1136627197265625,0.9684906005859376,0.2220306396484375
20352,-0.11444091796875,0.96795654296875,0.2213287353515625
20353,-0.1148529052734375,0.965362548828125,0.2200164794921875
20354,-0.1127471923828125,0.9654998779296876,0.2190399169921875
20355,-0.1142578125,0.9641876220703124,0.2192535400390625
20356,-0.1164398193359375,0.9636688232421876,0.2192840576171875
20357,-0.118377685546875,0.962799072265625,0.21929931640625
20358,-0.120452880859375,0.9622650146484376,0.217529296875
20359,-0.1216888427734375,0.9619598388671876,0.2188568115234375
20360,-0.122894287109375,0.9617919921875,0.220947265625
20361,-0.1222991943359375,0.9628143310546876,0.2203826904296875
20362,-0.1225128173828125,0.965728759765625,0.219482421875
20363,-0.1240081787109375,0.967254638671875,0.2191009521484375
20364,-0.126953125,0.9682159423828124,0.219146728515625
20365,-0.1271820068359375,0.9675445556640624,0.219146728515625
20366,-0.1267852783203125,0.9659576416015624,0.21826171875
20367,-0.1272430419921875,0.9654998779296876,0.2180023193359375
20368,-0.126983642578125,0.964935302734375,0.2206268310546875
20369,-0.1273345947265625,0.96343994140625,0.2205657958984375
20370,-0.12890625,0.9639434814453124,0.2212677001953125
20371,-0.1296844482421875,0.9646759033203124,0.2215423583984375
20372,-0.1306610107421875,0.966094970703125,0.221282958984375
20373,-0.1309814453125,0.9656829833984376,0.220367431640625
20374,-0.1315155029296875,0.9654388427734376,0.22027587890625
20375,-0.13165283203125,0.9661712646484376,0.2189483642578125
20376,-0.1308441162109375,0.9670562744140624,0.2182464599609375
20377,-0.1306304931640625,0.9664306640625,0.2168731689453125
20378,-0.1302337646484375,0.9672088623046876,0.2173309326171875
20379,-0.1312255859375,0.9659576416015624,0.21722412109375
20380,-0.1325531005859375,0.9647369384765624,0.2180023193359375
20381,-0.1331024169921875,0.964630126953125,0.21697998046875
20382,-0.1328582763671875,0.9649505615234376,0.2158050537109375
20383,-0.1318511962890625,0.9648895263671876,0.2151641845703125
20384,-0.1310882568359375,0.9634246826171876,0.2147064208984375
20385,-0.13140869140625,0.962982177734375,0.2153778076171875
20386,-0.1338043212890625,0.9625396728515624,0.2170562744140625
20387,-0.1342926025390625,0.96246337890625,0.2173614501953125
20388,-0.134490966796875,0.962860107421875,0.216156005859375
20389,-0.1349945068359375,0.9625091552734376,0.216064453125
20390,-0.1349334716796875,0.962738037109375,0.2166595458984375
20391,-0.134521484375,0.962188720703125,0.214935302734375
20392,-0.1364288330078125,0.961944580078125,0.21575927734375
20393,-0.1350860595703125,0.9626007080078124,0.21600341796875
20394,-0.1351165771484375,0.9620208740234376,0.213348388671875
20395,-0.1354522705078125,0.961456298828125,0.2143707275390625
20396,-0.1347503662109375,0.9614410400390624,0.214630126953125
20397,-0.134796142578125,0.9620208740234376,0.2161865234375
20398,-0.1343994140625,0.9609832763671876,0.2171630859375
20399,-0.135101318359375,0.9621124267578124,0.2176513671875
20400,-0.1356964111328125,0.9619903564453124,0.2183837890625
20401,-0.135101318359375,0.9622802734375,0.218292236328125
20402,-0.1361236572265625,0.9637451171875,0.218536376953125
20403,-0.1351318359375,0.96331787109375,0.218505859375
20404,-0.1342010498046875,0.9624786376953124,0.2184906005859375
20405,-0.131988525390625,0.9625244140625,0.2178802490234375
20406,-0.1313323974609375,0.962127685546875,0.21722412109375
20407,-0.131072998046875,0.9619903564453124,0.2174072265625
20408,-0.12994384765625,0.9621124267578124,0.217041015625
20409,-0.128509521484375,0.962310791015625,0.2179718017578125
20410,-0.12860107421875,0.963623046875,0.21710205078125
20411,-0.1284027099609375,0.964508056640625,0.2176055908203125
20412,-0.1286163330078125,0.9649658203125,0.2194976806640625
20413,-0.127349853515625,0.96435546875,0.2216949462890625
20414,-0.1270751953125,0.965728759765625,0.222747802734375
20415,-0.127838134765625,0.966583251953125,0.2239990234375
20416,-0.1273956298828125,0.9656829833984376,0.2241058349609375
20417,-0.127044677734375,0.9658966064453124,0.2243499755859375
20418,-0.1266021728515625,0.9664459228515624,0.224517822265625
20419,-0.127197265625,0.9661102294921876,0.2243194580078125
20420,-0.1277313232421875,0.9659881591796876,0.223907470703125
20421,-0.127685546875,0.9640350341796876,0.225555419921875
20422,-0.1300506591796875,0.964080810546875,0.22515869140625
20423,-0.12774658203125,0.9640655517578124,0.227081298828125
20424,-0.126678466796875,0.9654693603515624,0.22735595703125
20425,-0.1271820068359375,0.9657745361328124,0.227752685546875
20426,-0.128143310546875,0.965423583984375,0.228240966796875
20427,-0.1295928955078125,0.9657440185546876,0.2275238037109375
20428,-0.1308135986328125,0.9651641845703124,0.2276153564453125
20429,-0.131256103515625,0.9633026123046876,0.22833251953125
20430,-0.130767822265625,0.9629058837890624,0.2281341552734375
20431,-0.1309356689453125,0.96343994140625,0.2277679443359375
20432,-0.1297607421875,0.9640045166015624,0.2269744873046875
20433,-0.13079833984375,0.96282958984375,0.22650146484375
20434,-0.1317138671875,0.9646148681640624,0.22698974609375
20435,-0.132110595703125,0.9643402099609376,0.227203369140625
20436,-0.1318817138671875,0.963470458984375,0.225921630859375
20437,-0.1326751708984375,0.96221923828125,0.22442626953125
20438,-0.1332855224609375,0.962005615234375,0.2240753173828125
20439,-0.1318511962890625,0.9606781005859376,0.225860595703125
20440,-0.132049560546875,0.962310791015625,0.2255096435546875
20441,-0.1322021484375,0.9627838134765624,0.226165771484375
20442,-0.13323974609375,0.9624481201171876,0.2269744873046875
20443,-0.1330413818359375,0.9624481201171876,0.22821044921875
20444,-0.133148193359375,0.9632110595703124,0.2270660400390625
20445,-0.1345977783203125,0.963592529296875,0.2265777587890625
20446,-0.13348388671875,0.96136474609375,0.2234954833984375
20447,-0.1338348388671875,0.962005615234375,0.2227630615234375
20448,-0.1347198486328125,0.961883544921875,0.2213134765625
20449,-0.1347808837890625,0.961700439453125,0.2227783203125
20450,-0.1351776123046875,0.96099853515625,0.2198944091796875
20451,-0.1363372802734375,0.9612884521484376,0.2195281982421875
20452,-0.1361846923828125,0.9600067138671876,0.2190093994140625
20453,-0.135498046875,0.9596405029296876,0.2196044921875
20454,-0.1359100341796875,0.9579620361328124,0.220703125
20455,-0.1379241943359375,0.9575958251953124,0.2227783203125
20456,-0.139190673828125,0.95806884765625,0.2234954833984375
20457,-0.1398468017578125,0.9588165283203124,0.2214202880859375
20458,-0.1397552490234375,0.960235595703125,0.2219696044921875
20459,-0.1392822265625,0.9592132568359376,0.2243499755859375
20460,-0.13909912109375,0.959014892578125,0.223175048828125
20461,-0.138824462890625,0.9596710205078124,0.22271728515625
20462,-0.1374359130859375,0.9594879150390624,0.22393798828125
20463,-0.1377105712890625,0.95989990234375,0.2227630615234375
20464,-0.1382293701171875,0.959442138671875,0.223297119140625
20465,-0.139801025390625,0.9592437744140624,0.2227020263671875
20466,-0.1406707763671875,0.959075927734375,0.2231903076171875
20467,-0.141448974609375,0.958740234375,0.2229766845703125
20468,-0.1418914794921875,0.9589996337890624,0.2234954833984375
20469,-0.1428375244140625,0.95867919921875,0.2228240966796875
20470,-0.1425933837890625,0.959381103515625,0.2234039306640625
20471,-0.1431121826171875,0.959136962890625,0.224884033203125
20472,-0.144317626953125,0.959320068359375,0.2260589599609375
20473,-0.144439697265625,0.9598541259765624,0.2258148193359375
20474,-0.1442413330078125,0.9594879150390624,0.2264556884765625
20475,-0.1436767578125,0.9601898193359376,0.226318359375
20476,-0.1431427001953125,0.9601287841796876,0.2250213623046875
20477,-0.1429443359375,0.959808349609375,0.2243804931640625
20478,-0.1439056396484375,0.9590911865234376,0.2246856689453125
20479,-0.1438446044921875,0.9597320556640624,0.2250518798828125
20480,-0.1439971923828125,0.95849609375,0.2271575927734375
20481,-0.144317626953125,0.9587554931640624,0.227081298828125
20482,-0.14495849609375,0.9601287841796876,0.22833251953125
20483,-0.1450042724609375,0.958709716796875,0.227630615234375
20484,-0.1439056396484375,0.958740234375,0.2265777587890625
20485,-0.1448516845703125,0.95977783203125,0.22747802734375
20486,-0.1457366943359375,0.95989990234375,0.227081298828125
20487,-0.145721435546875,0.9587860107421876,0.2265167236328125
20488,-0.146484375,0.9597930908203124,0.22540283203125
20489,-0.1466827392578125,0.959442138671875,0.2250213623046875
20490,-0.146148681640625,0.9591827392578124,0.225189208984375
20491,-0.146240234375,0.9598846435546876,0.223968505859375
20492,-0.1458740234375,0.9588165283203124,0.2244110107421875
20493,-0.145355224609375,0.959991455078125,0.2244720458984375
20494,-0.145294189453125,0.9607391357421876,0.226104736328125
20495,-0.1440887451171875,0.9605712890625,0.2258453369140625
20496,-0.1464691162109375,0.964324951171875,0.2256622314453125
20497,-0.1447296142578125,0.9615631103515624,0.2276458740234375
20498,-0.1416778564453125,0.95599365234375,0.2235107421875
20499,-0.14508056640625,0.9601593017578124,0.220703125
20500,-0.1454010009765625,0.958099365234375,0.2225341796875
20501,-0.1452789306640625,0.9583740234375,0.223236083984375
20502,-0.1444091796875,0.9598846435546876,0.22222900390625
20503,-0.1438140869140625,0.962646484375,0.2224884033203125
20504,-0.1432952880859375,0.9647674560546876,0.2242279052734375
20505,-0.14385986328125,0.9661407470703124,0.2246856689453125
20506,-0.14422607421875,0.9641571044921876,0.224395751953125
20507,-0.144256591796875,0.963531494140625,0.2230224609375
20508,-0.1436614990234375,0.962066650390625,0.2235565185546875
20509,-0.1432647705078125,0.960540771484375,0.2257843017578125
20510,-0.1424407958984375,0.95867919921875,0.2254791259765625
20511,-0.1441497802734375,0.9603729248046876,0.2271575927734375
20512,-0.1439971923828125,0.96148681640625,0.2270050048828125
20513,-0.1462860107421875,0.96405029296875,0.2277984619140625
20514,-0.138275146484375,0.9526519775390624,0.2239532470703125
20515,-0.1424102783203125,0.960357666015625,0.2195587158203125
20516,-0.1438446044921875,0.9605712890625,0.219757080078125
20517,-0.14178466796875,0.958740234375,0.218109130859375
20518,-0.141632080078125,0.9594268798828124,0.218109130859375
20519,-0.1427764892578125,0.9630126953125,0.2186431884765625
20520,-0.1396484375,0.9560394287109376,0.219329833984375
20521,-0.136993408203125,0.95196533203125,0.2155609130859375
20522,-0.137939453125,0.957550048828125,0.212158203125
20523,-0.1381378173828125,0.9570465087890624,0.21282958984375
20524,-0.13800048828125,0.9557037353515624,0.214263916015625
20525,-0.1384735107421875,0.956268310546875,0.2153778076171875
20526,-0.1397552490234375,0.9579925537109376,0.216796875
20527,-0.1408538818359375,0.95849609375,0.2165679931640625
20528,-0.1412353515625,0.960235595703125,0.2158203125
20529,-0.140655517578125,0.9600067138671876,0.215545654296875
20530,-0.14044189453125,0.9603729248046876,0.2138519287109375
20531,-0.139984130859375,0.9605712890625,0.2149810791015625
20532,-0.1403961181640625,0.9622955322265624,0.21575927734375
20533,-0.1400909423828125,0.963623046875,0.2164154052734375
20534,-0.1413116455078125,0.9632720947265624,0.2177886962890625
20535,-0.1414947509765625,0.96270751953125,0.2191619873046875
20536,-0.1422271728515625,0.9625701904296876,0.2184295654296875
20537,-0.141693115234375,0.9623260498046876,0.2187652587890625
20538,-0.14263916015625,0.96246337890625,0.21917724609375
20539,-0.1414947509765625,0.9608917236328124,0.22015380859375
20540,-0.1408538818359375,0.9599761962890624,0.2198028564453125
20541,-0.1408233642578125,0.9605255126953124,0.2206573486328125
20542,-0.1400909423828125,0.960906982421875,0.220428466796875
20543,-0.14093017578125,0.96136474609375,0.221771240234375
20544,-0.1410369873046875,0.9622955322265624,0.2211761474609375
20545,-0.1410980224609375,0.962921142578125,0.219970703125
20546,-0.14068603515625,0.9621429443359376,0.2196502685546875
20547,-0.1401519775390625,0.963104248046875,0.2188568115234375
20548,-0.1395263671875,0.9630889892578124,0.2183380126953125
20549,-0.13995361328125,0.96453857421875,0.2174072265625
20550,-0.1413116455078125,0.96392822265625,0.2175750732421875
20551,-0.1421966552734375,0.96307373046875,0.218414306640625
20552,-0.1421661376953125,0.96319580078125,0.2183074951171875
20553,-0.142425537109375,0.9629669189453124,0.21759033203125
20554,-0.141815185546875,0.962738037109375,0.2175140380859375
20555,-0.141448974609375,0.9621734619140624,0.2181396484375
20556,-0.1402130126953125,0.962860107421875,0.21868896484375
20557,-0.14056396484375,0.9627227783203124,0.2187042236328125
20558,-0.140533447265625,0.963104248046875,0.2196044921875
20559,-0.1402435302734375,0.963287353515625,0.2192230224609375
20560,-0.14031982421875,0.963623046875,0.2184600830078125
20561,-0.1405487060546875,0.9635467529296876,0.2185821533203125
20562,-0.1414947509765625,0.96240234375,0.2172698974609375
20563,-0.14129638671875,0.961822509765625,0.2178497314453125
20564,-0.1400299072265625,0.9606475830078124,0.21722412109375
20565,-0.1390380859375,0.9599151611328124,0.217254638671875
20566,-0.1384735107421875,0.9614410400390624,0.2168426513671875
20567,-0.1388092041015625,0.96038818359375,0.2168121337890625
20568,-0.1409149169921875,0.9603118896484376,0.215911865234375
20569,-0.1415252685546875,0.96044921875,0.2160491943359375
20570,-0.1408843994140625,0.961029052734375,0.2144622802734375
20571,-0.139984130859375,0.9615020751953124,0.215545654296875
20572,-0.1399688720703125,0.9619903564453124,0.2164306640625
20573,-0.140228271484375,0.9634552001953124,0.2161712646484375
20574,-0.1402435302734375,0.964202880859375,0.2155609130859375
20575,-0.140472412109375,0.964447021484375,0.2160491943359375
20576,-0.140655517578125,0.9651641845703124,0.215911865234375
20577,-0.1401519775390625,0.9651641845703124,0.214752197265625
20578,-0.1398773193359375,0.9642333984375,0.2145538330078125
20579,-0.1396484375,0.9636077880859376,0.216156005859375
20580,-0.139251708984375,0.962860107421875,0.2177886962890625
20581,-0.1378631591796875,0.9623565673828124,0.2187347412109375
20582,-0.13970947265625,0.96197509765625,0.2195892333984375
20583,-0.139923095703125,0.9623870849609376,0.220428466796875
20584,-0.14013671875,0.9627227783203124,0.22076416015625
20585,-0.1410980224609375,0.9625701904296876,0.22064208984375
20586,-0.1409759521484375,0.96356201171875,0.2201690673828125
20587,-0.140350341796875,0.9627685546875,0.218048095703125
20588,-0.1394805908203125,0.9632415771484376,0.2176055908203125
20589,-0.140533447265625,0.9636383056640624,0.21710205078125
20590,-0.139739990234375,0.9634857177734376,0.2166900634765625
20591,-0.1393280029296875,0.9642181396484376,0.2158050537109375
20592,-0.1395721435546875,0.965423583984375,0.2157440185546875
20593,-0.1394500732421875,0.9648284912109376,0.2146148681640625
20594,-0.138946533203125,0.96563720703125,0.2141571044921875
20595,-0.1379852294921875,0.963958740234375,0.2142791748046875
20596,-0.1387786865234375,0.96240234375,0.2131805419921875
20597,-0.138763427734375,0.9608001708984376,0.214569091796875
20598,-0.1402130126953125,0.9589385986328124,0.214508056640625
20599,-0.14080810546875,0.9589385986328124,0.213592529296875
20600,-0.139739990234375,0.9603271484375,0.212493896484375
20601,-0.1390228271484375,0.961761474609375,0.213470458984375
20602,-0.13848876953125,0.9611968994140624,0.21435546875
20603,-0.1383514404296875,0.9618682861328124,0.2145843505859375
20604,-0.1377105712890625,0.9632568359375,0.2156829833984375
20605,-0.1373748779296875,0.9647674560546876,0.2154388427734375
20606,-0.1384124755859375,0.9650421142578124,0.215789794921875
20607,-0.13873291015625,0.9642333984375,0.2160797119140625
20608,-0.138397216796875,0.964202880859375,0.2162628173828125
20609,-0.138031005859375,0.963348388671875,0.215606689453125
20610,-0.1385955810546875,0.962890625,0.21612548828125
20611,-0.1387176513671875,0.962554931640625,0.2167510986328125
20612,-0.1385040283203125,0.9642181396484376,0.21630859375
20613,-0.138336181640625,0.96307373046875,0.2165679931640625
20614,-0.1385955810546875,0.963897705078125,0.2178955078125
20615,-0.13775634765625,0.96405029296875,0.2177276611328125
20616,-0.1367950439453125,0.964508056640625,0.216827392578125
20617,-0.137298583984375,0.9636077880859376,0.216400146484375
20618,-0.13739013671875,0.9630889892578124,0.2148895263671875
20619,-0.1378936767578125,0.96270751953125,0.21490478515625
20620,-0.13824462890625,0.962982177734375,0.2164459228515625
20621,-0.1378173828125,0.9632110595703124,0.2158203125
20622,-0.137664794921875,0.963653564453125,0.21551513671875
20623,-0.1381683349609375,0.96356201171875,0.215240478515625
20624,-0.138031005859375,0.96435546875,0.2158203125
20625,-0.1378326416015625,0.9650115966796876,0.2152862548828125
20626,-0.1381988525390625,0.965789794921875,0.2155914306640625
20627,-0.138397216796875,0.96453857421875,0.217193603515625
20628,-0.1390838623046875,0.9639739990234376,0.2178497314453125
20629,-0.1390380859375,0.9641265869140624,0.216888427734375
20630,-0.1389617919921875,0.9641876220703124,0.2165374755859375
20631,-0.1390533447265625,0.9629669189453124,0.2182159423828125
20632,-0.140289306640625,0.96246337890625,0.2173309326171875
20633,-0.14013671875,0.963226318359375,0.2183380126953125
20634,-0.14019775390625,0.9625396728515624,0.2171478271484375
20635,-0.140777587890625,0.9617919921875,0.2167816162109375
20636,-0.1403961181640625,0.96270751953125,0.21533203125
20637,-0.13970947265625,0.9639129638671876,0.2161712646484375
20638,-0.1400299072265625,0.9633636474609376,0.21649169921875
20639,-0.1403656005859375,0.9637908935546876,0.2171478271484375
20640,-0.1401214599609375,0.964508056640625,0.217498779296875
20641,-0.140472412109375,0.9647674560546876,0.2167510986328125
20642,-0.1407470703125,0.964080810546875,0.2152557373046875
20643,-0.142242431640625,0.9636688232421876,0.2155303955078125
20644,-0.1419525146484375,0.9624481201171876,0.2164459228515625
20645,-0.14117431640625,0.96087646484375,0.2167205810546875
20646,-0.1422119140625,0.9589691162109376,0.2180633544921875
20647,-0.1417999267578125,0.9591522216796876,0.217803955078125
20648,-0.141021728515625,0.961517333984375,0.217376708984375
20649,-0.1407470703125,0.962982177734375,0.2165069580078125
20650,-0.1412811279296875,0.964508056640625,0.217071533203125
20651,-0.14178466796875,0.9644622802734376,0.21728515625
20652,-0.140716552734375,0.963958740234375,0.2170257568359375
20653,-0.13983154296875,0.962493896484375,0.21759033203125
20654,-0.1408538818359375,0.96209716796875,0.2187042236328125
20655,-0.1404571533203125,0.9603424072265624,0.2186737060546875
20656,-0.140472412109375,0.9612884521484376,0.218994140625
20657,-0.1404876708984375,0.9605865478515624,0.219940185546875
20658,-0.1420440673828125,0.961029052734375,0.2214508056640625
20659,-0.1421051025390625,0.9613800048828124,0.222015380859375
20660,-0.141876220703125,0.9616241455078124,0.2211151123046875
20661,-0.1411895751953125,0.96142578125,0.2202301025390625
20662,-0.1408843994140625,0.9621429443359376,0.2193603515625
20663,-0.1401519775390625,0.963165283203125,0.2190399169921875
20664,-0.1401824951171875,0.9641265869140624,0.2201690673828125
20665,-0.1416168212890625,0.962799072265625,0.2205047607421875
20666,-0.1423797607421875,0.9610137939453124,0.22088623046875
20667,-0.1419219970703125,0.9608917236328124,0.219635009765625
20668,-0.142364501953125,0.962432861328125,0.2198028564453125
20669,-0.1429290771484375,0.962249755859375,0.2197418212890625
20670,-0.1425323486328125,0.9603118896484376,0.2198944091796875
20671,-0.1426849365234375,0.9593048095703124,0.2206268310546875
20672,-0.14276123046875,0.9582977294921876,0.22076416015625
20673,-0.1438140869140625,0.9585113525390624,0.2203369140625
20674,-0.14349365234375,0.95941162109375,0.2209930419921875
20675,-0.14337158203125,0.960693359375,0.221527099609375
20676,-0.1429443359375,0.9604949951171876,0.2215423583984375
20677,-0.142578125,0.961151123046875,0.2212982177734375
20678,-0.1423797607421875,0.9600372314453124,0.2212066650390625
20679,-0.142486572265625,0.96124267578125,0.2212677001953125
20680,-0.1421966552734375,0.9617767333984376,0.2206268310546875
20681,-0.142303466796875,0.9605560302734376,0.2212371826171875
20682,-0.143646240234375,0.9610748291015624,0.2225189208984375
20683,-0.1439971923828125,0.961456298828125,0.2228546142578125
20684,-0.144744873046875,0.9619903564453124,0.223480224609375
20685,-0.1455078125,0.96148681640625,0.2234649658203125
20686,-0.145111083984375,0.9613189697265624,0.2224273681640625
20687,-0.1451416015625,0.9603729248046876,0.221954345703125
20688,-0.1453094482421875,0.9597320556640624,0.222625732421875
20689,-0.144683837890625,0.959716796875,0.223388671875
20690,-0.14471435546875,0.9592742919921876,0.222015380859375
20691,-0.1435546875,0.960296630859375,0.2222137451171875
20692,-0.1440582275390625,0.9615325927734376,0.22161865234375
20693,-0.1446990966796875,0.9613189697265624,0.2211151123046875
20694,-0.1446075439453125,0.961395263671875,0.2212066650390625
20695,-0.1457366943359375,0.9619293212890624,0.22161865234375
20696,-0.1444244384765625,0.962646484375,0.2211456298828125
20697,-0.14373779296875,0.9618682861328124,0.220001220703125
20698,-0.1439208984375,0.9613800048828124,0.2201385498046875
20699,-0.1445465087890625,0.9619140625,0.220245361328125
20700,-0.1454010009765625,0.9615325927734376,0.218963623046875
20701,-0.1449432373046875,0.961090087890625,0.21923828125
20702,-0.145751953125,0.9613189697265624,0.2208709716796875
20703,-0.1454925537109375,0.9608917236328124,0.2202301025390625
20704,-0.144989013671875,0.9614715576171876,0.218994140625
20705,-0.1444244384765625,0.9607391357421876,0.2194976806640625
20706,-0.144439697265625,0.9599761962890624,0.2186126708984375
20707,-0.14337158203125,0.9603118896484376,0.2202911376953125
20708,-0.1429595947265625,0.96051025390625,0.2199859619140625
20709,-0.1436614990234375,0.9615936279296876,0.220428466796875
20710,-0.1441192626953125,0.962005615234375,0.2201690673828125
20711,-0.1439361572265625,0.9630279541015624,0.21990966796875
20712,-0.145263671875,0.96441650390625,0.2203521728515625
20713,-0.1447601318359375,0.963836669921875,0.2192230224609375
20714,-0.14453125,0.9628448486328124,0.2199554443359375
20715,-0.1446685791015625,0.962188720703125,0.2200164794921875
20716,-0.14422607421875,0.9615020751953124,0.21875
20717,-0.1434173583984375,0.962066650390625,0.2191925048828125
20718,-0.1430206298828125,0.962554931640625,0.220855712890625
20719,-0.1432647705078125,0.9621429443359376,0.2204742431640625
20720,-0.143341064453125,0.96136474609375,0.219818115234375
20721,-0.1433563232421875,0.96044921875,0.2206878662109375
20722,-0.1436614990234375,0.958831787109375,0.2212066650390625
20723,-0.1440582275390625,0.9590301513671876,0.221099853515625
20724,-0.14349365234375,0.95855712890625,0.2222747802734375
20725,-0.1436004638671875,0.961029052734375,0.2222900390625
20726,-0.142913818359375,0.9625701904296876,0.220672607421875
20727,-0.1438751220703125,0.9634552001953124,0.2210235595703125
20728,-0.143402099609375,0.9640960693359376,0.2227783203125
20729,-0.14398193359375,0.9639739990234376,0.22265625
20730,-0.14361572265625,0.96307373046875,0.2225494384765625
20731,-0.1430206298828125,0.962371826171875,0.22308349609375
20732,-0.1427154541015625,0.9640350341796876,0.2252197265625
20733,-0.1417999267578125,0.9621124267578124,0.226959228515625
20734,-0.1427154541015625,0.9622650146484376,0.2265777587890625
20735,-0.143157958984375,0.9624786376953124,0.225799560546875
20736,-0.1434783935546875,0.960479736328125,0.22613525390625
20737,-0.1439056396484375,0.959259033203125,0.22442626953125
20738,-0.1435546875,0.958404541015625,0.22442626953125
20739,-0.1417694091796875,0.9584503173828124,0.22467041015625
20740,-0.1417236328125,0.9591217041015624,0.224334716796875
20741,-0.141021728515625,0.95892333984375,0.22430419921875
20742,-0.141265869140625,0.95703125,0.2233734130859375
20743,-0.14166259765625,0.956146240234375,0.2228546142578125
20744,-0.1413116455078125,0.957000732421875,0.2236785888671875
20745,-0.141845703125,0.9591064453125,0.2249755859375
20746,-0.142547607421875,0.96124267578125,0.2249603271484375
20747,-0.140655517578125,0.9610137939453124,0.2292327880859375
20748,-0.1412506103515625,0.95941162109375,0.2303924560546875
20749,-0.1431121826171875,0.9580841064453124,0.2310028076171875
20750,-0.1435089111328125,0.958709716796875,0.2299957275390625
20751,-0.1443023681640625,0.9593658447265624,0.230712890625
20752,-0.1448211669921875,0.960296630859375,0.2315826416015625
20753,-0.1446533203125,0.9613189697265624,0.23419189453125
20754,-0.1443634033203125,0.9621429443359376,0.23553466796875
20755,-0.144439697265625,0.961944580078125,0.2356414794921875
20756,-0.1443634033203125,0.9607391357421876,0.2367706298828125
20757,-0.1443023681640625,0.959014892578125,0.2364959716796875
20758,-0.144622802734375,0.95697021484375,0.2366943359375
20759,-0.1446075439453125,0.956085205078125,0.23590087890625
20760,-0.1444549560546875,0.9558258056640624,0.235687255859375
20761,-0.14373779296875,0.95587158203125,0.23504638671875
20762,-0.1446380615234375,0.9565277099609376,0.234710693359375
20763,-0.14532470703125,0.957122802734375,0.23486328125
20764,-0.1453857421875,0.957244873046875,0.2346038818359375
20765,-0.1454010009765625,0.95758056640625,0.2347259521484375
20766,-0.14556884765625,0.9580230712890624,0.2342681884765625
20767,-0.1460723876953125,0.9577178955078124,0.2339324951171875
20768,-0.14666748046875,0.958038330078125,0.2341461181640625
20769,-0.1461181640625,0.9596405029296876,0.2335052490234375
20770,-0.14593505859375,0.9584808349609376,0.233184814453125
20771,-0.1461944580078125,0.957672119140625,0.2334442138671875
20772,-0.146240234375,0.957855224609375,0.2337646484375
20773,-0.1452178955078125,0.957763671875,0.2333221435546875
20774,-0.1458892822265625,0.9569549560546876,0.23321533203125
20775,-0.1468963623046875,0.9571990966796876,0.2349090576171875
20776,-0.1461944580078125,0.9569854736328124,0.23358154296875
20777,-0.1459808349609375,0.956939697265625,0.23443603515625
20778,-0.1467132568359375,0.956268310546875,0.2345428466796875
20779,-0.14642333984375,0.9555511474609376,0.2336883544921875
20780,-0.1462249755859375,0.955596923828125,0.2338714599609375
20781,-0.1466064453125,0.955963134765625,0.2340087890625
20782,-0.1466217041015625,0.9554443359375,0.2347412109375
20783,-0.146697998046875,0.9561309814453124,0.2332611083984375
20784,-0.146331787109375,0.9554901123046876,0.23321533203125
20785,-0.145477294921875,0.9573211669921876,0.2343902587890625
20786,-0.145782470703125,0.9578399658203124,0.2342681884765625
20787,-0.14520263671875,0.9586334228515624,0.2333221435546875
20788,-0.1456146240234375,0.9585723876953124,0.2344207763671875
20789,-0.145599365234375,0.9579620361328124,0.23345947265625
20790,-0.145355224609375,0.958282470703125,0.23443603515625
20791,-0.1455078125,0.957733154296875,0.2340240478515625
20792,-0.1464080810546875,0.959014892578125,0.2329559326171875
20793,-0.1467742919921875,0.9585418701171876,0.233856201171875
20794,-0.1475372314453125,0.9581146240234376,0.23443603515625
20795,-0.147308349609375,0.958038330078125,0.235992431640625
20796,-0.1481170654296875,0.957061767578125,0.2363739013671875
20797,-0.14715576171875,0.956207275390625,0.2344512939453125
20798,-0.145965576171875,0.957916259765625,0.23394775390625
20799,-0.1459503173828125,0.9587860107421876,0.234161376953125
20800,-0.1471405029296875,0.95709228515625,0.233551025390625
20801,-0.147491455078125,0.9579925537109376,0.233642578125
20802,-0.1473846435546875,0.9571990966796876,0.23236083984375
20803,-0.1487274169921875,0.9545440673828124,0.2333984375
20804,-0.148345947265625,0.9538421630859376,0.2341461181640625
20805,-0.1468658447265625,0.9553375244140624,0.2345428466796875
20806,-0.1467742919921875,0.9577178955078124,0.232818603515625
20807,-0.1464385986328125,0.9597015380859376,0.231353759765625
20808,-0.147308349609375,0.9601287841796876,0.2313690185546875
20809,-0.146575927734375,0.9604949951171876,0.231231689453125
20810,-0.1463623046875,0.9600982666015624,0.2305450439453125
20811,-0.1457366943359375,0.9587554931640624,0.2283935546875
20812,-0.144134521484375,0.9573516845703124,0.228851318359375
20813,-0.1440887451171875,0.95684814453125,0.2297515869140625
20814,-0.1450958251953125,0.95697021484375,0.2303619384765625
20815,-0.1449127197265625,0.95733642578125,0.2313995361328125
20816,-0.145965576171875,0.9575958251953124,0.2312164306640625
20817,-0.14556884765625,0.9580078125,0.2315673828125
20818,-0.1452178955078125,0.9588775634765624,0.230743408203125
20819,-0.14453125,0.958282470703125,0.2305145263671875
20820,-0.144134521484375,0.9592437744140624,0.229461669921875
20821,-0.14422607421875,0.95953369140625,0.228851318359375
20822,-0.1429595947265625,0.9589385986328124,0.2283172607421875
20823,-0.1434173583984375,0.9593353271484376,0.22857666015625
20824,-0.14312744140625,0.9607696533203124,0.228240966796875
20825,-0.1431884765625,0.960845947265625,0.2283172607421875
20826,-0.143768310546875,0.9614410400390624,0.227813720703125
20827,-0.1439208984375,0.9609832763671876,0.2265167236328125
20828,-0.1440277099609375,0.9582672119140624,0.22442626953125
20829,-0.1443634033203125,0.9566802978515624,0.2250518798828125
20830,-0.1457061767578125,0.9555816650390624,0.224822998046875
20831,-0.1454315185546875,0.95623779296875,0.2241058349609375
20832,-0.1446075439453125,0.9571533203125,0.224334716796875
20833,-0.14422607421875,0.9573211669921876,0.2257537841796875
20834,-0.1443634033203125,0.95916748046875,0.225128173828125
20835,-0.1428070068359375,0.9595947265625,0.2258148193359375
20836,-0.1437225341796875,0.9605865478515624,0.226348876953125
20837,-0.143707275390625,0.960296630859375,0.226287841796875
20838,-0.1432647705078125,0.960479736328125,0.2249298095703125
20839,-0.1435699462890625,0.96087646484375,0.2247161865234375
20840,-0.1435546875,0.9598541259765624,0.2245635986328125
20841,-0.1442413330078125,0.95928955078125,0.2244110107421875
20842,-0.1442413330078125,0.960418701171875,0.224945068359375
20843,-0.1446380615234375,0.9601593017578124,0.2242584228515625
20844,-0.1455078125,0.9608154296875,0.2249755859375
20845,-0.145233154296875,0.9612579345703124,0.2254180908203125
20846,-0.146148681640625,0.9604339599609376,0.224578857421875
20847,-0.1452484130859375,0.961151123046875,0.22430419921875
20848,-0.14404296875,0.9615325927734376,0.222686767578125
20849,-0.1433563232421875,0.96014404296875,0.2233123779296875
20850,-0.1441497802734375,0.960113525390625,0.2229461669921875
20851,-0.1434326171875,0.961212158203125,0.221282958984375
20852,-0.1432342529296875,0.959716796875,0.222015380859375
20853,-0.14361572265625,0.9602203369140624,0.22100830078125
20854,-0.143463134765625,0.9604034423828124,0.2206268310546875
20855,-0.143218994140625,0.96112060546875,0.220184326171875
20856,-0.143341064453125,0.9609222412109376,0.2196502685546875
20857,-0.143157958984375,0.9619293212890624,0.2187957763671875
20858,-0.1438140869140625,0.9609222412109376,0.2180633544921875
20859,-0.1436767578125,0.9611663818359376,0.2177886962890625
20860,-0.1438751220703125,0.9617919921875,0.21795654296875
20861,-0.14373779296875,0.9617767333984376,0.218353271484375
20862,-0.1445770263671875,0.961578369140625,0.217041015625
20863,-0.144744873046875,0.9615325927734376,0.2168731689453125
20864,-0.14453125,0.9613800048828124,0.21630859375
20865,-0.144195556640625,0.961669921875,0.21649169921875
20866,-0.144073486328125,0.9611968994140624,0.2170867919921875
20867,-0.143157958984375,0.9617767333984376,0.217071533203125
20868,-0.1432647705078125,0.9621734619140624,0.2166900634765625
20869,-0.143585205078125,0.9622039794921876,0.2170257568359375
20870,-0.14361572265625,0.9636993408203124,0.2169036865234375
20871,-0.1438446044921875,0.9633941650390624,0.2165069580078125
20872,-0.143402099609375,0.9621734619140624,0.2158966064453125
20873,-0.143280029296875,0.9638824462890624,0.2165069580078125
20874,-0.1418304443359375,0.963043212890625,0.215911865234375
20875,-0.1398773193359375,0.9639129638671876,0.216400146484375
20876,-0.1409149169921875,0.964691162109375,0.2164306640625
20877,-0.141448974609375,0.964019775390625,0.215362548828125
20878,-0.142242431640625,0.963958740234375,0.214080810546875
20879,-0.1430206298828125,0.9636383056640624,0.212646484375
20880,-0.1414031982421875,0.9619140625,0.211669921875
20881,-0.1405029296875,0.9593048095703124,0.2117462158203125
20882,-0.14111328125,0.95947265625,0.2137908935546875
20883,-0.1414642333984375,0.9603271484375,0.2141876220703125
20884,-0.1403350830078125,0.9628143310546876,0.211181640625
20885,-0.1401824951171875,0.965301513671875,0.210235595703125
20886,-0.1407928466796875,0.965667724609375,0.2108306884765625
20887,-0.142822265625,0.9661712646484376,0.211456298828125
20888,-0.141937255859375,0.9644927978515624,0.209381103515625
20889,-0.1400604248046875,0.963531494140625,0.2084503173828125
20890,-0.140045166015625,0.963775634765625,0.2098388671875
20891,-0.141448974609375,0.967041015625,0.21282958984375
20892,-0.139404296875,0.961456298828125,0.2131805419921875
20893,-0.13409423828125,0.9527130126953124,0.2098236083984375
20894,-0.14044189453125,0.9597930908203124,0.2070159912109375
20895,-0.14044189453125,0.95989990234375,0.2076873779296875
20896,-0.1378173828125,0.9602508544921876,0.2061767578125
20897,-0.1375885009765625,0.9618377685546876,0.206634521484375
20898,-0.137786865234375,0.9616546630859376,0.207000732421875
20899,-0.139068603515625,0.963134765625,0.208099365234375
20900,-0.1392822265625,0.9637298583984376,0.2094268798828125
20901,-0.138946533203125,0.963653564453125,0.2091217041015625
20902,-0.1392974853515625,0.964691162109375,0.208099365234375
20903,-0.13970947265625,0.96551513671875,0.209442138671875
20904,-0.139007568359375,0.9666748046875,0.2090911865234375
20905,-0.1404876708984375,0.9635162353515624,0.2096099853515625
20906,-0.1416473388671875,0.96246337890625,0.2106475830078125
20907,-0.1412811279296875,0.9624176025390624,0.2132415771484375
20908,-0.1413726806640625,0.9618682861328124,0.211334228515625
20909,-0.141204833984375,0.9626617431640624,0.210113525390625
20910,-0.1407318115234375,0.964019775390625,0.2105865478515625
20911,-0.140411376953125,0.964141845703125,0.211944580078125
20912,-0.1393280029296875,0.96429443359375,0.2113800048828125
20913,-0.1395721435546875,0.9635772705078124,0.2113494873046875
20914,-0.139984130859375,0.9646148681640624,0.2121429443359375
20915,-0.140472412109375,0.9651641845703124,0.2132415771484375
20916,-0.14044189453125,0.9652862548828124,0.2132720947265625
20917,-0.1409912109375,0.9643707275390624,0.2137603759765625
20918,-0.1414642333984375,0.9626922607421876,0.2129974365234375
20919,-0.141998291015625,0.962615966796875,0.212554931640625
20920,-0.141693115234375,0.9620361328125,0.2138214111328125
20921,-0.14141845703125,0.962249755859375,0.2134857177734375
20922,-0.1418609619140625,0.9623260498046876,0.2142181396484375
20923,-0.14154052734375,0.9621124267578124,0.2139739990234375
20924,-0.1407623291015625,0.962554931640625,0.2144622802734375
20925,-0.141204833984375,0.9621124267578124,0.21484375
20926,-0.1412200927734375,0.9627532958984376,0.215576171875
20927,-0.141204833984375,0.962677001953125,0.2149810791015625
20928,-0.142059326171875,0.9637298583984376,0.2151641845703125
20929,-0.1417999267578125,0.9635772705078124,0.21575927734375
20930,-0.1410369873046875,0.9638214111328124,0.216461181640625
20931,-0.1408538818359375,0.9632568359375,0.216888427734375
20932,-0.14056396484375,0.9627532958984376,0.2158966064453125
20933,-0.1413421630859375,0.9629974365234376,0.2167205810546875
20934,-0.1403656005859375,0.96246337890625,0.2162017822265625
20935,-0.140533447265625,0.962310791015625,0.2169647216796875
20936,-0.1408233642578125,0.9621429443359376,0.2170562744140625
20937,-0.1404571533203125,0.962310791015625,0.2170867919921875
20938,-0.1405792236328125,0.962158203125,0.217620849609375
20939,-0.140411376953125,0.962677001953125,0.2176513671875
20940,-0.1400604248046875,0.962554931640625,0.2183380126953125
20941,-0.1402740478515625,0.962554931640625,0.2191314697265625
20942,-0.141387939453125,0.960968017578125,0.2197113037109375
20943,-0.141448974609375,0.9616546630859376,0.2199249267578125
20944,-0.140411376953125,0.962371826171875,0.2184600830078125
20945,-0.1396484375,0.962158203125,0.2190093994140625
20946,-0.1405792236328125,0.9630279541015624,0.2202606201171875
20947,-0.1411590576171875,0.9624481201171876,0.2198333740234375
20948,-0.1408233642578125,0.963592529296875,0.21905517578125
20949,-0.14056396484375,0.963653564453125,0.21856689453125
20950,-0.140045166015625,0.9630889892578124,0.218658447265625
20951,-0.1387176513671875,0.9625091552734376,0.21954345703125
20952,-0.139862060546875,0.9626617431640624,0.2196502685546875
20953,-0.1399993896484375,0.9614410400390624,0.2199859619140625
20954,-0.1402740478515625,0.961822509765625,0.21875
20955,-0.1408233642578125,0.9600067138671876,0.2183837890625
20956,-0.13995361328125,0.9601898193359376,0.2188262939453125
20957,-0.1401214599609375,0.9587860107421876,0.220977783203125
20958,-0.1394195556640625,0.9577178955078124,0.2212066650390625
20959,-0.1377105712890625,0.9605712890625,0.219329833984375
20960,-0.13800048828125,0.96258544921875,0.2187347412109375
20961,-0.13848876953125,0.96368408203125,0.219635009765625
20962,-0.1395263671875,0.9636383056640624,0.220428466796875
20963,-0.138671875,0.96368408203125,0.220703125
20964,-0.13787841796875,0.962432861328125,0.2202911376953125
20965,-0.1376190185546875,0.9611358642578124,0.2202911376953125
20966,-0.1374969482421875,0.9613800048828124,0.2220001220703125
20967,-0.1378936767578125,0.9604949951171876,0.2215423583984375
20968,-0.1385498046875,0.961212158203125,0.222869873046875
20969,-0.1394195556640625,0.961456298828125,0.2223052978515625
20970,-0.140167236328125,0.960845947265625,0.2221221923828125
20971,-0.14044189453125,0.9606170654296876,0.22222900390625
20972,-0.1398773193359375,0.961151123046875,0.2210845947265625
20973,-0.140380859375,0.9619903564453124,0.2205352783203125
20974,-0.1400299072265625,0.9633331298828124,0.2213592529296875
20975,-0.1404266357421875,0.96417236328125,0.22186279296875
20976,-0.1411895751953125,0.96429443359375,0.2212066650390625
20977,-0.14007568359375,0.9644317626953124,0.22198486328125
20978,-0.1406097412109375,0.96435546875,0.22039794921875
20979,-0.1399993896484375,0.96380615234375,0.219024658203125
20980,-0.139739990234375,0.963958740234375,0.2188720703125
20981,-0.1401214599609375,0.9629058837890624,0.2198486328125
20982,-0.1391448974609375,0.96038818359375,0.221221923828125
20983,-0.1390380859375,0.96026611328125,0.221405029296875
20984,-0.14044189453125,0.9594879150390624,0.2210235595703125
20985,-0.1408843994140625,0.9609375,0.2212371826171875
20986,-0.1412811279296875,0.96148681640625,0.22064208984375
20987,-0.1414947509765625,0.9617767333984376,0.21905517578125
20988,-0.1416168212890625,0.9608001708984376,0.218841552734375
20989,-0.14013671875,0.9617156982421876,0.2194976806640625
20990,-0.1400299072265625,0.9620208740234376,0.21990966796875
20991,-0.13946533203125,0.9612579345703124,0.219207763671875
20992,-0.1404876708984375,0.960662841796875,0.2197418212890625
20993,-0.1400299072265625,0.9600067138671876,0.2202606201171875
20994,-0.1399078369140625,0.9595794677734376,0.2202301025390625
20995,-0.1400299072265625,0.961639404296875,0.220703125
20996,-0.14080810546875,0.96197509765625,0.2204437255859375
20997,-0.1407623291015625,0.961883544921875,0.220458984375
20998,-0.1405181884765625,0.9619140625,0.2218475341796875
20999,-0.139984130859375,0.9629364013671876,0.2212371826171875
21000,-0.139801025390625,0.9633941650390624,0.2218475341796875
21001,-0.1394805908203125,0.9616546630859376,0.2216339111328125
21002,-0.139556884765625,0.960906982421875,0.2219085693359375
21003,-0.1389312744140625,0.9618988037109376,0.221649169921875
21004,-0.138519287109375,0.96142578125,0.222015380859375
21005,-0.138519287109375,0.9613189697265624,0.2212066650390625
21006,-0.138824462890625,0.96075439453125,0.2197418212890625
21007,-0.1396484375,0.9613037109375,0.2208251953125
21008,-0.1396484375,0.96246337890625,0.2205963134765625
21009,-0.1399078369140625,0.962127685546875,0.2206878662109375
21010,-0.1397857666015625,0.9625396728515624,0.2219390869140625
21011,-0.14044189453125,0.96258544921875,0.221649169921875
21012,-0.140289306640625,0.9622344970703124,0.22149658203125
21013,-0.140106201171875,0.962493896484375,0.2213897705078125
21014,-0.140380859375,0.961822509765625,0.2218017578125
21015,-0.14044189453125,0.9611968994140624,0.2215423583984375
21016,-0.1402740478515625,0.96063232421875,0.22308349609375
21017,-0.14044189453125,0.9608001708984376,0.222808837890625
21018,-0.140472412109375,0.9608917236328124,0.2226409912109375
21019,-0.1407012939453125,0.96124267578125,0.2218475341796875
21020,-0.1412353515625,0.9615936279296876,0.223358154296875
21021,-0.1407318115234375,0.9617156982421876,0.22271728515625
21022,-0.1409759521484375,0.9618072509765624,0.2225799560546875
21023,-0.142059326171875,0.961181640625,0.2221527099609375
21024,-0.141143798828125,0.960906982421875,0.222076416015625
21025,-0.1409759521484375,0.9598236083984376,0.2225494384765625
21026,-0.139404296875,0.959930419921875,0.2213134765625
21027,-0.1387176513671875,0.960693359375,0.220794677734375
21028,-0.139892578125,0.96185302734375,0.22198486328125
21029,-0.1408233642578125,0.9622955322265624,0.2213897705078125
21030,-0.1426544189453125,0.9620819091796876,0.221649169921875
21031,-0.1433563232421875,0.9616851806640624,0.2227020263671875
21032,-0.1421356201171875,0.959381103515625,0.2218170166015625
21033,-0.1420440673828125,0.9582061767578124,0.2241973876953125
21034,-0.1416015625,0.959381103515625,0.2245025634765625
21035,-0.1412200927734375,0.96124267578125,0.2239532470703125
21036,-0.1409454345703125,0.9626312255859376,0.223907470703125
21037,-0.14166259765625,0.9636077880859376,0.223724365234375
21038,-0.141632080078125,0.963623046875,0.2240753173828125
21039,-0.1411895751953125,0.9621124267578124,0.2230987548828125
21040,-0.1394805908203125,0.96148681640625,0.223876953125
21041,-0.14111328125,0.961090087890625,0.226104736328125
21042,-0.1421661376953125,0.959869384765625,0.226593017578125
21043,-0.141998291015625,0.95947265625,0.2255859375
21044,-0.143096923828125,0.959625244140625,0.2259521484375
21045,-0.1439361572265625,0.960174560546875,0.2258758544921875
21046,-0.1441650390625,0.9603424072265624,0.2268524169921875
21047,-0.1437835693359375,0.96087646484375,0.2263946533203125
21048,-0.142852783203125,0.960296630859375,0.2254486083984375
21049,-0.142791748046875,0.960968017578125,0.2254486083984375
21050,-0.1423187255859375,0.9617462158203124,0.22576904296875
21051,-0.1428070068359375,0.96185302734375,0.22540283203125
21052,-0.142364501953125,0.9614715576171876,0.2266845703125
21053,-0.1436004638671875,0.962158203125,0.22723388671875
21054,-0.142852783203125,0.961639404296875,0.226806640625
21055,-0.143463134765625,0.96197509765625,0.225738525390625
21056,-0.1424713134765625,0.9613037109375,0.2242431640625
21057,-0.1437225341796875,0.959808349609375,0.225921630859375
21058,-0.143951416015625,0.9589080810546876,0.2260284423828125
21059,-0.1437225341796875,0.95831298828125,0.225311279296875
21060,-0.1445159912109375,0.9587860107421876,0.2255859375
21061,-0.145263671875,0.95941162109375,0.2269744873046875
21062,-0.1456298828125,0.9590911865234376,0.22705078125
21063,-0.1449737548828125,0.9595794677734376,0.2272186279296875
21064,-0.143402099609375,0.959930419921875,0.22637939453125
21065,-0.143310546875,0.9589691162109376,0.2260894775390625
21066,-0.143951416015625,0.959716796875,0.2271575927734375
21067,-0.1447601318359375,0.9604339599609376,0.2264404296875
21068,-0.1448516845703125,0.9608306884765624,0.2281951904296875
21069,-0.1452484130859375,0.9607391357421876,0.2290496826171875
21070,-0.1446685791015625,0.9597625732421876,0.2294921875
21071,-0.145416259765625,0.9596710205078124,0.2292633056640625
21072,-0.145843505859375,0.960113525390625,0.2293701171875
21073,-0.1451873779296875,0.959808349609375,0.2293243408203125
21074,-0.1447906494140625,0.9587860107421876,0.2298583984375
21075,-0.144561767578125,0.957977294921875,0.229339599609375
21076,-0.1444244384765625,0.9594879150390624,0.2285614013671875
21077,-0.1439666748046875,0.958740234375,0.2289886474609375
21078,-0.1437530517578125,0.9586639404296876,0.230987548828125
21079,-0.1428985595703125,0.95977783203125,0.2303314208984375
21080,-0.1429290771484375,0.9586944580078124,0.2304534912109375
21081,-0.143341064453125,0.9591217041015624,0.230072021484375
21082,-0.1433258056640625,0.9595794677734376,0.229248046875
21083,-0.1436004638671875,0.958892822265625,0.2299041748046875
21084,-0.14373779296875,0.9588623046875,0.2305450439453125
21085,-0.1439208984375,0.9588775634765624,0.230255126953125
21086,-0.1442413330078125,0.9593353271484376,0.231414794921875
21087,-0.1444854736328125,0.95904541015625,0.232025146484375
21088,-0.1446990966796875,0.9588775634765624,0.2320098876953125
21089,-0.1443023681640625,0.958251953125,0.23248291015625
21090,-0.1442413330078125,0.958740234375,0.2321319580078125
21091,-0.1438751220703125,0.9588470458984376,0.232574462890625
21092,-0.1443328857421875,0.9584197998046876,0.233428955078125
21093,-0.1446380615234375,0.9585723876953124,0.2344970703125
21094,-0.14404296875,0.95928955078125,0.2336883544921875
21095,-0.1438751220703125,0.958740234375,0.234649658203125
21096,-0.1434173583984375,0.9581298828125,0.2332916259765625
21097,-0.143524169921875,0.9582366943359376,0.23345947265625
21098,-0.1440277099609375,0.957611083984375,0.2338409423828125
21099,-0.1448516845703125,0.9570770263671876,0.23419189453125
21100,-0.14471435546875,0.957672119140625,0.2342376708984375
21101,-0.14447021484375,0.9571990966796876,0.2330780029296875
21102,-0.143280029296875,0.9576263427734376,0.23394775390625
21103,-0.142486572265625,0.9586029052734376,0.2342681884765625
21104,-0.1435089111328125,0.9592742919921876,0.233734130859375
21105,-0.1448974609375,0.9590911865234376,0.23199462890625
21106,-0.1446685791015625,0.9583892822265624,0.23284912109375
21107,-0.145599365234375,0.95751953125,0.23480224609375
21108,-0.1447906494140625,0.9551849365234376,0.235321044921875
21109,-0.1451873779296875,0.9550628662109376,0.235595703125
21110,-0.1453399658203125,0.9572296142578124,0.235076904296875
21111,-0.1445465087890625,0.957550048828125,0.233917236328125
21112,-0.1440277099609375,0.959197998046875,0.2340545654296875
21113,-0.14434814453125,0.9597625732421876,0.2348175048828125
21114,-0.144134521484375,0.9608612060546876,0.2371978759765625
21115,-0.1434326171875,0.9590911865234376,0.2369232177734375
21116,-0.1439056396484375,0.9586181640625,0.236297607421875
21117,-0.1445159912109375,0.957794189453125,0.237213134765625
21118,-0.1449127197265625,0.9564361572265624,0.2373199462890625
21119,-0.1457061767578125,0.9556732177734376,0.2382354736328125
21120,-0.1464996337890625,0.9559478759765624,0.237518310546875
21121,-0.1468505859375,0.956390380859375,0.237518310546875
21122,-0.1468505859375,0.956756591796875,0.2379608154296875
21123,-0.1474151611328125,0.9580078125,0.237396240234375
21124,-0.147674560546875,0.9588470458984376,0.235595703125
21125,-0.1470947265625,0.9599151611328124,0.235748291015625
21126,-0.14617919921875,0.961090087890625,0.23541259765625
21127,-0.1456146240234375,0.96099853515625,0.2362823486328125
21128,-0.1454620361328125,0.9592742919921876,0.235687255859375
21129,-0.1458587646484375,0.9592437744140624,0.23516845703125
21130,-0.1456451416015625,0.95880126953125,0.233978271484375
21131,-0.144989013671875,0.9586181640625,0.234130859375
21132,-0.1442413330078125,0.9578857421875,0.23455810546875
21133,-0.1456756591796875,0.955078125,0.235260009765625
21134,-0.1448516845703125,0.955474853515625,0.23614501953125
21135,-0.1453094482421875,0.9548187255859376,0.234893798828125
21136,-0.1456451416015625,0.9551544189453124,0.2352447509765625
21137,-0.144775390625,0.9557342529296876,0.2359771728515625
21138,-0.1444091796875,0.9561767578125,0.234893798828125
21139,-0.143890380859375,0.956268310546875,0.2344818115234375
21140,-0.1435699462890625,0.9576416015625,0.2335052490234375
21141,-0.1440277099609375,0.95709228515625,0.2342071533203125
21142,-0.1441497802734375,0.9578399658203124,0.2353668212890625
21143,-0.14312744140625,0.957122802734375,0.2340850830078125
21144,-0.1434173583984375,0.9575347900390624,0.23565673828125
21145,-0.14404296875,0.9580841064453124,0.23907470703125
21146,-0.1441650390625,0.95806884765625,0.2393951416015625
21147,-0.143798828125,0.9564056396484376,0.238677978515625
21148,-0.14422607421875,0.955963134765625,0.238067626953125
21149,-0.1439056396484375,0.9564056396484376,0.2364959716796875
21150,-0.1436920166015625,0.95562744140625,0.236724853515625
21151,-0.143890380859375,0.95562744140625,0.2352142333984375
21152,-0.14227294921875,0.9557342529296876,0.236053466796875
21153,-0.1417999267578125,0.95684814453125,0.2362823486328125
21154,-0.1412200927734375,0.9574432373046876,0.2366790771484375
21155,-0.1414642333984375,0.9568939208984376,0.23699951171875
21156,-0.1417388916015625,0.9571685791015624,0.235504150390625
21157,-0.1424407958984375,0.9571380615234376,0.2350311279296875
21158,-0.143096923828125,0.956024169921875,0.236297607421875
21159,-0.1435089111328125,0.9566650390625,0.235809326171875
21160,-0.1429901123046875,0.9563446044921876,0.2349395751953125
21161,-0.1437530517578125,0.957061767578125,0.235931396484375
21162,-0.1447906494140625,0.957763671875,0.236480712890625
21163,-0.145721435546875,0.9575042724609376,0.2378387451171875
21164,-0.1459808349609375,0.9556732177734376,0.236968994140625
21165,-0.1467742919921875,0.9539947509765624,0.2363739013671875
21166,-0.146087646484375,0.953033447265625,0.2376708984375
21167,-0.1460723876953125,0.954345703125,0.2392730712890625
21168,-0.148590087890625,0.9567108154296876,0.2395477294921875
21169,-0.148101806640625,0.95703125,0.2381134033203125
21170,-0.146942138671875,0.95770263671875,0.2377166748046875
21171,-0.1468963623046875,0.9564361572265624,0.237640380859375
21172,-0.14678955078125,0.9556884765625,0.2366180419921875
21173,-0.147064208984375,0.9549560546875,0.235015869140625
21174,-0.146881103515625,0.9539642333984376,0.23565673828125
21175,-0.1474609375,0.9541473388671876,0.2351837158203125
21176,-0.145782470703125,0.9543914794921876,0.2356414794921875
21177,-0.145599365234375,0.9557647705078124,0.2347564697265625
21178,-0.1453704833984375,0.956695556640625,0.2340850830078125
21179,-0.14666748046875,0.9568328857421876,0.2348785400390625
21180,-0.1483154296875,0.9567108154296876,0.2336273193359375
21181,-0.1481781005859375,0.9560546875,0.23199462890625
21182,-0.1479339599609375,0.955078125,0.23248291015625
21183,-0.1479339599609375,0.9539031982421876,0.2326202392578125
21184,-0.1480560302734375,0.9536590576171876,0.2328643798828125
21185,-0.1473846435546875,0.9554901123046876,0.232025146484375
21186,-0.1464691162109375,0.9588165283203124,0.2318572998046875
21187,-0.146820068359375,0.9588775634765624,0.230621337890625
21188,-0.1481781005859375,0.9596710205078124,0.2314910888671875
21189,-0.148590087890625,0.957855224609375,0.231689453125
21190,-0.148040771484375,0.956939697265625,0.2313232421875
21191,-0.1478271484375,0.955780029296875,0.2320098876953125
21192,-0.147857666015625,0.955047607421875,0.2334442138671875
21193,-0.14794921875,0.9544830322265624,0.2343292236328125
21194,-0.1477508544921875,0.955657958984375,0.2365875244140625
21195,-0.1475067138671875,0.95892333984375,0.236541748046875
21196,-0.1499481201171875,0.9598236083984376,0.23272705078125
21197,-0.1503753662109375,0.96136474609375,0.2312774658203125
21198,-0.1499786376953125,0.9620361328125,0.231231689453125
21199,-0.1499786376953125,0.961669921875,0.228607177734375
21200,-0.14862060546875,0.960906982421875,0.2271575927734375
21201,-0.1483612060546875,0.9604644775390624,0.2259368896484375
21202,-0.14862060546875,0.9598236083984376,0.2239532470703125
21203,-0.1489410400390625,0.9590911865234376,0.2216644287109375
21204,-0.150115966796875,0.9609527587890624,0.2220306396484375
21205,-0.1501617431640625,0.964630126953125,0.2223663330078125
21206,-0.1493072509765625,0.962982177734375,0.2202911376953125
21207,-0.149383544921875,0.9599761962890624,0.2195892333984375
21208,-0.150177001953125,0.958587646484375,0.218048095703125
21209,-0.1508331298828125,0.9579315185546876,0.2177886962890625
21210,-0.1517181396484375,0.9583282470703124,0.21783447265625
21211,-0.150909423828125,0.9593353271484376,0.218475341796875
21212,-0.1513519287109375,0.96038818359375,0.2199859619140625
21213,-0.1509857177734375,0.960784912109375,0.2198638916015625
21214,-0.15167236328125,0.9604644775390624,0.2190399169921875
21215,-0.149932861328125,0.960784912109375,0.218597412109375
21216,-0.1502532958984375,0.9606781005859376,0.218658447265625
21217,-0.1495513916015625,0.9615631103515624,0.2186279296875
21218,-0.14910888671875,0.9615478515625,0.2183074951171875
21219,-0.150115966796875,0.9622955322265624,0.217620849609375
21220,-0.149261474609375,0.96240234375,0.2181396484375
21221,-0.1486663818359375,0.962554931640625,0.216522216796875
21222,-0.1472320556640625,0.9609832763671876,0.21734619140625
21223,-0.1496429443359375,0.96099853515625,0.2119140625
21224,-0.1477203369140625,0.960540771484375,0.21160888671875
21225,-0.1470489501953125,0.959991455078125,0.2108917236328125
21226,-0.1463165283203125,0.960540771484375,0.2100830078125
21227,-0.144927978515625,0.961151123046875,0.210357666015625
21228,-0.1454620361328125,0.9609375,0.210357666015625
21229,-0.145751953125,0.96160888671875,0.209930419921875
21230,-0.1450958251953125,0.96197509765625,0.209564208984375
21231,-0.1448822021484375,0.96392822265625,0.2081756591796875
21232,-0.1454925537109375,0.963653564453125,0.20806884765625
21233,-0.145538330078125,0.963775634765625,0.2087249755859375
21234,-0.144805908203125,0.96319580078125,0.20819091796875
21235,-0.1449737548828125,0.9638519287109376,0.20989990234375
21236,-0.1457672119140625,0.9639434814453124,0.20819091796875
21237,-0.145477294921875,0.9637451171875,0.207977294921875
21238,-0.1459503173828125,0.962799072265625,0.20794677734375
21239,-0.1459808349609375,0.9631500244140624,0.20831298828125
21240,-0.1467742919921875,0.9628143310546876,0.20806884765625
21241,-0.147186279296875,0.962005615234375,0.2088775634765625
21242,-0.1468353271484375,0.9627532958984376,0.20916748046875
21243,-0.1468048095703125,0.96282958984375,0.2086181640625
21244,-0.14666748046875,0.9637603759765624,0.20843505859375
21245,-0.1457061767578125,0.963714599609375,0.2080841064453125
21246,-0.144775390625,0.9645538330078124,0.2083282470703125
21247,-0.1443939208984375,0.964691162109375,0.20941162109375
21248,-0.1435394287109375,0.9665679931640624,0.2107696533203125
21249,-0.1437530517578125,0.9669036865234376,0.2093353271484375
21250,-0.1450958251953125,0.9658203125,0.208709716796875
21251,-0.14495849609375,0.9644317626953124,0.2085418701171875
21252,-0.1442413330078125,0.96429443359375,0.207305908203125
21253,-0.1436920166015625,0.9642181396484376,0.20733642578125
21254,-0.14300537109375,0.9634857177734376,0.2082672119140625
21255,-0.14361572265625,0.96356201171875,0.2090911865234375
21256,-0.1441497802734375,0.9651947021484376,0.2090606689453125
21257,-0.14337158203125,0.9660797119140624,0.2076263427734375
21258,-0.1432952880859375,0.96636962890625,0.2080230712890625
21259,-0.144012451171875,0.9658966064453124,0.209503173828125
21260,-0.14495849609375,0.9654388427734376,0.2089996337890625
21261,-0.1436920166015625,0.964080810546875,0.2075958251953125
21262,-0.1429901123046875,0.963623046875,0.2087554931640625
21263,-0.142791748046875,0.9639129638671876,0.2105255126953125
21264,-0.1434326171875,0.963165283203125,0.2104339599609375
21265,-0.1439056396484375,0.9641571044921876,0.2110748291015625
21266,-0.144378662109375,0.9640655517578124,0.2104339599609375
21267,-0.143707275390625,0.9645233154296876,0.210693359375
21268,-0.1436614990234375,0.9654998779296876,0.20977783203125
21269,-0.1434783935546875,0.9660186767578124,0.2093963623046875
21270,-0.143524169921875,0.965362548828125,0.2084503173828125
21271,-0.1434478759765625,0.9665679931640624,0.20819091796875
21272,-0.143768310546875,0.9659881591796876,0.2083892822265625
21273,-0.14434814453125,0.96563720703125,0.2083740234375
21274,-0.1432037353515625,0.96563720703125,0.20751953125
21275,-0.1435089111328125,0.9658203125,0.20635986328125
21276,-0.14349365234375,0.9662322998046876,0.2059173583984375
21277,-0.14239501953125,0.964935302734375,0.20770263671875
21278,-0.1437530517578125,0.9624176025390624,0.2079315185546875
21279,-0.1436920166015625,0.961212158203125,0.210601806640625
21280,-0.144622802734375,0.9618988037109376,0.2104339599609375
21281,-0.145599365234375,0.962982177734375,0.210174560546875
21282,-0.1463470458984375,0.9633026123046876,0.21142578125
21283,-0.1465911865234375,0.96466064453125,0.2116241455078125
21284,-0.14666748046875,0.9655303955078124,0.211395263671875
21285,-0.146087646484375,0.9653472900390624,0.2111968994140625
21286,-0.1451263427734375,0.9649810791015624,0.2106170654296875
21287,-0.1451263427734375,0.965087890625,0.2117156982421875
21288,-0.1439666748046875,0.9654541015625,0.2132110595703125
21289,-0.144317626953125,0.9647216796875,0.2140655517578125
21290,-0.14508056640625,0.963714599609375,0.21484375
21291,-0.1455078125,0.9630889892578124,0.2147674560546875
21292,-0.145416259765625,0.962432861328125,0.2150115966796875
21293,-0.1442108154296875,0.9622650146484376,0.214935302734375
21294,-0.1441497802734375,0.9610137939453124,0.2148895263671875
21295,-0.1439666748046875,0.9612274169921876,0.2151336669921875
21296,-0.1434478759765625,0.9613189697265624,0.2146148681640625
21297,-0.14178466796875,0.9611663818359376,0.2158050537109375
21298,-0.14202880859375,0.9621429443359376,0.2166900634765625
21299,-0.1417999267578125,0.9623565673828124,0.2157745361328125
21300,-0.141510009765625,0.9638671875,0.216339111328125
21301,-0.14208984375,0.962738037109375,0.2155303955078125
21302,-0.14215087890625,0.9628448486328124,0.21685791015625
21303,-0.142242431640625,0.96295166015625,0.2166595458984375
21304,-0.1429901123046875,0.962982177734375,0.216705322265625
21305,-0.1433868408203125,0.962982177734375,0.2173004150390625
21306,-0.1433258056640625,0.9638519287109376,0.2175140380859375
21307,-0.1435699462890625,0.9629669189453124,0.21807861328125
21308,-0.1428985595703125,0.962982177734375,0.2183685302734375
21309,-0.1422882080078125,0.962493896484375,0.2179718017578125
21310,-0.14312744140625,0.962249755859375,0.2187957763671875
21311,-0.1426239013671875,0.9612274169921876,0.2198638916015625
21312,-0.142486572265625,0.9623870849609376,0.2191619873046875
21313,-0.1425628662109375,0.962066650390625,0.218963623046875
21314,-0.14202880859375,0.9620513916015624,0.2191162109375
21315,-0.1431884765625,0.9617462158203124,0.2187652587890625
21316,-0.1425628662109375,0.96246337890625,0.2181396484375
21317,-0.1428070068359375,0.961395263671875,0.21826171875
21318,-0.143035888671875,0.961456298828125,0.219268798828125
21319,-0.142669677734375,0.962005615234375,0.219451904296875
21320,-0.1427154541015625,0.9627685546875,0.2206573486328125
21321,-0.14288330078125,0.962249755859375,0.220245361328125
21322,-0.14385986328125,0.9629974365234376,0.2194976806640625
21323,-0.14434814453125,0.962860107421875,0.2194366455078125
21324,-0.143707275390625,0.962066650390625,0.2199554443359375
21325,-0.143280029296875,0.9618072509765624,0.2211151123046875
21326,-0.1433563232421875,0.9620361328125,0.221649169921875
21327,-0.1432952880859375,0.9633941650390624,0.2205047607421875
21328,-0.1426544189453125,0.96453857421875,0.22039794921875
21329,-0.1428375244140625,0.965057373046875,0.2210693359375
21330,-0.1441192626953125,0.9641876220703124,0.2207489013671875
21331,-0.1430816650390625,0.964324951171875,0.2195892333984375
21332,-0.141937255859375,0.96337890625,0.2196807861328125
21333,-0.1419830322265625,0.9620208740234376,0.21954345703125
21334,-0.14202880859375,0.9611358642578124,0.220916748046875
21335,-0.1422119140625,0.9598541259765624,0.2216949462890625
21336,-0.143218994140625,0.959808349609375,0.2221832275390625
21337,-0.1447906494140625,0.96002197265625,0.221893310546875
21338,-0.1457061767578125,0.9599609375,0.222412109375
21339,-0.1458740234375,0.961578369140625,0.222686767578125
21340,-0.1467132568359375,0.9614105224609376,0.22210693359375
21341,-0.1455535888671875,0.9615631103515624,0.2211761474609375
21342,-0.144989013671875,0.961334228515625,0.2219696044921875
21343,-0.1448822021484375,0.96160888671875,0.221893310546875
21344,-0.1445770263671875,0.96124267578125,0.2216796875
21345,-0.144927978515625,0.961273193359375,0.22161865234375
21346,-0.144378662109375,0.9613037109375,0.220550537109375
21347,-0.14361572265625,0.9615936279296876,0.2204742431640625
21348,-0.1431121826171875,0.9609832763671876,0.22003173828125
21349,-0.1428375244140625,0.9613189697265624,0.21923828125
21350,-0.142578125,0.958953857421875,0.2209320068359375
21351,-0.143829345703125,0.9585418701171876,0.2214508056640625
21352,-0.143890380859375,0.9580078125,0.221588134765625
21353,-0.1433563232421875,0.9582977294921876,0.2214508056640625
21354,-0.1431884765625,0.9591064453125,0.221771240234375
21355,-0.1433258056640625,0.959381103515625,0.2203521728515625
21356,-0.142333984375,0.9591827392578124,0.2188568115234375
21357,-0.142730712890625,0.95831298828125,0.219390869140625
21358,-0.14263916015625,0.95843505859375,0.220245361328125
21359,-0.142486572265625,0.960205078125,0.220001220703125
21360,-0.142578125,0.961151123046875,0.221435546875
21361,-0.1438446044921875,0.961639404296875,0.2231597900390625
21362,-0.1437225341796875,0.9616851806640624,0.2234039306640625
21363,-0.1437225341796875,0.96173095703125,0.223480224609375
21364,-0.144439697265625,0.9613800048828124,0.22369384765625
21365,-0.143341064453125,0.961639404296875,0.2225341796875
21366,-0.143096923828125,0.9599609375,0.22247314453125
21367,-0.1428985595703125,0.9591217041015624,0.2220458984375
21368,-0.1430206298828125,0.9588470458984376,0.22149658203125
21369,-0.143218994140625,0.9584503173828124,0.2209930419921875
21370,-0.1425018310546875,0.95880126953125,0.2203216552734375
21371,-0.1420440673828125,0.95904541015625,0.2207794189453125
21372,-0.1423492431640625,0.960113525390625,0.2213897705078125
21373,-0.142913818359375,0.960662841796875,0.2208099365234375
21374,-0.1427001953125,0.962005615234375,0.22088623046875
21375,-0.1419219970703125,0.9623870849609376,0.2218780517578125
21376,-0.1426544189453125,0.9630126953125,0.222869873046875
21377,-0.1422882080078125,0.9630126953125,0.2231903076171875
21378,-0.1424713134765625,0.96209716796875,0.2235107421875
21379,-0.1429443359375,0.962554931640625,0.223419189453125
21380,-0.1436309814453125,0.9622650146484376,0.22357177734375
21381,-0.1433563232421875,0.9611053466796876,0.223052978515625
21382,-0.14483642578125,0.959686279296875,0.2234344482421875
21383,-0.144744873046875,0.958282470703125,0.2241058349609375
21384,-0.1447296142578125,0.9587860107421876,0.224029541015625
21385,-0.1448211669921875,0.9593505859375,0.222625732421875
21386,-0.144500732421875,0.9597930908203124,0.2227630615234375
21387,-0.1446990966796875,0.960418701171875,0.223724365234375
21388,-0.14459228515625,0.96014404296875,0.2232208251953125
21389,-0.1446685791015625,0.9593658447265624,0.2240142822265625
21390,-0.1436309814453125,0.961273193359375,0.224151611328125
21391,-0.14453125,0.9630889892578124,0.2246856689453125
21392,-0.145599365234375,0.96240234375,0.2227783203125
21393,-0.1470947265625,0.9621124267578124,0.22174072265625
21394,-0.1471405029296875,0.958404541015625,0.2220001220703125
21395,-0.14697265625,0.95513916015625,0.22235107421875
21396,-0.1450958251953125,0.9562530517578124,0.221405029296875
21397,-0.1441650390625,0.9576263427734376,0.220794677734375
21398,-0.14404296875,0.959869384765625,0.21966552734375
21399,-0.143310546875,0.961212158203125,0.2201080322265625
21400,-0.1443939208984375,0.962890625,0.2209320068359375
21401,-0.145172119140625,0.9633636474609376,0.221527099609375
21402,-0.144989013671875,0.96429443359375,0.221405029296875
21403,-0.14434814453125,0.9637451171875,0.224151611328125
21404,-0.1429901123046875,0.9619903564453124,0.2247314453125
21405,-0.1439971923828125,0.9613037109375,0.2242584228515625
21406,-0.1446533203125,0.960906982421875,0.225250244140625
21407,-0.1444244384765625,0.9608917236328124,0.225067138671875
21408,-0.1450653076171875,0.9595947265625,0.225860595703125
21409,-0.144989013671875,0.9601593017578124,0.2260894775390625
21410,-0.1444549560546875,0.96038818359375,0.2255859375
21411,-0.1451263427734375,0.9602813720703124,0.2254486083984375
21412,-0.1441192626953125,0.9608306884765624,0.2242889404296875
21413,-0.144561767578125,0.9608306884765624,0.2247314453125
21414,-0.1441497802734375,0.9612579345703124,0.224365234375
21415,-0.1444091796875,0.961273193359375,0.2247314453125
21416,-0.1441497802734375,0.96221923828125,0.224853515625
21417,-0.144866943359375,0.96197509765625,0.22412109375
21418,-0.14483642578125,0.9619140625,0.2234649658203125
21419,-0.144989013671875,0.9606475830078124,0.2228546142578125
21420,-0.144561767578125,0.959197998046875,0.22247314453125
21421,-0.1452484130859375,0.957733154296875,0.2229156494140625
21422,-0.1455535888671875,0.9564208984375,0.2238311767578125
21423,-0.1453399658203125,0.9569091796875,0.2222747802734375
21424,-0.1456298828125,0.956878662109375,0.222991943359375
21425,-0.14532470703125,0.9581146240234376,0.2242279052734375
21426,-0.1445770263671875,0.9589691162109376,0.2248687744140625
21427,-0.144256591796875,0.96026611328125,0.2246856689453125
21428,-0.144805908203125,0.96014404296875,0.22540283203125
21429,-0.1440887451171875,0.960296630859375,0.2269287109375
21430,-0.144012451171875,0.9597320556640624,0.2261962890625
21431,-0.1435394287109375,0.96014404296875,0.225738525390625
21432,-0.1431427001953125,0.961029052734375,0.226593017578125
21433,-0.1436767578125,0.960540771484375,0.22723388671875
21434,-0.1444244384765625,0.95953369140625,0.228179931640625
21435,-0.1450347900390625,0.9594268798828124,0.2280731201171875
21436,-0.1452484130859375,0.95892333984375,0.22564697265625
21437,-0.145172119140625,0.959869384765625,0.2258148193359375
21438,-0.1461334228515625,0.9610443115234376,0.2268218994140625
21439,-0.1454010009765625,0.95989990234375,0.22711181640625
21440,-0.1453094482421875,0.960052490234375,0.227325439453125
21441,-0.14501953125,0.95977783203125,0.225433349609375
21442,-0.14495849609375,0.9598846435546876,0.225555419921875
21443,-0.144989013671875,0.9595794677734376,0.226776123046875
21444,-0.1461639404296875,0.9602508544921876,0.227508544921875
21445,-0.1459197998046875,0.960052490234375,0.2269134521484375
21446,-0.1459503173828125,0.95947265625,0.2262725830078125
21447,-0.14605712890625,0.959625244140625,0.2267303466796875
21448,-0.14532470703125,0.9602203369140624,0.227203369140625
21449,-0.1459197998046875,0.96002197265625,0.2260894775390625
21450,-0.1459503173828125,0.9604034423828124,0.2268218994140625
21451,-0.1469573974609375,0.959381103515625,0.227874755859375
21452,-0.1471099853515625,0.959228515625,0.2288360595703125
21453,-0.1473541259765625,0.9597015380859376,0.2284088134765625
21454,-0.1475982666015625,0.9604644775390624,0.228118896484375
21455,-0.147705078125,0.959564208984375,0.2284698486328125
21456,-0.1483001708984375,0.9588623046875,0.227691650390625
21457,-0.1480255126953125,0.95831298828125,0.2276458740234375
21458,-0.146484375,0.9590911865234376,0.22833251953125
21459,-0.1459808349609375,0.9606170654296876,0.22796630859375
21460,-0.1468658447265625,0.9602813720703124,0.2270050048828125
21461,-0.148223876953125,0.9600372314453124,0.2266693115234375
21462,-0.148956298828125,0.96099853515625,0.225067138671875
21463,-0.14752197265625,0.960205078125,0.2256011962890625
21464,-0.1478424072265625,0.9582061767578124,0.227081298828125
21465,-0.1477508544921875,0.9576263427734376,0.227630615234375
21466,-0.1470794677734375,0.9583282470703124,0.2279205322265625
21467,-0.147064208984375,0.9588775634765624,0.226287841796875
21468,-0.14617919921875,0.9595489501953124,0.2273712158203125
21469,-0.14630126953125,0.96075439453125,0.2266845703125
21470,-0.1468505859375,0.9620513916015624,0.2256927490234375
21471,-0.146270751953125,0.960845947265625,0.2253875732421875
21472,-0.146759033203125,0.959686279296875,0.225250244140625
21473,-0.147430419921875,0.960205078125,0.2268524169921875
21474,-0.1481170654296875,0.9597930908203124,0.2270355224609375
21475,-0.14788818359375,0.9596710205078124,0.2281341552734375
21476,-0.14788818359375,0.96002197265625,0.2280120849609375
21477,-0.1480712890625,0.9603118896484376,0.2274169921875
21478,-0.148529052734375,0.95892333984375,0.227813720703125
21479,-0.1488189697265625,0.9603118896484376,0.2272186279296875
21480,-0.148651123046875,0.96002197265625,0.225982666015625
21481,-0.14813232421875,0.9601898193359376,0.225006103515625
21482,-0.148162841796875,0.9604339599609376,0.22430419921875
21483,-0.1479034423828125,0.9607086181640624,0.2245330810546875
21484,-0.1475830078125,0.9604339599609376,0.224761962890625
21485,-0.1467742919921875,0.9613189697265624,0.2248687744140625
21486,-0.1474456787109375,0.9619293212890624,0.224151611328125
21487,-0.1471099853515625,0.9614105224609376,0.2239990234375
21488,-0.1472625732421875,0.9602813720703124,0.223846435546875
21489,-0.1486968994140625,0.958831787109375,0.2259979248046875
21490,-0.1484527587890625,0.957489013671875,0.224090576171875
21491,-0.148223876953125,0.957611083984375,0.2242279052734375
21492,-0.148040771484375,0.958099365234375,0.2247314453125
21493,-0.1475677490234375,0.9597625732421876,0.2251434326171875
21494,-0.1456756591796875,0.960205078125,0.226654052734375
21495,-0.145172119140625,0.960479736328125,0.2265167236328125
21496,-0.1451263427734375,0.9610748291015624,0.226318359375
21497,-0.14630126953125,0.9621429443359376,0.226593017578125
21498,-0.1464385986328125,0.9613189697265624,0.2263641357421875
21499,-0.146026611328125,0.9618682861328124,0.2253875732421875
21500,-0.1456756591796875,0.9617919921875,0.224853515625
21501,-0.1461029052734375,0.9607696533203124,0.2262115478515625
21502,-0.146697998046875,0.9604644775390624,0.226959228515625
21503,-0.14630126953125,0.959808349609375,0.2259521484375
21504,-0.145355224609375,0.9585113525390624,0.2249755859375
21505,-0.14520263671875,0.958526611328125,0.224700927734375
21506,-0.1443328857421875,0.9586334228515624,0.2265472412109375
21507,-0.144378662109375,0.959869384765625,0.226654052734375
21508,-0.14404296875,0.959716796875,0.227203369140625
21509,-0.145050048828125,0.9601593017578124,0.2284698486328125
21510,-0.1445159912109375,0.9605255126953124,0.227783203125
21511,-0.1443634033203125,0.9605865478515624,0.2274169921875
21512,-0.144775390625,0.9605712890625,0.2279205322265625
21513,-0.1443023681640625,0.960205078125,0.2276611328125
21514,-0.144561767578125,0.9588623046875,0.2278289794921875
21515,-0.145599365234375,0.959136962890625,0.2275848388671875
21516,-0.1453857421875,0.9594879150390624,0.22869873046875
21517,-0.1457061767578125,0.9592437744140624,0.2293701171875
21518,-0.1462249755859375,0.9593353271484376,0.2296905517578125
21519,-0.1451263427734375,0.959136962890625,0.2305450439453125
21520,-0.14447021484375,0.959930419921875,0.22967529296875
21521,-0.144927978515625,0.9590301513671876,0.23065185546875
21522,-0.145050048828125,0.9589385986328124,0.231231689453125
21523,-0.1449432373046875,0.9587554931640624,0.229949951171875
21524,-0.1459503173828125,0.9574432373046876,0.2299652099609375
21525,-0.1458587646484375,0.9572601318359376,0.2313690185546875
21526,-0.1440582275390625,0.958770751953125,0.2310791015625
21527,-0.1446380615234375,0.9590301513671876,0.231658935546875
21528,-0.1455535888671875,0.959625244140625,0.231231689453125
21529,-0.1467437744140625,0.9606781005859376,0.2308807373046875
21530,-0.146728515625,0.9612884521484376,0.230712890625
21531,-0.1471099853515625,0.9600067138671876,0.231658935546875
21532,-0.1478118896484375,0.9580078125,0.232421875
21533,-0.14739990234375,0.9572601318359376,0.2325897216796875
21534,-0.1477203369140625,0.9586029052734376,0.231964111328125
21535,-0.1469268798828125,0.95989990234375,0.2308807373046875
21536,-0.1468048095703125,0.9600372314453124,0.2303466796875
21537,-0.145599365234375,0.96002197265625,0.2310791015625
21538,-0.1450347900390625,0.9599761962890624,0.2318878173828125
21539,-0.14508056640625,0.9595947265625,0.2315826416015625
21540,-0.1451568603515625,0.95892333984375,0.2313690185546875
21541,-0.14569091796875,0.9582366943359376,0.23321533203125
21542,-0.146697998046875,0.9573516845703124,0.23248291015625
21543,-0.147186279296875,0.95709228515625,0.232147216796875
21544,-0.147216796875,0.957733154296875,0.23211669921875
21545,-0.1468048095703125,0.9591522216796876,0.2310333251953125
21546,-0.146942138671875,0.9588623046875,0.23065185546875
21547,-0.146697998046875,0.959075927734375,0.2296905517578125
21548,-0.1466522216796875,0.9592437744140624,0.22967529296875
21549,-0.146087646484375,0.959686279296875,0.22930908203125
21550,-0.1458892822265625,0.9581298828125,0.228179931640625
21551,-0.14508056640625,0.958282470703125,0.2290802001953125
21552,-0.1453399658203125,0.957305908203125,0.23138427734375
21553,-0.1451873779296875,0.9584197998046876,0.230621337890625
21554,-0.1447296142578125,0.958953857421875,0.2301025390625
21555,-0.1435089111328125,0.9583587646484376,0.229583740234375
21556,-0.143310546875,0.95831298828125,0.2303619384765625
21557,-0.14385986328125,0.9572296142578124,0.2308502197265625
21558,-0.1432037353515625,0.95684814453125,0.23052978515625
21559,-0.145111083984375,0.95751953125,0.230133056640625
21560,-0.1449127197265625,0.9585418701171876,0.23052978515625
21561,-0.1449737548828125,0.95941162109375,0.231842041015625
21562,-0.144073486328125,0.9593048095703124,0.2311859130859375
21563,-0.1437530517578125,0.9583740234375,0.2306671142578125
21564,-0.143646240234375,0.958465576171875,0.231109619140625
21565,-0.1428680419921875,0.958160400390625,0.2308502197265625
21566,-0.1431427001953125,0.95831298828125,0.2311248779296875
21567,-0.143035888671875,0.9586334228515624,0.23126220703125
21568,-0.1424560546875,0.9590301513671876,0.2321929931640625
21569,-0.14251708984375,0.9597625732421876,0.232086181640625
21570,-0.1435089111328125,0.9593353271484376,0.23052978515625
21571,-0.14324951171875,0.960052490234375,0.230560302734375
21572,-0.1425628662109375,0.9589080810546876,0.2321014404296875
21573,-0.142242431640625,0.9579620361328124,0.2310943603515625
21574,-0.1417694091796875,0.9578857421875,0.2311859130859375
21575,-0.141632080078125,0.9577789306640624,0.23162841796875
21576,-0.1422119140625,0.9578094482421876,0.231903076171875
21577,-0.142974853515625,0.9585418701171876,0.2308349609375
21578,-0.14300537109375,0.959259033203125,0.231292724609375
21579,-0.1436004638671875,0.95916748046875,0.2325286865234375
21580,-0.143157958984375,0.9599456787109376,0.23248291015625
21581,-0.1421661376953125,0.9591064453125,0.2320098876953125
21582,-0.1422882080078125,0.959747314453125,0.2316436767578125
21583,-0.142486572265625,0.958648681640625,0.2317047119140625
21584,-0.142364501953125,0.958465576171875,0.2312164306640625
21585,-0.1413726806640625,0.9586334228515624,0.231719970703125
21586,-0.1411590576171875,0.958648681640625,0.231109619140625
21587,-0.1403961181640625,0.9583892822265624,0.231231689453125
21588,-0.13885498046875,0.9587554931640624,0.2325286865234375
21589,-0.1380462646484375,0.957977294921875,0.2325439453125
21590,-0.1366424560546875,0.9589385986328124,0.2294921875
21591,-0.1349334716796875,0.96484375,0.2204132080078125
21592,-0.129547119140625,0.9629058837890624,0.2249908447265625
21593,-0.129241943359375,0.9569549560546876,0.22283935546875
21594,-0.12823486328125,0.9522552490234376,0.22528076171875
21595,-0.1267242431640625,0.949951171875,0.225311279296875
21596,-0.123870849609375,0.94940185546875,0.2224884033203125
21597,-0.124267578125,0.9481964111328124,0.2189178466796875
21598,-0.1209869384765625,0.94287109375,0.2175140380859375
21599,-0.120330810546875,0.9388275146484376,0.2169189453125
21600,-0.1222991943359375,0.9353790283203124,0.21331787109375
21601,-0.12762451171875,0.937255859375,0.2141571044921875
21602,-0.1332550048828125,0.940093994140625,0.2179718017578125
21603,-0.1346282958984375,0.9377288818359376,0.2224884033203125
21604,-0.136505126953125,0.9424896240234376,0.2264404296875
21605,-0.13824462890625,0.9484405517578124,0.2305755615234375
21606,-0.140167236328125,0.9571533203125,0.2340240478515625
21607,-0.13775634765625,0.9639129638671876,0.23553466796875
21608,-0.136138916015625,0.97021484375,0.235382080078125
21609,-0.1342620849609375,0.974700927734375,0.23583984375
21610,-0.130126953125,0.9755706787109376,0.2367706298828125
21611,-0.1281585693359375,0.979583740234375,0.237274169921875
21612,-0.1240692138671875,0.97998046875,0.238372802734375
21613,-0.1203765869140625,0.980865478515625,0.2376556396484375
21614,-0.1159210205078125,0.9825286865234376,0.2373504638671875
21615,-0.1122283935546875,0.984619140625,0.2373504638671875
21616,-0.1096038818359375,0.981689453125,0.2359161376953125
21617,-0.107513427734375,0.9749603271484376,0.230865478515625
21618,-0.1061553955078125,0.9692230224609376,0.22857666015625
21619,-0.10546875,0.962066650390625,0.2250213623046875
21620,-0.10491943359375,0.95947265625,0.22027587890625
21621,-0.1049957275390625,0.9591064453125,0.21630859375
21622,-0.106353759765625,0.960540771484375,0.2144317626953125
21623,-0.10675048828125,0.9647369384765624,0.2136688232421875
21624,-0.1065826416015625,0.96905517578125,0.215606689453125
21625,-0.1071624755859375,0.972442626953125,0.217498779296875
21626,-0.107391357421875,0.9756317138671876,0.2206878662109375
21627,-0.1068878173828125,0.97735595703125,0.2204742431640625
21628,-0.1072998046875,0.9774627685546876,0.21923828125
21629,-0.1079559326171875,0.9793243408203124,0.221343994140625
21630,-0.108917236328125,0.97998046875,0.221435546875
21631,-0.1103515625,0.979766845703125,0.218902587890625
21632,-0.1108551025390625,0.9800872802734376,0.216552734375
21633,-0.1123199462890625,0.9789886474609376,0.218017578125
21634,-0.113433837890625,0.9799041748046876,0.2194976806640625
21635,-0.113555908203125,0.980194091796875,0.2182769775390625
21636,-0.1136627197265625,0.9792022705078124,0.2200775146484375
21637,-0.1147308349609375,0.977325439453125,0.2218017578125
21638,-0.1156005859375,0.97467041015625,0.224090576171875
21639,-0.1169891357421875,0.9736175537109376,0.2252960205078125
21640,-0.1183319091796875,0.9721527099609376,0.2255096435546875
21641,-0.1212158203125,0.970794677734375,0.2252349853515625
21642,-0.1236114501953125,0.969512939453125,0.224609375
21643,-0.12432861328125,0.96514892578125,0.2236480712890625
21644,-0.12579345703125,0.961700439453125,0.2207794189453125
21645,-0.127899169921875,0.960723876953125,0.217498779296875
21646,-0.13079833984375,0.95953369140625,0.216888427734375
21647,-0.1336517333984375,0.9574737548828124,0.2161712646484375
21648,-0.13580322265625,0.9568939208984376,0.216705322265625
21649,-0.1369476318359375,0.95751953125,0.2182769775390625
21650,-0.1363677978515625,0.9578094482421876,0.21917724609375
21651,-0.13543701171875,0.957550048828125,0.218292236328125
21652,-0.1346435546875,0.9589080810546876,0.2178497314453125
21653,-0.1346282958984375,0.9613037109375,0.2171173095703125
21654,-0.1354217529296875,0.9629669189453124,0.2177581787109375
21655,-0.1367340087890625,0.9645233154296876,0.22003173828125
21656,-0.1370086669921875,0.9626922607421876,0.2198944091796875
21657,-0.1371002197265625,0.961090087890625,0.218505859375
21658,-0.1363983154296875,0.9586639404296876,0.2166748046875
21659,-0.1367645263671875,0.955108642578125,0.215545654296875
21660,-0.137054443359375,0.9541168212890624,0.21441650390625
21661,-0.1377716064453125,0.95233154296875,0.215179443359375
21662,-0.1392059326171875,0.9521942138671876,0.2163238525390625
21663,-0.140106201171875,0.9526519775390624,0.21807861328125
21664,-0.1404266357421875,0.9544677734375,0.2176666259765625
21665,-0.140472412109375,0.956146240234375,0.2174072265625
21666,-0.141021728515625,0.956939697265625,0.2180023193359375
21667,-0.143280029296875,0.9567108154296876,0.2198944091796875
21668,-0.145538330078125,0.9572601318359376,0.2205657958984375
21669,-0.1470184326171875,0.9587249755859376,0.22222900390625
21670,-0.1479339599609375,0.959808349609375,0.2208709716796875
21671,-0.1508331298828125,0.961151123046875,0.2193756103515625
21672,-0.1493377685546875,0.9620361328125,0.213623046875
21673,-0.150634765625,0.96160888671875,0.2101898193359375
21674,-0.1486968994140625,0.959625244140625,0.2092437744140625
21675,-0.1479949951171875,0.957855224609375,0.209014892578125
21676,-0.148406982421875,0.958984375,0.2091522216796875
21677,-0.149566650390625,0.960906982421875,0.2091064453125
21678,-0.150238037109375,0.9631195068359376,0.207794189453125
21679,-0.151397705078125,0.9646148681640624,0.20623779296875
21680,-0.1522979736328125,0.967254638671875,0.205535888671875
21681,-0.1512298583984375,0.9704437255859376,0.2059326171875
21682,-0.149566650390625,0.97039794921875,0.2093505859375
21683,-0.14935302734375,0.970062255859375,0.21234130859375
21684,-0.1513671875,0.969085693359375,0.2167816162109375
21685,-0.1530609130859375,0.967498779296875,0.2173919677734375
21686,-0.1547088623046875,0.9650115966796876,0.2163848876953125
21687,-0.1551666259765625,0.9635162353515624,0.21722412109375
21688,-0.1559600830078125,0.962554931640625,0.219940185546875
21689,-0.1575164794921875,0.9646148681640624,0.21917724609375
21690,-0.157806396484375,0.9676666259765624,0.2162933349609375
21691,-0.158966064453125,0.9673309326171876,0.2144775390625
21692,-0.160552978515625,0.9684906005859376,0.2089996337890625
21693,-0.16339111328125,0.96826171875,0.2012176513671875
21694,-0.1650238037109375,0.9661865234375,0.1948089599609375
21695,-0.16522216796875,0.964630126953125,0.1885223388671875
21696,-0.168670654296875,0.9623260498046876,0.1851043701171875
21697,-0.1699066162109375,0.9576873779296876,0.1829071044921875
21698,-0.170684814453125,0.955596923828125,0.1822967529296875
21699,-0.1725311279296875,0.954437255859375,0.18328857421875
21700,-0.173980712890625,0.9541473388671876,0.1849822998046875
21701,-0.1726837158203125,0.9540252685546876,0.1853485107421875
21702,-0.17205810546875,0.9564056396484376,0.185760498046875
21703,-0.171478271484375,0.9564208984375,0.185821533203125
21704,-0.1694183349609375,0.958160400390625,0.1865386962890625
21705,-0.1692352294921875,0.9615936279296876,0.1890869140625
21706,-0.16961669921875,0.9623565673828124,0.1915283203125
21707,-0.1687164306640625,0.9629364013671876,0.191558837890625
21708,-0.1677093505859375,0.96319580078125,0.191864013671875
21709,-0.16650390625,0.9628143310546876,0.1946258544921875
21710,-0.1650848388671875,0.963226318359375,0.1942901611328125
21711,-0.16400146484375,0.961181640625,0.19451904296875
21712,-0.164581298828125,0.9597930908203124,0.1927490234375
21713,-0.1635589599609375,0.9578857421875,0.1890411376953125
21714,-0.161224365234375,0.957427978515625,0.186492919921875
21715,-0.1581268310546875,0.9559326171875,0.1854248046875
21716,-0.1551055908203125,0.95556640625,0.18438720703125
21717,-0.1520233154296875,0.9542083740234376,0.18475341796875
21718,-0.150848388671875,0.95452880859375,0.1868133544921875
21719,-0.14984130859375,0.9566497802734376,0.18743896484375
21720,-0.1497955322265625,0.960235595703125,0.1881103515625
21721,-0.150787353515625,0.9642333984375,0.187957763671875
21722,-0.151153564453125,0.9672393798828124,0.1878814697265625
21723,-0.15240478515625,0.970794677734375,0.1862945556640625
21724,-0.153411865234375,0.97369384765625,0.186370849609375
21725,-0.1553802490234375,0.9730987548828124,0.184539794921875
21726,-0.155303955078125,0.9738311767578124,0.1816253662109375
21727,-0.1533966064453125,0.9735565185546876,0.1789703369140625
21728,-0.1524200439453125,0.9725494384765624,0.1768646240234375
21729,-0.150787353515625,0.97113037109375,0.1757354736328125
21730,-0.1479949951171875,0.9693603515625,0.1746673583984375
21731,-0.1433563232421875,0.9681854248046876,0.1752471923828125
21732,-0.138275146484375,0.9679107666015624,0.172576904296875
21733,-0.132904052734375,0.9669342041015624,0.171356201171875
21734,-0.126800537109375,0.9669647216796876,0.170989990234375
21735,-0.12274169921875,0.96728515625,0.1721649169921875
21736,-0.1178436279296875,0.9677276611328124,0.1735076904296875
21737,-0.1146697998046875,0.971282958984375,0.1735687255859375
21738,-0.1106109619140625,0.9741973876953124,0.1712188720703125
21739,-0.10589599609375,0.9775238037109376,0.1683807373046875
21740,-0.1028289794921875,0.977935791015625,0.1663970947265625
21741,-0.1019744873046875,0.97320556640625,0.1638641357421875
21742,-0.1031341552734375,0.9669342041015624,0.161224365234375
21743,-0.1052093505859375,0.961029052734375,0.1588897705078125
21744,-0.1058197021484375,0.9561767578125,0.1571807861328125
21745,-0.1082000732421875,0.953125,0.1557769775390625
21746,-0.10992431640625,0.9520416259765624,0.15283203125
21747,-0.1082000732421875,0.9517669677734376,0.1511077880859375
21748,-0.1077423095703125,0.952239990234375,0.1492462158203125
21749,-0.1062469482421875,0.95330810546875,0.151214599609375
21750,-0.1057586669921875,0.955291748046875,0.1591339111328125
21751,-0.1040802001953125,0.9587554931640624,0.1647186279296875
21752,-0.1006011962890625,0.9634857177734376,0.1686859130859375
21753,-0.097503662109375,0.9711456298828124,0.173736572265625
21754,-0.0973663330078125,0.9775543212890624,0.1752777099609375
21755,-0.095489501953125,0.9877166748046876,0.1721954345703125
21756,-0.0906524658203125,1.000091552734375,0.168182373046875
21757,-0.086822509765625,1.005966186523438,0.1665802001953125
21758,-0.0838165283203125,1.009765625,0.16900634765625
21759,-0.083038330078125,1.00848388671875,0.173553466796875
21760,-0.082427978515625,1.008041381835938,0.1790313720703125
21761,-0.082489013671875,1.004043579101562,0.1881866455078125
21762,-0.0845489501953125,0.994293212890625,0.19708251953125
21763,-0.084197998046875,0.98785400390625,0.20379638671875
21764,-0.082061767578125,0.98095703125,0.21484375
21765,-0.0836334228515625,0.9809417724609376,0.2303314208984375
21766,-0.085296630859375,0.97967529296875,0.24908447265625
21767,-0.089508056640625,0.9795074462890624,0.2626495361328125
21768,-0.0950469970703125,0.98553466796875,0.2708892822265625
21769,-0.09765625,0.9925537109375,0.2751007080078125
21770,-0.098846435546875,1.000701904296875,0.27886962890625
21771,-0.097259521484375,1.006683349609375,0.2794647216796875
21772,-0.09771728515625,1.01263427734375,0.2786102294921875
21773,-0.0955352783203125,1.016067504882812,0.275787353515625
21774,-0.09100341796875,1.020675659179688,0.2710723876953125
21775,-0.0868682861328125,1.027572631835938,0.2635345458984375
21776,-0.07501220703125,1.024688720703125,0.252777099609375
21777,-0.066802978515625,1.021026611328125,0.2398681640625
21778,-0.0575103759765625,1.010360717773438,0.2345428466796875
21779,-0.0521240234375,0.9932098388671876,0.231903076171875
21780,-0.0506591796875,0.977203369140625,0.230224609375
21781,-0.0480194091796875,0.961700439453125,0.227081298828125
21782,-0.0471038818359375,0.951904296875,0.2203369140625
21783,-0.0435028076171875,0.9447174072265624,0.2154083251953125
21784,-0.0357208251953125,0.93804931640625,0.208709716796875
21785,-0.0258026123046875,0.9343414306640624,0.2015380859375
21786,-0.01885986328125,0.931671142578125,0.199798583984375
21787,-0.0133819580078125,0.93218994140625,0.196075439453125
21788,-0.013427734375,0.9346923828125,0.195343017578125
21789,-0.0110015869140625,0.940673828125,0.194854736328125
21790,-0.0134124755859375,0.9423828125,0.1959686279296875
21791,-0.01824951171875,0.944671630859375,0.192626953125
21792,-0.0252685546875,0.9514312744140624,0.190216064453125
21793,-0.0285186767578125,0.9603729248046876,0.192352294921875
21794,-0.031402587890625,0.96734619140625,0.199310302734375
21795,-0.038543701171875,0.9678192138671876,0.2083892822265625
21796,-0.046966552734375,0.9693450927734376,0.215728759765625
21797,-0.055145263671875,0.969879150390625,0.2231597900390625
21798,-0.061737060546875,0.96807861328125,0.2274017333984375
21799,-0.0664520263671875,0.963348388671875,0.231964111328125
21800,-0.0690460205078125,0.96136474609375,0.233642578125
21801,-0.069610595703125,0.9586639404296876,0.234161376953125
21802,-0.0724945068359375,0.95269775390625,0.2333984375
21803,-0.07403564453125,0.943695068359375,0.2350006103515625
21804,-0.077239990234375,0.93701171875,0.241058349609375
21805,-0.0792694091796875,0.93377685546875,0.2449188232421875
21806,-0.0806884765625,0.93316650390625,0.2459869384765625
21807,-0.0824432373046875,0.9319915771484376,0.2447967529296875
21808,-0.0847320556640625,0.9315338134765624,0.244964599609375
21809,-0.0856475830078125,0.9332275390625,0.2469024658203125
21810,-0.0837249755859375,0.93829345703125,0.2510223388671875
21811,-0.0802001953125,0.944244384765625,0.2580108642578125
21812,-0.0757904052734375,0.95062255859375,0.2613372802734375
21813,-0.0730438232421875,0.9545745849609376,0.26177978515625
21814,-0.077880859375,0.9554443359375,0.2621917724609375
21815,-0.0852508544921875,0.9566192626953124,0.2635498046875
21816,-0.0926666259765625,0.9595947265625,0.265625
21817,-0.097015380859375,0.9673919677734376,0.2712249755859375
21818,-0.0989227294921875,0.9754791259765624,0.2801971435546875
21819,-0.0965423583984375,0.9848480224609376,0.28680419921875
21820,-0.095367431640625,0.9894561767578124,0.2950592041015625
21821,-0.0971527099609375,0.9844818115234376,0.3062286376953125
21822,-0.09869384765625,0.978851318359375,0.3135223388671875
21823,-0.094970703125,0.983978271484375,0.3027801513671875
21824,-0.0834503173828125,1.003005981445312,0.27099609375
21825,-0.0623016357421875,1.0205078125,0.2407073974609375
21826,-0.0412445068359375,1.034255981445312,0.228973388671875
21827,-0.0343475341796875,1.046630859375,0.2346954345703125
21828,-0.0339813232421875,1.051925659179688,0.2488250732421875
21829,-0.0418701171875,1.043548583984375,0.2461395263671875
21830,-0.050506591796875,1.022079467773438,0.228179931640625
21831,-0.0498504638671875,0.9961395263671876,0.2167205810546875
21832,-0.0512542724609375,0.9705657958984376,0.2211456298828125
21833,-0.0558624267578125,0.9515228271484376,0.240142822265625
21834,-0.0623931884765625,0.93670654296875,0.2589874267578125
21835,-0.0679473876953125,0.9304351806640624,0.266937255859375
21836,-0.0715179443359375,0.9332427978515624,0.2697296142578125
21837,-0.0760345458984375,0.946380615234375,0.2727813720703125
21838,-0.077117919921875,0.964752197265625,0.2725982666015625
21839,-0.0755157470703125,0.98687744140625,0.2695770263671875
21840,-0.078887939453125,1.007431030273438,0.2689056396484375
21841,-0.080169677734375,1.021621704101562,0.2708740234375
21842,-0.08245849609375,1.031265258789062,0.2729644775390625
21843,-0.0841522216796875,1.032730102539062,0.268646240234375
21844,-0.0863494873046875,1.026473999023438,0.26324462890625
21845,-0.0902099609375,1.014434814453125,0.2544403076171875
21846,-0.0960845947265625,0.995086669921875,0.2469940185546875
21847,-0.096160888671875,0.9799652099609376,0.2396392822265625
21848,-0.0947418212890625,0.9677581787109376,0.2328338623046875
21849,-0.093536376953125,0.95452880859375,0.231170654296875
21850,-0.089569091796875,0.94854736328125,0.2265472412109375
21851,-0.08209228515625,0.9429931640625,0.2220001220703125
21852,-0.07769775390625,0.940032958984375,0.217193603515625
21853,-0.074493408203125,0.936279296875,0.2132415771484375
21854,-0.070831298828125,0.9321441650390624,0.2117462158203125
21855,-0.0645599365234375,0.9321441650390624,0.2115020751953125
21856,-0.0583648681640625,0.9363250732421876,0.21173095703125
21857,-0.051727294921875,0.93646240234375,0.214874267578125
21858,-0.0501556396484375,0.933013916015625,0.2205047607421875
21859,-0.0500335693359375,0.9307861328125,0.22454833984375
21860,-0.04931640625,0.9291839599609376,0.2291259765625
21861,-0.0486297607421875,0.9317626953125,0.2306976318359375
21862,-0.0491485595703125,0.9363861083984376,0.2301025390625
21863,-0.0501556396484375,0.9404754638671876,0.22833251953125
21864,-0.05560302734375,0.944976806640625,0.2328948974609375
21865,-0.065460205078125,0.947998046875,0.2404632568359375
21866,-0.07330322265625,0.9488372802734376,0.246856689453125
21867,-0.077667236328125,0.94671630859375,0.2462310791015625
21868,-0.0816497802734375,0.940948486328125,0.2429046630859375
21869,-0.085205078125,0.9322967529296876,0.2368621826171875
21870,-0.088104248046875,0.92626953125,0.2299346923828125
21871,-0.088775634765625,0.9225311279296876,0.2247161865234375
21872,-0.0946807861328125,0.9215850830078124,0.2294158935546875
21873,-0.100494384765625,0.923187255859375,0.232391357421875
21874,-0.1084442138671875,0.9239349365234376,0.228485107421875
21875,-0.1149139404296875,0.9257965087890624,0.2212677001953125
21876,-0.12261962890625,0.928131103515625,0.2178955078125
21877,-0.1310577392578125,0.9335784912109376,0.2184600830078125
21878,-0.137725830078125,0.9446258544921876,0.2224273681640625
21879,-0.1399993896484375,0.95550537109375,0.2270660400390625
21880,-0.142791748046875,0.9672698974609376,0.229339599609375
21881,-0.1439971923828125,0.976470947265625,0.2318267822265625
21882,-0.1443939208984375,0.98785400390625,0.234619140625
21883,-0.1454315185546875,0.996795654296875,0.24017333984375
21884,-0.1478118896484375,1.000396728515625,0.2415771484375
21885,-0.151336669921875,1.003890991210938,0.2444610595703125
21886,-0.152801513671875,1.005905151367188,0.2494964599609375
21887,-0.1513824462890625,1.00445556640625,0.2544097900390625
21888,-0.147186279296875,1.002609252929688,0.2572784423828125
21889,-0.1470489501953125,0.9943695068359376,0.2621917724609375
21890,-0.1494598388671875,0.983306884765625,0.2693634033203125
21891,-0.151519775390625,0.9691925048828124,0.2761383056640625
21892,-0.1534423828125,0.9529266357421876,0.279144287109375
21893,-0.1489715576171875,0.938812255859375,0.2701568603515625
21894,-0.1464080810546875,0.93011474609375,0.259033203125
21895,-0.145538330078125,0.9245758056640624,0.2496490478515625
21896,-0.1474609375,0.92230224609375,0.2490234375
21897,-0.1511688232421875,0.92181396484375,0.253448486328125
21898,-0.155853271484375,0.9223785400390624,0.2562408447265625
21899,-0.1603240966796875,0.923431396484375,0.260406494140625
21900,-0.162872314453125,0.9316253662109376,0.2631988525390625
21901,-0.16400146484375,0.9391632080078124,0.26922607421875
21902,-0.16339111328125,0.9471435546875,0.2703399658203125
21903,-0.1643829345703125,0.9519195556640624,0.2714385986328125
21904,-0.167694091796875,0.956207275390625,0.2681121826171875
21905,-0.1694488525390625,0.957305908203125,0.2638092041015625
21906,-0.169921875,0.9556427001953124,0.26416015625
21907,-0.168426513671875,0.952789306640625,0.26141357421875
21908,-0.1656341552734375,0.9493560791015624,0.2588043212890625
21909,-0.16162109375,0.94683837890625,0.2566070556640625
21910,-0.1616973876953125,0.9460601806640624,0.258880615234375
21911,-0.1607818603515625,0.95159912109375,0.260101318359375
21912,-0.1606292724609375,0.9556427001953124,0.2607269287109375
21913,-0.1611480712890625,0.9625091552734376,0.25823974609375
21914,-0.160064697265625,0.9658660888671876,0.2616729736328125
21915,-0.1550750732421875,0.9687042236328124,0.2666015625
21916,-0.1511993408203125,0.9695281982421876,0.271484375
21917,-0.145355224609375,0.9640960693359376,0.272308349609375
21918,-0.140106201171875,0.95513916015625,0.271087646484375
21919,-0.1386871337890625,0.950836181640625,0.2674102783203125
21920,-0.13848876953125,0.9474334716796876,0.266937255859375
21921,-0.140380859375,0.944244384765625,0.269134521484375
21922,-0.1450958251953125,0.94195556640625,0.2737884521484375
21923,-0.1534576416015625,0.94012451171875,0.2777862548828125
21924,-0.16217041015625,0.9384918212890624,0.2778167724609375
21925,-0.168701171875,0.9322509765625,0.2782135009765625
21926,-0.175445556640625,0.92974853515625,0.276763916015625
21927,-0.1791229248046875,0.9294891357421876,0.272613525390625
21928,-0.1810150146484375,0.9289703369140624,0.2723388671875
21929,-0.1824188232421875,0.9298248291015624,0.27081298828125
21930,-0.1828460693359375,0.93450927734375,0.26953125
21931,-0.1826171875,0.94427490234375,0.2675933837890625
21932,-0.1808624267578125,0.9576568603515624,0.2686004638671875
21933,-0.178558349609375,0.9708709716796876,0.2702789306640625
21934,-0.176025390625,0.981536865234375,0.27001953125
21935,-0.17254638671875,0.9905242919921876,0.2748260498046875
21936,-0.167694091796875,0.9951934814453124,0.2858428955078125
21937,-0.16204833984375,0.9951934814453124,0.298309326171875
21938,-0.155303955078125,0.9900054931640624,0.3102264404296875
21939,-0.1480712890625,0.9814300537109376,0.3136749267578125
21940,-0.146331787109375,0.972076416015625,0.30902099609375
21941,-0.15264892578125,0.9616241455078124,0.3010711669921875
21942,-0.159332275390625,0.9500274658203124,0.294036865234375
21943,-0.1649932861328125,0.944976806640625,0.29290771484375
21944,-0.1685791015625,0.946929931640625,0.2944183349609375
21945,-0.169677734375,0.947265625,0.2953033447265625
21946,-0.164703369140625,0.943878173828125,0.2931671142578125
21947,-0.160369873046875,0.9423675537109376,0.285369873046875
21948,-0.15863037109375,0.939697265625,0.2793121337890625
21949,-0.15911865234375,0.9385833740234376,0.2704620361328125
21950,-0.1565399169921875,0.9376678466796876,0.2585296630859375
21951,-0.1534423828125,0.9401702880859376,0.2497100830078125
21952,-0.1493377685546875,0.941436767578125,0.24835205078125
21953,-0.1416015625,0.9429779052734376,0.2412261962890625
21954,-0.13433837890625,0.94140625,0.2375030517578125
21955,-0.1280975341796875,0.937225341796875,0.2386474609375
21956,-0.12713623046875,0.93212890625,0.23895263671875
21957,-0.1231536865234375,0.9257354736328124,0.2394256591796875
21958,-0.122039794921875,0.9217529296875,0.2483367919921875
21959,-0.123077392578125,0.9194183349609376,0.2597503662109375
21960,-0.121185302734375,0.9197235107421876,0.2644195556640625
21961,-0.1158294677734375,0.9214935302734376,0.268341064453125
21962,-0.1081695556640625,0.924163818359375,0.2708282470703125
21963,-0.1000823974609375,0.9284515380859376,0.27001953125
21964,-0.0962982177734375,0.9350128173828124,0.2631683349609375
