time_idx,accelerometerAccelerationX(G),accelerometerAccelerationY(G),accelerometerAccelerationZ(G)
240000,0.487213134765625,-0.354949951171875,-0.6780242919921875
240001,0.5200042724609375,-0.3981170654296875,-0.686920166015625
240002,0.5447845458984375,-0.4169464111328125,-0.690460205078125
240003,0.5577545166015625,-0.4326019287109375,-0.6921844482421875
240004,0.5636749267578125,-0.448577880859375,-0.7038726806640625
240005,0.57171630859375,-0.447479248046875,-0.7100982666015625
240006,0.5827178955078125,-0.4474334716796875,-0.70367431640625
240007,0.6094207763671875,-0.44476318359375,-0.715545654296875
240008,0.623779296875,-0.4560089111328125,-0.7326812744140625
240009,0.624420166015625,-0.4746551513671875,-0.7550048828125
240010,0.6101226806640625,-0.5010223388671875,-0.767547607421875
240011,0.5763397216796875,-0.5189056396484375,-0.77862548828125
240012,0.535003662109375,-0.5308990478515625,-0.799591064453125
240013,0.4882049560546875,-0.5284881591796875,-0.8428802490234375
240014,0.449951171875,-0.524261474609375,-0.9036102294921876
240015,0.4186859130859375,-0.530120849609375,-0.9591064453125
240016,0.395782470703125,-0.5287017822265625,-1.007339477539062
240017,0.3786468505859375,-0.5198974609375,-1.038925170898438
240018,0.354400634765625,-0.4828338623046875,-1.062271118164062
240019,0.324676513671875,-0.4382476806640625,-1.070419311523438
240020,0.2831268310546875,-0.3820953369140625,-1.052963256835938
240021,0.231536865234375,-0.332427978515625,-1.03375244140625
240022,0.1813812255859375,-0.30877685546875,-1.008926391601562
240023,0.1291351318359375,-0.2906341552734375,-0.987030029296875
240024,0.074127197265625,-0.2638092041015625,-0.9892730712890624
240025,0.032318115234375,-0.2255706787109375,-0.9791412353515624
240026,0.0026092529296875,-0.1938934326171875,-0.9505157470703124
240027,-0.016876220703125,-0.1745758056640625,-0.9017333984375
240028,-0.017303466796875,-0.1620941162109375,-0.9139862060546876
240029,0.0139617919921875,-0.1212615966796875,-0.94110107421875
240030,0.0440216064453125,-0.0908355712890625,-0.9462890625
240031,0.0560150146484375,-0.0966949462890625,-0.9557342529296876
240032,0.0648193359375,-0.1283111572265625,-0.961669921875
240033,0.07958984375,-0.1878814697265625,-0.940032958984375
240034,0.1237335205078125,-0.2408447265625,-0.9653472900390624
240035,0.1987457275390625,-0.3011474609375,-1.00714111328125
240036,0.329132080078125,-0.4228057861328125,-1.009994506835938
240037,0.270416259765625,-0.369659423828125,-1.010177612304688
240038,0.3746795654296875,-0.4586639404296875,-1.005401611328125
240039,0.4039459228515625,-0.4836578369140625,-0.9952850341796876
240040,0.415313720703125,-0.4942474365234375,-0.97808837890625
240041,0.3940582275390625,-0.4980316162109375,-0.9346923828125
240042,0.3494415283203125,-0.4979400634765625,-0.8789215087890625
240043,0.3120269775390625,-0.4809722900390625,-0.84027099609375
240044,0.283905029296875,-0.456634521484375,-0.8253631591796875
240045,0.27349853515625,-0.424224853515625,-0.8287200927734375
240046,0.2807159423828125,-0.4163970947265625,-0.8433990478515625
240047,0.3062286376953125,-0.423828125,-0.8345489501953125
240048,0.3439178466796875,-0.430816650390625,-0.83233642578125
240049,0.4007568359375,-0.4319915771484375,-0.8545379638671875
240050,0.4786834716796875,-0.428070068359375,-0.8764495849609375
240051,0.56573486328125,-0.4439849853515625,-0.8742218017578125
240052,0.656646728515625,-0.466583251953125,-0.8548126220703125
240053,0.7536773681640625,-0.48779296875,-0.828033447265625
240054,0.840850830078125,-0.4871673583984375,-0.7820587158203125
240055,0.9124908447265624,-0.4580078125,-0.72381591796875
240056,0.91351318359375,-0.4285888671875,-0.633880615234375
240057,0.9460601806640624,-0.41552734375,-0.67755126953125
240058,0.8414459228515625,-0.48675537109375,-0.57275390625
240059,0.7794647216796875,-0.531829833984375,-0.56500244140625
240060,0.7199554443359375,-0.564208984375,-0.5914154052734375
240061,0.6569671630859375,-0.5910491943359375,-0.6183624267578125
240062,0.602294921875,-0.5989990234375,-0.6325531005859375
240063,0.562744140625,-0.5639190673828125,-0.6410064697265625
240064,0.5421905517578125,-0.50811767578125,-0.649688720703125
240065,0.53106689453125,-0.4593505859375,-0.6518402099609375
240066,0.513824462890625,-0.4283447265625,-0.6536407470703125
240067,0.4872283935546875,-0.4159088134765625,-0.6576995849609375
240068,0.4576263427734375,-0.4128875732421875,-0.6656951904296875
240069,0.43438720703125,-0.4124298095703125,-0.6718902587890625
240070,0.4274444580078125,-0.4079132080078125,-0.6836090087890625
240071,0.428070068359375,-0.3982391357421875,-0.69671630859375
240072,0.4268798828125,-0.3970794677734375,-0.7070465087890625
240073,0.423980712890625,-0.3998870849609375,-0.72906494140625
240074,0.433319091796875,-0.3941650390625,-0.761749267578125
240075,0.4662322998046875,-0.3753204345703125,-0.79534912109375
240076,0.496337890625,-0.35693359375,-0.8181610107421875
240077,0.5201263427734375,-0.35797119140625,-0.834991455078125
240078,0.54052734375,-0.3354949951171875,-0.8311767578125
240079,0.5335235595703125,-0.2902374267578125,-0.7798004150390625
240080,0.51141357421875,-0.27252197265625,-0.747039794921875
240081,0.4778289794921875,-0.2187347412109375,-0.7292022705078125
240082,0.4381561279296875,-0.1752471923828125,-0.728302001953125
240083,0.401611328125,-0.15631103515625,-0.74652099609375
240084,0.366790771484375,-0.158111572265625,-0.7922210693359375
240085,0.336822509765625,-0.17547607421875,-0.8505401611328125
240086,0.30572509765625,-0.1960601806640625,-0.8978271484375
240087,0.2772674560546875,-0.2202606201171875,-0.9303436279296876
240088,0.2610015869140625,-0.2302703857421875,-0.9683380126953124
240089,0.2429962158203125,-0.22662353515625,-0.99530029296875
240090,0.219451904296875,-0.206634521484375,-0.99285888671875
240091,0.18280029296875,-0.177642822265625,-0.98638916015625
240092,0.130645751953125,-0.153289794921875,-0.9855499267578124
240093,0.06854248046875,-0.1460418701171875,-1.007568359375
240094,0.010406494140625,-0.14727783203125,-1.034576416015625
240095,-0.034088134765625,-0.15753173828125,-1.040054321289062
240096,-0.0628662109375,-0.1930389404296875,-1.02069091796875
240097,-0.0640716552734375,-0.2283477783203125,-0.9899139404296876
240098,-0.0378875732421875,-0.254241943359375,-0.967681884765625
240099,0.0078277587890625,-0.2626800537109375,-0.96063232421875
240100,0.0751953125,-0.2693634033203125,-0.967987060546875
240101,0.1607513427734375,-0.2740478515625,-0.9857940673828124
240102,0.2505645751953125,-0.2883453369140625,-0.9956207275390624
240103,0.3325042724609375,-0.2969207763671875,-0.9943389892578124
240104,0.4134674072265625,-0.2804412841796875,-0.99517822265625
240105,0.5129547119140625,-0.2554779052734375,-0.9820709228515624
240106,0.60943603515625,-0.2267608642578125,-0.9668731689453124
240107,0.6742095947265625,-0.1999969482421875,-0.9512939453125
240108,0.6965179443359375,-0.19146728515625,-0.9303741455078124
240109,0.6773223876953125,-0.2116851806640625,-0.8982086181640625
240110,0.6368865966796875,-0.24468994140625,-0.86785888671875
240111,0.577972412109375,-0.30377197265625,-0.8111419677734375
240112,0.515228271484375,-0.3842926025390625,-0.7522430419921875
240113,0.4644927978515625,-0.4594879150390625,-0.706451416015625
240114,0.43194580078125,-0.52978515625,-0.6979217529296875
240115,0.4173583984375,-0.5851593017578125,-0.74505615234375
240116,0.412139892578125,-0.6205291748046875,-0.808624267578125
240117,0.4216461181640625,-0.6392822265625,-0.8731842041015625
240118,0.435455322265625,-0.642578125,-0.9114532470703124
240119,0.4491424560546875,-0.6358795166015625,-0.915191650390625
240120,0.45111083984375,-0.61053466796875,-0.8855133056640625
240121,0.4407196044921875,-0.5759124755859375,-0.8450927734375
240122,0.4346160888671875,-0.5406341552734375,-0.821502685546875
240123,0.4341278076171875,-0.517730712890625,-0.8017730712890625
240124,0.4426727294921875,-0.5055389404296875,-0.7718505859375
240125,0.462677001953125,-0.4931182861328125,-0.7291717529296875
240126,0.4724884033203125,-0.4814910888671875,-0.6589202880859375
240127,0.4600372314453125,-0.457794189453125,-0.5872039794921875
240128,0.42071533203125,-0.426544189453125,-0.5499420166015625
240129,0.3879852294921875,-0.3968658447265625,-0.5535888671875
240130,0.3975372314453125,-0.3692779541015625,-0.5786895751953125
240131,0.446136474609375,-0.343841552734375,-0.608489990234375
240132,0.5118408203125,-0.33349609375,-0.6311798095703125
240133,0.568511962890625,-0.33782958984375,-0.6409759521484375
240134,0.594757080078125,-0.337921142578125,-0.6430511474609375
240135,0.598663330078125,-0.3413543701171875,-0.6502227783203125
240136,0.59259033203125,-0.3481903076171875,-0.667816162109375
240137,0.5877532958984375,-0.3552703857421875,-0.687591552734375
240138,0.5897369384765625,-0.36700439453125,-0.6925201416015625
240139,0.6026458740234375,-0.384796142578125,-0.6885833740234375
240140,0.6236419677734375,-0.4054718017578125,-0.7012481689453125
240141,0.6280517578125,-0.4488525390625,-0.732025146484375
240142,0.6004638671875,-0.489776611328125,-0.745361328125
240143,0.5601348876953125,-0.5029296875,-0.76324462890625
240144,0.5149383544921875,-0.514434814453125,-0.787933349609375
240145,0.470672607421875,-0.5090789794921875,-0.8142547607421875
240146,0.4305572509765625,-0.5159454345703125,-0.861236572265625
240147,0.406829833984375,-0.510528564453125,-0.9208984375
240148,0.3916015625,-0.5069580078125,-0.97686767578125
240149,0.3871307373046875,-0.46844482421875,-1.019363403320312
240150,0.3632049560546875,-0.4498138427734375,-1.046478271484375
240151,0.3360137939453125,-0.4148406982421875,-1.042404174804688
240152,0.2942962646484375,-0.383636474609375,-1.027969360351562
240153,0.2570343017578125,-0.34503173828125,-1.024642944335938
240154,0.2042236328125,-0.3307342529296875,-1.007003784179688
240155,0.151031494140625,-0.32806396484375,-1.006484985351562
240156,0.11053466796875,-0.31103515625,-1.016387939453125
240157,0.0688323974609375,-0.295928955078125,-1.022552490234375
240158,0.0328521728515625,-0.2793426513671875,-1.038421630859375
240159,0.005035400390625,-0.2560577392578125,-1.036422729492188
240160,-0.004791259765625,-0.224151611328125,-1.008056640625
240161,-0.0057830810546875,-0.1957244873046875,-0.9605712890625
240162,-0.00360107421875,-0.1706085205078125,-0.923614501953125
240163,-0.0023040771484375,-0.1490325927734375,-0.9253997802734376
240164,-0.0011138916015625,-0.1367645263671875,-0.959197998046875
240165,0.0189971923828125,-0.144744873046875,-0.9887847900390624
240166,0.0571441650390625,-0.17742919921875,-1.011611938476562
240167,0.1170501708984375,-0.2246856689453125,-1.0333251953125
240168,0.1925811767578125,-0.2763824462890625,-1.049896240234375
240169,0.2774810791015625,-0.325836181640625,-1.048538208007812
240170,0.3488311767578125,-0.396331787109375,-1.019302368164062
240171,0.40087890625,-0.460174560546875,-1.005142211914062
240172,0.42279052734375,-0.4914398193359375,-0.9969940185546876
240173,0.421875,-0.503631591796875,-0.9733734130859376
240174,0.39910888671875,-0.508697509765625,-0.9245147705078124
240175,0.3492889404296875,-0.4964141845703125,-0.8544921875
240176,0.2924346923828125,-0.4672698974609375,-0.8164825439453125
240177,0.26556396484375,-0.4213409423828125,-0.8295745849609375
240178,0.263641357421875,-0.400299072265625,-0.834014892578125
240179,0.269561767578125,-0.420806884765625,-0.783782958984375
240180,0.2737579345703125,-0.4412841796875,-0.7473297119140625
240181,0.3037567138671875,-0.45074462890625,-0.764312744140625
240182,0.35235595703125,-0.449371337890625,-0.8162384033203125
240183,0.4300079345703125,-0.428802490234375,-0.8775634765625
240184,0.5403594970703125,-0.4149322509765625,-0.9124755859375
240185,0.647979736328125,-0.42742919921875,-0.9117889404296876
240186,0.7382354736328125,-0.43804931640625,-0.872100830078125
240187,0.8006439208984375,-0.4495697021484375,-0.829833984375
240188,0.8454437255859375,-0.4473419189453125,-0.711395263671875
240189,0.845458984375,-0.44976806640625,-0.781005859375
240190,0.803924560546875,-0.4569091796875,-0.6518402099609375
240191,0.75537109375,-0.47991943359375,-0.6414947509765625
240192,0.6938323974609375,-0.5167083740234375,-0.652862548828125
240193,0.634002685546875,-0.554229736328125,-0.6826629638671875
240194,0.590728759765625,-0.5723876953125,-0.715179443359375
240195,0.5630950927734375,-0.569915771484375,-0.733367919921875
240196,0.5543212890625,-0.4977874755859375,-0.7316436767578125
240197,0.5506134033203125,-0.54705810546875,-0.7375030517578125
240198,0.568084716796875,-0.4451141357421875,-0.724609375
240199,0.57568359375,-0.41314697265625,-0.718170166015625
240200,0.5720062255859375,-0.4041748046875,-0.7050628662109375
240201,0.56219482421875,-0.392425537109375,-0.6864013671875
240202,0.5477752685546875,-0.37744140625,-0.6736907958984375
240203,0.53778076171875,-0.3697662353515625,-0.6674041748046875
240204,0.53271484375,-0.3610382080078125,-0.6552886962890625
240205,0.5260009765625,-0.3505706787109375,-0.6451263427734375
240206,0.514251708984375,-0.348175048828125,-0.646484375
240207,0.5074920654296875,-0.342437744140625,-0.6687774658203125
240208,0.51885986328125,-0.3462066650390625,-0.7096405029296875
240209,0.540679931640625,-0.3345794677734375,-0.75042724609375
240210,0.5404510498046875,-0.30975341796875,-0.72515869140625
240211,0.52227783203125,-0.30517578125,-0.69287109375
240212,0.5089111328125,-0.2981414794921875,-0.686767578125
240213,0.4940032958984375,-0.2887115478515625,-0.6978302001953125
240214,0.4720458984375,-0.2611083984375,-0.7361907958984375
240215,0.44921875,-0.2079315185546875,-0.8177947998046875
240216,0.439666748046875,-0.19171142578125,-0.912353515625
240217,0.46417236328125,-0.2257080078125,-0.940887451171875
240218,0.470123291015625,-0.244476318359375,-0.8697967529296875
240219,0.427581787109375,-0.1914825439453125,-0.934539794921875
240220,0.389251708984375,-0.109130859375,-1.302459716796875
240221,0.3979034423828125,-0.09344482421875,-1.142379760742188
240222,0.3208465576171875,-0.0626983642578125,-0.772796630859375
240223,0.1663360595703125,-0.083221435546875,-0.6491546630859375
240224,0.0193023681640625,-0.111175537109375,-0.759124755859375
240225,-0.077056884765625,-0.1123199462890625,-1.026412963867188
240226,-0.112579345703125,-0.0794830322265625,-1.1805419921875
240227,-0.113037109375,-0.0520477294921875,-1.184646606445312
240228,-0.1172637939453125,-0.0552825927734375,-1.05181884765625
240229,-0.1279754638671875,-0.0761260986328125,-0.892425537109375
240230,-0.1335296630859375,-0.081329345703125,-0.800933837890625
240231,-0.1002349853515625,-0.0510711669921875,-0.810272216796875
240232,-0.040740966796875,-0.045166015625,-0.8719024658203125
240233,0.02490234375,-0.0679473876953125,-0.8919677734375
240234,0.0915374755859375,-0.081756591796875,-0.9088897705078124
240235,0.154632568359375,-0.094635009765625,-0.942352294921875
240236,0.234130859375,-0.1381378173828125,-0.97918701171875
240237,0.3301239013671875,-0.1927490234375,-1.040023803710938
240238,0.4437255859375,-0.23297119140625,-1.094818115234375
240239,0.577392578125,-0.2412109375,-1.105239868164062
240240,0.707244873046875,-0.235107421875,-1.053421020507812
240241,0.795257568359375,-0.22064208984375,-0.963775634765625
240242,0.8206024169921875,-0.2180633544921875,-0.8597412109375
240243,0.773834228515625,-0.2498321533203125,-0.780975341796875
240244,0.6985321044921875,-0.32330322265625,-0.801361083984375
240245,0.6209869384765625,-0.394439697265625,-0.9016571044921876
240246,0.5446929931640625,-0.4598388671875,-0.9974212646484376
240247,0.478424072265625,-0.526123046875,-1.052139282226562
240248,0.42901611328125,-0.576446533203125,-1.05987548828125
240249,0.4011383056640625,-0.6053314208984375,-1.033370971679688
240250,0.3946380615234375,-0.6209869384765625,-0.9615020751953124
240251,0.40435791015625,-0.6365814208984375,-0.86151123046875
240252,0.4169158935546875,-0.644775390625,-0.774078369140625
240253,0.4265594482421875,-0.617462158203125,-0.712127685546875
240254,0.4404296875,-0.5571136474609375,-0.6929779052734375
240255,0.466644287109375,-0.4929656982421875,-0.7198944091796875
240256,0.4970550537109375,-0.4483184814453125,-0.725250244140625
240257,0.5406036376953125,-0.419097900390625,-0.6959686279296875
240258,0.581695556640625,-0.3957977294921875,-0.6480255126953125
240259,0.608489990234375,-0.3734893798828125,-0.6092529296875
240260,0.6013031005859375,-0.3533477783203125,-0.5773162841796875
240261,0.5600738525390625,-0.3389739990234375,-0.5728759765625
240262,0.517730712890625,-0.3187713623046875,-0.5941925048828125
240263,0.490264892578125,-0.304107666015625,-0.61553955078125
240264,0.4825897216796875,-0.311309814453125,-0.634857177734375
240265,0.4903106689453125,-0.33197021484375,-0.6563873291015625
240266,0.513092041015625,-0.3640289306640625,-0.6753387451171875
240267,0.540283203125,-0.39129638671875,-0.6640777587890625
240268,0.5552520751953125,-0.398956298828125,-0.6501617431640625
240269,0.5690155029296875,-0.3937530517578125,-0.6563568115234375
240270,0.5911102294921875,-0.37115478515625,-0.68780517578125
240271,0.61883544921875,-0.3357391357421875,-0.7208404541015625
240272,0.6388092041015625,-0.3217620849609375,-0.7392425537109375
240273,0.6474456787109375,-0.3301239013671875,-0.7407379150390625
240274,0.6472015380859375,-0.3496856689453125,-0.753936767578125
240275,0.6208343505859375,-0.3914642333984375,-0.7738189697265625
240276,0.5770111083984375,-0.4325408935546875,-0.79278564453125
240277,0.534881591796875,-0.46331787109375,-0.81158447265625
240278,0.4817962646484375,-0.4905548095703125,-0.8388671875
240279,0.43408203125,-0.50775146484375,-0.8792266845703125
240280,0.3989715576171875,-0.4987030029296875,-0.919677734375
240281,0.3635711669921875,-0.483154296875,-0.951873779296875
240282,0.3332977294921875,-0.4615631103515625,-0.9742889404296876
240283,0.3061370849609375,-0.459625244140625,-0.99407958984375
240284,0.2922515869140625,-0.4403839111328125,-1.00067138671875
240285,0.279937744140625,-0.4114532470703125,-0.9918365478515624
240286,0.2515411376953125,-0.38629150390625,-0.9674072265625
240287,0.2125701904296875,-0.345703125,-0.933013916015625
240288,0.1670989990234375,-0.30047607421875,-0.943817138671875
240289,0.1123046875,-0.2664794921875,-0.96343994140625
240290,0.06915283203125,-0.2387237548828125,-0.9816131591796876
240291,0.033050537109375,-0.219085693359375,-0.9972381591796876
240292,0.004608154296875,-0.1966094970703125,-1.0001220703125
240293,-0.005340576171875,-0.16412353515625,-0.9921875
240294,-0.0009613037109375,-0.1331634521484375,-0.981536865234375
240295,0.0102996826171875,-0.1060333251953125,-0.97308349609375
240296,0.0121917724609375,-0.0905609130859375,-0.96624755859375
240297,0.010009765625,-0.0974578857421875,-0.9678955078125
240298,0.02392578125,-0.1214141845703125,-0.9793701171875
240299,0.07513427734375,-0.1631927490234375,-1.000762939453125
240300,0.144287109375,-0.2173309326171875,-1.02191162109375
240301,0.2257537841796875,-0.28692626953125,-1.04937744140625
240302,0.3107452392578125,-0.3631134033203125,-1.060028076171875
240303,0.38641357421875,-0.41973876953125,-1.034286499023438
240304,0.44775390625,-0.4398956298828125,-1.023056030273438
240305,0.48944091796875,-0.4227447509765625,-1.017532348632812
240306,0.50311279296875,-0.409759521484375,-0.9924468994140624
240307,0.468017578125,-0.4118804931640625,-0.9554290771484376
240308,0.3981170654296875,-0.43609619140625,-0.9116973876953124
240309,0.3390960693359375,-0.4556427001953125,-0.8780059814453125
240310,0.3079681396484375,-0.44952392578125,-0.8746490478515625
240311,0.299285888671875,-0.4324188232421875,-0.8812103271484375
240312,0.3045806884765625,-0.419342041015625,-0.89013671875
240313,0.322021484375,-0.41680908203125,-0.8935699462890625
240314,0.3545379638671875,-0.4217071533203125,-0.902191162109375
240315,0.400177001953125,-0.4351806640625,-0.9235076904296876
240316,0.46441650390625,-0.4541473388671875,-0.914581298828125
240317,0.53277587890625,-0.48028564453125,-0.89306640625
240318,0.6062469482421875,-0.5080413818359375,-0.8814544677734375
240319,0.6825408935546875,-0.5186004638671875,-0.865020751953125
240320,0.7628326416015625,-0.499298095703125,-0.821014404296875
240321,0.8350830078125,-0.4527130126953125,-0.7469635009765625
240322,0.8765716552734375,-0.4158477783203125,-0.6456451416015625
240323,0.8713836669921875,-0.4217529296875,-0.564849853515625
240324,0.843414306640625,-0.4337005615234375,-0.5547637939453125
240325,0.802398681640625,-0.437347412109375,-0.592132568359375
240326,0.7483978271484375,-0.4488372802734375,-0.6109771728515625
240327,0.69140625,-0.467803955078125,-0.61236572265625
240328,0.6336669921875,-0.4819488525390625,-0.617645263671875
240329,0.58245849609375,-0.4814910888671875,-0.6307373046875
240330,0.5538177490234375,-0.459808349609375,-0.6549072265625
240331,0.53826904296875,-0.4295196533203125,-0.6756439208984375
240332,0.5173797607421875,-0.416961669921875,-0.6851959228515625
240333,0.489288330078125,-0.414642333984375,-0.693084716796875
240334,0.4598236083984375,-0.4124755859375,-0.693206787109375
240335,0.4327545166015625,-0.41009521484375,-0.6851348876953125
240336,0.424102783203125,-0.40362548828125,-0.68218994140625
240337,0.4281158447265625,-0.38482666015625,-0.6857757568359375
240338,0.4320220947265625,-0.3636932373046875,-0.6969757080078125
240339,0.4417572021484375,-0.3523406982421875,-0.7150421142578125
240340,0.448333740234375,-0.3406524658203125,-0.7372589111328125
240341,0.4647979736328125,-0.32867431640625,-0.7577972412109375
240342,0.484283447265625,-0.3276519775390625,-0.7616119384765625
240343,0.500091552734375,-0.332855224609375,-0.751251220703125
240344,0.4976959228515625,-0.33856201171875,-0.7378387451171875
240345,0.4825592041015625,-0.319580078125,-0.72650146484375
240346,0.4698638916015625,-0.2819671630859375,-0.718902587890625
240347,0.4546356201171875,-0.2481231689453125,-0.710205078125
240348,0.433197021484375,-0.2100372314453125,-0.7151641845703125
240349,0.4097747802734375,-0.1759185791015625,-0.7498016357421875
240350,0.3839111328125,-0.1630859375,-0.8009033203125
240351,0.3626861572265625,-0.166595458984375,-0.85821533203125
240352,0.3442535400390625,-0.174591064453125,-0.9084625244140624
240353,0.3145294189453125,-0.196746826171875,-0.9385833740234376
240354,0.286468505859375,-0.210723876953125,-0.9527130126953124
240355,0.2413787841796875,-0.22589111328125,-0.958984375
240356,0.1960906982421875,-0.232696533203125,-0.9767303466796876
240357,0.15167236328125,-0.22564697265625,-0.9986419677734376
240358,0.1092987060546875,-0.20556640625,-1.015838623046875
240359,0.079742431640625,-0.166259765625,-1.016799926757812
240360,0.057159423828125,-0.113525390625,-1.0235595703125
240361,0.015960693359375,-0.085968017578125,-1.035888671875
240362,-0.031036376953125,-0.088470458984375,-1.044921875
240363,-0.064788818359375,-0.1135101318359375,-1.050338745117188
240364,-0.0804595947265625,-0.1621856689453125,-1.058486938476562
240365,-0.0674285888671875,-0.2150726318359375,-1.065475463867188
240366,-0.014495849609375,-0.23492431640625,-1.078781127929688
240367,0.0612945556640625,-0.253662109375,-1.10614013671875
240368,0.152862548828125,-0.2943267822265625,-1.136260986328125
240369,0.245025634765625,-0.3289337158203125,-1.151779174804688
240370,0.32427978515625,-0.340850830078125,-1.141891479492188
240371,0.40509033203125,-0.3264617919921875,-1.117095947265625
240372,0.4893341064453125,-0.302093505859375,-1.091262817382812
240373,0.5711212158203125,-0.2703857421875,-1.066741943359375
240374,0.6329498291015625,-0.243988037109375,-1.030853271484375
240375,0.6631317138671875,-0.2379150390625,-0.9749755859375
240376,0.6568145751953125,-0.251617431640625,-0.9141693115234376
240377,0.6211700439453125,-0.2953033447265625,-0.857147216796875
240378,0.56683349609375,-0.3515472412109375,-0.790496826171875
240379,0.517547607421875,-0.4029388427734375,-0.7352752685546875
240380,0.4827880859375,-0.4378814697265625,-0.701141357421875
240381,0.4563140869140625,-0.4773101806640625,-0.69366455078125
240382,0.4385986328125,-0.5088653564453125,-0.7136077880859375
240383,0.4325714111328125,-0.5271453857421875,-0.743560791015625
240384,0.4360198974609375,-0.542816162109375,-0.7766876220703125
240385,0.446533203125,-0.544891357421875,-0.8009185791015625
240386,0.4642791748046875,-0.5266571044921875,-0.79718017578125
240387,0.4839324951171875,-0.5059661865234375,-0.7841644287109375
240388,0.4991455078125,-0.4882354736328125,-0.7675018310546875
240389,0.5179595947265625,-0.478057861328125,-0.7364501953125
240390,0.5374298095703125,-0.477020263671875,-0.6930084228515625
240391,0.5564727783203125,-0.4755401611328125,-0.65185546875
240392,0.560699462890625,-0.4677734375,-0.607177734375
240393,0.5339508056640625,-0.4525604248046875,-0.5582122802734375
240394,0.4863128662109375,-0.4311676025390625,-0.5294036865234375
240395,0.4461822509765625,-0.3936004638671875,-0.5329437255859375
240396,0.4351806640625,-0.3533477783203125,-0.5727691650390625
240397,0.45611572265625,-0.3226165771484375,-0.621063232421875
240398,0.4945831298828125,-0.3061981201171875,-0.656890869140625
240399,0.5427703857421875,-0.31658935546875,-0.662811279296875
240400,0.5802154541015625,-0.3462677001953125,-0.6412811279296875
240401,0.595672607421875,-0.3690643310546875,-0.6247100830078125
240402,0.602569580078125,-0.3725738525390625,-0.6332855224609375
240403,0.610107421875,-0.368011474609375,-0.6608123779296875
240404,0.619415283203125,-0.3615264892578125,-0.6799468994140625
240405,0.6299591064453125,-0.3658294677734375,-0.67755126953125
240406,0.6401214599609375,-0.3784027099609375,-0.675872802734375
240407,0.6428985595703125,-0.406707763671875,-0.6774444580078125
240408,0.63397216796875,-0.441070556640625,-0.7056732177734375
240409,0.5975494384765625,-0.4575042724609375,-0.7670745849609375
240410,0.5359954833984375,-0.4691314697265625,-0.826873779296875
240411,0.4682464599609375,-0.50164794921875,-0.8892974853515625
240412,0.410003662109375,-0.5111236572265625,-0.9371490478515624
240413,0.37689208984375,-0.498321533203125,-0.9535064697265624
240414,0.3582000732421875,-0.5054779052734375,-0.98968505859375
240415,0.3453216552734375,-0.4901275634765625,-1.020843505859375
240416,0.3328399658203125,-0.480865478515625,-1.039810180664062
240417,0.3207550048828125,-0.4501800537109375,-1.041824340820312
240418,0.295928955078125,-0.418212890625,-1.049514770507812
240419,0.2470855712890625,-0.38958740234375,-1.048568725585938
240420,0.194488525390625,-0.361083984375,-1.05560302734375
240421,0.133087158203125,-0.33563232421875,-1.065155029296875
240422,0.0716705322265625,-0.316925048828125,-1.06890869140625
240423,0.0216064453125,-0.290252685546875,-1.072921752929688
240424,-0.0141754150390625,-0.2602691650390625,-1.062423706054688
240425,-0.0427703857421875,-0.235748291015625,-1.026123046875
240426,-0.050506591796875,-0.1966552734375,-0.9826812744140624
240427,-0.0432891845703125,-0.16070556640625,-0.9532928466796876
240428,-0.0360107421875,-0.147552490234375,-0.9369964599609376
240429,-0.0284881591796875,-0.1502838134765625,-0.930084228515625
240430,-0.0088043212890625,-0.17364501953125,-0.93829345703125
240431,0.0379638671875,-0.209259033203125,-0.954498291015625
240432,0.10980224609375,-0.2497406005859375,-0.986541748046875
240433,0.1864776611328125,-0.303375244140625,-1.026138305664062
240434,0.257843017578125,-0.35986328125,-1.072586059570312
240435,0.3268585205078125,-0.4263763427734375,-1.089614868164062
240436,0.3815460205078125,-0.4795074462890625,-1.076904296875
240437,0.414337158203125,-0.518218994140625,-1.0426025390625
240438,0.4330902099609375,-0.5135040283203125,-1.017578125
240439,0.41180419921875,-0.514068603515625,-1.001144409179688
240440,0.354400634765625,-0.5089263916015625,-0.942962646484375
240441,0.283905029296875,-0.4949493408203125,-0.8652801513671875
240442,0.2335205078125,-0.4664154052734375,-0.832733154296875
240443,0.2332305908203125,-0.448150634765625,-0.8213043212890625
240444,0.2393951416015625,-0.472076416015625,-0.77899169921875
240445,0.2470855712890625,-0.5128326416015625,-0.733245849609375
240446,0.28570556640625,-0.528076171875,-0.7277984619140625
240447,0.3466033935546875,-0.5193939208984375,-0.7635498046875
240448,0.43798828125,-0.4885101318359375,-0.8255157470703125
240449,0.5604248046875,-0.46881103515625,-0.8658294677734375
240450,0.682586669921875,-0.4794158935546875,-0.8513641357421875
240451,0.7859954833984375,-0.50384521484375,-0.8099365234375
240452,0.862060546875,-0.50909423828125,-0.756378173828125
240453,0.9094390869140624,-0.4735260009765625,-0.70452880859375
240454,0.914764404296875,-0.4235076904296875,-0.634033203125
240455,0.8767852783203125,-0.4141998291015625,-0.5399017333984375
240456,0.807281494140625,-0.4391326904296875,-0.4912872314453125
240457,0.722320556640625,-0.488037109375,-0.5016937255859375
240458,0.6448822021484375,-0.54107666015625,-0.5560455322265625
240459,0.5860595703125,-0.5870361328125,-0.62890625
240460,0.552215576171875,-0.60333251953125,-0.6939849853515625
240461,0.53509521484375,-0.5880279541015625,-0.735626220703125
240462,0.53594970703125,-0.548736572265625,-0.754364013671875
240463,0.54754638671875,-0.4891815185546875,-0.7573089599609375
240464,0.5525360107421875,-0.436981201171875,-0.7375640869140625
240465,0.5392303466796875,-0.4053802490234375,-0.719146728515625
240466,0.5120391845703125,-0.39129638671875,-0.717742919921875
240467,0.475860595703125,-0.3807373046875,-0.7261199951171875
240468,0.4391632080078125,-0.3787689208984375,-0.742523193359375
240469,0.4034576416015625,-0.3919677734375,-0.7576904296875
240470,0.3799285888671875,-0.3982391357421875,-0.7677001953125
240471,0.3621063232421875,-0.4094390869140625,-0.7762298583984375
240472,0.3548583984375,-0.4109649658203125,-0.7870941162109375
240473,0.3710784912109375,-0.410369873046875,-0.8114776611328125
240474,0.4048919677734375,-0.39398193359375,-0.8360443115234375
240475,0.438934326171875,-0.3748626708984375,-0.8397369384765625
240476,0.46588134765625,-0.364959716796875,-0.8272857666015625
240477,0.488006591796875,-0.3423614501953125,-0.8083953857421875
240478,0.4962615966796875,-0.3140869140625,-0.7933502197265625
240479,0.486175537109375,-0.280517578125,-0.7544708251953125
240480,0.4695892333984375,-0.2326507568359375,-0.7333831787109375
240481,0.443359375,-0.2086181640625,-0.7266845703125
240482,0.41326904296875,-0.19989013671875,-0.735992431640625
240483,0.3878936767578125,-0.1964111328125,-0.7677001953125
240484,0.36724853515625,-0.2063446044921875,-0.8068084716796875
240485,0.34710693359375,-0.2164154052734375,-0.8423614501953125
240486,0.328643798828125,-0.213714599609375,-0.8760223388671875
240487,0.3013763427734375,-0.21771240234375,-0.8962860107421875
240488,0.271087646484375,-0.2245025634765625,-0.90283203125
240489,0.2325897216796875,-0.233917236328125,-0.8937530517578125
240490,0.1940155029296875,-0.2254791259765625,-0.8924560546875
240491,0.1478118896484375,-0.2222900390625,-0.9024810791015624
240492,0.100616455078125,-0.2004241943359375,-0.922454833984375
240493,0.0693511962890625,-0.1708831787109375,-0.9325714111328124
240494,0.0377197265625,-0.1572418212890625,-0.939910888671875
240495,0.008697509765625,-0.158660888671875,-0.946014404296875
240496,-0.01678466796875,-0.1768035888671875,-0.945068359375
240497,-0.0211639404296875,-0.194061279296875,-0.947509765625
240498,-0.0037384033203125,-0.21099853515625,-0.959381103515625
240499,0.03179931640625,-0.2272186279296875,-0.9808807373046876
240500,0.0825958251953125,-0.253570556640625,-1.00738525390625
240501,0.1517333984375,-0.275390625,-1.032150268554688
240502,0.2299346923828125,-0.3013153076171875,-1.052505493164062
240503,0.3011627197265625,-0.3352813720703125,-1.06787109375
240504,0.3665924072265625,-0.3506622314453125,-1.077865600585938
240505,0.4326934814453125,-0.351654052734375,-1.071517944335938
240506,0.506805419921875,-0.3359222412109375,-1.042083740234375
240507,0.569091796875,-0.308685302734375,-0.9945831298828124
240508,0.602508544921875,-0.292236328125,-0.938018798828125
240509,0.606292724609375,-0.298095703125,-0.884185791015625
240510,0.5856781005859375,-0.324310302734375,-0.8603668212890625
240511,0.5555419921875,-0.3622589111328125,-0.8380126953125
240512,0.5211639404296875,-0.4040985107421875,-0.7937164306640625
240513,0.490570068359375,-0.4420928955078125,-0.7448883056640625
240514,0.4631500244140625,-0.4852752685546875,-0.714813232421875
240515,0.4462890625,-0.5315704345703125,-0.7214508056640625
240516,0.441925048828125,-0.5564422607421875,-0.7550506591796875
240517,0.445526123046875,-0.566192626953125,-0.8060302734375
240518,0.4590301513671875,-0.5702056884765625,-0.8596649169921875
240519,0.48236083984375,-0.5683441162109375,-0.879119873046875
240520,0.5090484619140625,-0.561798095703125,-0.8683929443359375
240521,0.5318145751953125,-0.547088623046875,-0.8448486328125
240522,0.5456085205078125,-0.528533935546875,-0.8079833984375
240523,0.5559844970703125,-0.5154571533203125,-0.77691650390625
240524,0.560150146484375,-0.50396728515625,-0.7485198974609375
240525,0.5528411865234375,-0.493316650390625,-0.7091522216796875
240526,0.5333251953125,-0.47943115234375,-0.6704254150390625
240527,0.50048828125,-0.4550628662109375,-0.6243133544921875
240528,0.4537200927734375,-0.4249267578125,-0.580230712890625
240529,0.4143218994140625,-0.391448974609375,-0.57373046875
240530,0.3973388671875,-0.345947265625,-0.6009368896484375
240531,0.410919189453125,-0.307220458984375,-0.62725830078125
240532,0.4365692138671875,-0.2983245849609375,-0.65155029296875
240533,0.470062255859375,-0.31396484375,-0.675140380859375
240534,0.5011749267578125,-0.344757080078125,-0.6844940185546875
240535,0.5165863037109375,-0.370849609375,-0.6850433349609375
240536,0.5247955322265625,-0.3736419677734375,-0.6954803466796875
240537,0.5390167236328125,-0.378204345703125,-0.7149658203125
240538,0.5642852783203125,-0.3818511962890625,-0.7286224365234375
240539,0.5966339111328125,-0.3884124755859375,-0.7396240234375
240540,0.6171112060546875,-0.405059814453125,-0.74749755859375
240541,0.61419677734375,-0.4295501708984375,-0.7158203125
240542,0.5987396240234375,-0.468994140625,-0.717926025390625
240543,0.5624847412109375,-0.4976959228515625,-0.7553558349609375
240544,0.512359619140625,-0.514617919921875,-0.8075103759765625
240545,0.448822021484375,-0.5359344482421875,-0.8602447509765625
240546,0.392120361328125,-0.5660552978515625,-0.907073974609375
240547,0.3603515625,-0.597137451171875,-0.9525909423828124
240548,0.3445281982421875,-0.6118621826171875,-0.9853057861328124
240549,0.3399658203125,-0.61578369140625,-1.006973266601562
240550,0.333984375,-0.60455322265625,-1.020401000976562
240551,0.323211669921875,-0.5667877197265625,-1.020736694335938
240552,0.2992095947265625,-0.521331787109375,-1.012466430664062
240553,0.2651519775390625,-0.4645843505859375,-0.9970855712890624
240554,0.227508544921875,-0.4136505126953125,-0.9812469482421876
240555,0.1802978515625,-0.366943359375,-0.9701385498046876
240556,0.1348419189453125,-0.328948974609375,-0.9679107666015624
240557,0.0956878662109375,-0.293365478515625,-0.961822509765625
240558,0.067779541015625,-0.2613525390625,-0.954193115234375
240559,0.0525360107421875,-0.2337646484375,-0.9360198974609376
240560,0.0459136962890625,-0.1958770751953125,-0.9044189453125
240561,0.04876708984375,-0.1604156494140625,-0.876678466796875
240562,0.0613861083984375,-0.125518798828125,-0.874267578125
240563,0.068145751953125,-0.1016693115234375,-0.8855133056640625
240564,0.079559326171875,-0.1006317138671875,-0.907501220703125
240565,0.1011199951171875,-0.119232177734375,-0.9254150390625
240566,0.140411376953125,-0.1701202392578125,-0.9321441650390624
240567,0.20050048828125,-0.2340850830078125,-0.95550537109375
240568,0.2640533447265625,-0.3051605224609375,-0.9857940673828124
240569,0.326904296875,-0.371978759765625,-1.019622802734375
240570,0.381256103515625,-0.4263763427734375,-1.045394897460938
240571,0.4275054931640625,-0.4632110595703125,-1.063629150390625
240572,0.459808349609375,-0.4829254150390625,-1.060943603515625
240573,0.46246337890625,-0.5112152099609375,-1.021957397460938
240574,0.4308624267578125,-0.5287322998046875,-0.9648284912109376
240575,0.3680877685546875,-0.534332275390625,-0.9110870361328124
240576,0.2830810546875,-0.533966064453125,-0.8599090576171875
240577,0.2459716796875,-0.4891204833984375,-0.85894775390625
240578,0.2407989501953125,-0.4337005615234375,-0.8859405517578125
240579,0.2507476806640625,-0.4179534912109375,-0.8682708740234375
240580,0.262420654296875,-0.424346923828125,-0.8220062255859375
240581,0.271148681640625,-0.419586181640625,-0.7850799560546875
240582,0.299652099609375,-0.4071807861328125,-0.783172607421875
240583,0.3538665771484375,-0.374664306640625,-0.800994873046875
240584,0.442169189453125,-0.3469390869140625,-0.8441314697265625
240585,0.55841064453125,-0.321044921875,-0.887664794921875
240586,0.6889190673828125,-0.3198394775390625,-0.8838653564453125
240587,0.79449462890625,-0.3307647705078125,-0.8347015380859375
240588,0.8864593505859375,-0.3315887451171875,-0.77734375
240589,0.9563751220703124,-0.316650390625,-0.716644287109375
240590,0.9817352294921876,-0.30120849609375,-0.6434173583984375
240591,0.93353271484375,-0.326934814453125,-0.5702972412109375
240592,0.8426971435546875,-0.3867645263671875,-0.551513671875
240593,0.7525482177734375,-0.4568634033203125,-0.5876007080078125
240594,0.6817626953125,-0.5112152099609375,-0.657867431640625
240595,0.63134765625,-0.5376434326171875,-0.7181243896484375
240596,0.580810546875,-0.560028076171875,-0.7322540283203125
240597,0.542877197265625,-0.5627288818359375,-0.70941162109375
240598,0.533966064453125,-0.5116119384765625,-0.683746337890625
240599,0.540557861328125,-0.4345855712890625,-0.666534423828125
240600,0.536712646484375,-0.3795928955078125,-0.6632843017578125
240601,0.5197906494140625,-0.3572540283203125,-0.6673583984375
240602,0.496429443359375,-0.3485260009765625,-0.6740570068359375
240603,0.4790802001953125,-0.339324951171875,-0.6934051513671875
240604,0.4637451171875,-0.3389434814453125,-0.72357177734375
240605,0.4549560546875,-0.34222412109375,-0.7430877685546875
240606,0.4569549560546875,-0.34637451171875,-0.7517242431640625
240607,0.465728759765625,-0.3480682373046875,-0.76824951171875
240608,0.4801177978515625,-0.3602294921875,-0.790283203125
240609,0.490814208984375,-0.378265380859375,-0.8013458251953125
240610,0.515777587890625,-0.3809814453125,-0.80621337890625
240611,0.5477142333984375,-0.3748626708984375,-0.8095703125
240612,0.5658416748046875,-0.35894775390625,-0.806182861328125
240613,0.5704803466796875,-0.343780517578125,-0.8003692626953125
240614,0.5461578369140625,-0.31671142578125,-0.7848663330078125
240615,0.5118865966796875,-0.278289794921875,-0.7711029052734375
240616,0.4730682373046875,-0.22821044921875,-0.7704620361328125
240617,0.42510986328125,-0.1909637451171875,-0.7829742431640625
240618,0.3887176513671875,-0.177764892578125,-0.8099517822265625
240619,0.35711669921875,-0.168487548828125,-0.847991943359375
240620,0.3266448974609375,-0.1638031005859375,-0.8889617919921875
240621,0.303131103515625,-0.1628265380859375,-0.921875
240622,0.271026611328125,-0.1674957275390625,-0.941741943359375
240623,0.237762451171875,-0.1756744384765625,-0.9521331787109376
240624,0.20782470703125,-0.185516357421875,-0.9600372314453124
240625,0.1707000732421875,-0.178619384765625,-0.9681854248046876
240626,0.132476806640625,-0.1649932861328125,-0.9781494140625
240627,0.0854034423828125,-0.148773193359375,-0.9905548095703124
240628,0.040496826171875,-0.1274871826171875,-1.000930786132812
240629,0.0076904296875,-0.11077880859375,-1.007781982421875
240630,-0.0155487060546875,-0.0934600830078125,-1.002471923828125
240631,-0.0347442626953125,-0.0864715576171875,-1.004150390625
240632,-0.049591064453125,-0.085418701171875,-1.005523681640625
240633,-0.0412445068359375,-0.1030426025390625,-1.007675170898438
240634,-0.00518798828125,-0.115692138671875,-1.00714111328125
240635,0.049407958984375,-0.1328277587890625,-1.011138916015625
240636,0.1240234375,-0.17315673828125,-1.020904541015625
240637,0.2088470458984375,-0.2203369140625,-1.023788452148438
240638,0.297637939453125,-0.2647857666015625,-1.013626098632812
240639,0.385009765625,-0.289825439453125,-0.9955902099609376
240640,0.461151123046875,-0.2854156494140625,-0.9661712646484376
240641,0.5284576416015625,-0.2623748779296875,-0.938262939453125
240642,0.5915985107421875,-0.2476348876953125,-0.91180419921875
240643,0.6371917724609375,-0.2332916259765625,-0.897613525390625
240644,0.655853271484375,-0.2362213134765625,-0.88836669921875
240645,0.64422607421875,-0.270477294921875,-0.86627197265625
240646,0.615875244140625,-0.3176422119140625,-0.8294219970703125
240647,0.595001220703125,-0.3509063720703125,-0.806182861328125
240648,0.577789306640625,-0.38494873046875,-0.773834228515625
240649,0.5552978515625,-0.432403564453125,-0.7358856201171875
240650,0.51983642578125,-0.48150634765625,-0.7104949951171875
240651,0.4870758056640625,-0.544189453125,-0.708953857421875
240652,0.4558563232421875,-0.6070556640625,-0.73974609375
240653,0.42803955078125,-0.640899658203125,-0.809173583984375
240654,0.410919189453125,-0.64617919921875,-0.8852996826171875
240655,0.413726806640625,-0.6532135009765625,-0.91778564453125
240656,0.4188995361328125,-0.6508026123046875,-0.9153289794921876
240657,0.416046142578125,-0.6351165771484375,-0.915130615234375
240658,0.42279052734375,-0.61651611328125,-0.8805084228515625
240659,0.4416351318359375,-0.5933685302734375,-0.82928466796875
240660,0.469970703125,-0.57147216796875,-0.79254150390625
240661,0.4984588623046875,-0.5585479736328125,-0.75537109375
240662,0.5220489501953125,-0.539642333984375,-0.7174224853515625
240663,0.5345916748046875,-0.51470947265625,-0.682342529296875
240664,0.5310821533203125,-0.47686767578125,-0.6521148681640625
240665,0.5014495849609375,-0.44091796875,-0.636993408203125
240666,0.460296630859375,-0.411834716796875,-0.6213836669921875
240667,0.4270172119140625,-0.3756256103515625,-0.6191558837890625
240668,0.4049835205078125,-0.349273681640625,-0.6130828857421875
240669,0.401885986328125,-0.3397369384765625,-0.6122283935546875
240670,0.4151458740234375,-0.3370361328125,-0.61248779296875
240671,0.437255859375,-0.3389129638671875,-0.604766845703125
240672,0.4519500732421875,-0.3386383056640625,-0.599212646484375
240673,0.4599761962890625,-0.3322601318359375,-0.614105224609375
240674,0.46990966796875,-0.32568359375,-0.6373138427734375
240675,0.488983154296875,-0.3209075927734375,-0.6575469970703125
240676,0.51422119140625,-0.3328857421875,-0.678192138671875
240677,0.5499420166015625,-0.3440704345703125,-0.731597900390625
240678,0.57574462890625,-0.358306884765625,-0.751861572265625
240679,0.584014892578125,-0.384429931640625,-0.7634124755859375
240680,0.5653533935546875,-0.42022705078125,-0.8016204833984375
240681,0.5279388427734375,-0.45458984375,-0.8448944091796875
240682,0.4833984375,-0.47314453125,-0.88037109375
240683,0.4415130615234375,-0.4944610595703125,-0.9100341796875
240684,0.4049835205078125,-0.50762939453125,-0.9445343017578124
240685,0.372894287109375,-0.5148162841796875,-0.973541259765625
240686,0.3500213623046875,-0.5277557373046875,-1.0015869140625
240687,0.3269195556640625,-0.522979736328125,-1.02783203125
240688,0.30364990234375,-0.5018310546875,-1.041244506835938
240689,0.2834014892578125,-0.4774932861328125,-1.041061401367188
240690,0.2604217529296875,-0.4407958984375,-1.031600952148438
240691,0.23223876953125,-0.40240478515625,-1.0086669921875
240692,0.201507568359375,-0.355072021484375,-0.9840087890625
240693,0.1685638427734375,-0.317779541015625,-0.9733428955078124
240694,0.1331787109375,-0.2844390869140625,-0.977691650390625
240695,0.097137451171875,-0.2651214599609375,-0.9786834716796876
240696,0.07977294921875,-0.2347259521484375,-0.9712677001953124
240697,0.0803375244140625,-0.202178955078125,-0.9516143798828124
240698,0.0808258056640625,-0.1757965087890625,-0.9112396240234376
240699,0.08648681640625,-0.133575439453125,-0.8914794921875
240700,0.0766448974609375,-0.1043243408203125,-0.891754150390625
240701,0.053070068359375,-0.11029052734375,-0.9013824462890624
240702,0.0246734619140625,-0.1427764892578125,-0.9262847900390624
240703,0.0243377685546875,-0.1893310546875,-0.9581298828125
240704,0.04620361328125,-0.2466583251953125,-0.9933929443359376
240705,0.0850982666015625,-0.3165435791015625,-1.031295776367188
240706,0.13214111328125,-0.3963775634765625,-1.066482543945312
240707,0.1786346435546875,-0.4835662841796875,-1.082412719726562
240708,0.2258453369140625,-0.55731201171875,-1.080825805664062
240709,0.2589874267578125,-0.5933685302734375,-1.058685302734375
240710,0.2788238525390625,-0.596160888671875,-1.023056030273438
240711,0.28240966796875,-0.577301025390625,-0.9901123046875
240712,0.25494384765625,-0.552459716796875,-0.9610748291015624
240713,0.2194366455078125,-0.5052490234375,-0.9351043701171876
240714,0.2024383544921875,-0.456634521484375,-0.913299560546875
240715,0.21026611328125,-0.4424591064453125,-0.887847900390625
240716,0.2315826416015625,-0.462005615234375,-0.8112945556640625
240717,0.2601776123046875,-0.4915924072265625,-0.747528076171875
240718,0.3072662353515625,-0.4923095703125,-0.7359466552734375
240719,0.376220703125,-0.4731597900390625,-0.7657318115234375
240720,0.4603271484375,-0.45660400390625,-0.8060455322265625
240721,0.5571746826171875,-0.463348388671875,-0.8389892578125
240722,0.6524658203125,-0.4938812255859375,-0.8505401611328125
240723,0.743865966796875,-0.5096435546875,-0.83575439453125
240724,0.835296630859375,-0.49627685546875,-0.8064117431640625
240725,0.9031219482421876,-0.46636962890625,-0.7778472900390625
240726,0.94525146484375,-0.4315338134765625,-0.7350006103515625
240727,0.9299774169921876,-0.42333984375,-0.6624908447265625
240728,0.8754425048828125,-0.45416259765625,-0.6335906982421875
240729,0.804229736328125,-0.486846923828125,-0.641448974609375
240730,0.7162628173828125,-0.520538330078125,-0.654632568359375
240731,0.638031005859375,-0.5465240478515625,-0.68634033203125
240732,0.5957794189453125,-0.553680419921875,-0.711212158203125
240733,0.584747314453125,-0.53240966796875,-0.727447509765625
240734,0.58697509765625,-0.4892730712890625,-0.7313995361328125
240735,0.5966339111328125,-0.4303741455078125,-0.7295074462890625
240736,0.597015380859375,-0.38433837890625,-0.7304229736328125
240737,0.5829010009765625,-0.3685760498046875,-0.72247314453125
240738,0.5543365478515625,-0.3680877685546875,-0.6993255615234375
240739,0.521240234375,-0.3653411865234375,-0.6810760498046875
240740,0.50482177734375,-0.345489501953125,-0.6963958740234375
240741,0.5040740966796875,-0.31951904296875,-0.7213897705078125
240742,0.5000152587890625,-0.305816650390625,-0.7306976318359375
240743,0.4980926513671875,-0.29425048828125,-0.7315521240234375
240744,0.49517822265625,-0.2937469482421875,-0.7534942626953125
240745,0.500030517578125,-0.3016357421875,-0.7684783935546875
240746,0.50860595703125,-0.3048248291015625,-0.7800140380859375
240747,0.506927490234375,-0.3045806884765625,-0.790802001953125
240748,0.5125732421875,-0.3206939697265625,-0.756805419921875
240749,0.51043701171875,-0.3060455322265625,-0.7274932861328125
240750,0.4959564208984375,-0.2873687744140625,-0.712432861328125
240751,0.468902587890625,-0.2642669677734375,-0.710357666015625
240752,0.439849853515625,-0.224456787109375,-0.7275238037109375
240753,0.405364990234375,-0.19696044921875,-0.764801025390625
240754,0.37030029296875,-0.1822052001953125,-0.8108673095703125
240755,0.3371124267578125,-0.176483154296875,-0.8578643798828125
240756,0.3061065673828125,-0.1786041259765625,-0.9002227783203125
240757,0.275482177734375,-0.185699462890625,-0.9282073974609376
240758,0.24658203125,-0.1917724609375,-0.9438323974609376
240759,0.222747802734375,-0.17889404296875,-0.95452880859375
240760,0.19207763671875,-0.1549072265625,-0.9670257568359376
240761,0.14764404296875,-0.1300048828125,-0.97601318359375
240762,0.1035614013671875,-0.1138763427734375,-0.9719696044921876
240763,0.07281494140625,-0.0925445556640625,-0.959442138671875
240764,0.0370330810546875,-0.08099365234375,-0.9462738037109376
240765,-0.004852294921875,-0.0712738037109375,-0.9302825927734376
240766,-0.038909912109375,-0.069000244140625,-0.926177978515625
240767,-0.05712890625,-0.0710906982421875,-0.9252471923828124
240768,-0.0533905029296875,-0.0892181396484375,-0.9246978759765624
240769,-0.037353515625,-0.12249755859375,-0.9234619140625
240770,-0.0066375732421875,-0.15423583984375,-0.933074951171875
240771,0.0199432373046875,-0.205322265625,-0.939544677734375
240772,0.06463623046875,-0.262908935546875,-0.956085205078125
240773,0.14239501953125,-0.29058837890625,-1.000747680664062
240774,0.237762451171875,-0.3216705322265625,-1.035293579101562
240775,0.34454345703125,-0.33917236328125,-1.059600830078125
240776,0.4384613037109375,-0.3338470458984375,-1.068710327148438
240777,0.5162200927734375,-0.3141937255859375,-1.052963256835938
240778,0.581146240234375,-0.2962493896484375,-1.0361328125
240779,0.624359130859375,-0.27850341796875,-1.004180908203125
240780,0.6403656005859375,-0.2749176025390625,-0.970184326171875
240781,0.6171875,-0.29022216796875,-0.9421539306640624
240782,0.5835418701171875,-0.319671630859375,-0.9223480224609376
240783,0.5602874755859375,-0.3385162353515625,-0.9113311767578124
240784,0.542236328125,-0.3639373779296875,-0.902740478515625
240785,0.5138092041015625,-0.415252685546875,-0.8692474365234375
240786,0.4700164794921875,-0.4851531982421875,-0.769012451171875
240787,0.4353485107421875,-0.557586669921875,-0.745330810546875
240788,0.412750244140625,-0.603302001953125,-0.8043212890625
240789,0.4155426025390625,-0.649322509765625,-0.8473968505859375
240790,0.42938232421875,-0.66973876953125,-0.8850860595703125
240791,0.4548492431640625,-0.6440277099609375,-0.9095611572265624
240792,0.479736328125,-0.5931396484375,-0.9049530029296876
240793,0.49761962890625,-0.5502166748046875,-0.8740081787109375
240794,0.5138397216796875,-0.5233612060546875,-0.830657958984375
240795,0.5355377197265625,-0.5086669921875,-0.7734222412109375
240796,0.552459716796875,-0.504302978515625,-0.71429443359375
240797,0.54913330078125,-0.4933319091796875,-0.6601104736328125
240798,0.53045654296875,-0.465362548828125,-0.61981201171875
240799,0.4947509765625,-0.42291259765625,-0.6025848388671875
240800,0.4535675048828125,-0.379547119140625,-0.617156982421875
240801,0.43023681640625,-0.3507080078125,-0.6344757080078125
240802,0.4259490966796875,-0.3340911865234375,-0.641998291015625
240803,0.4335479736328125,-0.3186492919921875,-0.6454620361328125
240804,0.450592041015625,-0.3099365234375,-0.64990234375
240805,0.4714202880859375,-0.3143157958984375,-0.644927978515625
240806,0.4927215576171875,-0.3285980224609375,-0.629791259765625
240807,0.51495361328125,-0.3338470458984375,-0.6194305419921875
240808,0.5380706787109375,-0.3282318115234375,-0.6304168701171875
240809,0.5672760009765625,-0.3272705078125,-0.682464599609375
240810,0.5832366943359375,-0.3330230712890625,-0.7013397216796875
240811,0.6048736572265625,-0.33868408203125,-0.7271881103515625
240812,0.6078033447265625,-0.3596649169921875,-0.744873046875
240813,0.5977783203125,-0.39996337890625,-0.7491912841796875
240814,0.5713043212890625,-0.43994140625,-0.7841949462890625
240815,0.52496337890625,-0.4658203125,-0.8360137939453125
240816,0.47015380859375,-0.488250732421875,-0.8746337890625
240817,0.4195709228515625,-0.5094146728515625,-0.8956298828125
240818,0.3802947998046875,-0.5200958251953125,-0.9102325439453124
240819,0.351776123046875,-0.5400238037109375,-0.92974853515625
240820,0.3417205810546875,-0.550872802734375,-0.952423095703125
240821,0.3374176025390625,-0.5391082763671875,-0.970977783203125
240822,0.3250885009765625,-0.5445709228515625,-0.98345947265625
240823,0.317138671875,-0.5298614501953125,-0.9801177978515624
240824,0.3087310791015625,-0.485687255859375,-0.9617919921875
240825,0.28564453125,-0.4341888427734375,-0.93658447265625
240826,0.246734619140625,-0.387969970703125,-0.914337158203125
240827,0.2108154296875,-0.3399505615234375,-0.9022216796875
240828,0.1690521240234375,-0.3100433349609375,-0.91278076171875
240829,0.114349365234375,-0.2856292724609375,-0.9325408935546876
240830,0.0699920654296875,-0.2641754150390625,-0.9527435302734376
240831,0.0491485595703125,-0.240478515625,-0.9645233154296876
240832,0.036285400390625,-0.213409423828125,-0.961883544921875
240833,0.0292205810546875,-0.173248291015625,-0.9528045654296876
240834,0.027069091796875,-0.1244354248046875,-0.9650421142578124
240835,0.0182952880859375,-0.09283447265625,-0.9775238037109376
240836,0.0031890869140625,-0.103668212890625,-0.978424072265625
240837,0.01043701171875,-0.1119537353515625,-0.994873046875
240838,0.0270233154296875,-0.13995361328125,-1.002349853515625
240839,0.0587005615234375,-0.201507568359375,-1.028701782226562
240840,0.10723876953125,-0.283447265625,-1.06427001953125
240841,0.1854705810546875,-0.3664093017578125,-1.102264404296875
240842,0.2640228271484375,-0.4675140380859375,-1.097335815429688
240843,0.334320068359375,-0.5291290283203125,-1.065277099609375
240844,0.3735809326171875,-0.54827880859375,-1.036575317382812
240845,0.394256591796875,-0.53302001953125,-1.018585205078125
240846,0.3860626220703125,-0.5222625732421875,-1.00469970703125
240847,0.3471221923828125,-0.5085296630859375,-0.986602783203125
240848,0.2955780029296875,-0.498138427734375,-0.9447174072265624
240849,0.2716064453125,-0.462554931640625,-0.8916168212890625
240850,0.2579498291015625,-0.4217987060546875,-0.856781005859375
240851,0.2562713623046875,-0.3890380859375,-0.8412628173828125
240852,0.270477294921875,-0.3700714111328125,-0.8430023193359375
240853,0.301971435546875,-0.3580474853515625,-0.8415679931640625
240854,0.34808349609375,-0.3545379638671875,-0.84332275390625
240855,0.40936279296875,-0.3667449951171875,-0.866058349609375
240856,0.4808197021484375,-0.3762054443359375,-0.877105712890625
240857,0.5733184814453125,-0.390167236328125,-0.8589019775390625
240858,0.6746063232421875,-0.408355712890625,-0.8369293212890625
240859,0.7550201416015625,-0.412872314453125,-0.79315185546875
240860,0.8251190185546875,-0.3976287841796875,-0.7426300048828125
240861,0.8682403564453125,-0.36981201171875,-0.694061279296875
240862,0.8636016845703125,-0.362152099609375,-0.6393280029296875
240863,0.8269195556640625,-0.38336181640625,-0.6070404052734375
240864,0.7900238037109375,-0.4156036376953125,-0.6179351806640625
240865,0.7633514404296875,-0.4436492919921875,-0.663970947265625
240866,0.7349853515625,-0.4610748291015625,-0.6982421875
240867,0.6930389404296875,-0.477813720703125,-0.70166015625
240868,0.645294189453125,-0.48675537109375,-0.68304443359375
240869,0.618804931640625,-0.474212646484375,-0.661285400390625
240870,0.6005859375,-0.4439697265625,-0.6506805419921875
240871,0.5778961181640625,-0.420074462890625,-0.65185546875
240872,0.550262451171875,-0.406341552734375,-0.6627044677734375
240873,0.5237884521484375,-0.3988494873046875,-0.681854248046875
240874,0.49688720703125,-0.397216796875,-0.6945953369140625
240875,0.472198486328125,-0.3953857421875,-0.698028564453125
240876,0.45550537109375,-0.392608642578125,-0.7039794921875
240877,0.451873779296875,-0.387451171875,-0.707763671875
240878,0.4590606689453125,-0.3698883056640625,-0.71563720703125
240879,0.46710205078125,-0.3596954345703125,-0.727294921875
240880,0.4840087890625,-0.340972900390625,-0.7467041015625
240881,0.4954376220703125,-0.338836669921875,-0.768829345703125
240882,0.5048980712890625,-0.349639892578125,-0.7798309326171875
240883,0.5113525390625,-0.3505401611328125,-0.7760772705078125
240884,0.51739501953125,-0.3435516357421875,-0.7635498046875
240885,0.5177154541015625,-0.3320159912109375,-0.7484283447265625
240886,0.5075225830078125,-0.2992095947265625,-0.7276763916015625
240887,0.481170654296875,-0.25872802734375,-0.7193756103515625
240888,0.4407196044921875,-0.2064971923828125,-0.736236572265625
240889,0.4025421142578125,-0.17376708984375,-0.77886962890625
240890,0.37432861328125,-0.163177490234375,-0.8347015380859375
240891,0.3415985107421875,-0.1670379638671875,-0.8920745849609375
240892,0.31817626953125,-0.1821746826171875,-0.9275054931640624
240893,0.29205322265625,-0.1913604736328125,-0.94696044921875
240894,0.267822265625,-0.19580078125,-0.9461822509765624
240895,0.2313079833984375,-0.192291259765625,-0.94842529296875
240896,0.1901702880859375,-0.175048828125,-0.9624176025390624
240897,0.1439056396484375,-0.1493988037109375,-0.9880218505859376
240898,0.09906005859375,-0.1266937255859375,-1.012527465820312
240899,0.0578765869140625,-0.1110076904296875,-1.021469116210938
240900,0.0243682861328125,-0.1009674072265625,-1.022415161132812
240901,-0.0117950439453125,-0.0989837646484375,-1.013595581054688
240902,-0.0420074462890625,-0.10308837890625,-1.0126953125
240903,-0.058258056640625,-0.12493896484375,-1.016525268554688
240904,-0.053466796875,-0.1525726318359375,-1.0198974609375
240905,-0.0275115966796875,-0.191864013671875,-1.01922607421875
240906,0.0193939208984375,-0.2229766845703125,-1.018997192382812
240907,0.0780029296875,-0.2602386474609375,-1.02288818359375
240908,0.146575927734375,-0.300811767578125,-1.04034423828125
240909,0.238494873046875,-0.326385498046875,-1.062057495117188
240910,0.3396453857421875,-0.32672119140625,-1.064559936523438
240911,0.43408203125,-0.3145751953125,-1.053115844726562
240912,0.509674072265625,-0.3016357421875,-1.027572631835938
240913,0.567108154296875,-0.2717437744140625,-0.980499267578125
240914,0.6119384765625,-0.2380828857421875,-0.932647705078125
240915,0.6362762451171875,-0.2227783203125,-0.890869140625
240916,0.62628173828125,-0.22332763671875,-0.8621826171875
240917,0.5907440185546875,-0.2576446533203125,-0.845306396484375
240918,0.550689697265625,-0.303192138671875,-0.8323974609375
240919,0.4985504150390625,-0.352447509765625,-0.8079071044921875
240920,0.4486083984375,-0.4098663330078125,-0.75860595703125
240921,0.4019317626953125,-0.4504547119140625,-0.7154693603515625
240922,0.359771728515625,-0.5084991455078125,-0.6762542724609375
240923,0.3339691162109375,-0.5611724853515625,-0.7298431396484375
240924,0.326690673828125,-0.5921630859375,-0.824951171875
240925,0.337371826171875,-0.6339569091796875,-0.888275146484375
240926,0.368499755859375,-0.6607818603515625,-0.9378204345703124
240927,0.4148712158203125,-0.6546478271484375,-0.9403533935546876
240928,0.4513397216796875,-0.620330810546875,-0.9007720947265624
240929,0.47650146484375,-0.56884765625,-0.861083984375
240930,0.4969940185546875,-0.519805908203125,-0.8242340087890625
240931,0.519287109375,-0.5062408447265625,-0.774566650390625
240932,0.544677734375,-0.5042266845703125,-0.7162628173828125
240933,0.5550994873046875,-0.492034912109375,-0.6617889404296875
240934,0.544525146484375,-0.46209716796875,-0.630462646484375
240935,0.5158233642578125,-0.4180908203125,-0.601348876953125
240936,0.4912567138671875,-0.3800201416015625,-0.579925537109375
240937,0.4805755615234375,-0.347747802734375,-0.5844268798828125
240938,0.4772796630859375,-0.32049560546875,-0.618896484375
240939,0.493865966796875,-0.308807373046875,-0.6556243896484375
240940,0.5391998291015625,-0.315155029296875,-0.6600189208984375
240941,0.5877532958984375,-0.3141326904296875,-0.63372802734375
240942,0.6173095703125,-0.3026123046875,-0.61004638671875
240943,0.629669189453125,-0.2990570068359375,-0.60888671875
240944,0.6307220458984375,-0.2967681884765625,-0.6173095703125
240945,0.6429290771484375,-0.305206298828125,-0.663726806640625
240946,0.6434173583984375,-0.321990966796875,-0.72100830078125
240947,0.6335601806640625,-0.3486480712890625,-0.769439697265625
240948,0.603851318359375,-0.3894805908203125,-0.794708251953125
240949,0.5570526123046875,-0.449249267578125,-0.817169189453125
240950,0.49664306640625,-0.4968109130859375,-0.8604888916015625
240951,0.438232421875,-0.529052734375,-0.912689208984375
240952,0.3946990966796875,-0.548675537109375,-0.957672119140625
240953,0.3616180419921875,-0.5638275146484375,-0.9894866943359376
240954,0.3431549072265625,-0.5697174072265625,-1.005615234375
240955,0.32666015625,-0.570343017578125,-1.01556396484375
240956,0.3118743896484375,-0.5648193359375,-1.021743774414062
240957,0.2915802001953125,-0.5560455322265625,-1.02001953125
240958,0.2724456787109375,-0.5364532470703125,-1.008621215820312
240959,0.2637176513671875,-0.503387451171875,-0.989776611328125
240960,0.2556610107421875,-0.46484375,-0.9611968994140624
240961,0.24542236328125,-0.421112060546875,-0.9206695556640624
240962,0.2352142333984375,-0.382415771484375,-0.8800201416015625
240963,0.2161712646484375,-0.3411102294921875,-0.8529815673828125
240964,0.1944732666015625,-0.298065185546875,-0.854827880859375
240965,0.163330078125,-0.269439697265625,-0.8739013671875
240966,0.1232757568359375,-0.24822998046875,-0.88922119140625
240967,0.095062255859375,-0.2259063720703125,-0.901153564453125
240968,0.0728607177734375,-0.2048187255859375,-0.9010162353515624
240969,0.0574951171875,-0.1747894287109375,-0.891510009765625
240970,0.03717041015625,-0.14666748046875,-0.8915557861328125
240971,0.012908935546875,-0.12908935546875,-0.9024810791015624
240972,0.0131683349609375,-0.1190185546875,-0.9324798583984376
240973,0.0144500732421875,-0.124481201171875,-0.937957763671875
240974,0.0323028564453125,-0.1578826904296875,-0.9556884765625
240975,0.06329345703125,-0.178253173828125,-0.996185302734375
240976,0.104644775390625,-0.238494873046875,-1.026596069335938
240977,0.1553955078125,-0.3223724365234375,-1.045989990234375
240978,0.23406982421875,-0.4210052490234375,-1.077651977539062
240979,0.3167877197265625,-0.4803466796875,-1.10064697265625
240980,0.3896026611328125,-0.5271148681640625,-1.0948486328125
240981,0.43841552734375,-0.5450897216796875,-1.06658935546875
240982,0.4488372802734375,-0.542633056640625,-1.0096435546875
240983,0.4170684814453125,-0.524871826171875,-0.9521331787109376
240984,0.3726806640625,-0.4781494140625,-0.90264892578125
240985,0.3350372314453125,-0.4352874755859375,-0.86651611328125
240986,0.31866455078125,-0.416259765625,-0.8277740478515625
240987,0.31549072265625,-0.398040771484375,-0.7973785400390625
240988,0.3213348388671875,-0.3915557861328125,-0.789703369140625
240989,0.3442230224609375,-0.400177001953125,-0.815277099609375
240990,0.395294189453125,-0.413848876953125,-0.8615264892578125
240991,0.4733123779296875,-0.4293060302734375,-0.9043731689453124
240992,0.5598907470703125,-0.435638427734375,-0.9178619384765624
240993,0.6449127197265625,-0.4290008544921875,-0.918731689453125
240994,0.724456787109375,-0.410186767578125,-0.90142822265625
240995,0.779937744140625,-0.379974365234375,-0.8507537841796875
240996,0.8128509521484375,-0.3453216552734375,-0.7834625244140625
240997,0.789825439453125,-0.3503875732421875,-0.6977386474609375
240998,0.7231292724609375,-0.3891754150390625,-0.6170654296875
240999,0.6620635986328125,-0.4017791748046875,-0.6015167236328125
241000,0.615753173828125,-0.41949462890625,-0.643280029296875
241001,0.5858917236328125,-0.427276611328125,-0.693145751953125
241002,0.5601654052734375,-0.434967041015625,-0.71966552734375
241003,0.5415496826171875,-0.452545166015625,-0.7245635986328125
241004,0.536834716796875,-0.4658203125,-0.7179107666015625
241005,0.54559326171875,-0.4611053466796875,-0.719451904296875
241006,0.5609588623046875,-0.431610107421875,-0.7315521240234375
241007,0.5713348388671875,-0.4021148681640625,-0.7449188232421875
241008,0.5699462890625,-0.38153076171875,-0.7532958984375
241009,0.5612945556640625,-0.371826171875,-0.745513916015625
241010,0.547454833984375,-0.3689727783203125,-0.7182464599609375
241011,0.5295867919921875,-0.3670654296875,-0.6824188232421875
241012,0.509063720703125,-0.357208251953125,-0.65826416015625
241013,0.493865966796875,-0.3468475341796875,-0.6396636962890625
241014,0.4856109619140625,-0.3312530517578125,-0.6248016357421875
241015,0.4821929931640625,-0.3247222900390625,-0.630218505859375
241016,0.4968109130859375,-0.323028564453125,-0.645965576171875
241017,0.51800537109375,-0.32525634765625,-0.6795806884765625
241018,0.5350494384765625,-0.336669921875,-0.7280120849609375
241019,0.57952880859375,-0.335357666015625,-0.8202056884765625
241020,0.5626068115234375,-0.3424224853515625,-0.7731781005859375
241021,0.593292236328125,-0.3338775634765625,-0.8286895751953125
241022,0.574249267578125,-0.3097076416015625,-0.8081817626953125
241023,0.53515625,-0.2711944580078125,-0.7841033935546875
241024,0.4937744140625,-0.22406005859375,-0.786590576171875
241025,0.4479827880859375,-0.1811676025390625,-0.821014404296875
241026,0.4044952392578125,-0.1664581298828125,-0.8629302978515625
241027,0.3260955810546875,-0.182525634765625,-0.9070587158203124
241028,0.363006591796875,-0.1709747314453125,-0.8933868408203125
241029,0.2938385009765625,-0.1963958740234375,-0.91070556640625
241030,0.2696533203125,-0.2063446044921875,-0.912384033203125
241031,0.2484130859375,-0.2038726806640625,-0.91998291015625
241032,0.2311248779296875,-0.200714111328125,-0.94439697265625
241033,0.202178955078125,-0.1860504150390625,-0.970977783203125
241034,0.16375732421875,-0.1707000732421875,-0.984893798828125
241035,0.1204376220703125,-0.1616058349609375,-0.9914398193359376
241036,0.07318115234375,-0.15191650390625,-0.994873046875
241037,0.0251617431640625,-0.1386566162109375,-0.9902496337890624
241038,-0.01702880859375,-0.1331787109375,-0.9804840087890624
241039,-0.0547332763671875,-0.1441497802734375,-0.968353271484375
241040,-0.04412841796875,-0.1336517333984375,-0.9757232666015624
241041,-0.0390625,-0.1585235595703125,-0.9617767333984376
241042,-0.0092620849609375,-0.1719512939453125,-0.9548492431640624
241043,0.0286102294921875,-0.190826416015625,-0.9555206298828124
241044,0.08758544921875,-0.2018890380859375,-0.982147216796875
241045,0.167266845703125,-0.228515625,-1.023635864257812
241046,0.256103515625,-0.2614593505859375,-1.057022094726562
241047,0.3359375,-0.2992401123046875,-1.072311401367188
241048,0.41314697265625,-0.3192138671875,-1.067153930664062
241049,0.48846435546875,-0.31573486328125,-1.031570434570312
241050,0.5485076904296875,-0.2994232177734375,-0.9760284423828124
241051,0.58935546875,-0.281219482421875,-0.9302978515625
241052,0.6068267822265625,-0.2736663818359375,-0.8962554931640625
241053,0.5927886962890625,-0.2819061279296875,-0.8670501708984375
241054,0.555908203125,-0.3116912841796875,-0.8507843017578125
241055,0.509674072265625,-0.3527984619140625,-0.854095458984375
241056,0.4812469482421875,-0.3904571533203125,-0.8538665771484375
241057,0.468902587890625,-0.4267578125,-0.8329620361328125
241058,0.4718475341796875,-0.4711456298828125,-0.79986572265625
241059,0.47998046875,-0.510162353515625,-0.7736358642578125
241060,0.4823760986328125,-0.5464935302734375,-0.731964111328125
241061,0.491668701171875,-0.57196044921875,-0.73699951171875
241062,0.5029296875,-0.5566864013671875,-0.8133697509765625
241063,0.524505615234375,-0.5452423095703125,-0.837005615234375
241064,0.5433197021484375,-0.5434112548828125,-0.821990966796875
241065,0.5596160888671875,-0.536651611328125,-0.7978363037109375
241066,0.5761566162109375,-0.52667236328125,-0.76654052734375
241067,0.5888519287109375,-0.52142333984375,-0.73931884765625
241068,0.596527099609375,-0.5236053466796875,-0.724945068359375
241069,0.601593017578125,-0.5284423828125,-0.718505859375
241070,0.59344482421875,-0.525970458984375,-0.70416259765625
241071,0.5654449462890625,-0.5104217529296875,-0.6912689208984375
241072,0.525146484375,-0.4900054931640625,-0.685272216796875
241073,0.482330322265625,-0.4633026123046875,-0.6676025390625
241074,0.436492919921875,-0.428924560546875,-0.6539306640625
241075,0.3974456787109375,-0.40118408203125,-0.65838623046875
241076,0.3767852783203125,-0.3815155029296875,-0.6668548583984375
241077,0.3681488037109375,-0.373260498046875,-0.6662139892578125
241078,0.3784027099609375,-0.377838134765625,-0.6645660400390625
241079,0.40460205078125,-0.386993408203125,-0.6607208251953125
241080,0.433349609375,-0.386383056640625,-0.6497955322265625
241081,0.4589385986328125,-0.3818206787109375,-0.6386871337890625
241082,0.4863433837890625,-0.3777618408203125,-0.6377105712890625
241083,0.5150146484375,-0.370941162109375,-0.650909423828125
241084,0.547576904296875,-0.3667144775390625,-0.663970947265625
241085,0.58636474609375,-0.3666839599609375,-0.6789398193359375
241086,0.6235809326171875,-0.377838134765625,-0.6928253173828125
241087,0.6333770751953125,-0.4017333984375,-0.706756591796875
241088,0.610443115234375,-0.4359283447265625,-0.730010986328125
241089,0.56805419921875,-0.46441650390625,-0.7478485107421875
241090,0.523193359375,-0.4870147705078125,-0.7731170654296875
241091,0.4802093505859375,-0.511993408203125,-0.8103179931640625
241092,0.443634033203125,-0.5255279541015625,-0.8460235595703125
241093,0.40997314453125,-0.5332489013671875,-0.8838043212890625
241094,0.3819732666015625,-0.544921875,-0.924560546875
241095,0.3676605224609375,-0.529876708984375,-0.96453857421875
241096,0.3577423095703125,-0.5230560302734375,-1.000335693359375
241097,0.3448944091796875,-0.49774169921875,-1.017990112304688
241098,0.3167877197265625,-0.4624176025390625,-1.0218505859375
241099,0.2734832763671875,-0.4308013916015625,-1.0224609375
241100,0.2174530029296875,-0.4013519287109375,-1.022659301757812
241101,0.160247802734375,-0.3716888427734375,-1.025543212890625
241102,0.097564697265625,-0.35223388671875,-1.039993286132812
241103,0.0527801513671875,-0.3379974365234375,-1.06170654296875
241104,0.026153564453125,-0.3134307861328125,-1.070648193359375
241105,0.0063018798828125,-0.2817840576171875,-1.0565185546875
241106,-0.0028076171875,-0.233917236328125,-1.024749755859375
241107,-0.003509521484375,-0.2030181884765625,-0.9786529541015624
241108,0.0049591064453125,-0.18096923828125,-0.9346466064453124
241109,0.019073486328125,-0.1692962646484375,-0.9038543701171876
241110,0.034393310546875,-0.17413330078125,-0.8985443115234375
241111,0.0558624267578125,-0.1885833740234375,-0.91839599609375
241112,0.0881805419921875,-0.212158203125,-0.9486083984375
241113,0.1398773193359375,-0.23553466796875,-0.980438232421875
241114,0.2000579833984375,-0.281524658203125,-1.01910400390625
241115,0.2639312744140625,-0.344390869140625,-1.04315185546875
241116,0.3159332275390625,-0.428619384765625,-1.030197143554688
241117,0.3538055419921875,-0.5021514892578125,-1.014328002929688
241118,0.379730224609375,-0.540435791015625,-0.9925079345703124
241119,0.3927459716796875,-0.5544891357421875,-0.985870361328125
241120,0.394439697265625,-0.55157470703125,-0.99652099609375
241121,0.367584228515625,-0.5540924072265625,-0.97149658203125
241122,0.3126678466796875,-0.562713623046875,-0.8949737548828125
241123,0.265716552734375,-0.5276947021484375,-0.832550048828125
241124,0.2531890869140625,-0.483642578125,-0.8124542236328125
241125,0.2690277099609375,-0.4565887451171875,-0.8155364990234375
241126,0.28887939453125,-0.4506072998046875,-0.7809600830078125
241127,0.3122711181640625,-0.451324462890625,-0.7461090087890625
241128,0.3506927490234375,-0.447662353515625,-0.755645751953125
241129,0.417083740234375,-0.431365966796875,-0.8097076416015625
241130,0.5193328857421875,-0.409332275390625,-0.873748779296875
241131,0.6394500732421875,-0.415313720703125,-0.888641357421875
241132,0.75006103515625,-0.442901611328125,-0.863433837890625
241133,0.83282470703125,-0.457977294921875,-0.8447265625
241134,0.8984527587890625,-0.42071533203125,-0.799713134765625
241135,0.9430084228515624,-0.3614654541015625,-0.7205963134765625
241136,0.923492431640625,-0.3367919921875,-0.6142578125
241137,0.8374786376953125,-0.3697509765625,-0.5162506103515625
241138,0.73388671875,-0.4119110107421875,-0.50701904296875
241139,0.6310577392578125,-0.46429443359375,-0.5844573974609375
241140,0.5470733642578125,-0.5090789794921875,-0.6764068603515625
241141,0.5011138916015625,-0.5347747802734375,-0.749481201171875
241142,0.4895172119140625,-0.5472564697265625,-0.7801361083984375
241143,0.496734619140625,-0.5298309326171875,-0.77459716796875
241144,0.510986328125,-0.482879638671875,-0.75823974609375
241145,0.518341064453125,-0.43402099609375,-0.7543182373046875
241146,0.5097198486328125,-0.40087890625,-0.753204345703125
241147,0.4941864013671875,-0.3785247802734375,-0.7488861083984375
241148,0.4731903076171875,-0.364837646484375,-0.7362060546875
241149,0.444000244140625,-0.362030029296875,-0.7332916259765625
241150,0.4250640869140625,-0.36273193359375,-0.749542236328125
241151,0.4164581298828125,-0.3619232177734375,-0.761505126953125
241152,0.4215850830078125,-0.367645263671875,-0.773895263671875
241153,0.437225341796875,-0.36328125,-0.7831878662109375
241154,0.4580535888671875,-0.3669891357421875,-0.796661376953125
241155,0.5001373291015625,-0.35662841796875,-0.8108978271484375
241156,0.5469818115234375,-0.352325439453125,-0.8049774169921875
241157,0.574462890625,-0.3344268798828125,-0.7903594970703125
241158,0.594146728515625,-0.3138580322265625,-0.775054931640625
241159,0.589447021484375,-0.2935943603515625,-0.750701904296875
241160,0.5665283203125,-0.2556304931640625,-0.7221221923828125
241161,0.5180511474609375,-0.218414306640625,-0.703216552734375
241162,0.4835662841796875,-0.2098846435546875,-0.6945343017578125
241163,0.45245361328125,-0.2038726806640625,-0.706207275390625
241164,0.416900634765625,-0.194580078125,-0.7513427734375
241165,0.3751678466796875,-0.19677734375,-0.8072967529296875
241166,0.34088134765625,-0.20086669921875,-0.8546600341796875
241167,0.314300537109375,-0.20477294921875,-0.890350341796875
241168,0.2845306396484375,-0.21392822265625,-0.9116668701171876
241169,0.255950927734375,-0.2117919921875,-0.9223785400390624
241170,0.2254180908203125,-0.2038726806640625,-0.9364471435546876
241171,0.1903228759765625,-0.19500732421875,-0.9541473388671876
241172,0.1442413330078125,-0.1834259033203125,-0.9655609130859376
241173,0.09210205078125,-0.1732940673828125,-0.964447021484375
241174,0.03955078125,-0.1676788330078125,-0.9639739990234376
241175,-0.0128173828125,-0.154815673828125,-0.965240478515625
241176,-0.056182861328125,-0.1501007080078125,-0.9794464111328124
241177,-0.0775146484375,-0.146392822265625,-0.987762451171875
241178,-0.0796356201171875,-0.1521453857421875,-0.98895263671875
241179,-0.0659332275390625,-0.172760009765625,-0.9873809814453124
241180,-0.0334930419921875,-0.1927337646484375,-0.9832000732421876
241181,0.023895263671875,-0.2021942138671875,-0.9875946044921876
241182,0.097137451171875,-0.21392822265625,-1.010589599609375
241183,0.1823883056640625,-0.23785400390625,-1.036895751953125
241184,0.2781829833984375,-0.2512359619140625,-1.055831909179688
241185,0.37841796875,-0.25762939453125,-1.0687255859375
241186,0.4710540771484375,-0.27001953125,-1.060317993164062
241187,0.5382232666015625,-0.269287109375,-1.032974243164062
241188,0.5979461669921875,-0.256500244140625,-0.98590087890625
241189,0.634979248046875,-0.2544403076171875,-0.9341583251953124
241190,0.6346282958984375,-0.264007568359375,-0.88970947265625
241191,0.60528564453125,-0.2945098876953125,-0.8614501953125
241192,0.5623321533203125,-0.329376220703125,-0.84161376953125
241193,0.5238494873046875,-0.357391357421875,-0.8363189697265625
241194,0.5007781982421875,-0.38671875,-0.8117218017578125
241195,0.4875030517578125,-0.42333984375,-0.76654052734375
241196,0.4635772705078125,-0.482452392578125,-0.6885223388671875
241197,0.4430999755859375,-0.541107177734375,-0.66943359375
241198,0.4192352294921875,-0.563201904296875,-0.749755859375
241199,0.4104156494140625,-0.5947418212890625,-0.82708740234375
241200,0.41925048828125,-0.618408203125,-0.8972015380859375
241201,0.43341064453125,-0.6197967529296875,-0.9315643310546876
241202,0.4425048828125,-0.6110076904296875,-0.92254638671875
241203,0.4434661865234375,-0.583953857421875,-0.8916015625
241204,0.4432525634765625,-0.5518798828125,-0.8600921630859375
241205,0.45111083984375,-0.5276336669921875,-0.8310394287109375
241206,0.46636962890625,-0.52276611328125,-0.784088134765625
241207,0.49041748046875,-0.5199127197265625,-0.7369537353515625
241208,0.5162200927734375,-0.5109100341796875,-0.69317626953125
241209,0.534332275390625,-0.4913177490234375,-0.65142822265625
241210,0.531402587890625,-0.4513397216796875,-0.6175689697265625
241211,0.475433349609375,-0.37384033203125,-0.60711669921875
241212,0.5029449462890625,-0.411956787109375,-0.5997467041015625
241213,0.4588470458984375,-0.3399810791015625,-0.63104248046875
241214,0.460296630859375,-0.314910888671875,-0.655364990234375
241215,0.475738525390625,-0.3054962158203125,-0.6628265380859375
241216,0.4947357177734375,-0.31671142578125,-0.657867431640625
241217,0.5128631591796875,-0.3380126953125,-0.6482391357421875
241218,0.51904296875,-0.35137939453125,-0.64324951171875
241219,0.5213623046875,-0.355377197265625,-0.6545867919921875
241220,0.5354461669921875,-0.360015869140625,-0.6816253662109375
241221,0.5611724853515625,-0.3656005859375,-0.698883056640625
241222,0.5868682861328125,-0.362152099609375,-0.686981201171875
241223,0.604583740234375,-0.36627197265625,-0.67144775390625
241224,0.6134796142578125,-0.3865814208984375,-0.6774139404296875
241225,0.611328125,-0.4242095947265625,-0.7011871337890625
241226,0.589874267578125,-0.469482421875,-0.7336883544921875
241227,0.5576934814453125,-0.5001068115234375,-0.7801971435546875
241228,0.515869140625,-0.5215911865234375,-0.8293304443359375
241229,0.4777374267578125,-0.5257110595703125,-0.8801116943359375
241230,0.446197509765625,-0.5274200439453125,-0.9317169189453124
241231,0.414581298828125,-0.5301666259765625,-0.9765167236328124
241232,0.3821868896484375,-0.52618408203125,-1.011550903320312
241233,0.3565826416015625,-0.51080322265625,-1.028335571289062
241234,0.324554443359375,-0.497955322265625,-1.046554565429688
241235,0.292633056640625,-0.4623260498046875,-1.047271728515625
241236,0.2479400634765625,-0.42852783203125,-1.0369873046875
241237,0.18914794921875,-0.394683837890625,-1.02972412109375
241238,0.1268768310546875,-0.367156982421875,-1.028900146484375
241239,0.0735015869140625,-0.3417205810546875,-1.034317016601562
241240,0.0348052978515625,-0.307769775390625,-1.037399291992188
241241,0.0040283203125,-0.26055908203125,-1.036392211914062
241242,-0.02081298828125,-0.220367431640625,-1.021072387695312
241243,-0.027587890625,-0.1847991943359375,-0.9874114990234376
241244,-0.0235748291015625,-0.1514892578125,-0.9529876708984376
241245,-0.008758544921875,-0.12335205078125,-0.931243896484375
241246,0.0003814697265625,-0.1212310791015625,-0.91998291015625
241247,0.012451171875,-0.1443023681640625,-0.926300048828125
241248,0.0485076904296875,-0.1778106689453125,-0.9504241943359376
241249,0.097381591796875,-0.2056121826171875,-1.003524780273438
241250,0.159149169921875,-0.2629547119140625,-1.05657958984375
241251,0.2241668701171875,-0.329132080078125,-1.093338012695312
241252,0.28912353515625,-0.3992156982421875,-1.11932373046875
241253,0.340789794921875,-0.4804534912109375,-1.0877685546875
241254,0.3795928955078125,-0.528594970703125,-1.0465087890625
241255,0.403533935546875,-0.546875,-1.013931274414062
241256,0.419097900390625,-0.539825439453125,-1.002975463867188
241257,0.403717041015625,-0.5427703857421875,-0.96405029296875
241258,0.3612213134765625,-0.547576904296875,-0.89312744140625
241259,0.316375732421875,-0.5211944580078125,-0.820709228515625
241260,0.2950439453125,-0.4667205810546875,-0.7622528076171875
241261,0.290069580078125,-0.42047119140625,-0.73724365234375
241262,0.2921295166015625,-0.398193359375,-0.7109832763671875
241263,0.3075408935546875,-0.3806915283203125,-0.6804962158203125
241264,0.3504180908203125,-0.3606109619140625,-0.6889190673828125
241265,0.407928466796875,-0.3468475341796875,-0.751373291015625
241266,0.485748291015625,-0.3444671630859375,-0.8477020263671875
241267,0.597686767578125,-0.3509063720703125,-0.9335479736328124
241268,0.7139129638671875,-0.374755859375,-0.95269775390625
241269,0.7943115234375,-0.4034271240234375,-0.9185943603515624
241270,0.859893798828125,-0.412994384765625,-0.8586578369140625
241271,0.909637451171875,-0.3863067626953125,-0.776580810546875
241272,0.929046630859375,-0.346527099609375,-0.6855926513671875
241273,0.879852294921875,-0.3401336669921875,-0.5819244384765625
241274,0.7763214111328125,-0.370849609375,-0.5076751708984375
241275,0.67132568359375,-0.418792724609375,-0.513427734375
241276,0.589996337890625,-0.4738006591796875,-0.58050537109375
241277,0.532745361328125,-0.4978179931640625,-0.6706695556640625
241278,0.495330810546875,-0.51263427734375,-0.710906982421875
241279,0.48248291015625,-0.5178070068359375,-0.733642578125
241280,0.4938201904296875,-0.497802734375,-0.732940673828125
241281,0.5119781494140625,-0.4644622802734375,-0.7180633544921875
241282,0.521942138671875,-0.428009033203125,-0.71234130859375
241283,0.523223876953125,-0.388275146484375,-0.725555419921875
241284,0.513671875,-0.365692138671875,-0.7410736083984375
241285,0.5036468505859375,-0.3599700927734375,-0.74664306640625
241286,0.4965972900390625,-0.3581390380859375,-0.74444580078125
241287,0.484405517578125,-0.361724853515625,-0.740936279296875
241288,0.4708251953125,-0.3689727783203125,-0.737274169921875
241289,0.4701690673828125,-0.36749267578125,-0.7434234619140625
241290,0.4743194580078125,-0.352935791015625,-0.7422637939453125
241291,0.4835052490234375,-0.3466949462890625,-0.7420654296875
241292,0.494873046875,-0.3363037109375,-0.760650634765625
241293,0.5076446533203125,-0.3241119384765625,-0.787353515625
241294,0.5336151123046875,-0.3085479736328125,-0.7957305908203125
241295,0.5478363037109375,-0.2955322265625,-0.8078765869140625
241296,0.5323638916015625,-0.2576446533203125,-0.81854248046875
241297,0.501953125,-0.2307891845703125,-0.8239593505859375
241298,0.481109619140625,-0.2270355224609375,-0.8130950927734375
241299,0.44976806640625,-0.2036895751953125,-0.8071136474609375
241300,0.417083740234375,-0.1717681884765625,-0.815093994140625
241301,0.390625,-0.1540374755859375,-0.844512939453125
241302,0.360748291015625,-0.1539459228515625,-0.8787078857421875
241303,0.3331146240234375,-0.1569671630859375,-0.896484375
241304,0.3026580810546875,-0.1632537841796875,-0.90972900390625
241305,0.263519287109375,-0.1737823486328125,-0.9203643798828124
241306,0.2209320068359375,-0.1838226318359375,-0.930908203125
241307,0.1818389892578125,-0.1833038330078125,-0.9465789794921876
241308,0.1392364501953125,-0.186737060546875,-0.96630859375
241309,0.1063385009765625,-0.1797027587890625,-0.9922027587890624
241310,0.0679473876953125,-0.171875,-1.02099609375
241311,0.0323486328125,-0.1658782958984375,-1.042083740234375
241312,0.0098876953125,-0.1692047119140625,-1.053192138671875
241313,-0.0125885009765625,-0.1765899658203125,-1.050491333007812
241314,-0.0319671630859375,-0.1905059814453125,-1.0291748046875
241315,-0.033416748046875,-0.2160797119140625,-1.000350952148438
241316,0.00628662109375,-0.22662353515625,-0.98004150390625
241317,0.064361572265625,-0.2334442138671875,-0.9660186767578124
241318,0.127960205078125,-0.24945068359375,-0.971649169921875
241319,0.1984405517578125,-0.2723388671875,-0.9903411865234376
241320,0.27392578125,-0.3096923828125,-1.000213623046875
241321,0.341949462890625,-0.33599853515625,-0.987518310546875
241322,0.398773193359375,-0.3431854248046875,-0.9705352783203124
241323,0.4502716064453125,-0.33441162109375,-0.96636962890625
241324,0.5085601806640625,-0.3115234375,-0.9549102783203124
241325,0.5613861083984375,-0.2791595458984375,-0.9083404541015624
241326,0.6025390625,-0.2554931640625,-0.84381103515625
241327,0.616546630859375,-0.244842529296875,-0.7959136962890625
241328,0.595794677734375,-0.262298583984375,-0.763885498046875
241329,0.5536041259765625,-0.3177337646484375,-0.743438720703125
241330,0.5030975341796875,-0.380645751953125,-0.7222442626953125
241331,0.461883544921875,-0.433990478515625,-0.70587158203125
241332,0.4439239501953125,-0.4887237548828125,-0.7307281494140625
241333,0.4258575439453125,-0.5567474365234375,-0.765411376953125
241334,0.4105987548828125,-0.6026153564453125,-0.8138275146484375
241335,0.3913116455078125,-0.64727783203125,-0.834197998046875
241336,0.3905029296875,-0.660858154296875,-0.9139404296875
241337,0.3926849365234375,-0.6669464111328125,-0.9589691162109376
241338,0.4023284912109375,-0.67510986328125,-0.9319305419921876
241339,0.414337158203125,-0.6684722900390625,-0.88116455078125
241340,0.428802490234375,-0.6420440673828125,-0.8323211669921875
241341,0.44000244140625,-0.61199951171875,-0.7943878173828125
241342,0.459259033203125,-0.57952880859375,-0.776031494140625
241343,0.4844512939453125,-0.560638427734375,-0.743316650390625
241344,0.4954833984375,-0.555511474609375,-0.7043914794921875
241345,0.4960479736328125,-0.539642333984375,-0.67706298828125
241346,0.4871673583984375,-0.5045318603515625,-0.6535186767578125
241347,0.4572601318359375,-0.4616241455078125,-0.6358489990234375
241348,0.4176788330078125,-0.4191131591796875,-0.643310546875
241349,0.3967132568359375,-0.37060546875,-0.6546783447265625
241350,0.4140777587890625,-0.3238677978515625,-0.656005859375
241351,0.4512481689453125,-0.2929840087890625,-0.640380859375
241352,0.479461669921875,-0.2888336181640625,-0.6187896728515625
241353,0.4951324462890625,-0.3106536865234375,-0.5981292724609375
241354,0.50933837890625,-0.3380584716796875,-0.5977783203125
241355,0.5446014404296875,-0.3436126708984375,-0.6442108154296875
241356,0.527130126953125,-0.3436737060546875,-0.6163482666015625
241357,0.55462646484375,-0.3453521728515625,-0.6837615966796875
241358,0.56640625,-0.350738525390625,-0.746429443359375
241359,0.5692291259765625,-0.375152587890625,-0.7694091796875
241360,0.5633544921875,-0.412872314453125,-0.75115966796875
241361,0.5510711669921875,-0.4610137939453125,-0.758880615234375
241362,0.5265960693359375,-0.510223388671875,-0.7897491455078125
241363,0.4871063232421875,-0.5438079833984375,-0.8232879638671875
241364,0.4473876953125,-0.567535400390625,-0.8459320068359375
241365,0.414306640625,-0.588714599609375,-0.859710693359375
241366,0.3858489990234375,-0.5967254638671875,-0.886932373046875
241367,0.3703155517578125,-0.59130859375,-0.9225921630859376
241368,0.365264892578125,-0.580322265625,-0.965728759765625
241369,0.3583831787109375,-0.574951171875,-0.9996337890625
241370,0.3479461669921875,-0.547119140625,-1.017471313476562
241371,0.3262786865234375,-0.5169830322265625,-1.0333251953125
241372,0.29547119140625,-0.4889678955078125,-1.028152465820312
241373,0.2605133056640625,-0.447601318359375,-1.006927490234375
241374,0.2298431396484375,-0.410491943359375,-0.9887237548828124
241375,0.1912689208984375,-0.3709869384765625,-0.9697113037109376
241376,0.1577606201171875,-0.3413543701171875,-0.963775634765625
241377,0.1217193603515625,-0.316162109375,-0.96820068359375
241378,0.086181640625,-0.303802490234375,-0.963287353515625
241379,0.066314697265625,-0.296539306640625,-0.9293365478515624
241380,0.0581817626953125,-0.2694549560546875,-0.8933868408203125
241381,0.056854248046875,-0.2172393798828125,-0.8836822509765625
241382,0.0484771728515625,-0.17779541015625,-0.886688232421875
241383,0.0196685791015625,-0.17913818359375,-0.8679656982421875
241384,0.0045623779296875,-0.1827239990234375,-0.921295166015625
241385,0.005279541015625,-0.21429443359375,-0.9593048095703124
241386,0.0320281982421875,-0.27117919921875,-0.986572265625
241387,0.0669403076171875,-0.343536376953125,-0.991302490234375
241388,0.103424072265625,-0.4354095458984375,-1.009857177734375
241389,0.1495513916015625,-0.526092529296875,-1.02850341796875
241390,0.1995391845703125,-0.585052490234375,-1.057998657226562
241391,0.249542236328125,-0.6215972900390625,-1.057907104492188
241392,0.2937774658203125,-0.6364898681640625,-1.039749145507812
241393,0.3007049560546875,-0.6373138427734375,-1.0086669921875
241394,0.2722015380859375,-0.6277008056640625,-0.954437255859375
241395,0.217010498046875,-0.597442626953125,-0.8896026611328125
241396,0.1698760986328125,-0.5159912109375,-0.8772735595703125
241397,0.157257080078125,-0.4415435791015625,-0.8912200927734375
241398,0.1591033935546875,-0.431640625,-0.82415771484375
241399,0.1686248779296875,-0.44976806640625,-0.7241973876953125
241400,0.1756134033203125,-0.459991455078125,-0.65472412109375
241401,0.1932525634765625,-0.44915771484375,-0.6456298828125
241402,0.2424468994140625,-0.42266845703125,-0.68133544921875
241403,0.3211669921875,-0.3792266845703125,-0.75732421875
241404,0.426513671875,-0.370819091796875,-0.84490966796875
241405,0.5450592041015625,-0.400421142578125,-0.8914947509765625
241406,0.654693603515625,-0.4487457275390625,-0.878875732421875
241407,0.7303466796875,-0.500396728515625,-0.862518310546875
241408,0.799102783203125,-0.5181121826171875,-0.8589630126953125
241409,0.847412109375,-0.500396728515625,-0.825653076171875
241410,0.843536376953125,-0.490203857421875,-0.76019287109375
241411,0.799652099609375,-0.48724365234375,-0.6951141357421875
241412,0.7344818115234375,-0.505615234375,-0.6643524169921875
241413,0.6669464111328125,-0.5431976318359375,-0.6579742431640625
241414,0.6200408935546875,-0.576446533203125,-0.6681365966796875
241415,0.5929412841796875,-0.591949462890625,-0.687255859375
241416,0.588897705078125,-0.579681396484375,-0.6998443603515625
241417,0.6014404296875,-0.548431396484375,-0.7086944580078125
241418,0.6161041259765625,-0.4968719482421875,-0.7090911865234375
241419,0.6225738525390625,-0.450714111328125,-0.7002716064453125
241420,0.6221923828125,-0.412017822265625,-0.6907196044921875
241421,0.6151885986328125,-0.3896942138671875,-0.68511962890625
241422,0.600921630859375,-0.379119873046875,-0.6774444580078125
241423,0.578399658203125,-0.3722686767578125,-0.665985107421875
241424,0.5620574951171875,-0.362884521484375,-0.6616058349609375
241425,0.5499267578125,-0.3415069580078125,-0.669158935546875
241426,0.5342864990234375,-0.3327484130859375,-0.6811676025390625
241427,0.5227813720703125,-0.330535888671875,-0.7079010009765625
241428,0.5205841064453125,-0.3334503173828125,-0.75897216796875
241429,0.5270843505859375,-0.3348541259765625,-0.806854248046875
241430,0.53948974609375,-0.338836669921875,-0.835235595703125
241431,0.55584716796875,-0.3489227294921875,-0.8324737548828125
241432,0.5601959228515625,-0.3428955078125,-0.800384521484375
241433,0.545135498046875,-0.333465576171875,-0.7609710693359375
241434,0.53375244140625,-0.2912750244140625,-0.7350616455078125
241435,0.5037994384765625,-0.2515106201171875,-0.72845458984375
241436,0.46636962890625,-0.2178955078125,-0.7264862060546875
241437,0.42071533203125,-0.184295654296875,-0.7456817626953125
241438,0.369049072265625,-0.1678924560546875,-0.7877197265625
241439,0.3269500732421875,-0.1713104248046875,-0.8391876220703125
241440,0.298492431640625,-0.1933441162109375,-0.8818511962890625
241441,0.2667388916015625,-0.2169647216796875,-0.91839599609375
241442,0.224700927734375,-0.2451019287109375,-0.94989013671875
241443,0.1771087646484375,-0.266998291015625,-0.9863128662109376
241444,0.13232421875,-0.2663726806640625,-1.017898559570312
241445,0.0805816650390625,-0.261077880859375,-1.02960205078125
241446,0.0438079833984375,-0.23907470703125,-1.036285400390625
241447,0.0189056396484375,-0.206939697265625,-1.0301513671875
241448,-0.0096435546875,-0.1741790771484375,-1.024185180664062
241449,-0.0364227294921875,-0.1535797119140625,-0.99871826171875
241450,-0.050201416015625,-0.133544921875,-0.97064208984375
241451,-0.053802490234375,-0.1314697265625,-0.9492034912109376
241452,-0.0574951171875,-0.1610260009765625,-0.934051513671875
241453,-0.0577850341796875,-0.200042724609375,-0.916259765625
241454,-0.038726806640625,-0.2259674072265625,-0.90936279296875
241455,-0.0081787109375,-0.252410888671875,-0.9316558837890624
241456,0.0395660400390625,-0.2823333740234375,-0.964630126953125
241457,0.1039886474609375,-0.3108673095703125,-0.9967041015625
241458,0.1939849853515625,-0.3378753662109375,-1.034591674804688
241459,0.3000640869140625,-0.3632965087890625,-1.048324584960938
241460,0.4186248779296875,-0.363525390625,-1.045120239257812
241461,0.521453857421875,-0.347930908203125,-1.023162841796875
241462,0.5810394287109375,-0.3217926025390625,-0.9900665283203124
241463,0.6147308349609375,-0.2962799072265625,-0.9687652587890624
241464,0.6333770751953125,-0.282012939453125,-0.9455108642578124
241465,0.6234893798828125,-0.282562255859375,-0.917633056640625
241466,0.59405517578125,-0.2939910888671875,-0.870574951171875
241467,0.561920166015625,-0.3180694580078125,-0.8078765869140625
241468,0.5286102294921875,-0.340301513671875,-0.7856903076171875
241469,0.5016632080078125,-0.368621826171875,-0.774688720703125
241470,0.4753875732421875,-0.405303955078125,-0.7323150634765625
241471,0.450775146484375,-0.4377593994140625,-0.7032928466796875
241472,0.4239654541015625,-0.4763946533203125,-0.6743621826171875
241473,0.41357421875,-0.5261077880859375,-0.7284393310546875
241474,0.406646728515625,-0.556304931640625,-0.8390045166015625
241475,0.409820556640625,-0.5908660888671875,-0.9005584716796875
241476,0.427398681640625,-0.6029815673828125,-0.9368438720703124
241477,0.4529571533203125,-0.5823516845703125,-0.9482269287109376
241478,0.4763336181640625,-0.55535888671875,-0.9270172119140624
241479,0.4922027587890625,-0.523345947265625,-0.875396728515625
241480,0.4970550537109375,-0.49542236328125,-0.81451416015625
241481,0.49462890625,-0.4930877685546875,-0.7679290771484375
241482,0.5002899169921875,-0.4951019287109375,-0.740447998046875
241483,0.5116424560546875,-0.4969482421875,-0.7261810302734375
241484,0.5258941650390625,-0.500640869140625,-0.6983795166015625
241485,0.526885986328125,-0.496551513671875,-0.650970458984375
241486,0.49945068359375,-0.4643707275390625,-0.6102752685546875
241487,0.44329833984375,-0.4195556640625,-0.6016082763671875
241488,0.3925018310546875,-0.367462158203125,-0.6279754638671875
241489,0.3759002685546875,-0.330352783203125,-0.6637725830078125
241490,0.3931884765625,-0.3169403076171875,-0.6872711181640625
241491,0.426849365234375,-0.3159637451171875,-0.6955718994140625
241492,0.4561309814453125,-0.3296966552734375,-0.6884765625
241493,0.4694366455078125,-0.357666015625,-0.674957275390625
241494,0.47198486328125,-0.39691162109375,-0.6598663330078125
241495,0.4762725830078125,-0.4133453369140625,-0.6476898193359375
241496,0.482818603515625,-0.413299560546875,-0.664276123046875
241497,0.500946044921875,-0.40155029296875,-0.699432373046875
241498,0.525238037109375,-0.3787994384765625,-0.7320709228515625
241499,0.54730224609375,-0.3859710693359375,-0.7280120849609375
241500,0.5668792724609375,-0.40673828125,-0.7187347412109375
241501,0.575653076171875,-0.43377685546875,-0.7336273193359375
241502,0.5662994384765625,-0.462005615234375,-0.7652740478515625
241503,0.5423583984375,-0.484405517578125,-0.79815673828125
241504,0.5042572021484375,-0.50262451171875,-0.8213653564453125
241505,0.4648895263671875,-0.51556396484375,-0.842010498046875
241506,0.435577392578125,-0.5261688232421875,-0.8757781982421875
241507,0.4144744873046875,-0.541778564453125,-0.9167327880859376
241508,0.3934478759765625,-0.5486297607421875,-0.9583282470703124
241509,0.370819091796875,-0.5313568115234375,-0.9901123046875
241510,0.3453369140625,-0.508209228515625,-1.021804809570312
241511,0.318878173828125,-0.4775390625,-1.040069580078125
241512,0.2764129638671875,-0.4488067626953125,-1.03289794921875
241513,0.22930908203125,-0.4185028076171875,-1.01873779296875
241514,0.1717529296875,-0.390350341796875,-1.002273559570312
241515,0.11651611328125,-0.3589019775390625,-1.002105712890625
241516,0.063568115234375,-0.3242645263671875,-1.012619018554688
241517,0.0225982666015625,-0.29754638671875,-1.023391723632812
241518,0.00408935546875,-0.273681640625,-1.01251220703125
241519,-0.0023956298828125,-0.2401275634765625,-0.9891815185546876
241520,0.000518798828125,-0.199676513671875,-0.9603424072265624
241521,0.0155792236328125,-0.1625518798828125,-0.9450836181640624
241522,0.041015625,-0.1432342529296875,-0.9486846923828124
241523,0.0561370849609375,-0.1614837646484375,-0.95098876953125
241524,0.06201171875,-0.1962738037109375,-0.9480743408203124
241525,0.0898895263671875,-0.240875244140625,-0.957550048828125
241526,0.1566314697265625,-0.2994842529296875,-0.98681640625
241527,0.2278289794921875,-0.352264404296875,-1.021728515625
241528,0.2814788818359375,-0.4033966064453125,-1.052322387695312
241529,0.3242645263671875,-0.448944091796875,-1.075546264648438
241530,0.3668060302734375,-0.497711181640625,-1.072021484375
241531,0.4132537841796875,-0.539642333984375,-1.037887573242188
241532,0.442230224609375,-0.570770263671875,-0.9893035888671876
241533,0.4415283203125,-0.5748748779296875,-0.972625732421875
241534,0.3983612060546875,-0.5698089599609375,-0.9178314208984376
241535,0.3314056396484375,-0.5537567138671875,-0.8438262939453125
241536,0.2617645263671875,-0.5041961669921875,-0.812408447265625
241537,0.2223968505859375,-0.4755706787109375,-0.7697601318359375
241538,0.2155609130859375,-0.4628448486328125,-0.7416839599609375
241539,0.219757080078125,-0.4337005615234375,-0.7139129638671875
241540,0.2410430908203125,-0.4053192138671875,-0.7002105712890625
241541,0.2960968017578125,-0.3742523193359375,-0.7181854248046875
241542,0.3861541748046875,-0.3563079833984375,-0.769256591796875
241543,0.5172271728515625,-0.34722900390625,-0.8377685546875
241544,0.66705322265625,-0.3507843017578125,-0.869415283203125
241545,0.7856597900390625,-0.374755859375,-0.8632354736328125
241546,0.872406005859375,-0.3817291259765625,-0.827911376953125
241547,0.9444732666015624,-0.355072021484375,-0.7788543701171875
241548,0.977813720703125,-0.31756591796875,-0.7308502197265625
241549,0.9501800537109376,-0.3031768798828125,-0.6715545654296875
241550,0.8652496337890625,-0.342559814453125,-0.60992431640625
241551,0.76214599609375,-0.40325927734375,-0.5921478271484375
241552,0.65850830078125,-0.4690704345703125,-0.6166229248046875
241553,0.5764923095703125,-0.52471923828125,-0.650726318359375
241554,0.528533935546875,-0.558319091796875,-0.683868408203125
241555,0.51751708984375,-0.559783935546875,-0.711517333984375
241556,0.521087646484375,-0.533447265625,-0.7203521728515625
241557,0.5319061279296875,-0.494476318359375,-0.7151641845703125
241558,0.537384033203125,-0.443145751953125,-0.7057647705078125
241559,0.522735595703125,-0.388671875,-0.7095794677734375
241560,0.4953765869140625,-0.358489990234375,-0.7366180419921875
241561,0.464569091796875,-0.347015380859375,-0.7536163330078125
241562,0.429962158203125,-0.3421478271484375,-0.749359130859375
241563,0.405548095703125,-0.34185791015625,-0.7391815185546875
241564,0.3985443115234375,-0.3480072021484375,-0.72296142578125
241565,0.4007110595703125,-0.351409912109375,-0.704742431640625
241566,0.40496826171875,-0.352203369140625,-0.6937408447265625
241567,0.415191650390625,-0.3502655029296875,-0.6987762451171875
241568,0.4327545166015625,-0.366485595703125,-0.7432098388671875
241569,0.4568634033203125,-0.3767852783203125,-0.7828826904296875
241570,0.4881591796875,-0.365325927734375,-0.7981719970703125
241571,0.517730712890625,-0.3524932861328125,-0.813232421875
241572,0.537567138671875,-0.34332275390625,-0.836334228515625
241573,0.5374298095703125,-0.310821533203125,-0.864166259765625
241574,0.5093231201171875,-0.2888946533203125,-0.823486328125
241575,0.4700164794921875,-0.2711029052734375,-0.7705535888671875
241576,0.4332733154296875,-0.2513427734375,-0.7437591552734375
241577,0.39556884765625,-0.228118896484375,-0.748870849609375
241578,0.35516357421875,-0.2220916748046875,-0.791778564453125
241579,0.3299560546875,-0.2283172607421875,-0.8380584716796875
241580,0.307037353515625,-0.235565185546875,-0.8733978271484375
241581,0.277801513671875,-0.2530059814453125,-0.90997314453125
241582,0.2569122314453125,-0.268341064453125,-0.940582275390625
241583,0.228912353515625,-0.2750244140625,-0.9532928466796876
241584,0.1883392333984375,-0.2663116455078125,-0.9664459228515624
241585,0.1406097412109375,-0.2454376220703125,-0.9757537841796876
241586,0.088226318359375,-0.2259521484375,-0.97222900390625
241587,0.035797119140625,-0.2120513916015625,-0.9651641845703124
241588,-0.0055694580078125,-0.1866912841796875,-0.972198486328125
241589,-0.031097412109375,-0.1630706787109375,-0.9862823486328124
241590,-0.0499114990234375,-0.149871826171875,-0.989044189453125
241591,-0.0616455078125,-0.1625823974609375,-0.991363525390625
241592,-0.0536956787109375,-0.18701171875,-0.984710693359375
241593,-0.022003173828125,-0.2008209228515625,-0.98516845703125
241594,0.0278778076171875,-0.2028961181640625,-1.0062255859375
241595,0.0948028564453125,-0.211090087890625,-1.054214477539062
241596,0.18353271484375,-0.230499267578125,-1.099472045898438
241597,0.278900146484375,-0.24102783203125,-1.1241455078125
241598,0.3734588623046875,-0.251434326171875,-1.125381469726562
241599,0.464202880859375,-0.267974853515625,-1.112380981445312
241600,0.5477294921875,-0.284637451171875,-1.0810546875
241601,0.6123809814453125,-0.2842559814453125,-1.039825439453125
241602,0.64898681640625,-0.2998809814453125,-0.9741058349609376
241603,0.66180419921875,-0.3156890869140625,-0.90521240234375
241604,0.64166259765625,-0.3314361572265625,-0.8689727783203125
241605,0.595794677734375,-0.35528564453125,-0.881103515625
241606,0.5406646728515625,-0.3988800048828125,-0.8785552978515625
241607,0.483489990234375,-0.4545135498046875,-0.832489013671875
241608,0.4410858154296875,-0.495941162109375,-0.7722930908203125
241609,0.4068603515625,-0.5261383056640625,-0.6946258544921875
241610,0.382720947265625,-0.563995361328125,-0.6663665771484375
241611,0.3526458740234375,-0.584136962890625,-0.6717529296875
241612,0.336669921875,-0.5951080322265625,-0.741241455078125
241613,0.3308868408203125,-0.5859832763671875,-0.8195343017578125
241614,0.3396759033203125,-0.590423583984375,-0.8335113525390625
241615,0.3550872802734375,-0.59942626953125,-0.817962646484375
241616,0.3676300048828125,-0.5900115966796875,-0.7880859375
241617,0.3729095458984375,-0.5706939697265625,-0.7694854736328125
241618,0.379150390625,-0.5420684814453125,-0.7788848876953125
241619,0.40057373046875,-0.514678955078125,-0.803253173828125
241620,0.427764892578125,-0.50982666015625,-0.7861480712890625
241621,0.455322265625,-0.5202178955078125,-0.7274627685546875
241622,0.48126220703125,-0.5171051025390625,-0.670684814453125
241623,0.4875946044921875,-0.487396240234375,-0.637176513671875
241624,0.47637939453125,-0.4418487548828125,-0.6276702880859375
241625,0.4619140625,-0.4037322998046875,-0.634918212890625
241626,0.463653564453125,-0.3901214599609375,-0.636505126953125
241627,0.47552490234375,-0.3910369873046875,-0.62957763671875
241628,0.4956207275390625,-0.40008544921875,-0.6378021240234375
241629,0.526214599609375,-0.411712646484375,-0.650238037109375
241630,0.553558349609375,-0.414398193359375,-0.6514129638671875
241631,0.5711212158203125,-0.416015625,-0.6517791748046875
241632,0.5858001708984375,-0.4062042236328125,-0.651824951171875
241633,0.6030731201171875,-0.376678466796875,-0.6484832763671875
241634,0.611053466796875,-0.380035400390625,-0.633880615234375
241635,0.6100311279296875,-0.3983154296875,-0.6147003173828125
241636,0.5983123779296875,-0.418670654296875,-0.6113433837890625
241637,0.5902252197265625,-0.4534912109375,-0.62890625
241638,0.5897064208984375,-0.49420166015625,-0.6613616943359375
241639,0.578857421875,-0.5329437255859375,-0.7178497314453125
241640,0.5462188720703125,-0.557159423828125,-0.7898406982421875
241641,0.49578857421875,-0.572998046875,-0.8433685302734375
241642,0.4463653564453125,-0.5663604736328125,-0.8897705078125
241643,0.399932861328125,-0.5434722900390625,-0.9403076171875
241644,0.3662567138671875,-0.5274658203125,-0.9947357177734376
241645,0.34869384765625,-0.517730712890625,-1.033843994140625
241646,0.32818603515625,-0.5009918212890625,-1.052108764648438
241647,0.294525146484375,-0.481231689453125,-1.06427001953125
241648,0.248687744140625,-0.4548187255859375,-1.072418212890625
241649,0.1989288330078125,-0.4225006103515625,-1.069305419921875
241650,0.142547607421875,-0.3892974853515625,-1.066665649414062
241651,0.0868682861328125,-0.3447723388671875,-1.074508666992188
241652,0.0313262939453125,-0.3169403076171875,-1.0712890625
241653,-0.0102691650390625,-0.287109375,-1.072296142578125
241654,-0.0279998779296875,-0.2261810302734375,-1.0865478515625
241655,-0.0628662109375,-0.2266082763671875,-1.064071655273438
241656,-0.0436248779296875,-0.19287109375,-1.064071655273438
241657,-0.0467987060546875,-0.1513214111328125,-1.002151489257812
241658,-0.0385284423828125,-0.12469482421875,-0.9329986572265624
241659,0.026336669921875,-0.0774993896484375,-0.9568328857421876
241660,0.046722412109375,-0.0717926025390625,-0.9453887939453124
241661,0.05804443359375,-0.0880126953125,-0.9512939453125
241662,0.079620361328125,-0.1363677978515625,-0.9704132080078124
241663,0.10650634765625,-0.2160186767578125,-0.9845733642578124
241664,0.160888671875,-0.300018310546875,-0.998077392578125
241665,0.2365875244140625,-0.377044677734375,-1.014739990234375
241666,0.319061279296875,-0.4387054443359375,-1.027084350585938
241667,0.378631591796875,-0.47869873046875,-1.01470947265625
241668,0.4202423095703125,-0.498626708984375,-0.9975128173828124
241669,0.4440155029296875,-0.5172882080078125,-0.9835662841796876
241670,0.45733642578125,-0.5227508544921875,-0.963592529296875
241671,0.4586639404296875,-0.517333984375,-0.8978118896484375
241672,0.4307098388671875,-0.5172576904296875,-0.857177734375
241673,0.39013671875,-0.4825592041015625,-0.830108642578125
241674,0.3663482666015625,-0.438140869140625,-0.7886810302734375
241675,0.3595428466796875,-0.4087982177734375,-0.74395751953125
241676,0.367584228515625,-0.3935699462890625,-0.7199859619140625
241677,0.3735198974609375,-0.38421630859375,-0.7181243896484375
241678,0.398712158203125,-0.37017822265625,-0.7513580322265625
241679,0.450164794921875,-0.363189697265625,-0.8114471435546875
241680,0.517059326171875,-0.364837646484375,-0.8708953857421875
241681,0.6066741943359375,-0.368499755859375,-0.888397216796875
241682,0.6988372802734375,-0.383514404296875,-0.8497314453125
241683,0.79022216796875,-0.3859100341796875,-0.7815399169921875
241684,0.87054443359375,-0.3689422607421875,-0.711669921875
241685,0.9204254150390624,-0.3365020751953125,-0.6630706787109375
241686,0.9256744384765624,-0.2943115234375,-0.6285400390625
241687,0.8675079345703125,-0.299285888671875,-0.60626220703125
241688,0.7747955322265625,-0.3422698974609375,-0.6037139892578125
241689,0.7014617919921875,-0.3644866943359375,-0.6123199462890625
241690,0.635162353515625,-0.372222900390625,-0.62457275390625
241691,0.5748748779296875,-0.3826904296875,-0.653717041015625
241692,0.5379180908203125,-0.3793182373046875,-0.6776123046875
241693,0.517425537109375,-0.3526763916015625,-0.68280029296875
241694,0.5101776123046875,-0.3299102783203125,-0.6813507080078125
241695,0.4974365234375,-0.31610107421875,-0.6778411865234375
241696,0.4705352783203125,-0.3155975341796875,-0.686004638671875
241697,0.4476470947265625,-0.331787109375,-0.7071075439453125
241698,0.429901123046875,-0.35137939453125,-0.7439117431640625
241699,0.417755126953125,-0.3589935302734375,-0.8002471923828125
241700,0.42919921875,-0.371490478515625,-0.8419036865234375
241701,0.4475555419921875,-0.4106903076171875,-0.852325439453125
241702,0.4306793212890625,-0.4388580322265625,-0.8485260009765625
241703,0.427215576171875,-0.4519805908203125,-0.8547210693359375
241704,0.4448394775390625,-0.47174072265625,-0.8656005859375
241705,0.4644927978515625,-0.486175537109375,-0.8795166015625
241706,0.4933013916015625,-0.474761962890625,-0.8969879150390625
241707,0.535430908203125,-0.4417266845703125,-0.9007110595703125
241708,0.558197021484375,-0.3993377685546875,-0.8821563720703125
241709,0.5583953857421875,-0.3551025390625,-0.8537445068359375
241710,0.549560546875,-0.3045501708984375,-0.842742919921875
241711,0.5363616943359375,-0.2595367431640625,-0.878631591796875
241712,0.5155487060546875,-0.233978271484375,-0.9355621337890624
241713,0.5137176513671875,-0.1932220458984375,-0.9618988037109376
241714,0.5004730224609375,-0.1664581298828125,-0.862640380859375
241715,0.460296630859375,-0.1472930908203125,-0.7698516845703125
241716,0.3975982666015625,-0.0722808837890625,-0.977447509765625
241717,0.368896484375,-0.056793212890625,-1.26861572265625
241718,0.3096466064453125,-0.0528411865234375,-1.003646850585938
241719,0.2089691162109375,-0.09881591796875,-0.7532196044921875
241720,0.0986785888671875,-0.17254638671875,-0.72174072265625
241721,0.014801025390625,-0.19677734375,-0.8463134765625
241722,-0.012847900390625,-0.1543426513671875,-0.953765869140625
241723,-0.024444580078125,-0.1042327880859375,-0.9888763427734376
241724,-0.0165863037109375,-0.07781982421875,-0.9710540771484376
241725,-0.040863037109375,-0.0567169189453125,-0.9629364013671876
241726,-0.06744384765625,-0.0717010498046875,-0.9632568359375
241727,-0.09197998046875,-0.0996551513671875,-0.965576171875
241728,-0.093048095703125,-0.1129608154296875,-0.9411468505859376
241729,-0.04949951171875,-0.1153411865234375,-0.9046630859375
241730,0.0140838623046875,-0.1118927001953125,-0.8979949951171875
241731,0.0960235595703125,-0.094207763671875,-0.934814453125
241732,0.1865081787109375,-0.0858612060546875,-0.9758148193359376
241733,0.2696533203125,-0.113555908203125,-0.979217529296875
241734,0.3507080078125,-0.1659698486328125,-0.981689453125
241735,0.439422607421875,-0.19757080078125,-0.9632568359375
241736,0.5330352783203125,-0.21563720703125,-0.9503326416015624
241737,0.61590576171875,-0.2281341552734375,-0.9445343017578124
241738,0.644744873046875,-0.239044189453125,-0.9222412109375
241739,0.6358795166015625,-0.2642974853515625,-0.8986968994140625
241740,0.604461669921875,-0.312286376953125,-0.8713531494140625
241741,0.5554656982421875,-0.3650054931640625,-0.843475341796875
241742,0.493194580078125,-0.422882080078125,-0.8123779296875
241743,0.436737060546875,-0.49786376953125,-0.7845001220703125
241744,0.389068603515625,-0.56817626953125,-0.768646240234375
241745,0.349853515625,-0.606658935546875,-0.750518798828125
241746,0.319183349609375,-0.61236572265625,-0.7658233642578125
241747,0.2883758544921875,-0.615386962890625,-0.802276611328125
241748,0.2626495361328125,-0.63641357421875,-0.8474578857421875
241749,0.2495574951171875,-0.6643218994140625,-0.8857421875
241750,0.2506103515625,-0.680328369140625,-0.9108734130859376
241751,0.266754150390625,-0.664337158203125,-0.89776611328125
241752,0.3067169189453125,-0.63201904296875,-0.852691650390625
241753,0.3696746826171875,-0.5617218017578125,-0.83514404296875
241754,0.42364501953125,-0.5069580078125,-0.7984466552734375
241755,0.4676361083984375,-0.4888458251953125,-0.723876953125
241756,0.5056610107421875,-0.466339111328125,-0.6573333740234375
241757,0.5168914794921875,-0.437591552734375,-0.6014862060546875
241758,0.49835205078125,-0.3978118896484375,-0.5610504150390625
241759,0.4740142822265625,-0.3519134521484375,-0.542510986328125
241760,0.455047607421875,-0.3152313232421875,-0.5545501708984375
241761,0.4719085693359375,-0.295074462890625,-0.5833282470703125
241762,0.511199951171875,-0.305450439453125,-0.60174560546875
241763,0.5654754638671875,-0.3504791259765625,-0.6227569580078125
241764,0.610687255859375,-0.408355712890625,-0.639312744140625
241765,0.6278533935546875,-0.445465087890625,-0.6577911376953125
241766,0.6236419677734375,-0.4568328857421875,-0.671417236328125
241767,0.6227569580078125,-0.4422149658203125,-0.6941375732421875
241768,0.6181182861328125,-0.4402008056640625,-0.71478271484375
241769,0.6056365966796875,-0.4549102783203125,-0.7342987060546875
241770,0.5868988037109375,-0.4828643798828125,-0.748291015625
241771,0.5792236328125,-0.5188446044921875,-0.777374267578125
241772,0.5773468017578125,-0.56591796875,-0.8065185546875
241773,0.542724609375,-0.5822906494140625,-0.8222808837890625
241774,0.489349365234375,-0.593017578125,-0.8333587646484375
241775,0.43194580078125,-0.6027374267578125,-0.8743743896484375
241776,0.377166748046875,-0.5940093994140625,-0.93841552734375
241777,0.3296356201171875,-0.5805511474609375,-1.005752563476562
241778,0.282867431640625,-0.58953857421875,-1.054977416992188
241779,0.253936767578125,-0.5979461669921875,-1.06951904296875
241780,0.2418060302734375,-0.584564208984375,-1.07135009765625
241781,0.224151611328125,-0.552093505859375,-1.071121215820312
241782,0.196014404296875,-0.50994873046875,-1.07574462890625
241783,0.15814208984375,-0.470672607421875,-1.068634033203125
241784,0.1270751953125,-0.42822265625,-1.048797607421875
241785,0.0857086181640625,-0.3946990966796875,-1.030166625976562
241786,0.044158935546875,-0.3686065673828125,-1.006546020507812
241787,0.0289764404296875,-0.3345947265625,-0.9940338134765624
241788,0.0255889892578125,-0.275909423828125,-0.9813385009765624
241789,0.00836181640625,-0.2447052001953125,-0.9682159423828124
241790,0.0121002197265625,-0.220184326171875,-0.979278564453125
241791,0.03033447265625,-0.1927490234375,-0.9962310791015624
241792,0.0575714111328125,-0.17626953125,-1.01898193359375
241793,0.0637054443359375,-0.1949005126953125,-0.997650146484375
241794,0.0672149658203125,-0.249176025390625,-0.9319915771484376
241795,0.07720947265625,-0.3045806884765625,-0.9352874755859376
241796,0.0936737060546875,-0.3635406494140625,-1.021270751953125
241797,0.1389923095703125,-0.4297637939453125,-1.142776489257812
241798,0.210845947265625,-0.48089599609375,-1.154373168945312
241799,0.2909698486328125,-0.502685546875,-1.100936889648438
241800,0.33990478515625,-0.5090789794921875,-1.054214477539062
241801,0.349945068359375,-0.511871337890625,-1.001846313476562
241802,0.32330322265625,-0.5042572021484375,-0.9510498046875
241803,0.2666473388671875,-0.48809814453125,-0.876678466796875
241804,0.2195587158203125,-0.4365386962890625,-0.807373046875
241805,0.2004241943359375,-0.383270263671875,-0.7711334228515625
241806,0.197479248046875,-0.3646392822265625,-0.726806640625
241807,0.2036285400390625,-0.3659210205078125,-0.6589202880859375
241808,0.222869873046875,-0.387603759765625,-0.6071929931640625
241809,0.27020263671875,-0.3994293212890625,-0.618804931640625
241810,0.3545684814453125,-0.395965576171875,-0.672210693359375
241811,0.4774627685546875,-0.3692626953125,-0.740478515625
241812,0.608673095703125,-0.3462371826171875,-0.8021087646484375
241813,0.7047119140625,-0.3440704345703125,-0.8249969482421875
241814,0.7586669921875,-0.338348388671875,-0.822784423828125
241815,0.8018798828125,-0.333526611328125,-0.8019866943359375
241816,0.823272705078125,-0.352508544921875,-0.7467803955078125
241817,0.7932891845703125,-0.3903350830078125,-0.641510009765625
241818,0.72955322265625,-0.413909912109375,-0.564208984375
241819,0.638458251953125,-0.4442901611328125,-0.55352783203125
241820,0.5438995361328125,-0.4918670654296875,-0.60601806640625
241821,0.484375,-0.5289459228515625,-0.70001220703125
241822,0.4699554443359375,-0.5593719482421875,-0.78204345703125
241823,0.4895477294921875,-0.5860137939453125,-0.839111328125
241824,0.5293731689453125,-0.5955810546875,-0.88677978515625
241825,0.578155517578125,-0.5710601806640625,-0.902923583984375
241826,0.614837646484375,-0.5187530517578125,-0.8657684326171875
241827,0.62640380859375,-0.4686431884765625,-0.7947235107421875
241828,0.6135711669921875,-0.437469482421875,-0.7216949462890625
241829,0.5839691162109375,-0.41693115234375,-0.6800384521484375
241830,0.5438385009765625,-0.4079132080078125,-0.6646575927734375
241831,0.4922637939453125,-0.4242706298828125,-0.6399688720703125
241832,0.4549713134765625,-0.4459075927734375,-0.6166839599609375
241833,0.44464111328125,-0.46453857421875,-0.6013031005859375
241834,0.450408935546875,-0.4726715087890625,-0.602783203125
241835,0.463958740234375,-0.4613037109375,-0.635955810546875
241836,0.482025146484375,-0.44866943359375,-0.6922454833984375
241837,0.5042877197265625,-0.458526611328125,-0.772857666015625
241838,0.53021240234375,-0.4455413818359375,-0.8524017333984375
241839,0.5485992431640625,-0.4053497314453125,-0.8608245849609375
241840,0.546417236328125,-0.40283203125,-0.847503662109375
241841,0.5123291015625,-0.3939361572265625,-0.8311767578125
241842,0.4671478271484375,-0.37774658203125,-0.8286285400390625
241843,0.4224395751953125,-0.340911865234375,-0.8290557861328125
241844,0.370361328125,-0.306182861328125,-0.8177947998046875
241845,0.3266143798828125,-0.27447509765625,-0.819244384765625
241846,0.290924072265625,-0.248779296875,-0.84234619140625
241847,0.26092529296875,-0.2419281005859375,-0.87139892578125
241848,0.2349090576171875,-0.235443115234375,-0.899871826171875
241849,0.2064971923828125,-0.2297515869140625,-0.9363250732421876
241850,0.1768798828125,-0.2352752685546875,-0.96478271484375
241851,0.1497344970703125,-0.2381439208984375,-0.9888153076171876
241852,0.121429443359375,-0.22540283203125,-1.022048950195312
241853,0.094635009765625,-0.200714111328125,-1.0526123046875
241854,0.059814453125,-0.1862640380859375,-1.071060180664062
241855,0.030242919921875,-0.1783447265625,-1.063278198242188
241856,0.0157012939453125,-0.1672210693359375,-1.036514282226562
241857,-0.00885009765625,-0.16046142578125,-0.99163818359375
241858,-0.0588836669921875,-0.1672821044921875,-0.930938720703125
241859,-0.0740203857421875,-0.1806640625,-0.9303741455078124
241860,-0.0693359375,-0.1996002197265625,-0.9237518310546876
241861,-0.053741455078125,-0.238555908203125,-0.9114990234375
241862,-0.0360260009765625,-0.283782958984375,-0.8884124755859375
241863,-0.0078887939453125,-0.3197021484375,-0.8801727294921875
241864,0.0377960205078125,-0.3416290283203125,-0.8976898193359375
241865,0.1069793701171875,-0.3553924560546875,-0.9326934814453124
241866,0.1859893798828125,-0.3550262451171875,-0.9705963134765624
241867,0.2929229736328125,-0.3366851806640625,-1.008102416992188
241868,0.39599609375,-0.3095703125,-1.0294189453125
241869,0.4951629638671875,-0.27386474609375,-1.01422119140625
241870,0.6791229248046875,-0.21240234375,-0.976348876953125
241871,0.599273681640625,-0.2376708984375,-0.992767333984375
241872,0.7156829833984375,-0.2075347900390625,-0.9542999267578124
241873,0.705413818359375,-0.233856201171875,-0.9160919189453124
241874,0.659759521484375,-0.3071441650390625,-0.8628082275390625
241875,0.60015869140625,-0.386993408203125,-0.782440185546875
241876,0.5352020263671875,-0.447784423828125,-0.6668548583984375
241877,0.478118896484375,-0.5117340087890625,-0.589691162109375
241878,0.43341064453125,-0.5694122314453125,-0.57391357421875
241879,0.3975677490234375,-0.60980224609375,-0.63336181640625
241880,0.3699951171875,-0.6367340087890625,-0.7410736083984375
241881,0.353668212890625,-0.6656036376953125,-0.865631103515625
241882,0.3553009033203125,-0.677276611328125,-0.94384765625
241883,0.3730010986328125,-0.6735687255859375,-0.9716339111328124
241884,0.397308349609375,-0.6474609375,-0.9444732666015624
241885,0.415802001953125,-0.61016845703125,-0.88067626953125
241886,0.436767578125,-0.5637664794921875,-0.8360748291015625
241887,0.4658660888671875,-0.5273284912109375,-0.80255126953125
241888,0.499603271484375,-0.5118408203125,-0.76715087890625
241889,0.53094482421875,-0.5005035400390625,-0.7397003173828125
241890,0.549224853515625,-0.485931396484375,-0.7011871337890625
241891,0.5464935302734375,-0.458099365234375,-0.6497344970703125
241892,0.511383056640625,-0.4188232421875,-0.60443115234375
241893,0.4602203369140625,-0.3764495849609375,-0.595062255859375
241894,0.433258056640625,-0.335906982421875,-0.6131439208984375
241895,0.4452667236328125,-0.309906005859375,-0.629180908203125
241896,0.4786529541015625,-0.304351806640625,-0.6353759765625
241897,0.5139312744140625,-0.31744384765625,-0.6375885009765625
241898,0.54534912109375,-0.3231201171875,-0.63226318359375
241899,0.5615997314453125,-0.31402587890625,-0.6325225830078125
241900,0.5680389404296875,-0.3051300048828125,-0.6428985595703125
241901,0.5782623291015625,-0.29620361328125,-0.6703338623046875
241902,0.5925140380859375,-0.2803497314453125,-0.7047882080078125
