time_idx,accelerometerAccelerationX(G),accelerometerAccelerationY(G),accelerometerAccelerationZ(G)
300000,-0.092071533203125,-0.002777099609375,-0.9708709716796876
300001,-0.07855224609375,-0.0024566650390625,-0.9961700439453124
300002,-0.0318756103515625,-0.03802490234375,-1.025314331054688
300003,0.0277557373046875,-0.08367919921875,-1.046920776367188
300004,0.0865631103515625,-0.14453125,-1.085113525390625
300005,0.13397216796875,-0.2233428955078125,-1.128280639648438
300006,0.1745452880859375,-0.2963714599609375,-1.1422119140625
300007,0.21588134765625,-0.3586273193359375,-1.152328491210938
300008,0.2644195556640625,-0.3882904052734375,-1.166961669921875
300009,0.2936859130859375,-0.3960113525390625,-1.170669555664062
300010,0.3034515380859375,-0.4027862548828125,-1.159591674804688
300011,0.304443359375,-0.3972320556640625,-1.130874633789062
300012,0.3020477294921875,-0.3849945068359375,-1.085830688476562
300013,0.2960968017578125,-0.3754730224609375,-1.044906616210938
300014,0.306243896484375,-0.387969970703125,-1.01983642578125
300015,0.341064453125,-0.4428253173828125,-1.015106201171875
300016,0.4021759033203125,-0.520599365234375,-1.028488159179688
300017,0.4771270751953125,-0.6061248779296875,-1.030563354492188
300018,0.552398681640625,-0.68212890625,-1.006668090820312
300019,0.614471435546875,-0.7325439453125,-0.9605712890625
300020,0.6736907958984375,-0.7367095947265625,-0.895660400390625
300021,0.732086181640625,-0.70440673828125,-0.8105010986328125
300022,0.7857513427734375,-0.6570587158203125,-0.7108154296875
300023,0.8493194580078125,-0.6122283935546875,-0.6009979248046875
300024,0.92706298828125,-0.6132965087890625,-0.4971160888671875
300025,0.9899139404296876,-0.6448974609375,-0.3778228759765625
300026,1.01019287109375,-0.6667938232421875,-0.3142242431640625
300027,0.9871978759765624,-0.6588592529296875,-0.32501220703125
300028,0.914886474609375,-0.658721923828125,-0.356475830078125
300029,0.8175506591796875,-0.6555328369140625,-0.4022369384765625
300030,0.7143402099609375,-0.6349945068359375,-0.4544830322265625
300031,0.6480560302734375,-0.6112213134765625,-0.4737701416015625
300032,0.5854034423828125,-0.588104248046875,-0.4579010009765625
300033,0.5374603271484375,-0.55511474609375,-0.45452880859375
300034,0.5193634033203125,-0.52960205078125,-0.4594573974609375
300035,0.5129241943359375,-0.504974365234375,-0.473602294921875
300036,0.5112152099609375,-0.474334716796875,-0.5099334716796875
300037,0.5059967041015625,-0.440673828125,-0.57501220703125
300038,0.5045166015625,-0.410369873046875,-0.663604736328125
300039,0.5052642822265625,-0.391815185546875,-0.7348785400390625
300040,0.50946044921875,-0.3810577392578125,-0.771392822265625
300041,0.504730224609375,-0.36163330078125,-0.7844390869140625
300042,0.493194580078125,-0.3330230712890625,-0.792633056640625
300043,0.46331787109375,-0.3118743896484375,-0.7855072021484375
300044,0.4456329345703125,-0.2890625,-0.7553863525390625
300045,0.417633056640625,-0.2647705078125,-0.723358154296875
300046,0.3915557861328125,-0.242340087890625,-0.7045440673828125
300047,0.3638458251953125,-0.225494384765625,-0.710418701171875
300048,0.345123291015625,-0.192230224609375,-0.7281951904296875
300049,0.32928466796875,-0.14715576171875,-0.7618865966796875
300050,0.302734375,-0.11541748046875,-0.8117218017578125
300051,0.2664031982421875,-0.0904083251953125,-0.8678741455078125
300052,0.230133056640625,-0.079498291015625,-0.921905517578125
300053,0.190216064453125,-0.077117919921875,-0.96246337890625
300054,0.147674560546875,-0.079925537109375,-0.9765777587890624
300055,0.105072021484375,-0.090850830078125,-0.9944305419921876
300056,0.0782623291015625,-0.08489990234375,-1.003982543945312
300057,0.0858001708984375,-0.0666046142578125,-0.957672119140625
300058,0.0557861328125,-0.03204345703125,-0.9259490966796876
300059,0.002471923828125,0.0057220458984375,-0.9256744384765624
300060,-0.0299530029296875,0.062835693359375,-1.000106811523438
300061,-0.0670318603515625,0.0775299072265625,-1.03717041015625
300062,-0.10089111328125,0.057861328125,-1.09149169921875
300063,-0.1057586669921875,0.007476806640625,-1.107925415039062
300064,-0.07855224609375,-0.046600341796875,-1.09991455078125
300065,-0.02471923828125,-0.0743255615234375,-1.084579467773438
300066,0.056549072265625,-0.102264404296875,-1.084320068359375
300067,0.1609649658203125,-0.140045166015625,-1.121231079101562
300068,0.295013427734375,-0.1635284423828125,-1.141815185546875
300069,0.415130615234375,-0.1713104248046875,-1.127532958984375
300070,0.513031005859375,-0.185150146484375,-1.099212646484375
300071,0.590423583984375,-0.1989593505859375,-1.077621459960938
300072,0.6641082763671875,-0.217254638671875,-1.0908203125
300073,0.7267303466796875,-0.23614501953125,-1.126434326171875
300074,0.7711944580078125,-0.2491455078125,-1.1455078125
300075,0.7953643798828125,-0.2554473876953125,-1.108001708984375
300076,0.79296875,-0.272979736328125,-0.999481201171875
300077,0.7637786865234375,-0.338775634765625,-0.868133544921875
300078,0.7017822265625,-0.4423065185546875,-0.805816650390625
300079,0.6364288330078125,-0.5319061279296875,-0.8169403076171875
300080,0.5825347900390625,-0.5936737060546875,-0.8470916748046875
300081,0.5459442138671875,-0.6656036376953125,-0.8833465576171875
300082,0.5301055908203125,-0.7359771728515625,-0.9019317626953124
300083,0.522705078125,-0.76251220703125,-0.8712615966796875
300084,0.5106201171875,-0.7484893798828125,-0.8131561279296875
300085,0.4936676025390625,-0.7233123779296875,-0.749786376953125
300086,0.4684600830078125,-0.6772003173828125,-0.689208984375
300087,0.45281982421875,-0.6255035400390625,-0.6277618408203125
300088,0.461090087890625,-0.5722503662109375,-0.5665435791015625
300089,0.493133544921875,-0.52911376953125,-0.510833740234375
300090,0.535003662109375,-0.490142822265625,-0.4691314697265625
300091,0.565887451171875,-0.446685791015625,-0.4406280517578125
300092,0.5895538330078125,-0.39794921875,-0.432098388671875
300093,0.617095947265625,-0.3603668212890625,-0.442626953125
300094,0.6493377685546875,-0.3412322998046875,-0.46673583984375
300095,0.673492431640625,-0.3325347900390625,-0.4741363525390625
300096,0.6825714111328125,-0.3471527099609375,-0.456512451171875
300097,0.6764984130859375,-0.400665283203125,-0.4371185302734375
300098,0.6595916748046875,-0.4447021484375,-0.43157958984375
300099,0.6476287841796875,-0.4584808349609375,-0.4442596435546875
300100,0.6570587158203125,-0.4511566162109375,-0.479949951171875
300101,0.67578125,-0.4293670654296875,-0.5135040283203125
300102,0.679412841796875,-0.41156005859375,-0.5283050537109375
300103,0.67041015625,-0.4010162353515625,-0.546600341796875
300104,0.6526641845703125,-0.4095611572265625,-0.593719482421875
300105,0.6238250732421875,-0.43280029296875,-0.6703338623046875
300106,0.574188232421875,-0.4593658447265625,-0.769622802734375
300107,0.5219879150390625,-0.496124267578125,-0.8617401123046875
300108,0.4619293212890625,-0.5089111328125,-0.9123992919921876
300109,0.413116455078125,-0.5172882080078125,-0.934783935546875
300110,0.375518798828125,-0.5038604736328125,-0.92279052734375
300111,0.3469085693359375,-0.4781951904296875,-0.911407470703125
300112,0.311187744140625,-0.437286376953125,-0.8881378173828125
300113,0.2855377197265625,-0.3897705078125,-0.87994384765625
300114,0.2611083984375,-0.349945068359375,-0.8941802978515625
300115,0.2406158447265625,-0.306121826171875,-0.935272216796875
300116,0.22259521484375,-0.259735107421875,-0.992889404296875
300117,0.1864166259765625,-0.2418975830078125,-1.021163940429688
300118,0.1571807861328125,-0.22186279296875,-1.049591064453125
300119,0.1306304931640625,-0.1920013427734375,-1.096115112304688
300120,0.0849609375,-0.1734619140625,-1.125137329101562
300121,0.0074615478515625,-0.1631927490234375,-1.045059204101562
300122,-0.0689544677734375,-0.1437530517578125,-0.999420166015625
300123,-0.0764923095703125,-0.0908355712890625,-1.07568359375
300124,-0.0731964111328125,-0.0279388427734375,-1.092971801757812
300125,-0.078521728515625,0.001190185546875,-1.087600708007812
300126,-0.095458984375,-0.0223236083984375,-1.069198608398438
300127,-0.09228515625,-0.0724639892578125,-1.06817626953125
300128,-0.0572357177734375,-0.130462646484375,-1.081069946289062
300129,0.0137481689453125,-0.2073211669921875,-1.101058959960938
300130,0.09576416015625,-0.274444580078125,-1.11920166015625
300131,0.160400390625,-0.33746337890625,-1.139862060546875
300132,0.2076568603515625,-0.3829498291015625,-1.165908813476562
300133,0.2550201416015625,-0.408233642578125,-1.178848266601562
300134,0.2974853515625,-0.4153594970703125,-1.1846923828125
300135,0.3203582763671875,-0.411651611328125,-1.18646240234375
300136,0.3161468505859375,-0.4239959716796875,-1.15350341796875
300137,0.2978057861328125,-0.4411468505859375,-1.097885131835938
300138,0.298797607421875,-0.4387969970703125,-1.048583984375
300139,0.318115234375,-0.423492431640625,-1.033477783203125
300140,0.332305908203125,-0.436492919921875,-1.007843017578125
300141,0.3445587158203125,-0.4832611083984375,-0.9761199951171876
300142,0.3573760986328125,-0.5334930419921875,-0.9515533447265624
300143,0.4051361083984375,-0.5903472900390625,-0.9403839111328124
300144,0.478973388671875,-0.6266326904296875,-0.9170074462890624
300145,0.580657958984375,-0.6405487060546875,-0.87371826171875
300146,0.693084716796875,-0.6314544677734375,-0.80194091796875
300147,0.7895660400390625,-0.5949859619140625,-0.705718994140625
300148,0.8753509521484375,-0.53057861328125,-0.637664794921875
300149,0.948028564453125,-0.4845428466796875,-0.597869873046875
300150,1.003799438476562,-0.445556640625,-0.558441162109375
300151,1.021636962890625,-0.451019287109375,-0.5088653564453125
300152,0.9968719482421876,-0.5301055908203125,-0.44732666015625
300153,0.9238433837890624,-0.6033935546875,-0.3935394287109375
300154,0.820556640625,-0.6110687255859375,-0.4117584228515625
300155,0.7093963623046875,-0.600189208984375,-0.475372314453125
300156,0.614501953125,-0.5971527099609375,-0.5477294921875
300157,0.547027587890625,-0.6029815673828125,-0.575439453125
300158,0.4893646240234375,-0.6058197021484375,-0.546661376953125
300159,0.4557647705078125,-0.6131591796875,-0.49993896484375
300160,0.448150634765625,-0.6113433837890625,-0.469818115234375
300161,0.4503173828125,-0.58380126953125,-0.489715576171875
300162,0.457305908203125,-0.539825439453125,-0.548553466796875
300163,0.4713897705078125,-0.4890899658203125,-0.628326416015625
300164,0.481781005859375,-0.4461212158203125,-0.6895751953125
300165,0.49456787109375,-0.4324951171875,-0.7313995361328125
300166,0.5135650634765625,-0.40631103515625,-0.738128662109375
300167,0.527374267578125,-0.3856048583984375,-0.7222442626953125
300168,0.530609130859375,-0.3814239501953125,-0.6987762451171875
300169,0.510345458984375,-0.34210205078125,-0.6705780029296875
300170,0.478973388671875,-0.3120269775390625,-0.6637420654296875
300171,0.4450531005859375,-0.2982330322265625,-0.6679534912109375
300172,0.4080047607421875,-0.2689056396484375,-0.6697235107421875
300173,0.369415283203125,-0.218170166015625,-0.702667236328125
300174,0.321044921875,-0.1790618896484375,-0.72515869140625
300175,0.282989501953125,-0.1615142822265625,-0.75531005859375
300176,0.256378173828125,-0.13763427734375,-0.801116943359375
300177,0.2271270751953125,-0.1228179931640625,-0.851287841796875
300178,0.19476318359375,-0.1116790771484375,-0.912261962890625
300179,0.1711578369140625,-0.1017608642578125,-0.927337646484375
300180,0.1547393798828125,-0.0904998779296875,-0.9802398681640624
300181,0.1106719970703125,-0.06182861328125,-0.9825897216796876
300182,0.136688232421875,-0.0691680908203125,-1.010604858398438
300183,0.081085205078125,-0.056121826171875,-0.95709228515625
300184,0.0716705322265625,-0.032928466796875,-0.9817047119140624
300185,0.0715789794921875,0.0012664794921875,-1.049774169921875
300186,0.048614501953125,0.0250244140625,-1.079208374023438
300187,0.0186920166015625,0.0276641845703125,-1.099578857421875
300188,-0.0085601806640625,0.0182037353515625,-1.099884033203125
300189,-0.0118408203125,-0.0083160400390625,-1.0792236328125
300190,0.0219573974609375,-0.0337066650390625,-1.03521728515625
300191,0.09588623046875,-0.0537567138671875,-0.9871673583984376
300192,0.173980712890625,-0.097900390625,-0.97601318359375
300193,0.2567291259765625,-0.151519775390625,-0.9798583984375
300194,0.342742919921875,-0.198760986328125,-0.9872589111328124
300195,0.408447265625,-0.218902587890625,-1.006134033203125
300196,0.47540283203125,-0.2328338623046875,-1.046539306640625
300197,0.5706787109375,-0.2436676025390625,-1.093887329101562
300198,0.67987060546875,-0.2495269775390625,-1.118972778320312
300199,0.792144775390625,-0.23895263671875,-1.094223022460938
300200,0.8881072998046875,-0.219573974609375,-1.021316528320312
300201,0.9166107177734376,-0.22906494140625,-0.9148712158203124
300202,0.85382080078125,-0.310150146484375,-0.85809326171875
300203,0.7520751953125,-0.4170989990234375,-0.89312744140625
300204,0.6597137451171875,-0.4968414306640625,-0.962615966796875
300205,0.5691680908203125,-0.580413818359375,-1.021209716796875
300206,0.4893035888671875,-0.68023681640625,-1.0467529296875
300207,0.4393157958984375,-0.755523681640625,-1.01470947265625
300208,0.4175262451171875,-0.7790679931640625,-0.9279327392578124
300209,0.3832550048828125,-0.7597503662109375,-0.8204193115234375
300210,0.339630126953125,-0.7232818603515625,-0.7554931640625
300211,0.306884765625,-0.6827239990234375,-0.70855712890625
300212,0.2987213134765625,-0.6398468017578125,-0.6690521240234375
300213,0.3243560791015625,-0.5984039306640625,-0.63525390625
300214,0.3787078857421875,-0.5641632080078125,-0.5920867919921875
300215,0.4469451904296875,-0.542510986328125,-0.5452423095703125
300216,0.508148193359375,-0.5281219482421875,-0.508941650390625
300217,0.537506103515625,-0.4781951904296875,-0.4828948974609375
300218,0.558929443359375,-0.42669677734375,-0.4923858642578125
300219,0.5834808349609375,-0.39239501953125,-0.510162353515625
300220,0.5911407470703125,-0.37200927734375,-0.5176544189453125
300221,0.599090576171875,-0.357421875,-0.5124969482421875
300222,0.6120758056640625,-0.349761962890625,-0.5057220458984375
300223,0.6333770751953125,-0.3518829345703125,-0.50299072265625
300224,0.6567535400390625,-0.347412109375,-0.5066070556640625
300225,0.6744537353515625,-0.3481597900390625,-0.5178680419921875
300226,0.681640625,-0.35552978515625,-0.5264892578125
300227,0.67962646484375,-0.3778533935546875,-0.5255126953125
300228,0.6707763671875,-0.4152984619140625,-0.525726318359375
300229,0.6588287353515625,-0.4646453857421875,-0.5595245361328125
300230,0.63330078125,-0.50531005859375,-0.632659912109375
300231,0.5771942138671875,-0.5234375,-0.74432373046875
300232,0.5040435791015625,-0.5225830078125,-0.89111328125
300233,0.424957275390625,-0.5327301025390625,-1.01727294921875
300234,0.373077392578125,-0.5241241455078125,-1.052337646484375
300235,0.3560791015625,-0.491943359375,-1.00689697265625
300236,0.35528564453125,-0.4574432373046875,-0.93426513671875
300237,0.3572540283203125,-0.395965576171875,-0.873809814453125
300238,0.3380584716796875,-0.3463134765625,-0.8519744873046875
300239,0.31524658203125,-0.2913055419921875,-0.86553955078125
300240,0.2895660400390625,-0.2474365234375,-0.898162841796875
300241,0.2561492919921875,-0.2341156005859375,-0.9381256103515624
300242,0.23162841796875,-0.2112579345703125,-1.019195556640625
300243,0.192352294921875,-0.189910888671875,-1.109878540039062
300244,0.1297760009765625,-0.189697265625,-1.143157958984375
300245,0.0681915283203125,-0.2017974853515625,-1.140167236328125
300246,0.0200958251953125,-0.18914794921875,-1.116378784179688
300247,-0.0171356201171875,-0.162200927734375,-1.0572509765625
300248,-0.03546142578125,-0.129180908203125,-0.9874114990234376
300249,-0.037567138671875,-0.0955963134765625,-0.9499359130859376
300250,-0.035186767578125,-0.0684356689453125,-0.95233154296875
300251,-0.0360565185546875,-0.043701171875,-0.98150634765625
300252,-0.0286865234375,-0.025299072265625,-1.019332885742188
300253,-0.004486083984375,-0.0355377197265625,-1.055572509765625
300254,0.0322265625,-0.0857696533203125,-1.084075927734375
300255,0.08026123046875,-0.149627685546875,-1.097900390625
300256,0.1244354248046875,-0.242034912109375,-1.093719482421875
300257,0.1371307373046875,-0.3809356689453125,-1.061599731445312
300258,0.14984130859375,-0.504791259765625,-1.05645751953125
300259,0.17022705078125,-0.5497589111328125,-1.081344604492188
300260,0.1931610107421875,-0.53607177734375,-1.129150390625
300261,0.2352447509765625,-0.5201416015625,-1.142257690429688
300262,0.2973785400390625,-0.48956298828125,-1.114166259765625
300263,0.3537750244140625,-0.4868927001953125,-1.077102661132812
300264,0.392242431640625,-0.5206298828125,-1.038589477539062
300265,0.4215240478515625,-0.571502685546875,-0.991485595703125
300266,0.468994140625,-0.6087493896484375,-0.9505157470703124
300267,0.537139892578125,-0.6138458251953125,-0.9283294677734376
300268,0.6295013427734375,-0.581085205078125,-0.90179443359375
300269,0.7357025146484375,-0.5465240478515625,-0.8476104736328125
300270,0.838470458984375,-0.52850341796875,-0.79193115234375
300271,0.9299774169921876,-0.5184326171875,-0.725921630859375
300272,1.00543212890625,-0.500091552734375,-0.6266021728515625
300273,1.060501098632812,-0.4788818359375,-0.494140625
300274,1.078094482421875,-0.4748382568359375,-0.381317138671875
300275,1.040924072265625,-0.5287017822265625,-0.3487548828125
300276,0.9563446044921876,-0.58966064453125,-0.36962890625
300277,0.855072021484375,-0.6239776611328125,-0.4172210693359375
300278,0.750946044921875,-0.6453704833984375,-0.4869537353515625
300279,0.66424560546875,-0.657196044921875,-0.54327392578125
300280,0.6018829345703125,-0.6546478271484375,-0.59173583984375
300281,0.56689453125,-0.6339263916015625,-0.6283721923828125
300282,0.540374755859375,-0.6031494140625,-0.6307830810546875
300283,0.5206451416015625,-0.5780792236328125,-0.6066741943359375
300284,0.507904052734375,-0.5659637451171875,-0.5838775634765625
300285,0.5062408447265625,-0.5572967529296875,-0.582611083984375
300286,0.513153076171875,-0.538055419921875,-0.601959228515625
300287,0.520965576171875,-0.5135650634765625,-0.6219635009765625
300288,0.5259552001953125,-0.4830780029296875,-0.66656494140625
300289,0.5306396484375,-0.4762115478515625,-0.71954345703125
300290,0.5343170166015625,-0.4705963134765625,-0.7565155029296875
300291,0.5465850830078125,-0.433563232421875,-0.7787322998046875
300292,0.55706787109375,-0.4060211181640625,-0.82379150390625
300293,0.532562255859375,-0.3890228271484375,-0.827911376953125
300294,0.4981689453125,-0.3675384521484375,-0.755035400390625
300295,0.4577789306640625,-0.3496246337890625,-0.676422119140625
300296,0.4085693359375,-0.324951171875,-0.646148681640625
300297,0.3711395263671875,-0.2953033447265625,-0.6512451171875
300298,0.3472137451171875,-0.248931884765625,-0.6780548095703125
300299,0.3258514404296875,-0.222442626953125,-0.71649169921875
300300,0.302093505859375,-0.2058563232421875,-0.757843017578125
300301,0.2752838134765625,-0.1987457275390625,-0.8033447265625
300302,0.249847412109375,-0.1977691650390625,-0.865570068359375
300303,0.2350006103515625,-0.2035980224609375,-0.8925323486328125
300304,0.19952392578125,-0.184814453125,-0.9494171142578124
300305,0.1673126220703125,-0.1582489013671875,-1.0096435546875
300306,0.1336669921875,-0.1519775390625,-1.010086059570312
300307,0.0944061279296875,-0.1414337158203125,-1.011642456054688
300308,0.0498046875,-0.106689453125,-1.03363037109375
300309,0.00262451171875,-0.059326171875,-1.036209106445312
300310,-0.045867919921875,-0.0249176025390625,-1.025283813476562
300311,-0.0836029052734375,0.00494384765625,-0.9969940185546876
300312,-0.11065673828125,0.010833740234375,-0.9737548828125
300313,-0.11859130859375,-0.00885009765625,-0.9635467529296876
300314,-0.10821533203125,-0.0481719970703125,-0.9737091064453124
300315,-0.09521484375,-0.09588623046875,-0.9968414306640624
300316,-0.06463623046875,-0.15167236328125,-1.004547119140625
300317,-0.0034027099609375,-0.2268829345703125,-1.00042724609375
300318,0.084381103515625,-0.301422119140625,-1.004486083984375
300319,0.16802978515625,-0.3571929931640625,-1.027740478515625
300320,0.2545318603515625,-0.37567138671875,-1.072708129882812
300321,0.3414764404296875,-0.3839263916015625,-1.094375610351562
300322,0.4254608154296875,-0.377471923828125,-1.088592529296875
300323,0.5169525146484375,-0.363433837890625,-1.110794067382812
300324,0.6246490478515625,-0.34942626953125,-1.149826049804688
300325,0.740081787109375,-0.3268280029296875,-1.188568115234375
300326,0.857635498046875,-0.3069610595703125,-1.188858032226562
300327,0.9410247802734376,-0.298492431640625,-1.128082275390625
300328,0.944549560546875,-0.3024444580078125,-0.9922027587890624
300329,0.8831939697265625,-0.3447723388671875,-0.815460205078125
300330,0.78173828125,-0.4376678466796875,-0.6730804443359375
300331,0.6830902099609375,-0.531280517578125,-0.6182708740234375
300332,0.6066741943359375,-0.6033477783203125,-0.6128082275390625
300333,0.5364227294921875,-0.6913299560546875,-0.6282806396484375
300334,0.45672607421875,-0.780548095703125,-0.663970947265625
300335,0.36749267578125,-0.8085479736328125,-0.681610107421875
300336,0.30419921875,-0.77886962890625,-0.6781463623046875
300337,0.2869110107421875,-0.721435546875,-0.635589599609375
300338,0.3181915283203125,-0.670928955078125,-0.564239501953125
300339,0.373260498046875,-0.6159515380859375,-0.49359130859375
300340,0.42901611328125,-0.55859375,-0.424957275390625
300341,0.4876708984375,-0.499847412109375,-0.39581298828125
300342,0.5601806640625,-0.4376373291015625,-0.410430908203125
300343,0.648590087890625,-0.3749847412109375,-0.44635009765625
300344,0.7312469482421875,-0.3163299560546875,-0.4804229736328125
300345,0.8046417236328125,-0.2792205810546875,-0.5034637451171875
300346,0.855560302734375,-0.26617431640625,-0.5128631591796875
300347,0.8775482177734375,-0.2776641845703125,-0.5072174072265625
300348,0.8836517333984375,-0.3011932373046875,-0.498931884765625
300349,0.87701416015625,-0.3270111083984375,-0.5001373291015625
300350,0.835418701171875,-0.3756561279296875,-0.5121307373046875
300351,0.7659912109375,-0.4212646484375,-0.51483154296875
300352,0.6980133056640625,-0.508209228515625,-0.569000244140625
300353,0.572296142578125,-0.6005859375,-0.754486083984375
300354,0.6300811767578125,-0.577880859375,-0.67010498046875
300355,0.5187225341796875,-0.5836944580078125,-0.8080596923828125
300356,0.4825592041015625,-0.559661865234375,-0.843048095703125
300357,0.4500274658203125,-0.5198516845703125,-0.8522491455078125
300358,0.4222869873046875,-0.48065185546875,-0.865692138671875
300359,0.4142913818359375,-0.4317779541015625,-0.8807830810546875
300360,0.40484619140625,-0.400787353515625,-0.908721923828125
300361,0.3892822265625,-0.3783721923828125,-0.9247589111328124
300362,0.3640289306640625,-0.34649658203125,-0.95391845703125
300363,0.3107147216796875,-0.3298492431640625,-1.024871826171875
300364,0.2688751220703125,-0.305328369140625,-1.0823974609375
300365,0.2493896484375,-0.2767486572265625,-1.110397338867188
300366,0.1938629150390625,-0.2542572021484375,-1.147293090820312
300367,0.0989532470703125,-0.1926116943359375,-1.156402587890625
300368,0.0270538330078125,-0.1707000732421875,-1.162490844726562
300369,-0.0176239013671875,-0.2105255126953125,-1.157196044921875
300370,-0.018890380859375,-0.2248077392578125,-1.131744384765625
300371,-0.0231781005859375,-0.1683349609375,-1.08953857421875
300372,-0.05108642578125,-0.123199462890625,-1.053375244140625
300373,-0.0834808349609375,-0.0793914794921875,-1.051788330078125
300374,-0.0937957763671875,-0.0338287353515625,-1.076644897460938
300375,-0.077392578125,-0.0388641357421875,-1.11114501953125
300376,-0.0405426025390625,-0.080657958984375,-1.119247436523438
300377,0.035003662109375,-0.1324615478515625,-1.10845947265625
300378,0.133697509765625,-0.1935272216796875,-1.092025756835938
300379,0.221405029296875,-0.257568359375,-1.06402587890625
300380,0.2745819091796875,-0.3316802978515625,-1.016555786132812
300381,0.2930450439453125,-0.4029693603515625,-0.9749755859375
300382,0.2777862548828125,-0.4528350830078125,-0.981842041015625
300383,0.2572784423828125,-0.503448486328125,-1.005889892578125
300384,0.2639923095703125,-0.5240936279296875,-1.03399658203125
300385,0.2742462158203125,-0.499664306640625,-1.03961181640625
300386,0.2811279296875,-0.46466064453125,-1.010665893554688
300387,0.28778076171875,-0.4746246337890625,-0.96893310546875
300388,0.2813262939453125,-0.5133209228515625,-0.9397125244140624
300389,0.29119873046875,-0.5840606689453125,-0.89990234375
300390,0.3403472900390625,-0.6336212158203125,-0.8679656982421875
300391,0.4246368408203125,-0.6300048828125,-0.860260009765625
300392,0.527923583984375,-0.6012115478515625,-0.8655853271484375
300393,0.646484375,-0.573516845703125,-0.8679351806640625
300394,0.7675628662109375,-0.5410919189453125,-0.8467254638671875
300395,0.8917083740234375,-0.5093536376953125,-0.8074951171875
300396,0.995361328125,-0.4822540283203125,-0.7468414306640625
300397,1.062164306640625,-0.469940185546875,-0.6636962890625
300398,1.09210205078125,-0.45318603515625,-0.5468597412109375
300399,1.077117919921875,-0.4211883544921875,-0.410736083984375
300400,1.003875732421875,-0.4387359619140625,-0.315093994140625
300401,0.885284423828125,-0.495574951171875,-0.2929534912109375
300402,0.755615234375,-0.5313262939453125,-0.320709228515625
300403,0.639404296875,-0.5724639892578125,-0.384002685546875
300404,0.5590362548828125,-0.623931884765625,-0.461639404296875
300405,0.50946044921875,-0.6467437744140625,-0.5345458984375
300406,0.4700927734375,-0.640472412109375,-0.5785369873046875
300407,0.436065673828125,-0.6302337646484375,-0.5926971435546875
300408,0.4236297607421875,-0.6263275146484375,-0.585601806640625
300409,0.4412841796875,-0.6114044189453125,-0.5859527587890625
300410,0.4690704345703125,-0.5910797119140625,-0.6055450439453125
300411,0.497467041015625,-0.5696563720703125,-0.6270599365234375
300412,0.5122528076171875,-0.540252685546875,-0.6661529541015625
300413,0.524322509765625,-0.525604248046875,-0.683013916015625
300414,0.551177978515625,-0.517242431640625,-0.7585601806640625
300415,0.5762176513671875,-0.4979400634765625,-0.7911376953125
300416,0.6054534912109375,-0.4927978515625,-0.8371734619140625
300417,0.61016845703125,-0.4694366455078125,-0.8421173095703125
300418,0.572784423828125,-0.4307861328125,-0.7465057373046875
300419,0.509033203125,-0.393218994140625,-0.6510467529296875
300420,0.4561767578125,-0.3232574462890625,-0.610687255859375
300421,0.4196014404296875,-0.25775146484375,-0.5966796875
300422,0.3911285400390625,-0.2142791748046875,-0.6287689208984375
300423,0.367919921875,-0.1759185791015625,-0.6603851318359375
300424,0.343597412109375,-0.1599273681640625,-0.721160888671875
300425,0.3318328857421875,-0.1624298095703125,-0.794342041015625
300426,0.3173675537109375,-0.1536407470703125,-0.838653564453125
300427,0.299774169921875,-0.1524810791015625,-0.878448486328125
300428,0.28155517578125,-0.1503753662109375,-0.923858642578125
300429,0.25836181640625,-0.137542724609375,-0.9575042724609376
300430,0.22381591796875,-0.120513916015625,-0.9665679931640624
300431,0.1845550537109375,-0.0965728759765625,-0.970062255859375
300432,0.148712158203125,-0.06976318359375,-0.9968719482421876
300433,0.1022796630859375,-0.0499725341796875,-1.038192749023438
300434,0.0517425537109375,-0.0494842529296875,-1.062789916992188
300435,0.0021514892578125,-0.057525634765625,-1.074981689453125
300436,-0.03961181640625,-0.0591888427734375,-1.08197021484375
300437,-0.070831298828125,-0.0646514892578125,-1.08251953125
300438,-0.0667724609375,-0.06597900390625,-1.065109252929688
300439,-0.04071044921875,-0.071380615234375,-1.04022216796875
300440,-0.012115478515625,-0.0938873291015625,-1.019195556640625
300441,0.0377960205078125,-0.157135009765625,-1.009262084960938
300442,0.09869384765625,-0.2334136962890625,-0.9947662353515624
300443,0.1764678955078125,-0.2915496826171875,-0.98809814453125
300444,0.270172119140625,-0.32293701171875,-1.029327392578125
300445,0.3747100830078125,-0.3424224853515625,-1.101119995117188
300446,0.487518310546875,-0.3434295654296875,-1.1370849609375
300447,0.609405517578125,-0.315216064453125,-1.118972778320312
300448,0.71942138671875,-0.2828216552734375,-1.069107055664062
300449,0.80108642578125,-0.28271484375,-0.997894287109375
300450,0.8432159423828125,-0.297332763671875,-0.905487060546875
300451,0.84039306640625,-0.3357086181640625,-0.8100433349609375
300452,0.8027801513671875,-0.4008941650390625,-0.7534027099609375
300453,0.7423095703125,-0.4529876708984375,-0.741241455078125
300454,0.6772003173828125,-0.522796630859375,-0.7731781005859375
300455,0.6168670654296875,-0.61578369140625,-0.8353118896484375
300456,0.568115234375,-0.685302734375,-0.893096923828125
300457,0.533111572265625,-0.7138519287109375,-0.9053802490234376
300458,0.50732421875,-0.7147369384765625,-0.8712005615234375
300459,0.4940643310546875,-0.696685791015625,-0.801239013671875
300460,0.4869537353515625,-0.674468994140625,-0.7058563232421875
300461,0.4940185546875,-0.6537322998046875,-0.616973876953125
300462,0.5188140869140625,-0.611785888671875,-0.548370361328125
300463,0.5583648681640625,-0.5639495849609375,-0.510955810546875
300464,0.598114013671875,-0.5148162841796875,-0.4958648681640625
300465,0.625640869140625,-0.47467041015625,-0.491363525390625
300466,0.616180419921875,-0.44390869140625,-0.4935150146484375
300467,0.5844268798828125,-0.4121551513671875,-0.489593505859375
300468,0.562225341796875,-0.3827362060546875,-0.4874420166015625
300469,0.559356689453125,-0.362701416015625,-0.4947509765625
300470,0.5635986328125,-0.35394287109375,-0.5111236572265625
300471,0.564971923828125,-0.3582305908203125,-0.509063720703125
300472,0.57025146484375,-0.375701904296875,-0.4976806640625
300473,0.577362060546875,-0.393829345703125,-0.4853973388671875
300474,0.5868072509765625,-0.4122467041015625,-0.469940185546875
300475,0.6021728515625,-0.4220733642578125,-0.464752197265625
300476,0.6229705810546875,-0.4393157958984375,-0.486785888671875
300477,0.6402435302734375,-0.4528045654296875,-0.51513671875
300478,0.638427734375,-0.4635162353515625,-0.538848876953125
300479,0.6180877685546875,-0.4667205810546875,-0.57464599609375
300480,0.599761962890625,-0.45269775390625,-0.641021728515625
300481,0.584686279296875,-0.4509735107421875,-0.70458984375
300482,0.5678558349609375,-0.4680938720703125,-0.75537109375
300483,0.5362396240234375,-0.4897613525390625,-0.7915496826171875
300484,0.494110107421875,-0.4919586181640625,-0.840545654296875
300485,0.4624786376953125,-0.4827423095703125,-0.9066314697265624
300486,0.455352783203125,-0.470367431640625,-0.9448089599609376
300487,0.4373016357421875,-0.4452056884765625,-0.9418792724609376
300488,0.4146881103515625,-0.4187469482421875,-0.9456634521484376
300489,0.3814239501953125,-0.3934783935546875,-0.9594573974609376
300490,0.3272857666015625,-0.3579559326171875,-0.9814910888671876
300491,0.2791900634765625,-0.32366943359375,-1.006698608398438
300492,0.2108917236328125,-0.3032073974609375,-1.035232543945312
300493,0.1244659423828125,-0.29901123046875,-1.0819091796875
300494,0.0478668212890625,-0.2972412109375,-1.109420776367188
300495,-0.0115203857421875,-0.295989990234375,-1.074874877929688
300496,-0.0401611328125,-0.26263427734375,-1.04058837890625
300497,-0.0238189697265625,-0.2039031982421875,-1.055145263671875
300498,-0.0023956298828125,-0.1414794921875,-1.073715209960938
300499,0.008087158203125,-0.0957183837890625,-1.097488403320312
300500,0.018341064453125,-0.0873870849609375,-1.1285400390625
300501,0.0356903076171875,-0.1233978271484375,-1.158767700195312
300502,0.0643463134765625,-0.1924591064453125,-1.167633056640625
300503,0.112274169921875,-0.2901153564453125,-1.135574340820312
300504,0.1790618896484375,-0.3860626220703125,-1.10296630859375
300505,0.234832763671875,-0.4593048095703125,-1.077529907226562
300506,0.2362213134765625,-0.5406494140625,-1.064208984375
300507,0.1988525390625,-0.586669921875,-1.075653076171875
300508,0.18341064453125,-0.6077423095703125,-1.109725952148438
300509,0.1992340087890625,-0.6069183349609375,-1.109268188476562
300510,0.2383270263671875,-0.57196044921875,-1.073287963867188
300511,0.282012939453125,-0.5396575927734375,-0.997802734375
300512,0.3280487060546875,-0.520111083984375,-0.91168212890625
300513,0.376129150390625,-0.505767822265625,-0.8435516357421875
300514,0.4142913818359375,-0.4902191162109375,-0.7918548583984375
300515,0.4538116455078125,-0.470703125,-0.784637451171875
300516,0.4947662353515625,-0.4426422119140625,-0.8008575439453125
300517,0.526214599609375,-0.43511962890625,-0.8160247802734375
300518,0.563690185546875,-0.45111083984375,-0.8131256103515625
300519,0.5975341796875,-0.4786529541015625,-0.7774658203125
300520,0.6341094970703125,-0.510498046875,-0.721923828125
300521,0.67498779296875,-0.5423126220703125,-0.6416778564453125
300522,0.72332763671875,-0.5671234130859375,-0.5467987060546875
300523,0.7598114013671875,-0.58001708984375,-0.471588134765625
300524,0.7870330810546875,-0.5637664794921875,-0.43707275390625
300525,0.80303955078125,-0.5082550048828125,-0.446533203125
300526,0.805877685546875,-0.483917236328125,-0.469970703125
300527,0.7997894287109375,-0.5156402587890625,-0.4911651611328125
300528,0.771453857421875,-0.5847015380859375,-0.494537353515625
300529,0.7282257080078125,-0.632232666015625,-0.5059967041015625
300530,0.6744842529296875,-0.6549224853515625,-0.531341552734375
300531,0.6223907470703125,-0.642547607421875,-0.559417724609375
300532,0.5848236083984375,-0.5992889404296875,-0.5774383544921875
300533,0.548095703125,-0.5563812255859375,-0.5684356689453125
300534,0.5153961181640625,-0.5401458740234375,-0.5379180908203125
300535,0.497528076171875,-0.5508575439453125,-0.5034332275390625
300536,0.513275146484375,-0.5676116943359375,-0.501068115234375
300537,0.5477294921875,-0.580535888671875,-0.5205535888671875
300538,0.576751708984375,-0.5630645751953125,-0.54962158203125
300539,0.5850677490234375,-0.5444793701171875,-0.590087890625
300540,0.5753631591796875,-0.5210418701171875,-0.6319580078125
300541,0.562255859375,-0.5066680908203125,-0.6854705810546875
300542,0.5579681396484375,-0.497161865234375,-0.7215423583984375
300543,0.55169677734375,-0.4835968017578125,-0.7069091796875
300544,0.541229248046875,-0.4544830322265625,-0.68896484375
300545,0.5233154296875,-0.42938232421875,-0.7103118896484375
300546,0.505523681640625,-0.3774261474609375,-0.6917572021484375
300547,0.46728515625,-0.337554931640625,-0.6884002685546875
300548,0.42755126953125,-0.302001953125,-0.7129669189453125
300549,0.375732421875,-0.28131103515625,-0.7547454833984375
300550,0.338104248046875,-0.2558135986328125,-0.8065948486328125
300551,0.3036956787109375,-0.2445068359375,-0.869476318359375
300552,0.2577362060546875,-0.238525390625,-0.892242431640625
300553,0.2178802490234375,-0.23876953125,-0.9315643310546876
300554,0.1891326904296875,-0.226776123046875,-1.005386352539062
300555,0.1586761474609375,-0.207611083984375,-1.080368041992188
300556,0.131072998046875,-0.187042236328125,-1.103363037109375
300557,0.096343994140625,-0.17303466796875,-1.085433959960938
300558,0.0612335205078125,-0.152801513671875,-1.060516357421875
300559,0.0254058837890625,-0.1128997802734375,-1.056472778320312
300560,-0.005401611328125,-0.0514678955078125,-1.0751953125
300561,-0.026031494140625,-0.00494384765625,-1.077957153320312
300562,-0.0381011962890625,0.0186614990234375,-1.059600830078125
300563,-0.0351715087890625,0.0066070556640625,-1.034194946289062
300564,-0.02081298828125,-0.0418853759765625,-1.017608642578125
300565,0.0180816650390625,-0.108734130859375,-1.018814086914062
300566,0.0706329345703125,-0.18115234375,-1.020309448242188
300567,0.1164093017578125,-0.2348785400390625,-1.018569946289062
300568,0.16375732421875,-0.2807464599609375,-1.036727905273438
300569,0.227996826171875,-0.314056396484375,-1.065628051757812
300570,0.303009033203125,-0.3553009033203125,-1.078094482421875
300571,0.38134765625,-0.3876800537109375,-1.068710327148438
300572,0.468536376953125,-0.3930816650390625,-1.051605224609375
300573,0.5699462890625,-0.3899993896484375,-1.045761108398438
300574,0.6763458251953125,-0.3908843994140625,-1.060760498046875
300575,0.769927978515625,-0.4171142578125,-1.069061279296875
300576,0.8170318603515625,-0.442047119140625,-1.010162353515625
300577,0.8032073974609375,-0.47314453125,-0.8874359130859375
300578,0.75341796875,-0.541168212890625,-0.73333740234375
300579,0.6932373046875,-0.605621337890625,-0.6254119873046875
300580,0.63519287109375,-0.65313720703125,-0.5990142822265625
300581,0.5897216796875,-0.7118377685546875,-0.63671875
300582,0.5515289306640625,-0.76531982421875,-0.726715087890625
300583,0.528900146484375,-0.787109375,-0.801055908203125
300584,0.5220489501953125,-0.7734527587890625,-0.80242919921875
300585,0.5350189208984375,-0.731658935546875,-0.700347900390625
300586,0.5518035888671875,-0.673919677734375,-0.5356292724609375
300587,0.5644683837890625,-0.614501953125,-0.392242431640625
300588,0.590667724609375,-0.54296875,-0.299957275390625
300589,0.6195526123046875,-0.47021484375,-0.267547607421875
300590,0.6295623779296875,-0.3970184326171875,-0.2736358642578125
300591,0.60858154296875,-0.3440399169921875,-0.3121490478515625
300592,0.571990966796875,-0.3177490234375,-0.3842315673828125
300593,0.5525970458984375,-0.316864013671875,-0.4694671630859375
300594,0.543365478515625,-0.3432159423828125,-0.5321502685546875
300595,0.5304412841796875,-0.3971405029296875,-0.5419921875
300596,0.518402099609375,-0.4479217529296875,-0.5149383544921875
300597,0.5152435302734375,-0.4824676513671875,-0.497772216796875
300598,0.5239410400390625,-0.500732421875,-0.490631103515625
300599,0.5480499267578125,-0.495391845703125,-0.4883880615234375
300600,0.5859222412109375,-0.4778594970703125,-0.5061187744140625
300601,0.627838134765625,-0.456817626953125,-0.53729248046875
300602,0.6512451171875,-0.4393157958984375,-0.5611724853515625
300603,0.6489715576171875,-0.44378662109375,-0.5871124267578125
300604,0.638458251953125,-0.4503936767578125,-0.6371307373046875
300605,0.6194000244140625,-0.4578094482421875,-0.725311279296875
300606,0.6066131591796875,-0.460601806640625,-0.8322601318359375
300607,0.5876617431640625,-0.4829864501953125,-0.9345855712890624
300608,0.56134033203125,-0.518524169921875,-0.99432373046875
300609,0.53143310546875,-0.572601318359375,-0.9989776611328124
300610,0.512725830078125,-0.592010498046875,-0.968292236328125
300611,0.501861572265625,-0.55877685546875,-0.954071044921875
300612,0.4906768798828125,-0.5027618408203125,-0.95654296875
300613,0.4803466796875,-0.46136474609375,-0.9652099609375
300614,0.4495086669921875,-0.4248199462890625,-0.988189697265625
300615,0.4047698974609375,-0.387603759765625,-1.025390625
300616,0.3573150634765625,-0.358367919921875,-1.031829833984375
300617,0.272979736328125,-0.365203857421875,-1.027938842773438
300618,0.17193603515625,-0.33251953125,-1.046142578125
300619,0.05572509765625,-0.3331298828125,-1.03399658203125
300620,-0.031158447265625,-0.379669189453125,-1.068130493164062
300621,-0.047454833984375,-0.365814208984375,-1.07830810546875
300622,-0.00543212890625,-0.272064208984375,-1.039016723632812
300623,0.0398101806640625,-0.1720733642578125,-1.022811889648438
300624,0.081146240234375,-0.1091461181640625,-1.03131103515625
300625,0.0960540771484375,-0.0768280029296875,-1.042282104492188
300626,0.09698486328125,-0.0778656005859375,-1.04248046875
300627,0.1084747314453125,-0.111663818359375,-1.0458984375
300628,0.153839111328125,-0.1541900634765625,-1.07171630859375
300629,0.2119140625,-0.20477294921875,-1.090316772460938
300630,0.2679443359375,-0.2598114013671875,-1.08758544921875
300631,0.3069610595703125,-0.33892822265625,-1.03912353515625
300632,0.3060150146484375,-0.42431640625,-0.96246337890625
300633,0.2681884765625,-0.479278564453125,-0.9078826904296876
300634,0.2235870361328125,-0.5093994140625,-0.923126220703125
300635,0.200408935546875,-0.5313568115234375,-0.977752685546875
300636,0.192901611328125,-0.54705810546875,-0.9998016357421876
300637,0.1983184814453125,-0.5570526123046875,-0.987030029296875
300638,0.1970672607421875,-0.5732421875,-0.9310455322265624
300639,0.2078704833984375,-0.5937652587890625,-0.8765869140625
300640,0.23736572265625,-0.611175537109375,-0.863494873046875
300641,0.2779083251953125,-0.6259918212890625,-0.8491058349609375
300642,0.3495941162109375,-0.644927978515625,-0.8162841796875
300643,0.447479248046875,-0.6427764892578125,-0.77642822265625
300644,0.56561279296875,-0.6223907470703125,-0.737518310546875
300645,0.6879730224609375,-0.608856201171875,-0.7058258056640625
300646,0.8022613525390625,-0.60406494140625,-0.675689697265625
300647,0.90667724609375,-0.5875091552734375,-0.6394195556640625
300648,0.9977264404296876,-0.55560302734375,-0.597320556640625
300649,1.063201904296875,-0.5045623779296875,-0.5526885986328125
300650,1.085494995117188,-0.453369140625,-0.50372314453125
300651,1.043731689453125,-0.446136474609375,-0.4554595947265625
300652,0.945831298828125,-0.5109405517578125,-0.4339752197265625
300653,0.8491058349609375,-0.582672119140625,-0.4221954345703125
300654,0.757904052734375,-0.6021270751953125,-0.429351806640625
300655,0.6706390380859375,-0.5882568359375,-0.4563140869140625
300656,0.615753173828125,-0.54986572265625,-0.483673095703125
300657,0.5580596923828125,-0.5062255859375,-0.5104827880859375
300658,0.5130157470703125,-0.4672088623046875,-0.5288238525390625
300659,0.4812774658203125,-0.4376373291015625,-0.528472900390625
300660,0.4741973876953125,-0.422027587890625,-0.5291595458984375
300661,0.4980621337890625,-0.42572021484375,-0.5474090576171875
300662,0.53192138671875,-0.430084228515625,-0.5740814208984375
300663,0.562774658203125,-0.4443206787109375,-0.618255615234375
300664,0.5794219970703125,-0.461395263671875,-0.6759033203125
300665,0.593902587890625,-0.4896087646484375,-0.747222900390625
300666,0.5992889404296875,-0.4940338134765625,-0.7540435791015625
300667,0.5818634033203125,-0.48614501953125,-0.7366943359375
300668,0.5527801513671875,-0.4757080078125,-0.7568206787109375
300669,0.5243377685546875,-0.4524993896484375,-0.776153564453125
300670,0.4945526123046875,-0.408050537109375,-0.7460174560546875
300671,0.4512939453125,-0.3778533935546875,-0.697845458984375
300672,0.4140625,-0.337371826171875,-0.654296875
300673,0.3780670166015625,-0.2656402587890625,-0.658538818359375
300674,0.338470458984375,-0.216156005859375,-0.7093505859375
300675,0.3105316162109375,-0.199676513671875,-0.79010009765625
300676,0.2873687744140625,-0.19091796875,-0.8664398193359375
300677,0.2705078125,-0.184967041015625,-0.9194793701171876
300678,0.2739715576171875,-0.178131103515625,-0.9505767822265624
300679,0.2748260498046875,-0.170440673828125,-0.9857940673828124
300680,0.2688751220703125,-0.1437835693359375,-1.01116943359375
300681,0.26080322265625,-0.1166229248046875,-1.025619506835938
300682,0.218658447265625,-0.079132080078125,-1.100570678710938
300683,0.16796875,-0.0510711669921875,-1.116775512695312
300684,0.102874755859375,-0.027069091796875,-1.117294311523438
300685,0.0254974365234375,-0.010833740234375,-1.113616943359375
300686,-0.0338897705078125,0.0069580078125,-1.102218627929688
300687,-0.070404052734375,1.52587890625e-05,-1.108291625976562
300688,-0.076904296875,-0.0322113037109375,-1.124313354492188
300689,-0.0539703369140625,-0.070526123046875,-1.134429931640625
300690,-0.0185546875,-0.105804443359375,-1.114044189453125
300691,0.0256805419921875,-0.154571533203125,-1.0643310546875
300692,0.0830230712890625,-0.2132415771484375,-1.013290405273438
300693,0.1590728759765625,-0.26910400390625,-0.9840240478515624
300694,0.25439453125,-0.318572998046875,-0.9674530029296876
300695,0.3525543212890625,-0.3552398681640625,-0.9673004150390624
300696,0.4538421630859375,-0.360321044921875,-0.9833831787109376
300697,0.549102783203125,-0.332244873046875,-1.009552001953125
300698,0.6422271728515625,-0.292266845703125,-1.048782348632812
300699,0.7327880859375,-0.2694091796875,-1.093063354492188
300700,0.7970428466796875,-0.2611236572265625,-1.099868774414062
300701,0.8156890869140625,-0.2631988525390625,-1.02935791015625
300702,0.7842254638671875,-0.3059234619140625,-0.88885498046875
300703,0.7265625,-0.4054107666015625,-0.7340850830078125
300704,0.66302490234375,-0.5065460205078125,-0.638916015625
300705,0.5975494384765625,-0.5639190673828125,-0.598785400390625
300706,0.5433807373046875,-0.603546142578125,-0.61968994140625
300707,0.497344970703125,-0.651580810546875,-0.7073516845703125
300708,0.4586944580078125,-0.6988677978515625,-0.797943115234375
300709,0.4364471435546875,-0.71099853515625,-0.83251953125
300710,0.4334564208984375,-0.7048797607421875,-0.8067779541015625
300711,0.4517669677734375,-0.69549560546875,-0.7321624755859375
300712,0.48260498046875,-0.6697845458984375,-0.6457366943359375
300713,0.52349853515625,-0.628326416015625,-0.5833282470703125
300714,0.576904296875,-0.5696258544921875,-0.5422515869140625
300715,0.6198272705078125,-0.499603271484375,-0.51922607421875
300716,0.635406494140625,-0.4388427734375,-0.5001983642578125
300717,0.615203857421875,-0.38812255859375,-0.4868927001953125
300718,0.5761871337890625,-0.353485107421875,-0.4951934814453125
300719,0.5585479736328125,-0.324249267578125,-0.5107879638671875
300720,0.5762481689453125,-0.295806884765625,-0.5132293701171875
300721,0.6175994873046875,-0.2943115234375,-0.497894287109375
300722,0.66131591796875,-0.3117828369140625,-0.47161865234375
300723,0.6873931884765625,-0.3328399658203125,-0.45428466796875
300724,0.6924591064453125,-0.3571319580078125,-0.4629364013671875
300725,0.6812591552734375,-0.368499755859375,-0.496826171875
300726,0.6582183837890625,-0.35675048828125,-0.5442047119140625
300727,0.635101318359375,-0.3498687744140625,-0.59295654296875
300728,0.616241455078125,-0.371612548828125,-0.6456146240234375
300729,0.60888671875,-0.4057159423828125,-0.6941070556640625
300730,0.6036224365234375,-0.429931640625,-0.749786376953125
300731,0.5802459716796875,-0.44342041015625,-0.812957763671875
300732,0.5301513671875,-0.4372100830078125,-0.8662109375
300733,0.4824066162109375,-0.4486236572265625,-0.888824462890625
300734,0.43316650390625,-0.45751953125,-0.874053955078125
300735,0.392333984375,-0.4547882080078125,-0.8624267578125
300736,0.3486175537109375,-0.4749908447265625,-0.90789794921875
300737,0.319732666015625,-0.4963226318359375,-0.9599761962890624
300738,0.3184661865234375,-0.4811859130859375,-0.97613525390625
300739,0.3112945556640625,-0.466552734375,-0.9842987060546876
300740,0.2737274169921875,-0.3924560546875,-1.009033203125
300741,0.24169921875,-0.331939697265625,-0.986419677734375
300742,0.229217529296875,-0.325927734375,-0.97491455078125
300743,0.2279510498046875,-0.30047607421875,-0.9736175537109376
300744,0.2355194091796875,-0.2548980712890625,-0.989532470703125
300745,0.2304840087890625,-0.2093658447265625,-1.018936157226562
300746,0.1964874267578125,-0.1699371337890625,-1.063888549804688
300747,0.138946533203125,-0.139068603515625,-1.085205078125
300748,0.0787353515625,-0.127410888671875,-1.062835693359375
300749,0.0355682373046875,-0.114776611328125,-1.04901123046875
300750,0.012847900390625,-0.1019744873046875,-1.063339233398438
300751,0.0071563720703125,-0.093475341796875,-1.076766967773438
300752,0.0121002197265625,-0.105499267578125,-1.068923950195312
300753,0.0453033447265625,-0.1377410888671875,-1.053192138671875
300754,0.11541748046875,-0.188873291015625,-1.04150390625
300755,0.1992034912109375,-0.243072509765625,-1.0428466796875
300756,0.2709197998046875,-0.28521728515625,-1.037139892578125
300757,0.3331146240234375,-0.3338165283203125,-1.035415649414062
300758,0.3816070556640625,-0.40179443359375,-1.056015014648438
300759,0.4184417724609375,-0.4685211181640625,-1.069229125976562
300760,0.4338226318359375,-0.5258636474609375,-1.074539184570312
300761,0.42767333984375,-0.5723419189453125,-1.10064697265625
300762,0.40509033203125,-0.6316680908203125,-1.1007080078125
300763,0.375579833984375,-0.687957763671875,-1.025161743164062
300764,0.333740234375,-0.713531494140625,-0.9306182861328124
300765,0.3060302734375,-0.6962432861328125,-0.904327392578125
300766,0.3138427734375,-0.6691741943359375,-0.9110107421875
300767,0.3670196533203125,-0.6851959228515625,-0.8829498291015625
300768,0.4663543701171875,-0.6810455322265625,-0.828399658203125
300769,0.5829315185546875,-0.6673431396484375,-0.77386474609375
300770,0.691802978515625,-0.6549224853515625,-0.72491455078125
300771,0.79425048828125,-0.622802734375,-0.678131103515625
300772,0.888580322265625,-0.559783935546875,-0.6126708984375
300773,0.9706268310546876,-0.4582061767578125,-0.538726806640625
300774,1.025115966796875,-0.3372802734375,-0.4876251220703125
300775,1.026504516601562,-0.23370361328125,-0.42041015625
300776,0.9383697509765624,-0.2505645751953125,-0.374847412109375
300777,0.800994873046875,-0.3849334716796875,-0.3861846923828125
300778,0.683074951171875,-0.4557037353515625,-0.436614990234375
300779,0.5944976806640625,-0.5076751708984375,-0.50921630859375
300780,0.47027587890625,-0.5603790283203125,-0.6317596435546875
300781,0.51751708984375,-0.5516357421875,-0.5775604248046875
300782,0.446075439453125,-0.541717529296875,-0.653717041015625
300783,0.430908203125,-0.5096893310546875,-0.6379547119140625
300784,0.4376678466796875,-0.473358154296875,-0.6022491455078125
300785,0.4606475830078125,-0.444427490234375,-0.5747528076171875
300786,0.4871063232421875,-0.4243621826171875,-0.574493408203125
300787,0.5153961181640625,-0.399505615234375,-0.6099090576171875
300788,0.5360107421875,-0.3824920654296875,-0.704132080078125
300789,0.532440185546875,-0.379791259765625,-0.655059814453125
300790,0.5438995361328125,-0.414031982421875,-0.733428955078125
300791,0.559295654296875,-0.4434356689453125,-0.76055908203125
300792,0.580963134765625,-0.4428863525390625,-0.769683837890625
300793,0.6056671142578125,-0.4102325439453125,-0.7342681884765625
300794,0.5947418212890625,-0.3739013671875,-0.6943817138671875
300795,0.575592041015625,-0.317474365234375,-0.660491943359375
300796,0.534027099609375,-0.2478485107421875,-0.64666748046875
300797,0.4774627685546875,-0.196533203125,-0.652587890625
300798,0.4124755859375,-0.1589202880859375,-0.7285919189453125
300799,0.3573455810546875,-0.153106689453125,-0.8171234130859375
300800,0.31854248046875,-0.1656036376953125,-0.881256103515625
300801,0.28228759765625,-0.1876983642578125,-0.918609619140625
300802,0.2719268798828125,-0.20758056640625,-0.934234619140625
300803,0.278411865234375,-0.184326171875,-1.0133056640625
300804,0.2826385498046875,-0.1510467529296875,-1.085906982421875
300805,0.273223876953125,-0.124114990234375,-1.105804443359375
300806,0.254425048828125,-0.09466552734375,-1.076828002929688
300807,0.232208251953125,-0.075469970703125,-1.04949951171875
300808,0.1990966796875,-0.065399169921875,-1.020645141601562
300809,0.1536712646484375,-0.0679473876953125,-1.005783081054688
300810,0.101043701171875,-0.0762176513671875,-1.000137329101562
300811,0.0566253662109375,-0.084564208984375,-0.9945220947265624
300812,0.0360260009765625,-0.097503662109375,-0.98583984375
300813,0.040252685546875,-0.112823486328125,-0.9806976318359376
300814,0.0512542724609375,-0.12408447265625,-0.979217529296875
300815,0.07733154296875,-0.1418304443359375,-0.9891510009765624
300816,0.118743896484375,-0.1718292236328125,-1.01068115234375
300817,0.1895751953125,-0.20562744140625,-1.02679443359375
300818,0.2841949462890625,-0.2357177734375,-1.01129150390625
300819,0.3726654052734375,-0.2489013671875,-0.97149658203125
300820,0.448516845703125,-0.2453155517578125,-0.9415435791015624
300821,0.5163421630859375,-0.233489990234375,-0.9444732666015624
300822,0.5810699462890625,-0.218597412109375,-0.9761199951171876
300823,0.6400146484375,-0.23065185546875,-1.011520385742188
300824,0.671112060546875,-0.277191162109375,-1.011428833007812
300825,0.6618499755859375,-0.3450927734375,-0.9696807861328124
300826,0.642486572265625,-0.4335784912109375,-0.9103546142578124
300827,0.6197509765625,-0.51397705078125,-0.8725738525390625
300828,0.5878448486328125,-0.57769775390625,-0.8630523681640625
300829,0.5611114501953125,-0.626007080078125,-0.8744354248046875
300830,0.5398712158203125,-0.6615447998046875,-0.8919677734375
300831,0.5286712646484375,-0.6951446533203125,-0.89599609375
300832,0.53521728515625,-0.716888427734375,-0.856201171875
300833,0.5487060546875,-0.7185516357421875,-0.7650604248046875
300834,0.552764892578125,-0.7094573974609375,-0.6604156494140625
300835,0.5552978515625,-0.689178466796875,-0.5687103271484375
300836,0.5783843994140625,-0.6506195068359375,-0.5119781494140625
300837,0.6123199462890625,-0.5997314453125,-0.4873809814453125
300838,0.646881103515625,-0.549591064453125,-0.4893035888671875
300839,0.6645660400390625,-0.5091552734375,-0.488250732421875
300840,0.66864013671875,-0.4791717529296875,-0.473358154296875
300841,0.64410400390625,-0.4556884765625,-0.4620361328125
300842,0.5970001220703125,-0.4327545166015625,-0.465301513671875
300843,0.580657958984375,-0.410980224609375,-0.481048583984375
300844,0.5992279052734375,-0.3885955810546875,-0.486480712890625
300845,0.62481689453125,-0.36663818359375,-0.48394775390625
300846,0.6390533447265625,-0.362884521484375,-0.492828369140625
300847,0.6381378173828125,-0.367889404296875,-0.513946533203125
300848,0.6314849853515625,-0.3618316650390625,-0.5422821044921875
300849,0.621307373046875,-0.3442535400390625,-0.5830535888671875
300850,0.6024169921875,-0.33135986328125,-0.6301422119140625
300851,0.5891265869140625,-0.32684326171875,-0.685150146484375
300852,0.57476806640625,-0.318939208984375,-0.6893463134765625
300853,0.5650177001953125,-0.316925048828125,-0.70635986328125
300854,0.549835205078125,-0.319091796875,-0.7280120849609375
300855,0.5364837646484375,-0.3167724609375,-0.7524566650390625
300856,0.509979248046875,-0.3383636474609375,-0.7781219482421875
300857,0.4912261962890625,-0.3741455078125,-0.79705810546875
300858,0.476776123046875,-0.406524658203125,-0.798553466796875
300859,0.446563720703125,-0.4435882568359375,-0.820953369140625
300860,0.4011993408203125,-0.4576873779296875,-0.8875579833984375
300861,0.351226806640625,-0.4339447021484375,-0.975555419921875
300862,0.305023193359375,-0.410552978515625,-1.040512084960938
300863,0.2455902099609375,-0.4306640625,-1.117263793945312
300864,0.192413330078125,-0.439239501953125,-1.155105590820312
300865,0.17449951171875,-0.45806884765625,-1.136016845703125
300866,0.181488037109375,-0.4787750244140625,-1.124359130859375
300867,0.1886138916015625,-0.43206787109375,-1.091964721679688
300868,0.17413330078125,-0.3596343994140625,-1.040802001953125
300869,0.1468505859375,-0.301025390625,-1.040512084960938
300870,0.12615966796875,-0.2448883056640625,-1.097640991210938
300871,0.0963287353515625,-0.200103759765625,-1.13079833984375
300872,0.0709686279296875,-0.1776275634765625,-1.105804443359375
300873,0.0748138427734375,-0.1707000732421875,-1.04473876953125
300874,0.0885009765625,-0.165802001953125,-0.9893035888671876
300875,0.1136932373046875,-0.162445068359375,-0.9453125
300876,0.1724395751953125,-0.1490478515625,-0.9256591796875
300877,0.2264404296875,-0.144866943359375,-0.923309326171875
300878,0.266082763671875,-0.1986083984375,-0.929107666015625
300879,0.306488037109375,-0.2652587890625,-0.9363555908203124
300880,0.34307861328125,-0.3149871826171875,-0.935821533203125
300881,0.357513427734375,-0.33172607421875,-0.9331207275390624
300882,0.3412933349609375,-0.347564697265625,-0.9473419189453124
300883,0.3183441162109375,-0.372039794921875,-0.974151611328125
300884,0.30352783203125,-0.3807220458984375,-0.9942626953125
300885,0.2818756103515625,-0.3748016357421875,-0.993499755859375
300886,0.237213134765625,-0.4125518798828125,-1.006271362304688
300887,0.2003173828125,-0.4665069580078125,-1.043807983398438
300888,0.205963134765625,-0.494964599609375,-1.073837280273438
300889,0.240570068359375,-0.523468017578125,-1.066268920898438
300890,0.2561798095703125,-0.5543670654296875,-1.028594970703125
300891,0.2696075439453125,-0.58404541015625,-0.994873046875
300892,0.3040924072265625,-0.5987091064453125,-0.9924774169921876
300893,0.354949951171875,-0.6188201904296875,-0.991973876953125
300894,0.41644287109375,-0.6622314453125,-0.9422760009765624
300895,0.4881134033203125,-0.7122344970703125,-0.8515625
300896,0.566009521484375,-0.7573699951171875,-0.741912841796875
300897,0.6539764404296875,-0.766632080078125,-0.6532440185546875
300898,0.74456787109375,-0.7383575439453125,-0.5812225341796875
300899,0.836090087890625,-0.6763458251953125,-0.5313262939453125
300900,0.9275970458984376,-0.5957489013671875,-0.5023651123046875
300901,1.008255004882812,-0.5131683349609375,-0.48992919921875
300902,1.051956176757812,-0.4486083984375,-0.4725189208984375
300903,1.036972045898438,-0.441070556640625,-0.4389495849609375
300904,0.958831787109375,-0.466766357421875,-0.407501220703125
300905,0.847747802734375,-0.4893646240234375,-0.4122314453125
300906,0.730926513671875,-0.495697021484375,-0.427490234375
300907,0.6488494873046875,-0.4858245849609375,-0.4564666748046875
300908,0.6019439697265625,-0.4720001220703125,-0.4835052490234375
300909,0.54931640625,-0.456268310546875,-0.4994659423828125
300910,0.52166748046875,-0.4377899169921875,-0.5247802734375
300911,0.507568359375,-0.431671142578125,-0.5387725830078125
300912,0.4915618896484375,-0.426025390625,-0.555145263671875
300913,0.488616943359375,-0.4030914306640625,-0.6007232666015625
300914,0.4920806884765625,-0.3871307373046875,-0.667999267578125
300915,0.4952545166015625,-0.3809814453125,-0.7354888916015625
300916,0.500274658203125,-0.38092041015625,-0.783905029296875
300917,0.5070343017578125,-0.3766632080078125,-0.8172760009765625
300918,0.5171356201171875,-0.384429931640625,-0.801422119140625
300919,0.5393829345703125,-0.385986328125,-0.8170166015625
300920,0.5419158935546875,-0.363433837890625,-0.788818359375
300921,0.5277099609375,-0.3450775146484375,-0.6949310302734375
300922,0.4970245361328125,-0.317596435546875,-0.6295013427734375
300923,0.4673919677734375,-0.2772674560546875,-0.610809326171875
300924,0.4333343505859375,-0.2209625244140625,-0.628875732421875
300925,0.40277099609375,-0.1749114990234375,-0.686004638671875
300926,0.3759002685546875,-0.1556243896484375,-0.7440948486328125
300927,0.3631591796875,-0.176910400390625,-0.797149658203125
300928,0.3475341796875,-0.191741943359375,-0.837005615234375
300929,0.3342132568359375,-0.209747314453125,-0.87078857421875
300930,0.318359375,-0.215545654296875,-0.90234375
300931,0.301849365234375,-0.1989593505859375,-0.937744140625
300932,0.230712890625,-0.1484832763671875,-0.969573974609375
300933,0.2781524658203125,-0.1759796142578125,-0.9546356201171876
300934,0.1656951904296875,-0.1309661865234375,-0.997955322265625
300935,0.113677978515625,-0.115386962890625,-1.042373657226562
300936,0.075927734375,-0.094085693359375,-1.052597045898438
300937,0.0291595458984375,-0.063201904296875,-1.064117431640625
300938,-0.012908935546875,-0.0383758544921875,-1.084228515625
300939,-0.0444488525390625,-0.0296630859375,-1.090240478515625
300940,-0.0545501708984375,-0.042938232421875,-1.079376220703125
300941,-0.0329742431640625,-0.075714111328125,-1.0635986328125
300942,-0.003631591796875,-0.1179962158203125,-1.052749633789062
300943,0.0247344970703125,-0.1773834228515625,-1.027145385742188
300944,0.0760955810546875,-0.2542724609375,-1.02313232421875
300945,0.1461181640625,-0.3215179443359375,-1.041397094726562
300946,0.219451904296875,-0.3773651123046875,-1.076889038085938
300947,0.2996368408203125,-0.41424560546875,-1.10858154296875
300948,0.3709716796875,-0.4207305908203125,-1.1175537109375
300949,0.46112060546875,-0.4020233154296875,-1.112167358398438
300950,0.565032958984375,-0.392608642578125,-1.1417236328125
300951,0.6675567626953125,-0.397430419921875,-1.18743896484375
300952,0.787994384765625,-0.4085235595703125,-1.172882080078125
300953,0.738494873046875,-0.3973236083984375,-1.213363647460938
300954,0.807891845703125,-0.4214630126953125,-1.043869018554688
300955,0.7836151123046875,-0.441192626953125,-0.8694610595703125
300956,0.7436676025390625,-0.469085693359375,-0.71942138671875
300957,0.6975250244140625,-0.51373291015625,-0.647186279296875
300958,0.647369384765625,-0.5525970458984375,-0.6510467529296875
300959,0.6109466552734375,-0.5886993408203125,-0.699981689453125
300960,0.5923919677734375,-0.6294708251953125,-0.746002197265625
300961,0.569976806640625,-0.6585540771484375,-0.7662506103515625
300962,0.5501251220703125,-0.6630859375,-0.758514404296875
300963,0.528961181640625,-0.6400299072265625,-0.7094268798828125
300964,0.51043701171875,-0.61834716796875,-0.64361572265625
300965,0.49908447265625,-0.5870513916015625,-0.5779571533203125
300966,0.496429443359375,-0.55218505859375,-0.527069091796875
300967,0.494232177734375,-0.5101318359375,-0.4892730712890625
300968,0.4802093505859375,-0.4619293212890625,-0.4575653076171875
300969,0.47216796875,-0.41607666015625,-0.451171875
300970,0.482940673828125,-0.36932373046875,-0.472015380859375
300971,0.52679443359375,-0.3212127685546875,-0.5113525390625
300972,0.5886077880859375,-0.2820892333984375,-0.5376434326171875
300973,0.6575469970703125,-0.2689208984375,-0.53082275390625
300974,0.70489501953125,-0.2629852294921875,-0.5050506591796875
300975,0.7315216064453125,-0.279388427734375,-0.4889678955078125
300976,0.73150634765625,-0.319305419921875,-0.4859771728515625
300977,0.714996337890625,-0.35614013671875,-0.48724365234375
300978,0.6863861083984375,-0.37835693359375,-0.4919281005859375
300979,0.6450653076171875,-0.396453857421875,-0.528076171875
300980,0.6088714599609375,-0.421630859375,-0.589324951171875
300981,0.5962982177734375,-0.454010009765625,-0.6749725341796875
300982,0.57421875,-0.4876556396484375,-0.765655517578125
300983,0.5372772216796875,-0.5177001953125,-0.813934326171875
300984,0.5048828125,-0.5335845947265625,-0.828369140625
300985,0.4726715087890625,-0.5412750244140625,-0.83685302734375
300986,0.4415435791015625,-0.5381317138671875,-0.838531494140625
300987,0.418304443359375,-0.518341064453125,-0.83782958984375
300988,0.413116455078125,-0.4941864013671875,-0.8514404296875
300989,0.41180419921875,-0.451263427734375,-0.86663818359375
300990,0.4029083251953125,-0.4080657958984375,-0.878265380859375
300991,0.3812103271484375,-0.3690032958984375,-0.8732452392578125
300992,0.354644775390625,-0.325408935546875,-0.863006591796875
300993,0.329010009765625,-0.2846527099609375,-0.8635101318359375
300994,0.31005859375,-0.231109619140625,-0.8887786865234375
300995,0.2898712158203125,-0.190704345703125,-0.9281158447265624
300996,0.2755889892578125,-0.136505126953125,-0.9764862060546876
300997,0.257720947265625,-0.084808349609375,-1.013748168945312
300998,0.21759033203125,-0.1092681884765625,-1.0570068359375
300999,0.1939697265625,-0.07568359375,-1.10687255859375
301000,0.1179351806640625,-0.0699462890625,-1.085250854492188
301001,0.0249481201171875,-0.0833587646484375,-1.024932861328125
301002,-0.04107666015625,-0.0433197021484375,-1.025558471679688
301003,-0.1013336181640625,0.0162811279296875,-1.024734497070312
301004,-0.141693115234375,0.07330322265625,-0.997467041015625
301005,-0.157501220703125,0.1002960205078125,-0.9718017578125
301006,-0.1504364013671875,0.0985565185546875,-0.975921630859375
301007,-0.1119232177734375,0.0613250732421875,-1.006820678710938
301008,-0.0400390625,-0.001922607421875,-1.076171875
301009,0.0536041259765625,-0.0665130615234375,-1.120941162109375
301010,0.145294189453125,-0.138336181640625,-1.12335205078125
301011,0.22149658203125,-0.2237701416015625,-1.145828247070312
301012,0.27935791015625,-0.305816650390625,-1.173919677734375
301013,0.313385009765625,-0.3477630615234375,-1.183563232421875
301014,0.3177490234375,-0.336700439453125,-1.195648193359375
301015,0.328582763671875,-0.309356689453125,-1.2000732421875
301016,0.372528076171875,-0.3040771484375,-1.17022705078125
301017,0.4355316162109375,-0.342529296875,-1.118362426757812
301018,0.49041748046875,-0.39227294921875,-1.097854614257812
301019,0.5345916748046875,-0.43939208984375,-1.099807739257812
301020,0.5703277587890625,-0.4962310791015625,-1.081680297851562
301021,0.6067352294921875,-0.559051513671875,-1.037704467773438
301022,0.64935302734375,-0.6170806884765625,-1.00152587890625
301023,0.71435546875,-0.6517486572265625,-0.9660797119140624
301024,0.8037261962890625,-0.6532440185546875,-0.8577880859375
301025,0.865142822265625,-0.6537933349609375,-0.75823974609375
301026,0.906036376953125,-0.638702392578125,-0.7607574462890625
301027,0.9527435302734376,-0.6054840087890625,-0.7649078369140625
301028,0.9724578857421876,-0.5776824951171875,-0.754852294921875
301029,0.94708251953125,-0.557403564453125,-0.73028564453125
301030,0.9384307861328124,-0.5711669921875,-0.6845703125
301031,0.9410400390625,-0.568359375,-0.6355743408203125
301032,0.939971923828125,-0.538177490234375,-0.617034912109375
301033,0.9237060546875,-0.4840087890625,-0.6010894775390625
301034,0.8904571533203125,-0.4681854248046875,-0.607757568359375
301035,0.8548583984375,-0.4645538330078125,-0.63250732421875
301036,0.816558837890625,-0.48028564453125,-0.5927734375
301037,0.78460693359375,-0.51348876953125,-0.525238037109375
301038,0.7577667236328125,-0.569244384765625,-0.5069732666015625
301039,0.7288055419921875,-0.6051025390625,-0.5318450927734375
301040,0.68389892578125,-0.5940093994140625,-0.5283966064453125
301041,0.6354522705078125,-0.5895843505859375,-0.5498199462890625
301042,0.591217041015625,-0.578826904296875,-0.5457611083984375
301043,0.54742431640625,-0.5703582763671875,-0.4945526123046875
301044,0.52288818359375,-0.5640411376953125,-0.4412078857421875
301045,0.51025390625,-0.552764892578125,-0.4551544189453125
301046,0.4953460693359375,-0.519439697265625,-0.4485321044921875
301047,0.506591796875,-0.5609130859375,-0.478515625
301048,0.5215301513671875,-0.575164794921875,-0.472076416015625
301049,0.54443359375,-0.5415191650390625,-0.3985443115234375
301050,0.5812835693359375,-0.529693603515625,-0.324310302734375
301051,0.62420654296875,-0.4916229248046875,-0.2920684814453125
301052,0.649505615234375,-0.442169189453125,-0.2920989990234375
301053,0.664276123046875,-0.377960205078125,-0.3026275634765625
301054,0.6844482421875,-0.36212158203125,-0.3550262451171875
301055,0.678741455078125,-0.33538818359375,-0.39434814453125
301056,0.6711883544921875,-0.2994842529296875,-0.4047698974609375
301057,0.6584930419921875,-0.3020782470703125,-0.4207916259765625
301058,0.6397247314453125,-0.308258056640625,-0.4230194091796875
301059,0.624176025390625,-0.32086181640625,-0.4149169921875
301060,0.60491943359375,-0.343048095703125,-0.4134063720703125
301061,0.5737152099609375,-0.374603271484375,-0.3876953125
301062,0.5203399658203125,-0.40869140625,-0.3448028564453125
301063,0.45867919921875,-0.4207916259765625,-0.338592529296875
301064,0.41204833984375,-0.4043121337890625,-0.381195068359375
301065,0.3763427734375,-0.384613037109375,-0.4282379150390625
301066,0.335723876953125,-0.37677001953125,-0.4479827880859375
301067,0.2976226806640625,-0.377227783203125,-0.4430084228515625
301068,0.2661590576171875,-0.3799285888671875,-0.43475341796875
301069,0.24591064453125,-0.3749542236328125,-0.426177978515625
301070,0.2407684326171875,-0.3731536865234375,-0.4208831787109375
301071,0.2554779052734375,-0.38238525390625,-0.414703369140625
301072,0.2830047607421875,-0.40179443359375,-0.4159393310546875
301073,0.318511962890625,-0.4229583740234375,-0.418609619140625
301074,0.3615875244140625,-0.4395294189453125,-0.414459228515625
301075,0.4081573486328125,-0.4491729736328125,-0.4058074951171875
301076,0.4595794677734375,-0.4419097900390625,-0.4126739501953125
301077,0.5183868408203125,-0.4301300048828125,-0.4228363037109375
301078,0.5775909423828125,-0.4196624755859375,-0.4229736328125
301079,0.6434326171875,-0.4304351806640625,-0.431640625
301080,0.714508056640625,-0.4669952392578125,-0.4600067138671875
301081,0.78033447265625,-0.4956512451171875,-0.4984893798828125
301082,0.83447265625,-0.5089569091796875,-0.5345611572265625
301083,0.88525390625,-0.52069091796875,-0.546844482421875
301084,0.9231414794921876,-0.5553741455078125,-0.52203369140625
301085,0.936614990234375,-0.594696044921875,-0.4803009033203125
301086,0.935302734375,-0.6336212158203125,-0.4583587646484375
301087,0.9237518310546876,-0.655120849609375,-0.4947052001953125
301088,0.8917388916015625,-0.676788330078125,-0.5511627197265625
301089,0.855377197265625,-0.709259033203125,-0.577484130859375
301090,0.834442138671875,-0.7359771728515625,-0.5708465576171875
301091,0.831695556640625,-0.735565185546875,-0.5570220947265625
301092,0.838409423828125,-0.70318603515625,-0.5690155029296875
301093,0.8447723388671875,-0.67254638671875,-0.566680908203125
301094,0.85809326171875,-0.65936279296875,-0.56817626953125
301095,0.8563385009765625,-0.687774658203125,-0.5635528564453125
301096,0.8102874755859375,-0.6522979736328125,-0.52374267578125
301097,0.836456298828125,-0.693267822265625,-0.5174102783203125
301098,0.7472076416015625,-0.5605010986328125,-0.571075439453125
301099,0.680450439453125,-0.4853668212890625,-0.626861572265625
301100,0.6557464599609375,-0.449066162109375,-0.6813812255859375
301101,0.67254638671875,-0.433868408203125,-0.6997528076171875
301102,0.68499755859375,-0.4351043701171875,-0.6733856201171875
301103,0.683837890625,-0.4487152099609375,-0.634124755859375
301104,0.67913818359375,-0.4469451904296875,-0.610870361328125
301105,0.68878173828125,-0.4209442138671875,-0.6258544921875
301106,0.676422119140625,-0.4053802490234375,-0.677642822265625
301107,0.6479644775390625,-0.3962554931640625,-0.7303009033203125
301108,0.6139068603515625,-0.4030914306640625,-0.7491607666015625
301109,0.6073760986328125,-0.4091339111328125,-0.7301483154296875
301110,0.62060546875,-0.4281005859375,-0.69451904296875
301111,0.62005615234375,-0.4498291015625,-0.680816650390625
301112,0.5949554443359375,-0.477264404296875,-0.6827392578125
301113,0.555389404296875,-0.50897216796875,-0.69720458984375
301114,0.5152435302734375,-0.5343475341796875,-0.736053466796875
301115,0.4794769287109375,-0.5503082275390625,-0.7864990234375
301116,0.448211669921875,-0.5263824462890625,-0.838409423828125
301117,0.4159088134765625,-0.50482177734375,-0.9202880859375
301118,0.370635986328125,-0.495025634765625,-0.995361328125
301119,0.327728271484375,-0.5042572021484375,-1.026687622070312
301120,0.2919158935546875,-0.5129547119140625,-1.016220092773438
301121,0.2603302001953125,-0.496856689453125,-1.004745483398438
301122,0.2473907470703125,-0.473236083984375,-1.012405395507812
301123,0.2537078857421875,-0.4586944580078125,-1.03802490234375
301124,0.2628326416015625,-0.4406280517578125,-1.05413818359375
301125,0.25537109375,-0.405426025390625,-1.053268432617188
301126,0.2403564453125,-0.3589630126953125,-1.052963256835938
301127,0.216827392578125,-0.3072662353515625,-1.050064086914062
301128,0.1788330078125,-0.269256591796875,-1.033447265625
301129,0.1443023681640625,-0.239898681640625,-1.015670776367188
301130,0.1136932373046875,-0.209503173828125,-1.010696411132812
301131,0.10595703125,-0.1792449951171875,-1.004058837890625
301132,0.1086578369140625,-0.169464111328125,-0.97735595703125
301133,0.1266326904296875,-0.1771697998046875,-0.95404052734375
301134,0.162139892578125,-0.2036590576171875,-0.9496917724609376
301135,0.1944122314453125,-0.245025634765625,-0.9769744873046876
301136,0.2125091552734375,-0.309051513671875,-1.01470947265625
301137,0.2292938232421875,-0.3842926025390625,-1.01751708984375
301138,0.2413177490234375,-0.4445953369140625,-1.01959228515625
301139,0.240875244140625,-0.4804534912109375,-1.058700561523438
301140,0.248870849609375,-0.4842071533203125,-1.08551025390625
301141,0.2657928466796875,-0.4650115966796875,-1.0858154296875
301142,0.2839202880859375,-0.4432525634765625,-1.0579833984375
301143,0.28515625,-0.4561614990234375,-1.018569946289062
301144,0.2958221435546875,-0.491485595703125,-0.985107421875
301145,0.319580078125,-0.5199737548828125,-0.944366455078125
301146,0.3495330810546875,-0.5413818359375,-0.902130126953125
301147,0.385284423828125,-0.559234619140625,-0.8674163818359375
301148,0.4320220947265625,-0.55865478515625,-0.8579559326171875
301149,0.486846923828125,-0.5697174072265625,-0.873260498046875
301150,0.5587158203125,-0.5855560302734375,-0.8968353271484375
301151,0.6325836181640625,-0.618804931640625,-0.89990234375
301152,0.711273193359375,-0.6389923095703125,-0.8564300537109375
301153,0.79248046875,-0.628814697265625,-0.7755279541015625
301154,0.851837158203125,-0.577056884765625,-0.6742706298828125
301155,0.89935302734375,-0.5150909423828125,-0.5946197509765625
301156,0.9549713134765624,-0.4705352783203125,-0.555938720703125
301157,0.99517822265625,-0.4246826171875,-0.5010223388671875
301158,1.006820678710938,-0.40972900390625,-0.4271697998046875
301159,0.9714813232421876,-0.42205810546875,-0.3895263671875
301160,0.9227294921875,-0.4547119140625,-0.41290283203125
301161,0.8692779541015625,-0.480621337890625,-0.4431915283203125
301162,0.79315185546875,-0.491729736328125,-0.4597015380859375
301163,0.6920928955078125,-0.505950927734375,-0.4803924560546875
301164,0.6164093017578125,-0.5027313232421875,-0.525634765625
301165,0.5651397705078125,-0.474822998046875,-0.5509796142578125
301166,0.5242919921875,-0.464813232421875,-0.556060791015625
301167,0.49334716796875,-0.46337890625,-0.5556793212890625
301168,0.4795989990234375,-0.463226318359375,-0.558013916015625
301169,0.471649169921875,-0.44549560546875,-0.569793701171875
301170,0.4551544189453125,-0.4185638427734375,-0.611724853515625
301171,0.4461517333984375,-0.409759521484375,-0.6879425048828125
301172,0.459014892578125,-0.4247283935546875,-0.76953125
301173,0.4843597412109375,-0.42596435546875,-0.813446044921875
301174,0.5142974853515625,-0.4047393798828125,-0.818511962890625
301175,0.5293426513671875,-0.3623199462890625,-0.80780029296875
301176,0.5208587646484375,-0.301788330078125,-0.7847900390625
301177,0.4933624267578125,-0.2482757568359375,-0.755889892578125
301178,0.449859619140625,-0.198944091796875,-0.7268829345703125
301179,0.4002532958984375,-0.1455841064453125,-0.7245635986328125
301180,0.3355712890625,-0.099578857421875,-0.742462158203125
301181,0.2779388427734375,-0.0878143310546875,-0.7680511474609375
301182,0.234588623046875,-0.112060546875,-0.796173095703125
301183,0.2093658447265625,-0.1490020751953125,-0.8305816650390625
301184,0.2004852294921875,-0.1684417724609375,-0.8823089599609375
301185,0.2202301025390625,-0.1575927734375,-0.9300079345703124
301186,0.2485198974609375,-0.111236572265625,-0.982025146484375
301187,0.2569580078125,-0.079345703125,-1.022201538085938
301188,0.247833251953125,-0.06201171875,-1.02587890625
301189,0.218475341796875,-0.0507354736328125,-0.9952392578125
301190,0.1668701171875,-0.046783447265625,-0.967529296875
301191,0.1147613525390625,-0.0318450927734375,-0.9765625
301192,0.0666656494140625,-0.021331787109375,-1.023895263671875
301193,0.027679443359375,-0.0289306640625,-1.088241577148438
301194,-0.0102386474609375,-0.0505828857421875,-1.129150390625
301195,-0.042449951171875,-0.096923828125,-1.141250610351562
301196,-0.05267333984375,-0.1501617431640625,-1.123626708984375
301197,-0.029327392578125,-0.1841278076171875,-1.078079223632812
301198,0.031829833984375,-0.19281005859375,-1.0299072265625
301199,0.1106109619140625,-0.2291717529296875,-1.028579711914062
301200,0.206207275390625,-0.2702178955078125,-1.033004760742188
301201,0.3112030029296875,-0.3052520751953125,-1.038650512695312
301202,0.416107177734375,-0.336639404296875,-1.044967651367188
301203,0.523193359375,-0.34429931640625,-1.061203002929688
301204,0.6268310546875,-0.335723876953125,-1.077743530273438
301205,0.7108612060546875,-0.31536865234375,-1.079788208007812
301206,0.774749755859375,-0.288055419921875,-1.04925537109375
301207,0.784912109375,-0.2694244384765625,-0.9797821044921876
301208,0.7439117431640625,-0.299957275390625,-0.842987060546875
301209,0.70281982421875,-0.3651123046875,-0.7271575927734375
301210,0.6810455322265625,-0.4477996826171875,-0.6644744873046875
301211,0.6533355712890625,-0.526611328125,-0.70513916015625
301212,0.611968994140625,-0.600860595703125,-0.7932586669921875
301213,0.5609283447265625,-0.6639862060546875,-0.9144744873046876
301214,0.513580322265625,-0.706298828125,-1.004074096679688
301215,0.4779815673828125,-0.72540283203125,-1.0269775390625
301216,0.4470062255859375,-0.72210693359375,-0.9608917236328124
301217,0.4260101318359375,-0.7006988525390625,-0.8229522705078125
301218,0.412200927734375,-0.6705322265625,-0.6840667724609375
301219,0.4054718017578125,-0.637298583984375,-0.58770751953125
301220,0.41619873046875,-0.58990478515625,-0.5222320556640625
301221,0.450927734375,-0.536895751953125,-0.48529052734375
301222,0.496673583984375,-0.49029541015625,-0.4785003662109375
301223,0.528717041015625,-0.462158203125,-0.4780426025390625
301224,0.538970947265625,-0.428741455078125,-0.4866943359375
301225,0.5375213623046875,-0.3891754150390625,-0.4964447021484375
301226,0.5416107177734375,-0.3477783203125,-0.512542724609375
301227,0.5574798583984375,-0.3232269287109375,-0.5373992919921875
301228,0.5726470947265625,-0.319488525390625,-0.5601654052734375
301229,0.5602874755859375,-0.345977783203125,-0.5583953857421875
301230,0.5296783447265625,-0.3992462158203125,-0.5388641357421875
301231,0.51324462890625,-0.436248779296875,-0.5307464599609375
301232,0.50994873046875,-0.4605560302734375,-0.53814697265625
301233,0.516021728515625,-0.4667510986328125,-0.545013427734375
301234,0.5423431396484375,-0.463958740234375,-0.547698974609375
301235,0.5834197998046875,-0.4758148193359375,-0.564361572265625
301236,0.6192169189453125,-0.4851531982421875,-0.595855712890625
301237,0.6404266357421875,-0.4886627197265625,-0.6359405517578125
301238,0.6367645263671875,-0.4838714599609375,-0.6815948486328125
301239,0.607666015625,-0.4896392822265625,-0.727783203125
301240,0.5627593994140625,-0.5049285888671875,-0.762786865234375
301241,0.504913330078125,-0.513763427734375,-0.7918548583984375
301242,0.4459686279296875,-0.5251922607421875,-0.8251800537109375
301243,0.398529052734375,-0.5244903564453125,-0.8561248779296875
301244,0.3748779296875,-0.503265380859375,-0.882843017578125
301245,0.371124267578125,-0.46380615234375,-0.8957977294921875
301246,0.35888671875,-0.42828369140625,-0.90447998046875
301247,0.341339111328125,-0.3958892822265625,-0.89752197265625
301248,0.31121826171875,-0.3659820556640625,-0.921844482421875
301249,0.2681121826171875,-0.3258209228515625,-0.9828948974609376
301250,0.2188262939453125,-0.2862548828125,-1.055404663085938
301251,0.17254638671875,-0.271942138671875,-1.110870361328125
301252,0.1210174560546875,-0.266845703125,-1.13812255859375
301253,0.0704345703125,-0.264190673828125,-1.182464599609375
301254,0.01971435546875,-0.2597198486328125,-1.201416015625
301255,-0.0154876708984375,-0.2305145263671875,-1.1834716796875
301256,-0.0075531005859375,-0.1710968017578125,-1.177841186523438
301257,-0.0137939453125,-0.1088714599609375,-1.15771484375
301258,-0.0295562744140625,-0.0684967041015625,-1.132400512695312
301259,-0.04376220703125,-0.032470703125,-1.1090087890625
301260,-0.037322998046875,-0.0580902099609375,-1.036453247070312
301261,-0.0309906005859375,-0.113067626953125,-1.054916381835938
301262,0.0035247802734375,-0.2033538818359375,-1.23388671875
301263,0.0706329345703125,-0.3035430908203125,-1.234634399414062
301264,0.1194305419921875,-0.39129638671875,-1.161087036132812
301265,0.14727783203125,-0.4488525390625,-1.161392211914062
301266,0.1733245849609375,-0.4930572509765625,-1.179397583007812
301267,0.192840576171875,-0.53204345703125,-1.120208740234375
301268,0.197479248046875,-0.5652923583984375,-1.055572509765625
301269,0.218048095703125,-0.57952880859375,-1.025848388671875
301270,0.2373199462890625,-0.546112060546875,-0.9630279541015624
301271,0.2677459716796875,-0.5095062255859375,-0.868927001953125
301272,0.29241943359375,-0.5133514404296875,-0.8051605224609375
301273,0.300384521484375,-0.5276641845703125,-0.7816162109375
301274,0.3371124267578125,-0.5214080810546875,-0.77325439453125
301275,0.4235382080078125,-0.502838134765625,-0.769927978515625
301276,0.5164031982421875,-0.5473175048828125,-0.8333282470703125
301277,0.6257476806640625,-0.601226806640625,-0.92291259765625
301278,0.7501983642578125,-0.6143951416015625,-0.9681396484375
301279,0.869842529296875,-0.61651611328125,-0.915130615234375
301280,0.9401702880859376,-0.5835113525390625,-0.7858734130859375
301281,0.9779510498046876,-0.5006561279296875,-0.64227294921875
301282,0.96295166015625,-0.410736083984375,-0.4893035888671875
301283,0.9060821533203124,-0.3617095947265625,-0.3676605224609375
301284,0.81036376953125,-0.3794403076171875,-0.2931060791015625
301285,0.715362548828125,-0.470977783203125,-0.3248443603515625
301286,0.6562957763671875,-0.5517425537109375,-0.421417236328125
301287,0.6055145263671875,-0.5980072021484375,-0.4960174560546875
301288,0.5429229736328125,-0.626312255859375,-0.5578765869140625
301289,0.4815521240234375,-0.624298095703125,-0.623016357421875
301290,0.4329071044921875,-0.58648681640625,-0.6699371337890625
301291,0.3961181640625,-0.5363006591796875,-0.68536376953125
301292,0.3705291748046875,-0.491363525390625,-0.66650390625
301293,0.3655853271484375,-0.4630126953125,-0.62664794921875
301294,0.3829193115234375,-0.4559478759765625,-0.595489501953125
301295,0.4152984619140625,-0.4654083251953125,-0.584075927734375
301296,0.4519195556640625,-0.4625244140625,-0.60528564453125
301297,0.4708251953125,-0.450225830078125,-0.6099853515625
301298,0.4896697998046875,-0.4444122314453125,-0.6284027099609375
301299,0.49493408203125,-0.43145751953125,-0.630859375
301300,0.5184326171875,-0.43719482421875,-0.7027587890625
301301,0.5361785888671875,-0.42010498046875,-0.7776336669921875
301302,0.5313262939453125,-0.396575927734375,-0.7383575439453125
301303,0.5029144287109375,-0.3895263671875,-0.6716156005859375
301304,0.4752197265625,-0.3594207763671875,-0.6447601318359375
301305,0.42999267578125,-0.2999420166015625,-0.6635284423828125
301306,0.3953857421875,-0.2460174560546875,-0.6844482421875
301307,0.3595428466796875,-0.2031402587890625,-0.769073486328125
301308,0.3222503662109375,-0.17669677734375,-0.8503265380859375
301309,0.2976226806640625,-0.17120361328125,-0.913726806640625
301310,0.2752838134765625,-0.1774444580078125,-0.950927734375
301311,0.249969482421875,-0.1802215576171875,-0.9734039306640624
301312,0.223480224609375,-0.1732177734375,-0.99346923828125
301313,0.1959381103515625,-0.16070556640625,-1.011001586914062
301314,0.164154052734375,-0.14764404296875,-1.021896362304688
301315,0.129974365234375,-0.138458251953125,-1.041732788085938
301316,0.0938568115234375,-0.1282196044921875,-1.06561279296875
301317,0.0504302978515625,-0.12054443359375,-1.076568603515625
301318,-0.0057220458984375,-0.116912841796875,-1.063980102539062
301319,-0.0665435791015625,-0.1109161376953125,-1.02862548828125
301320,-0.1160430908203125,-0.1181793212890625,-0.9983673095703124
301321,-0.13409423828125,-0.1634521484375,-0.9711456298828124
301322,-0.09814453125,-0.2052001953125,-0.96575927734375
301323,-0.0449371337890625,-0.23822021484375,-1.006240844726562
301324,0.036041259765625,-0.2822723388671875,-1.01348876953125
301325,0.1092071533203125,-0.3136444091796875,-1.002349853515625
301326,0.1835784912109375,-0.3293914794921875,-1.026596069335938
301327,0.265106201171875,-0.3408660888671875,-1.070709228515625
301328,0.34124755859375,-0.343505859375,-1.10601806640625
301329,0.4181365966796875,-0.337127685546875,-1.113739013671875
301330,0.5030059814453125,-0.3127593994140625,-1.103164672851562
301331,0.606231689453125,-0.283111572265625,-1.09295654296875
301332,0.73126220703125,-0.2513427734375,-1.0906982421875
301333,0.8413543701171875,-0.2108612060546875,-1.058914184570312
301334,0.890777587890625,-0.18310546875,-0.9677581787109376
301335,0.8672637939453125,-0.1986846923828125,-0.797515869140625
301336,0.779449462890625,-0.301910400390625,-0.641143798828125
301337,0.658966064453125,-0.46466064453125,-0.6153564453125
301338,0.5588226318359375,-0.5869140625,-0.7055206298828125
301339,0.477264404296875,-0.6846771240234375,-0.8175506591796875
301340,0.405548095703125,-0.7688140869140625,-0.900115966796875
301341,0.342193603515625,-0.828765869140625,-0.941558837890625
301342,0.30657958984375,-0.8504486083984375,-0.9236602783203124
301343,0.295257568359375,-0.83026123046875,-0.8480224609375
301344,0.304229736328125,-0.80010986328125,-0.7616729736328125
301345,0.346160888671875,-0.7604217529296875,-0.67633056640625
301346,0.405120849609375,-0.720184326171875,-0.59747314453125
301347,0.453521728515625,-0.6623077392578125,-0.54052734375
301348,0.4940948486328125,-0.5952606201171875,-0.51904296875
301349,0.5108642578125,-0.519775390625,-0.5306549072265625
301350,0.5307464599609375,-0.46099853515625,-0.56341552734375
301351,0.5664215087890625,-0.425537109375,-0.5916748046875
301352,0.604400634765625,-0.40301513671875,-0.5883331298828125
301353,0.6291046142578125,-0.3876495361328125,-0.56500244140625
301354,0.6536102294921875,-0.3794097900390625,-0.5403900146484375
301355,0.6727752685546875,-0.3643035888671875,-0.5164794921875
301356,0.6930389404296875,-0.3460693359375,-0.49993896484375
301357,0.70343017578125,-0.3247528076171875,-0.4923095703125
301358,0.689483642578125,-0.32196044921875,-0.490142822265625
301359,0.6616058349609375,-0.337310791015625,-0.4835052490234375
301360,0.634307861328125,-0.3678741455078125,-0.50177001953125
301361,0.6150054931640625,-0.413665771484375,-0.560211181640625
301362,0.5869140625,-0.4641265869140625,-0.6453857421875
301363,0.5507049560546875,-0.50347900390625,-0.737457275390625
301364,0.501953125,-0.5185394287109375,-0.8300933837890625
301365,0.4579010009765625,-0.5234375,-0.9084930419921876
301366,0.42889404296875,-0.507904052734375,-0.959991455078125
301367,0.40545654296875,-0.4764862060546875,-0.9661865234375
301368,0.383270263671875,-0.437255859375,-0.94873046875
301369,0.36083984375,-0.397216796875,-0.9353790283203124
301370,0.333526611328125,-0.3549652099609375,-0.9301605224609376
301371,0.2967681884765625,-0.3115997314453125,-0.942352294921875
301372,0.251556396484375,-0.2740325927734375,-0.9630126953125
301373,0.202056884765625,-0.2502593994140625,-0.9904632568359376
301374,0.154815673828125,-0.23223876953125,-1.034652709960938
301375,0.1060638427734375,-0.2132415771484375,-1.0687255859375
301376,0.0469207763671875,-0.2064971923828125,-1.080581665039062
301377,0.01409912109375,-0.217498779296875,-1.081573486328125
301378,0.0049896240234375,-0.197723388671875,-1.058349609375
301379,0.002685546875,-0.14996337890625,-1.025665283203125
301380,-0.0473480224609375,-0.1339874267578125,-0.975189208984375
301381,-0.0431365966796875,-0.1071014404296875,-0.9889373779296876
301382,-0.0516357421875,-0.081329345703125,-1.0111083984375
301383,-0.034759521484375,-0.083404541015625,-1.016693115234375
301384,-0.0071258544921875,-0.102203369140625,-1.03399658203125
301385,0.013092041015625,-0.1417999267578125,-1.05615234375
301386,0.024078369140625,-0.20159912109375,-1.00042724609375
301387,0.0522613525390625,-0.3180694580078125,-1.038284301757812
301388,0.043060302734375,-0.4139251708984375,-1.2276611328125
301389,0.061126708984375,-0.534271240234375,-1.243331909179688
301390,0.078277587890625,-0.6295166015625,-1.106674194335938
301391,0.0959320068359375,-0.641265869140625,-1.029754638671875
301392,0.1477813720703125,-0.5901947021484375,-1.060638427734375
301393,0.230865478515625,-0.543548583984375,-1.112030029296875
301394,0.305877685546875,-0.5341644287109375,-1.103652954101562
301395,0.3455810546875,-0.550201416015625,-1.022613525390625
301396,0.36395263671875,-0.5905609130859375,-0.923492431640625
301397,0.3761444091796875,-0.618927001953125,-0.821685791015625
301398,0.3828582763671875,-0.62603759765625,-0.71063232421875
301399,0.3976287841796875,-0.5972900390625,-0.6090850830078125
301400,0.41796875,-0.553680419921875,-0.552886962890625
301401,0.43359375,-0.5196380615234375,-0.50634765625
301402,0.4671478271484375,-0.4829559326171875,-0.4549560546875
301403,0.526397705078125,-0.4443511962890625,-0.3896026611328125
301404,0.6190948486328125,-0.375885009765625,-0.3476715087890625
301405,0.754119873046875,-0.325653076171875,-0.3359375
301406,0.8880767822265625,-0.357025146484375,-0.3138580322265625
301407,0.971649169921875,-0.42913818359375,-0.27813720703125
301408,1.019943237304688,-0.490478515625,-0.2866668701171875
301409,1.070877075195312,-0.5866241455078125,-0.389404296875
301410,1.1090087890625,-0.687530517578125,-0.55023193359375
301411,1.09014892578125,-0.7638702392578125,-0.752532958984375
301412,1.015716552734375,-0.8603668212890625,-0.96234130859375
301413,0.9167633056640624,-0.963409423828125,-1.12347412109375
301414,0.834625244140625,-1.038314819335938,-1.208938598632812
301415,0.807647705078125,-1.068984985351562,-1.156936645507812
301416,0.8375244140625,-1.003753662109375,-1.021591186523438
301417,0.8703765869140625,-0.906219482421875,-0.925750732421875
301418,0.8860321044921875,-0.776458740234375,-0.9058837890625
301419,0.8657073974609375,-0.6424560546875,-0.8734588623046875
301420,0.8387451171875,-0.5240020751953125,-0.811614990234375
301421,0.83026123046875,-0.4028472900390625,-0.7620849609375
301422,0.803985595703125,-0.3133087158203125,-0.733856201171875
301423,0.7455902099609375,-0.2615966796875,-0.70684814453125
301424,0.6678924560546875,-0.2324981689453125,-0.678619384765625
301425,0.5763092041015625,-0.2118377685546875,-0.6793365478515625
301426,0.49053955078125,-0.2103118896484375,-0.7095184326171875
301427,0.398681640625,-0.205078125,-0.722747802734375
301428,0.2967071533203125,-0.188873291015625,-0.732391357421875
301429,0.21502685546875,-0.189422607421875,-0.7711029052734375
301430,0.1392669677734375,-0.1617431640625,-0.82159423828125
301431,0.0617218017578125,-0.128692626953125,-0.8506622314453125
301432,0.0037841796875,-0.0968017578125,-0.9083709716796876
301433,-0.045440673828125,-0.060028076171875,-0.9877166748046876
301434,-0.0943756103515625,-0.0195770263671875,-1.026504516601562
301435,-0.1195526123046875,0.0045166015625,-1.000167846679688
301436,-0.1275177001953125,0.012054443359375,-0.994354248046875
301437,-0.1379852294921875,0.0201873779296875,-0.9633636474609376
301438,-0.11541748046875,0.0827484130859375,-0.871917724609375
301439,-0.05670166015625,0.178314208984375,-0.755401611328125
301440,-0.0218353271484375,0.238037109375,-0.6691131591796875
301441,-0.006500244140625,0.2870941162109375,-0.716156005859375
301442,-0.0399017333984375,0.284088134765625,-0.8809661865234375
301443,-0.0824737548828125,0.2108917236328125,-0.930145263671875
301444,-0.11407470703125,0.1266021728515625,-0.874969482421875
301445,-0.121917724609375,0.0553741455078125,-0.805328369140625
301446,-0.0951995849609375,-0.0269622802734375,-0.7873687744140625
301447,-0.0435638427734375,-0.0980224609375,-0.79974365234375
301448,0.036865234375,-0.1565704345703125,-0.8081512451171875
301449,0.143798828125,-0.218231201171875,-0.825103759765625
301450,0.2671661376953125,-0.27947998046875,-0.84967041015625
301451,0.37933349609375,-0.3248138427734375,-0.8573760986328125
301452,0.4847869873046875,-0.3370208740234375,-0.8465118408203125
301453,0.5648956298828125,-0.3483734130859375,-0.8546295166015625
301454,0.6428680419921875,-0.35040283203125,-0.94146728515625
301455,0.71453857421875,-0.35797119140625,-1.045761108398438
301456,0.76885986328125,-0.3965606689453125,-1.041305541992188
301457,0.8046417236328125,-0.45111083984375,-0.933349609375
301458,0.8069915771484375,-0.517547607421875,-0.81060791015625
301459,0.7649383544921875,-0.5819091796875,-0.7231903076171875
301460,0.7016448974609375,-0.6502227783203125,-0.691497802734375
301461,0.6330413818359375,-0.6977081298828125,-0.7037200927734375
301462,0.5454864501953125,-0.743682861328125,-0.778656005859375
301463,0.473724365234375,-0.7941436767578125,-0.8963775634765625
301464,0.4362030029296875,-0.8488006591796875,-0.980133056640625
301465,0.4127655029296875,-0.8917694091796875,-1.01922607421875
301466,0.3944549560546875,-0.91204833984375,-1.021224975585938
301467,0.402191162109375,-0.906158447265625,-0.97564697265625
301468,0.4259490966796875,-0.8603057861328125,-0.918121337890625
301469,0.447113037109375,-0.7559356689453125,-0.862823486328125
301470,0.4608917236328125,-0.6351165771484375,-0.80389404296875
301471,0.4799652099609375,-0.545318603515625,-0.7767791748046875
301472,0.4884185791015625,-0.4949798583984375,-0.742645263671875
301473,0.4831390380859375,-0.480255126953125,-0.67620849609375
301474,0.4722442626953125,-0.470367431640625,-0.5965576171875
301475,0.4454345703125,-0.452911376953125,-0.5406036376953125
301476,0.4085693359375,-0.4196624755859375,-0.5323944091796875
301477,0.393096923828125,-0.3773956298828125,-0.56378173828125
301478,0.409393310546875,-0.3498992919921875,-0.6034088134765625
301479,0.4283599853515625,-0.3443756103515625,-0.635040283203125
301480,0.4473419189453125,-0.3746185302734375,-0.647613525390625
301481,0.4664306640625,-0.4410247802734375,-0.6199951171875
301482,0.4781646728515625,-0.4830780029296875,-0.5880889892578125
301483,0.479278564453125,-0.4965667724609375,-0.59954833984375
301484,0.4759521484375,-0.4784698486328125,-0.6340179443359375
301485,0.482757568359375,-0.45751953125,-0.6786651611328125
301486,0.495147705078125,-0.4551239013671875,-0.7209320068359375
301487,0.514251708984375,-0.4639739990234375,-0.7393798828125
301488,0.515289306640625,-0.4797210693359375,-0.73199462890625
301489,0.509124755859375,-0.507110595703125,-0.729644775390625
301490,0.5092926025390625,-0.5312042236328125,-0.7599639892578125
301491,0.502227783203125,-0.5482940673828125,-0.8067779541015625
301492,0.47344970703125,-0.5616302490234375,-0.8619537353515625
301493,0.43304443359375,-0.5695648193359375,-0.9173126220703124
301494,0.3924102783203125,-0.5704803466796875,-0.9621734619140624
301495,0.36285400390625,-0.57684326171875,-0.9994049072265624
301496,0.3560791015625,-0.5674591064453125,-1.016433715820312
301497,0.3108978271484375,-0.573974609375,-1.024734497070312
301498,0.235198974609375,-0.5460662841796875,-1.000152587890625
301499,0.1793670654296875,-0.49468994140625,-1.016265869140625
301500,0.141754150390625,-0.426177978515625,-1.026412963867188
301501,0.1162872314453125,-0.3669281005859375,-1.015029907226562
301502,0.1036529541015625,-0.3084869384765625,-1.000534057617188
301503,0.09649658203125,-0.2577972412109375,-0.9923553466796876
301504,0.07647705078125,-0.218597412109375,-0.9781646728515624
301505,0.0493927001953125,-0.1883392333984375,-0.9633636474609376
301506,0.0323486328125,-0.17144775390625,-0.9607086181640624
301507,0.040679931640625,-0.1403045654296875,-0.9915618896484376
301508,0.061981201171875,-0.1055755615234375,-1.014389038085938
301509,0.0695953369140625,-0.0928192138671875,-1.027938842773438
301510,0.0758056640625,-0.100555419921875,-1.057296752929688
301511,0.0761566162109375,-0.1382598876953125,-1.077789306640625
301512,0.0690460205078125,-0.2098846435546875,-1.071197509765625
301513,0.051116943359375,-0.2981414794921875,-1.04180908203125
301514,0.0388946533203125,-0.4073944091796875,-1.023529052734375
301515,0.040374755859375,-0.49658203125,-1.009658813476562
301516,0.040313720703125,-0.55938720703125,-0.9965362548828124
301517,0.025848388671875,-0.593505859375,-1.01214599609375
301518,0.0081787109375,-0.600738525390625,-1.063827514648438
301519,0.014923095703125,-0.5893402099609375,-1.093231201171875
301520,0.026763916015625,-0.5886688232421875,-1.04962158203125
301521,0.04534912109375,-0.584381103515625,-0.9738006591796876
301522,0.078826904296875,-0.5620880126953125,-0.9474639892578124
301523,0.0937652587890625,-0.55389404296875,-0.9173431396484376
301524,0.106201171875,-0.5736083984375,-0.8748779296875
301525,0.1525421142578125,-0.6061859130859375,-0.8561553955078125
301526,0.2385406494140625,-0.623809814453125,-0.8510284423828125
301527,0.3414459228515625,-0.613433837890625,-0.8553466796875
301528,0.4571533203125,-0.552734375,-0.864532470703125
301529,0.57464599609375,-0.48419189453125,-0.8951416015625
301530,0.6734161376953125,-0.4380340576171875,-0.904541015625
301531,0.7480316162109375,-0.4174346923828125,-0.8819122314453125
301532,0.8226165771484375,-0.417449951171875,-0.8347320556640625
301533,0.88916015625,-0.4190216064453125,-0.7295989990234375
301534,0.9221954345703124,-0.390533447265625,-0.6036376953125
301535,0.9083251953125,-0.3465118408203125,-0.4858856201171875
301536,0.8382720947265625,-0.334259033203125,-0.4115142822265625
301537,0.747467041015625,-0.383697509765625,-0.3903350830078125
301538,0.6881103515625,-0.444305419921875,-0.4076690673828125
301539,0.6578521728515625,-0.5080108642578125,-0.4645843505859375
301540,0.6292724609375,-0.569580078125,-0.521209716796875
301541,0.588531494140625,-0.6125640869140625,-0.5655059814453125
301542,0.5277862548828125,-0.61956787109375,-0.607025146484375
301543,0.475555419921875,-0.584564208984375,-0.630126953125
301544,0.4516448974609375,-0.52899169921875,-0.6092071533203125
301545,0.4430999755859375,-0.483612060546875,-0.5603485107421875
301546,0.4362640380859375,-0.4625701904296875,-0.5264739990234375
301547,0.432952880859375,-0.455078125,-0.525177001953125
301548,0.450469970703125,-0.4497528076171875,-0.547760009765625
301549,0.478607177734375,-0.4443359375,-0.5914154052734375
301550,0.492279052734375,-0.4331207275390625,-0.65557861328125
301551,0.5032806396484375,-0.4473876953125,-0.727996826171875
301552,0.509368896484375,-0.4778900146484375,-0.8329315185546875
301553,0.4797515869140625,-0.4533233642578125,-0.82452392578125
301554,0.4458465576171875,-0.4373321533203125,-0.7952728271484375
301555,0.4168853759765625,-0.425048828125,-0.7805328369140625
301556,0.3989410400390625,-0.4240875244140625,-0.779083251953125
301557,0.378387451171875,-0.419342041015625,-0.784210205078125
301558,0.359130859375,-0.3824005126953125,-0.79071044921875
301559,0.334228515625,-0.3582916259765625,-0.7788848876953125
301560,0.3024444580078125,-0.3446197509765625,-0.782958984375
301561,0.2790069580078125,-0.3120574951171875,-0.8213348388671875
301562,0.261505126953125,-0.287200927734375,-0.884735107421875
301563,0.2594757080078125,-0.2709503173828125,-0.96484375
301564,0.2584991455078125,-0.2524261474609375,-1.042434692382812
301565,0.247802734375,-0.2291107177734375,-1.093643188476562
301566,0.2274932861328125,-0.1955108642578125,-1.110366821289062
301567,0.2050628662109375,-0.1574249267578125,-1.10333251953125
301568,0.1834716796875,-0.1116790771484375,-1.117843627929688
301569,0.1297760009765625,-0.0765228271484375,-1.143478393554688
301570,0.08380126953125,-0.0333099365234375,-1.122146606445312
301571,0.0727996826171875,0.014190673828125,-1.065048217773438
301572,0.0174713134765625,-0.0022735595703125,-1.05450439453125
301573,-0.05426025390625,-0.049041748046875,-1.083709716796875
301574,-0.0663909912109375,-0.1039581298828125,-1.16058349609375
301575,-0.0236663818359375,-0.1650543212890625,-1.156692504882812
301576,0.02862548828125,-0.170379638671875,-1.052932739257812
301577,0.0936279296875,-0.1745147705078125,-0.998931884765625
301578,0.1559906005859375,-0.19964599609375,-0.997314453125
301579,0.2197723388671875,-0.2154083251953125,-0.99365234375
301580,0.2783355712890625,-0.2264404296875,-0.9832916259765624
301581,0.3474884033203125,-0.229736328125,-0.9973602294921876
301582,0.443939208984375,-0.2287750244140625,-0.9991607666015624
301583,0.5710601806640625,-0.2154693603515625,-0.9526214599609376
301584,0.7222137451171875,-0.1936187744140625,-0.902801513671875
301585,0.849945068359375,-0.17034912109375,-0.8878631591796875
301586,0.91290283203125,-0.1640167236328125,-0.900360107421875
301587,0.866607666015625,-0.224822998046875,-0.917388916015625
301588,0.75311279296875,-0.33538818359375,-0.86767578125
301589,0.668670654296875,-0.4348602294921875,-0.79461669921875
301590,0.5854644775390625,-0.5223236083984375,-0.7820892333984375
301591,0.497314453125,-0.6074981689453125,-0.837646484375
301592,0.441009521484375,-0.67401123046875,-0.897979736328125
301593,0.3953399658203125,-0.6969757080078125,-0.9454193115234376
301594,0.3687591552734375,-0.686767578125,-0.96221923828125
301595,0.366302490234375,-0.6580657958984375,-0.9114532470703124
301596,0.3704681396484375,-0.6385040283203125,-0.80096435546875
301597,0.3696441650390625,-0.6178131103515625,-0.678009033203125
301598,0.3836517333984375,-0.59332275390625,-0.590240478515625
301599,0.4270172119140625,-0.547027587890625,-0.5314483642578125
301600,0.4835968017578125,-0.4842529296875,-0.4943084716796875
301601,0.5302276611328125,-0.4299468994140625,-0.47406005859375
301602,0.5698699951171875,-0.3912353515625,-0.4665374755859375
301603,0.5970611572265625,-0.359619140625,-0.460418701171875
301604,0.6088104248046875,-0.343658447265625,-0.4624176025390625
301605,0.6038818359375,-0.3521728515625,-0.470611572265625
301606,0.5814971923828125,-0.3775787353515625,-0.47723388671875
301607,0.55682373046875,-0.39910888671875,-0.478973388671875
301608,0.5435943603515625,-0.4175567626953125,-0.471954345703125
301609,0.5336151123046875,-0.43328857421875,-0.4777679443359375
301610,0.5258941650390625,-0.4508209228515625,-0.4901275634765625
301611,0.537384033203125,-0.4668426513671875,-0.5078582763671875
301612,0.556427001953125,-0.4773406982421875,-0.5134429931640625
301613,0.57879638671875,-0.4739837646484375,-0.5082550048828125
301614,0.59881591796875,-0.4548187255859375,-0.523193359375
301615,0.6126251220703125,-0.4350128173828125,-0.538848876953125
301616,0.631134033203125,-0.4399261474609375,-0.567474365234375
301617,0.654815673828125,-0.477203369140625,-0.6230621337890625
301618,0.664581298828125,-0.5194854736328125,-0.7011566162109375
301619,0.645355224609375,-0.547149658203125,-0.7938079833984375
301620,0.6048431396484375,-0.5681304931640625,-0.883087158203125
301621,0.5430145263671875,-0.5727691650390625,-0.9430999755859376
301622,0.4781646728515625,-0.5654754638671875,-0.96856689453125
301623,0.4233856201171875,-0.5588531494140625,-0.96649169921875
301624,0.380615234375,-0.5553741455078125,-0.9560699462890624
301625,0.354400634765625,-0.5452728271484375,-0.9574432373046876
301626,0.332275390625,-0.5220947265625,-0.9673919677734376
301627,0.31378173828125,-0.4610137939453125,-0.9663543701171876
301628,0.3055877685546875,-0.394073486328125,-0.961456298828125
301629,0.2924041748046875,-0.33734130859375,-0.9669036865234376
301630,0.274993896484375,-0.2882537841796875,-0.987030029296875
301631,0.240936279296875,-0.24761962890625,-1.013504028320312
301632,0.2020111083984375,-0.22320556640625,-1.026473999023438
301633,0.163543701171875,-0.2172698974609375,-1.022933959960938
301634,0.122802734375,-0.2210693359375,-1.027816772460938
301635,0.08795166015625,-0.21734619140625,-1.038894653320312
301636,0.0707244873046875,-0.18743896484375,-1.047607421875
301637,0.0446929931640625,-0.1491546630859375,-1.035629272460938
301638,0.0250244140625,-0.118927001953125,-1.072586059570312
301639,0.0173492431640625,-0.1278076171875,-1.113189697265625
301640,0.0274810791015625,-0.17364501953125,-1.13623046875
301641,0.0520782470703125,-0.25860595703125,-1.130706787109375
301642,0.1035308837890625,-0.3635711669921875,-1.102523803710938
301643,0.15985107421875,-0.43988037109375,-1.082061767578125
301644,0.18878173828125,-0.491455078125,-1.084274291992188
301645,0.18084716796875,-0.53765869140625,-1.112594604492188
301646,0.165496826171875,-0.57427978515625,-1.157638549804688
301647,0.1786041259765625,-0.616485595703125,-1.166473388671875
301648,0.1960601806640625,-0.627166748046875,-1.116073608398438
301649,0.218475341796875,-0.6140594482421875,-1.048904418945312
301650,0.243804931640625,-0.592315673828125,-0.9877471923828124
301651,0.261688232421875,-0.560516357421875,-0.91412353515625
301652,0.2652435302734375,-0.5356597900390625,-0.817626953125
301653,0.2813720703125,-0.5167083740234375,-0.7451019287109375
301654,0.3064422607421875,-0.4947967529296875,-0.7157135009765625
301655,0.350799560546875,-0.470306396484375,-0.739776611328125
301656,0.4231414794921875,-0.43646240234375,-0.7701873779296875
301657,0.5150909423828125,-0.4151611328125,-0.777587890625
301658,0.6115570068359375,-0.4072723388671875,-0.7507476806640625
301659,0.7269744873046875,-0.4045867919921875,-0.71551513671875
301660,0.8503875732421875,-0.39691162109375,-0.65966796875
301661,0.9419403076171876,-0.379638671875,-0.5830078125
301662,0.9967803955078124,-0.3542022705078125,-0.5131683349609375
301663,0.9948577880859376,-0.359588623046875,-0.4892120361328125
301664,0.9475860595703124,-0.399749755859375,-0.4766387939453125
301665,0.870635986328125,-0.4782867431640625,-0.434295654296875
301666,0.7657928466796875,-0.58154296875,-0.3897552490234375
301667,0.653106689453125,-0.65692138671875,-0.359710693359375
301668,0.5478057861328125,-0.7041015625,-0.371002197265625
301669,0.4676971435546875,-0.6983184814453125,-0.4647979736328125
301670,0.4222869873046875,-0.657318115234375,-0.5987548828125
301671,0.4051361083984375,-0.611663818359375,-0.6855316162109375
301672,0.4049072265625,-0.576416015625,-0.699951171875
301673,0.41595458984375,-0.5523529052734375,-0.6613922119140625
301674,0.4407196044921875,-0.539093017578125,-0.6134185791015625
301675,0.480224609375,-0.5273590087890625,-0.573150634765625
301676,0.5200042724609375,-0.5028839111328125,-0.5578765869140625
301677,0.5510406494140625,-0.4834442138671875,-0.565948486328125
301678,0.5702056884765625,-0.4803314208984375,-0.60223388671875
301679,0.5838623046875,-0.4932403564453125,-0.6587066650390625
301680,0.597076416015625,-0.49908447265625,-0.711334228515625
301681,0.605560302734375,-0.49273681640625,-0.7665863037109375
301682,0.602630615234375,-0.483367919921875,-0.8274078369140625
301683,0.57904052734375,-0.4693756103515625,-0.916168212890625
301684,0.52703857421875,-0.4313812255859375,-0.8850860595703125
301685,0.4655914306640625,-0.40460205078125,-0.8046417236328125
301686,0.40386962890625,-0.3717193603515625,-0.780059814453125
301687,0.3640899658203125,-0.314453125,-0.790008544921875
301688,0.331024169921875,-0.2625732421875,-0.8186798095703125
301689,0.3109130859375,-0.2281036376953125,-0.8574371337890625
301690,0.2887115478515625,-0.2315216064453125,-0.907470703125
301691,0.267913818359375,-0.2313995361328125,-0.944427490234375
301692,0.245758056640625,-0.218109130859375,-0.909027099609375
301693,0.209808349609375,-0.22955322265625,-0.9791412353515624
301694,0.2008514404296875,-0.197662353515625,-1.019271850585938
301695,0.166015625,-0.1619873046875,-1.007003784179688
301696,0.122100830078125,-0.1524810791015625,-1.02886962890625
301697,0.0664215087890625,-0.1684112548828125,-1.06964111328125
301698,0.0183258056640625,-0.1488037109375,-1.059005737304688
301699,-0.0530853271484375,-0.1576385498046875,-1.035400390625
301700,-0.1034698486328125,-0.1777496337890625,-1.084426879882812
301701,-0.111419677734375,-0.177642822265625,-1.060958862304688
301702,-0.0959930419921875,-0.1911773681640625,-1.007827758789062
301703,-0.07220458984375,-0.20489501953125,-0.9781036376953124
301704,-0.025726318359375,-0.217010498046875,-0.961578369140625
301705,0.0328216552734375,-0.2286529541015625,-0.96075439453125
301706,0.0970458984375,-0.2379608154296875,-0.978851318359375
301707,0.1684417724609375,-0.249114990234375,-1.009933471679688
301708,0.2580108642578125,-0.26275634765625,-1.049545288085938
301709,0.3470306396484375,-0.2780914306640625,-1.068023681640625
301710,0.4272613525390625,-0.3086395263671875,-1.06378173828125
301711,0.5034637451171875,-0.323638916015625,-1.029052734375
301712,0.5815582275390625,-0.3188018798828125,-0.98187255859375
301713,0.6728363037109375,-0.314910888671875,-0.9723663330078124
301714,0.7542877197265625,-0.3043060302734375,-1.007583618164062
301715,0.800201416015625,-0.290802001953125,-1.03228759765625
301716,0.7928466796875,-0.278106689453125,-0.972442626953125
301717,0.7418670654296875,-0.3110198974609375,-0.782928466796875
301718,0.673187255859375,-0.40625,-0.5798492431640625
301719,0.5889739990234375,-0.51226806640625,-0.52655029296875
301720,0.5141448974609375,-0.5943145751953125,-0.61273193359375
301721,0.4538116455078125,-0.6733551025390625,-0.7269439697265625
301722,0.39947509765625,-0.7587890625,-0.82562255859375
301723,0.3527679443359375,-0.82623291015625,-0.895599365234375
301724,0.3345184326171875,-0.842864990234375,-0.9109039306640624
301725,0.3563385009765625,-0.7992401123046875,-0.832305908203125
301726,0.3729705810546875,-0.7573089599609375,-0.7010040283203125
301727,0.38958740234375,-0.7157745361328125,-0.6026153564453125
301728,0.4277191162109375,-0.635498046875,-0.541015625
301729,0.4640960693359375,-0.5361175537109375,-0.5160369873046875
301730,0.4848175048828125,-0.4580535888671875,-0.5093536376953125
301731,0.484405517578125,-0.3884429931640625,-0.521087646484375
301732,0.472015380859375,-0.3278350830078125,-0.5494384765625
301733,0.4668426513671875,-0.3019256591796875,-0.57049560546875
301734,0.4593963623046875,-0.3189544677734375,-0.565338134765625
301735,0.4499664306640625,-0.3568115234375,-0.5442352294921875
301736,0.4399261474609375,-0.387786865234375,-0.5341033935546875
301737,0.4379119873046875,-0.4037933349609375,-0.5471649169921875
301738,0.44134521484375,-0.415435791015625,-0.572174072265625
301739,0.4422760009765625,-0.433990478515625,-0.59271240234375
301740,0.4649810791015625,-0.4501800537109375,-0.5987701416015625
301741,0.50030517578125,-0.4655609130859375,-0.5864715576171875
301742,0.523284912109375,-0.4762420654296875,-0.57720947265625
301743,0.5342254638671875,-0.4838714599609375,-0.5963897705078125
301744,0.548187255859375,-0.49017333984375,-0.6697235107421875
301745,0.5418548583984375,-0.5073089599609375,-0.776336669921875
301746,0.51934814453125,-0.5237884521484375,-0.8793792724609375
301747,0.48834228515625,-0.543670654296875,-0.958404541015625
301748,0.4297943115234375,-0.5667572021484375,-1.008056640625
301749,0.376708984375,-0.5713043212890625,-1.041656494140625
301750,0.322784423828125,-0.5706939697265625,-1.035049438476562
301751,0.2680206298828125,-0.5621337890625,-1.0205078125
301752,0.217132568359375,-0.5557861328125,-1.041519165039062
301753,0.16973876953125,-0.54034423828125,-1.067352294921875
301754,0.1404266357421875,-0.5062713623046875,-1.08123779296875
301755,0.113006591796875,-0.4264068603515625,-1.106765747070312
301756,0.1305999755859375,-0.4665679931640625,-1.0799560546875
301757,0.0446014404296875,-0.388153076171875,-1.053115844726562
301758,0.0223541259765625,-0.3806304931640625,-1.028778076171875
301759,0.04620361328125,-0.347900390625,-1.018524169921875
301760,0.0771484375,-0.3118896484375,-0.97406005859375
301761,0.0826416015625,-0.2681884765625,-0.9317474365234376
301762,0.08001708984375,-0.2261505126953125,-0.951416015625
301763,0.0802459716796875,-0.197662353515625,-0.997772216796875
301764,0.0822601318359375,-0.1979827880859375,-1.009185791015625
301765,0.0828857421875,-0.209564208984375,-1.033615112304688
301766,0.102081298828125,-0.230804443359375,-1.067413330078125
301767,0.126556396484375,-0.2794342041015625,-1.072708129882812
301768,0.15155029296875,-0.352325439453125,-1.042678833007812
301769,0.1750030517578125,-0.412078857421875,-0.9970703125
301770,0.1808929443359375,-0.4588470458984375,-0.9493255615234376
301771,0.16925048828125,-0.49273681640625,-0.930816650390625
301772,0.153656005859375,-0.517822265625,-0.93621826171875
301773,0.1483306884765625,-0.533660888671875,-0.9335174560546876
301774,0.1437835693359375,-0.546600341796875,-0.9237060546875
301775,0.1457366943359375,-0.5554046630859375,-0.9031982421875
301776,0.1735687255859375,-0.5560150146484375,-0.9029388427734376
301777,0.20184326171875,-0.564788818359375,-0.91656494140625
301778,0.234130859375,-0.576416015625,-0.940216064453125
301779,0.26922607421875,-0.601806640625,-0.94525146484375
301780,0.3148345947265625,-0.6499176025390625,-0.9179229736328124
301781,0.3900299072265625,-0.679473876953125,-0.8786773681640625
301782,0.476715087890625,-0.6941986083984375,-0.831390380859375
301783,0.571380615234375,-0.7068023681640625,-0.8292083740234375
301784,0.6577911376953125,-0.711639404296875,-0.7550506591796875
301785,0.75665283203125,-0.6851348876953125,-0.6717071533203125
301786,0.8489990234375,-0.6258697509765625,-0.6118011474609375
301787,0.9121856689453124,-0.5538482666015625,-0.544708251953125
301788,0.93218994140625,-0.486083984375,-0.47698974609375
301789,0.90606689453125,-0.46697998046875,-0.4156036376953125
301790,0.84185791015625,-0.494049072265625,-0.4309844970703125
301791,0.76104736328125,-0.513702392578125,-0.494720458984375
301792,0.66943359375,-0.53912353515625,-0.5574188232421875
301793,0.573455810546875,-0.5733184814453125,-0.61175537109375
301794,0.505706787109375,-0.5955963134765625,-0.6524505615234375
301795,0.4686737060546875,-0.588836669921875,-0.6672821044921875
301796,0.4460906982421875,-0.5621795654296875,-0.6585235595703125
301797,0.4349365234375,-0.526519775390625,-0.628631591796875
301798,0.431243896484375,-0.493804931640625,-0.598297119140625
301799,0.4358062744140625,-0.4694976806640625,-0.594818115234375
301800,0.4514923095703125,-0.439788818359375,-0.6220855712890625
301801,0.47442626953125,-0.4095458984375,-0.66400146484375
301802,0.4948272705078125,-0.4039306640625,-0.7448883056640625
301803,0.4908447265625,-0.410430908203125,-0.7979736328125
301804,0.4789276123046875,-0.426116943359375,-0.8023223876953125
301805,0.4597930908203125,-0.4498138427734375,-0.7933197021484375
301806,0.45745849609375,-0.456787109375,-0.7928009033203125
301807,0.4535064697265625,-0.4491424560546875,-0.7700653076171875
301808,0.4603118896484375,-0.4150238037109375,-0.7431640625
301809,0.458343505859375,-0.372100830078125,-0.7238311767578125
301810,0.44512939453125,-0.3287811279296875,-0.7112274169921875
301811,0.42120361328125,-0.2880401611328125,-0.71728515625
301812,0.3971710205078125,-0.257293701171875,-0.7317352294921875
301813,0.3734893798828125,-0.2140350341796875,-0.7655792236328125
301814,0.347412109375,-0.1734466552734375,-0.8226470947265625
301815,0.320281982421875,-0.154388427734375,-0.9046478271484376
301816,0.2905426025390625,-0.153106689453125,-0.9780731201171876
301817,0.2394256591796875,-0.1839447021484375,-1.022674560546875
301818,0.1857147216796875,-0.2304229736328125,-1.03851318359375
301819,0.1520233154296875,-0.2288970947265625,-1.029296875
301820,0.1326141357421875,-0.194580078125,-0.998809814453125
301821,0.0966033935546875,-0.170166015625,-0.9871673583984376
301822,0.0529632568359375,-0.1325836181640625,-0.942352294921875
301823,0.010772705078125,-0.091705322265625,-0.9521331787109376
301824,-0.031951904296875,-0.0534820556640625,-0.978668212890625
301825,-0.056243896484375,-0.0435791015625,-0.996429443359375
301826,-0.050018310546875,-0.03558349609375,-1.0283203125
301827,-0.030548095703125,-0.041351318359375,-1.03369140625
301828,-0.0130157470703125,-0.072998046875,-1.042037963867188
301829,0.0155792236328125,-0.131622314453125,-1.078048706054688
301830,0.065521240234375,-0.210357666015625,-1.086013793945312
301831,0.1168670654296875,-0.2751312255859375,-1.024642944335938
301832,0.1704864501953125,-0.3228759765625,-0.98468017578125
301833,0.2355804443359375,-0.347900390625,-0.98687744140625
301834,0.3078765869140625,-0.3465728759765625,-1.001251220703125
301835,0.3803253173828125,-0.340301513671875,-1.013381958007812
301836,0.4547882080078125,-0.33831787109375,-1.02874755859375
301837,0.539215087890625,-0.3418426513671875,-1.056015014648438
301838,0.6181793212890625,-0.3465423583984375,-1.076705932617188
301839,0.6768951416015625,-0.3591461181640625,-1.079483032226562
301840,0.698822021484375,-0.38043212890625,-1.031097412109375
301841,0.67926025390625,-0.4253997802734375,-0.9208984375
301842,0.6247406005859375,-0.5067138671875,-0.8061370849609375
301843,0.54644775390625,-0.599822998046875,-0.7526397705078125
301844,0.4651336669921875,-0.6710357666015625,-0.758514404296875
301845,0.408172607421875,-0.726654052734375,-0.7982635498046875
301846,0.359710693359375,-0.77734375,-0.8479461669921875
301847,0.3242034912109375,-0.8098602294921875,-0.878326416015625
301848,0.3115997314453125,-0.81097412109375,-0.872650146484375
301849,0.305084228515625,-0.782379150390625,-0.8170318603515625
301850,0.2989959716796875,-0.737762451171875,-0.7456207275390625
301851,0.303985595703125,-0.684112548828125,-0.67901611328125
301852,0.3289337158203125,-0.623046875,-0.631103515625
301853,0.381500244140625,-0.5611572265625,-0.6032257080078125
301854,0.4331512451171875,-0.51788330078125,-0.574249267578125
301855,0.46917724609375,-0.476898193359375,-0.5481414794921875
301856,0.4792022705078125,-0.438751220703125,-0.5207977294921875
301857,0.4674224853515625,-0.3849334716796875,-0.5047607421875
301858,0.4648895263671875,-0.3335723876953125,-0.5183258056640625
301859,0.486541748046875,-0.2879791259765625,-0.5406036376953125
301860,0.52020263671875,-0.2715606689453125,-0.5469818115234375
301861,0.5426025390625,-0.3127593994140625,-0.5362701416015625
301862,0.5439605712890625,-0.3691558837890625,-0.5184478759765625
301863,0.542388916015625,-0.402557373046875,-0.515350341796875
301864,0.532562255859375,-0.43548583984375,-0.550933837890625
301865,0.5153656005859375,-0.46978759765625,-0.6083526611328125
301866,0.4974212646484375,-0.4964752197265625,-0.6724090576171875
301867,0.4825286865234375,-0.5087432861328125,-0.7222747802734375
301868,0.474700927734375,-0.506561279296875,-0.7381134033203125
301869,0.4764556884765625,-0.51519775390625,-0.7375946044921875
301870,0.487396240234375,-0.524200439453125,-0.7360382080078125
301871,0.5118560791015625,-0.5191650390625,-0.750823974609375
301872,0.5258941650390625,-0.5137786865234375,-0.78375244140625
301873,0.522857666015625,-0.5314788818359375,-0.8270263671875
301874,0.4818115234375,-0.5446929931640625,-0.8878936767578125
301875,0.4261627197265625,-0.54425048828125,-0.922637939453125
301876,0.384002685546875,-0.5477447509765625,-0.949188232421875
301877,0.35980224609375,-0.5325164794921875,-0.993377685546875
301878,0.3485565185546875,-0.5158233642578125,-1.04498291015625
301879,0.330718994140625,-0.50054931640625,-1.074050903320312
301880,0.308837890625,-0.4812164306640625,-1.073379516601562
301881,0.2725067138671875,-0.4508056640625,-1.065155029296875
301882,0.23699951171875,-0.4122772216796875,-1.067352294921875
301883,0.2232818603515625,-0.357635498046875,-1.092788696289062
301884,0.1673431396484375,-0.3220672607421875,-1.074874877929688
301885,0.114654541015625,-0.29510498046875,-1.04931640625
301886,0.0630645751953125,-0.270904541015625,-1.014007568359375
301887,0.027801513671875,-0.2562255859375,-0.9834442138671876
301888,0.003448486328125,-0.2293243408203125,-0.952056884765625
301889,0.0124664306640625,-0.20269775390625,-0.948486328125
301890,0.0337677001953125,-0.1669158935546875,-0.905609130859375
301891,0.0660247802734375,-0.1525115966796875,-0.8958892822265625
301892,0.0899505615234375,-0.132720947265625,-0.9520111083984376
301893,0.1002960205078125,-0.1488494873046875,-0.976043701171875
301894,0.1028594970703125,-0.196624755859375,-0.9711151123046876
301895,0.1534881591796875,-0.307769775390625,-1.0052490234375
301896,0.112762451171875,-0.2489776611328125,-0.9922943115234376
301897,0.1863861083984375,-0.37774658203125,-0.983428955078125
301898,0.181243896484375,-0.4583282470703125,-0.978271484375
301899,0.1601409912109375,-0.520721435546875,-1.002639770507812
301900,0.1360931396484375,-0.569183349609375,-1.021240234375
301901,0.1173248291015625,-0.5908966064453125,-1.005142211914062
301902,0.096771240234375,-0.6030120849609375,-0.9712066650390624
301903,0.0819854736328125,-0.6085357666015625,-0.953826904296875
301904,0.102813720703125,-0.602630615234375,-0.923675537109375
301905,0.1450042724609375,-0.5992431640625,-0.890899658203125
