time_idx,accelerometerAccelerationX(G),accelerometerAccelerationY(G),accelerometerAccelerationZ(G)
180000,0.415924072265625,-0.3383331298828125,-0.669921875
180001,0.401336669921875,-0.3493194580078125,-0.7348785400390625
180002,0.3880767822265625,-0.3697357177734375,-0.81463623046875
180003,0.37396240234375,-0.3847808837890625,-0.891998291015625
180004,0.35687255859375,-0.3973846435546875,-0.9621734619140624
180005,0.34173583984375,-0.3976898193359375,-0.9884033203125
180006,0.3278350830078125,-0.3759613037109375,-0.99237060546875
180007,0.3164215087890625,-0.3512115478515625,-0.97509765625
180008,0.3088226318359375,-0.3188323974609375,-0.9363555908203124
180009,0.2956390380859375,-0.2828216552734375,-0.8787841796875
180010,0.281494140625,-0.2482452392578125,-0.849212646484375
180011,0.269775390625,-0.2197265625,-0.8482666015625
180012,0.2606964111328125,-0.193695068359375,-0.8612518310546875
180013,0.2466888427734375,-0.174835205078125,-0.874908447265625
180014,0.23468017578125,-0.1619873046875,-0.8704833984375
180015,0.2216033935546875,-0.1434783935546875,-0.8697662353515625
180016,0.19952392578125,-0.1338348388671875,-0.8862457275390625
180017,0.1680145263671875,-0.127685546875,-0.90020751953125
180018,0.1368408203125,-0.12762451171875,-0.9061737060546876
180019,0.10400390625,-0.126556396484375,-0.904083251953125
180020,0.0655059814453125,-0.128082275390625,-0.88323974609375
180021,0.0380859375,-0.1114501953125,-0.8785552978515625
180022,0.019439697265625,-0.1019744873046875,-0.8975982666015625
180023,-0.00189208984375,-0.0913848876953125,-0.919586181640625
180024,-0.010833740234375,-0.0799560546875,-0.9116973876953124
180025,-0.0142974853515625,-0.0712890625,-0.900482177734375
180026,-0.0202484130859375,-0.066436767578125,-0.9544219970703124
180027,-0.0032958984375,-0.0854644775390625,-1.018829345703125
180028,0.0186920166015625,-0.1107940673828125,-1.065658569335938
180029,0.0457305908203125,-0.129608154296875,-1.117874145507812
180030,0.07867431640625,-0.163055419921875,-1.16766357421875
180031,0.118316650390625,-0.201202392578125,-1.200286865234375
180032,0.1653594970703125,-0.23895263671875,-1.203170776367188
180033,0.2196197509765625,-0.2818603515625,-1.160415649414062
180034,0.280731201171875,-0.3198089599609375,-1.100860595703125
180035,0.3283538818359375,-0.352020263671875,-1.0269775390625
180036,0.3695220947265625,-0.3707427978515625,-0.9430999755859376
180037,0.4088897705078125,-0.380035400390625,-0.863983154296875
180038,0.4328460693359375,-0.3684234619140625,-0.802398681640625
180039,0.449462890625,-0.3408966064453125,-0.762603759765625
180040,0.44775390625,-0.3189697265625,-0.76019287109375
180041,0.4291839599609375,-0.3157501220703125,-0.7731475830078125
180042,0.4037628173828125,-0.334136962890625,-0.7906494140625
180043,0.370880126953125,-0.3735809326171875,-0.8133087158203125
180044,0.3467559814453125,-0.4171600341796875,-0.8546295166015625
180045,0.32275390625,-0.4723358154296875,-0.9134063720703124
180046,0.3148956298828125,-0.53399658203125,-0.98602294921875
180047,0.3242340087890625,-0.6016998291015625,-1.047378540039062
180048,0.3463134765625,-0.6806793212890625,-1.04046630859375
180049,0.3790283203125,-0.72430419921875,-0.981048583984375
180050,0.406982421875,-0.74884033203125,-0.8892059326171875
180051,0.4280548095703125,-0.738525390625,-0.8070831298828125
180052,0.4416351318359375,-0.7012786865234375,-0.7650299072265625
180053,0.450408935546875,-0.6577301025390625,-0.77032470703125
180054,0.448944091796875,-0.6131134033203125,-0.784515380859375
180055,0.4368438720703125,-0.5815887451171875,-0.7797088623046875
180056,0.4193267822265625,-0.546630859375,-0.7646026611328125
180057,0.3859710693359375,-0.526214599609375,-0.72625732421875
180058,0.350830078125,-0.51190185546875,-0.6790924072265625
180059,0.318023681640625,-0.4923553466796875,-0.64068603515625
180060,0.2902069091796875,-0.4733428955078125,-0.6161346435546875
180061,0.2733154296875,-0.4651336669921875,-0.607025146484375
180062,0.2667388916015625,-0.4642791748046875,-0.6284027099609375
180063,0.268951416015625,-0.463104248046875,-0.6634063720703125
180064,0.274139404296875,-0.458770751953125,-0.7071685791015625
180065,0.280517578125,-0.4505157470703125,-0.7548370361328125
180066,0.2879486083984375,-0.45068359375,-0.7811737060546875
180067,0.306976318359375,-0.4574737548828125,-0.7772216796875
180068,0.33282470703125,-0.465667724609375,-0.760650634765625
180069,0.35223388671875,-0.477294921875,-0.7371063232421875
180070,0.3725433349609375,-0.4958648681640625,-0.778533935546875
180071,0.3811187744140625,-0.528076171875,-0.7685699462890625
180072,0.3904266357421875,-0.5547332763671875,-0.7681732177734375
180073,0.3861846923828125,-0.5799102783203125,-0.810089111328125
180074,0.3687286376953125,-0.5932769775390625,-0.85784912109375
180075,0.3412628173828125,-0.6014862060546875,-0.9165802001953124
180076,0.3059234619140625,-0.6081390380859375,-0.94122314453125
180077,0.26885986328125,-0.60833740234375,-0.92889404296875
180078,0.2437896728515625,-0.5935821533203125,-0.8988189697265625
180079,0.2034912109375,-0.5588531494140625,-0.8791961669921875
180080,0.157989501953125,-0.51129150390625,-0.882110595703125
180081,0.12261962890625,-0.4765167236328125,-0.9355316162109376
180082,0.08905029296875,-0.438446044921875,-0.9686126708984376
180083,0.0625,-0.404815673828125,-0.9712982177734376
180084,0.0326690673828125,-0.3583831787109375,-0.986724853515625
180085,-0.0015411376953125,-0.321929931640625,-1.014236450195312
180086,-0.041595458984375,-0.296875,-1.035675048828125
180087,-0.0771942138671875,-0.275421142578125,-1.047271728515625
180088,-0.109375,-0.2487945556640625,-1.04412841796875
180089,-0.1436614990234375,-0.212799072265625,-0.996429443359375
180090,-0.1711883544921875,-0.1707305908203125,-0.9326629638671876
180091,-0.18280029296875,-0.123046875,-0.9010772705078124
180092,-0.1837921142578125,-0.0785675048828125,-0.9062042236328124
180093,-0.17578125,-0.045654296875,-0.93115234375
180094,-0.1634979248046875,-0.0364227294921875,-0.982757568359375
180095,-0.140289306640625,-0.0636138916015625,-1.04412841796875
180096,-0.1078643798828125,-0.12078857421875,-1.094802856445312
180097,-0.07049560546875,-0.2033233642578125,-1.13458251953125
180098,-0.0247344970703125,-0.2999114990234375,-1.158538818359375
180099,0.02227783203125,-0.3928680419921875,-1.158737182617188
180100,0.06689453125,-0.4763336181640625,-1.124603271484375
180101,0.1111907958984375,-0.5266571044921875,-1.08447265625
180102,0.1483001708984375,-0.537200927734375,-1.023971557617188
180103,0.1788177490234375,-0.5034637451171875,-0.9725189208984376
180104,0.2016143798828125,-0.4403839111328125,-0.947906494140625
180105,0.2210845947265625,-0.37335205078125,-0.94622802734375
180106,0.240692138671875,-0.3307647705078125,-0.94183349609375
180107,0.259307861328125,-0.30328369140625,-0.9154510498046876
180108,0.269989013671875,-0.28533935546875,-0.904327392578125
180109,0.2678070068359375,-0.2768096923828125,-0.906585693359375
180110,0.26605224609375,-0.2642364501953125,-0.8944091796875
180111,0.2640228271484375,-0.2472991943359375,-0.877685546875
180112,0.2591400146484375,-0.225860595703125,-0.8608245849609375
180113,0.26318359375,-0.20550537109375,-0.861297607421875
180114,0.282073974609375,-0.1951751708984375,-0.88482666015625
180115,0.31341552734375,-0.1995391845703125,-0.9150238037109376
180116,0.356689453125,-0.217620849609375,-0.939056396484375
180117,0.40869140625,-0.26190185546875,-0.9599151611328124
180118,0.4608612060546875,-0.347259521484375,-0.967681884765625
180119,0.506591796875,-0.4506683349609375,-0.9346466064453124
180120,0.5338134765625,-0.5460968017578125,-0.88861083984375
180121,0.5380401611328125,-0.6170654296875,-0.8656005859375
180122,0.5164642333984375,-0.6563873291015625,-0.849395751953125
180123,0.4907684326171875,-0.673370361328125,-0.8404998779296875
180124,0.4564208984375,-0.6863250732421875,-0.8077239990234375
180125,0.4186553955078125,-0.7162628173828125,-0.757049560546875
180126,0.389251708984375,-0.632965087890625,-0.7552947998046875
180127,0.3514862060546875,-0.639801025390625,-0.774322509765625
180128,0.3269500732421875,-0.641510009765625,-0.7111053466796875
180129,0.3407135009765625,-0.6169891357421875,-0.618316650390625
180130,0.361663818359375,-0.5998077392578125,-0.5640106201171875
180131,0.374755859375,-0.5904693603515625,-0.55169677734375
180132,0.392242431640625,-0.589996337890625,-0.556427001953125
180133,0.427581787109375,-0.5834197998046875,-0.56268310546875
180134,0.466827392578125,-0.567840576171875,-0.5719757080078125
180135,0.5009765625,-0.5509490966796875,-0.5911865234375
180136,0.5265655517578125,-0.5271148681640625,-0.6145172119140625
180137,0.534820556640625,-0.471099853515625,-0.637603759765625
180138,0.5376434326171875,-0.4445037841796875,-0.66943359375
180139,0.5419158935546875,-0.43994140625,-0.736297607421875
180140,0.5384674072265625,-0.46929931640625,-0.829315185546875
180141,0.5355224609375,-0.4898529052734375,-0.8952178955078125
180142,0.52459716796875,-0.4772186279296875,-0.9188079833984376
180143,0.5009307861328125,-0.45416259765625,-0.8787078857421875
180144,0.46563720703125,-0.4117889404296875,-0.8369140625
180145,0.4171142578125,-0.371795654296875,-0.7945709228515625
180146,0.3805694580078125,-0.34307861328125,-0.768096923828125
180147,0.3566131591796875,-0.3333282470703125,-0.773101806640625
180148,0.3267822265625,-0.32958984375,-0.7899017333984375
180149,0.310760498046875,-0.3223724365234375,-0.833099365234375
180150,0.2874755859375,-0.324615478515625,-0.845672607421875
180151,0.27435302734375,-0.330291748046875,-0.849456787109375
180152,0.2417449951171875,-0.329864501953125,-0.8548431396484375
180153,0.1979217529296875,-0.3238677978515625,-0.894256591796875
180154,0.1528778076171875,-0.3100433349609375,-0.9585113525390624
180155,0.10113525390625,-0.297271728515625,-1.020553588867188
180156,0.05218505859375,-0.2798614501953125,-1.05810546875
180157,-0.0041961669921875,-0.2644500732421875,-1.040359497070312
180158,-0.056671142578125,-0.2333984375,-1.001953125
180159,-0.1062774658203125,-0.1884918212890625,-0.97052001953125
180160,-0.1271514892578125,-0.137786865234375,-0.9947052001953124
180161,-0.1519622802734375,-0.09417724609375,-1.004913330078125
180162,-0.1663360595703125,-0.0595703125,-1.0289306640625
180163,-0.1564178466796875,-0.04364013671875,-1.022415161132812
180164,-0.148345947265625,-0.0429534912109375,-1.021240234375
180165,-0.1260223388671875,-0.053497314453125,-1.066238403320312
180166,-0.0913543701171875,-0.0633087158203125,-1.091690063476562
180167,-0.0441131591796875,-0.08514404296875,-1.087417602539062
180168,0.0218658447265625,-0.1017913818359375,-1.122085571289062
180169,0.099609375,-0.1260528564453125,-1.13909912109375
180170,0.18896484375,-0.153289794921875,-1.147201538085938
180171,0.270782470703125,-0.1924591064453125,-1.096084594726562
180172,0.3482818603515625,-0.224090576171875,-1.022415161132812
180173,0.4201202392578125,-0.2583160400390625,-0.9450225830078124
180174,0.4855804443359375,-0.288482666015625,-0.846435546875
180175,0.533447265625,-0.3105621337890625,-0.747039794921875
180176,0.5814208984375,-0.3285369873046875,-0.7201995849609375
180177,0.557769775390625,-0.343902587890625,-0.65582275390625
180178,0.5612945556640625,-0.328948974609375,-0.6078948974609375
180179,0.56793212890625,-0.3347015380859375,-0.6138458251953125
180180,0.5378875732421875,-0.3559722900390625,-0.6360321044921875
180181,0.5109405517578125,-0.4093475341796875,-0.7082366943359375
180182,0.484344482421875,-0.47406005859375,-0.7801361083984375
180183,0.4461669921875,-0.5388946533203125,-0.8303375244140625
180184,0.4086761474609375,-0.586151123046875,-0.8663177490234375
180185,0.3647613525390625,-0.6230316162109375,-0.9250946044921876
180186,0.3226470947265625,-0.6878814697265625,-0.9113922119140624
180187,0.306060791015625,-0.79278564453125,-0.7697296142578125
180188,0.28955078125,-0.8073577880859375,-0.772674560546875
180189,0.2695465087890625,-0.8367767333984375,-0.848480224609375
180190,0.2971038818359375,-0.835052490234375,-0.891265869140625
180191,0.3564300537109375,-0.80255126953125,-0.9215850830078124
180192,0.4150848388671875,-0.740325927734375,-0.93414306640625
180193,0.4531097412109375,-0.680023193359375,-0.8922119140625
180194,0.482513427734375,-0.63653564453125,-0.8207855224609375
180195,0.4984283447265625,-0.5940093994140625,-0.744415283203125
180196,0.4998931884765625,-0.5502777099609375,-0.6749114990234375
180197,0.4818267822265625,-0.504425048828125,-0.6267242431640625
180198,0.4509124755859375,-0.4618988037109375,-0.606903076171875
180199,0.4220428466796875,-0.425994873046875,-0.6049652099609375
180200,0.400299072265625,-0.391357421875,-0.625457763671875
180201,0.38922119140625,-0.3693695068359375,-0.64276123046875
180202,0.38873291015625,-0.36053466796875,-0.6616058349609375
180203,0.386077880859375,-0.3531036376953125,-0.6859893798828125
180204,0.4004974365234375,-0.347564697265625,-0.7277984619140625
180205,0.4319000244140625,-0.37420654296875,-0.76416015625
180206,0.4466705322265625,-0.3947906494140625,-0.7870025634765625
180207,0.525909423828125,-0.4424285888671875,-0.8142242431640625
180208,0.57867431640625,-0.5095672607421875,-0.8621368408203125
180209,0.4871063232421875,-0.4302520751953125,-0.8164520263671875
180210,0.492156982421875,-0.435699462890625,-0.84344482421875
180211,0.5104827880859375,-0.4453277587890625,-0.8604736328125
180212,0.5134735107421875,-0.443939208984375,-0.8742218017578125
180213,0.4832611083984375,-0.422760009765625,-0.8955841064453125
180214,0.445281982421875,-0.4201812744140625,-0.931121826171875
180215,0.38409423828125,-0.4331817626953125,-0.974212646484375
180216,0.2897186279296875,-0.49871826171875,-0.9576416015625
180217,0.2294921875,-0.5511322021484375,-0.867431640625
180218,0.228546142578125,-0.5584716796875,-0.81964111328125
180219,0.23486328125,-0.4840087890625,-0.858154296875
180220,0.21954345703125,-0.3946533203125,-0.898345947265625
180221,0.210968017578125,-0.3451995849609375,-0.91656494140625
180222,0.19012451171875,-0.3059539794921875,-0.92437744140625
180223,0.13916015625,-0.2731475830078125,-0.942230224609375
180224,0.093719482421875,-0.2563934326171875,-0.994232177734375
180225,0.0653228759765625,-0.2321319580078125,-1.036834716796875
180226,0.0208587646484375,-0.2071685791015625,-1.036041259765625
180227,0.0056304931640625,-0.1805877685546875,-1.017135620117188
180228,0.0146942138671875,-0.150543212890625,-1.026840209960938
180229,0.028106689453125,-0.126190185546875,-1.0220947265625
180230,0.036834716796875,-0.1068115234375,-1.003982543945312
180231,0.0482635498046875,-0.0836029052734375,-0.9779052734375
180232,0.0489044189453125,-0.0628662109375,-0.9510345458984376
180233,0.0527191162109375,-0.0720977783203125,-0.9741058349609376
180234,0.0679168701171875,-0.114288330078125,-1.035659790039062
180235,0.087677001953125,-0.187347412109375,-1.071685791015625
180236,0.1152191162109375,-0.273223876953125,-1.09539794921875
180237,0.149627685546875,-0.3522796630859375,-1.10748291015625
180238,0.1859893798828125,-0.4075164794921875,-1.114959716796875
180239,0.2289276123046875,-0.427825927734375,-1.125900268554688
180240,0.2724609375,-0.4284515380859375,-1.113189697265625
180241,0.2996368408203125,-0.415191650390625,-1.080734252929688
180242,0.3214874267578125,-0.38958740234375,-1.052810668945312
180243,0.354339599609375,-0.3453521728515625,-1.029983520507812
180244,0.373077392578125,-0.3200225830078125,-0.98626708984375
180245,0.38934326171875,-0.30841064453125,-0.9237823486328124
180246,0.392913818359375,-0.2987823486328125,-0.84259033203125
180247,0.3894805908203125,-0.279632568359375,-0.7804718017578125
180248,0.3875274658203125,-0.25006103515625,-0.74713134765625
180249,0.395599365234375,-0.213470458984375,-0.73974609375
180250,0.4170684814453125,-0.1896820068359375,-0.7509613037109375
180251,0.4461212158203125,-0.19146728515625,-0.7826385498046875
180252,0.4920501708984375,-0.20111083984375,-0.845611572265625
180253,0.5626373291015625,-0.20068359375,-0.9119110107421876
180254,0.65118408203125,-0.2144775390625,-0.9591064453125
180255,0.7464447021484375,-0.2420501708984375,-0.958709716796875
180256,0.811248779296875,-0.2752838134765625,-0.9197998046875
180257,0.8416748046875,-0.3119964599609375,-0.8599395751953125
180258,0.83233642578125,-0.355560302734375,-0.7887725830078125
180259,0.7790069580078125,-0.4127655029296875,-0.719390869140625
180260,0.6942596435546875,-0.4618988037109375,-0.7097320556640625
180261,0.613372802734375,-0.502899169921875,-0.73211669921875
180262,0.5487518310546875,-0.54815673828125,-0.7451324462890625
180263,0.5078277587890625,-0.59014892578125,-0.743927001953125
180264,0.49566650390625,-0.6217193603515625,-0.7052764892578125
180265,0.49505615234375,-0.6184844970703125,-0.6613311767578125
180266,0.5052337646484375,-0.597198486328125,-0.62939453125
180267,0.5221099853515625,-0.5650482177734375,-0.61431884765625
180268,0.5408782958984375,-0.5234375,-0.5956878662109375
180269,0.558624267578125,-0.479644775390625,-0.5694122314453125
180270,0.57177734375,-0.442169189453125,-0.5558013916015625
180271,0.57867431640625,-0.420135498046875,-0.5497589111328125
180272,0.5760040283203125,-0.41912841796875,-0.5333251953125
180273,0.5709228515625,-0.41619873046875,-0.5208282470703125
180274,0.557952880859375,-0.4055633544921875,-0.5214385986328125
180275,0.5373992919921875,-0.3930511474609375,-0.5325927734375
180276,0.5234832763671875,-0.382354736328125,-0.5630035400390625
180277,0.5125274658203125,-0.3677215576171875,-0.6148834228515625
180278,0.49884033203125,-0.3558197021484375,-0.7009735107421875
180279,0.47857666015625,-0.365325927734375,-0.7798004150390625
180280,0.4624786376953125,-0.3666229248046875,-0.8059234619140625
180281,0.453277587890625,-0.3530120849609375,-0.820098876953125
180282,0.4340667724609375,-0.3399658203125,-0.8338470458984375
180283,0.417083740234375,-0.32391357421875,-0.8537445068359375
180284,0.393524169921875,-0.288116455078125,-0.865203857421875
180285,0.3756561279296875,-0.2632904052734375,-0.872467041015625
180286,0.351806640625,-0.255615234375,-0.8775634765625
180287,0.3085479736328125,-0.250732421875,-0.8681182861328125
180288,0.25830078125,-0.243988037109375,-0.8474884033203125
180289,0.2120208740234375,-0.2313232421875,-0.86761474609375
180290,0.165985107421875,-0.2129669189453125,-0.9217681884765624
180291,0.1166534423828125,-0.1919708251953125,-0.9775848388671876
180292,0.06494140625,-0.1820526123046875,-1.050003051757812
180293,0.08270263671875,-0.110504150390625,-1.0169677734375
180294,0.0527191162109375,-0.104766845703125,-1.069686889648438
180295,0.03759765625,-0.0932464599609375,-1.112518310546875
180296,0.0594940185546875,-0.0770416259765625,-1.064682006835938
180297,0.0480499267578125,-0.0690155029296875,-1.015335083007812
180298,0.017303466796875,-0.05426025390625,-1.004196166992188
180299,-0.003509521484375,-0.0714111328125,-1.001724243164062
180300,-0.0045928955078125,-0.0984344482421875,-0.99542236328125
180301,0.0126800537109375,-0.1246337890625,-0.9984130859375
180302,0.0496673583984375,-0.1540069580078125,-1.01739501953125
180303,0.119842529296875,-0.1897735595703125,-1.054229736328125
180304,0.2216339111328125,-0.2317962646484375,-1.081985473632812
180305,0.3292694091796875,-0.2618408203125,-1.081527709960938
180306,0.4333038330078125,-0.278411865234375,-1.081680297851562
180307,0.5216522216796875,-0.2836151123046875,-1.081436157226562
180308,0.598419189453125,-0.27734375,-1.057281494140625
180309,0.658203125,-0.2694549560546875,-1.012481689453125
180310,0.6907958984375,-0.2579193115234375,-0.9510650634765624
180311,0.6907501220703125,-0.2642974853515625,-0.888763427734375
180312,0.65350341796875,-0.287017822265625,-0.8273162841796875
180313,0.6009063720703125,-0.3176422119140625,-0.79345703125
180314,0.5437774658203125,-0.3490447998046875,-0.7640380859375
180315,0.4891510009765625,-0.3799285888671875,-0.727630615234375
180316,0.4451904296875,-0.4197998046875,-0.6961517333984375
180317,0.409088134765625,-0.472686767578125,-0.688934326171875
180318,0.392242431640625,-0.5251922607421875,-0.72076416015625
180319,0.38922119140625,-0.5688629150390625,-0.777984619140625
180320,0.384796142578125,-0.6182708740234375,-0.8621063232421875
180321,0.39520263671875,-0.675537109375,-0.888397216796875
180322,0.4114837646484375,-0.697662353515625,-0.890838623046875
180323,0.4324493408203125,-0.701904296875,-0.8717498779296875
180324,0.4554595947265625,-0.6799163818359375,-0.8311767578125
180325,0.468994140625,-0.6546630859375,-0.802642822265625
180326,0.4858856201171875,-0.6311492919921875,-0.786224365234375
180327,0.5069427490234375,-0.6146392822265625,-0.7593231201171875
180328,0.516693115234375,-0.6097564697265625,-0.7093963623046875
180329,0.520721435546875,-0.601654052734375,-0.656494140625
180330,0.51251220703125,-0.5819091796875,-0.611541748046875
180331,0.4790496826171875,-0.55438232421875,-0.57586669921875
180332,0.42498779296875,-0.5210418701171875,-0.570892333984375
180333,0.3814544677734375,-0.4965362548828125,-0.601715087890625
180334,0.36572265625,-0.4841766357421875,-0.634857177734375
180335,0.3813629150390625,-0.47564697265625,-0.666748046875
180336,0.4161376953125,-0.465179443359375,-0.68646240234375
180337,0.4500732421875,-0.4592437744140625,-0.6893768310546875
180338,0.47607421875,-0.45318603515625,-0.689483642578125
180339,0.4927215576171875,-0.436614990234375,-0.699951171875
180340,0.5065155029296875,-0.4084014892578125,-0.71728515625
180341,0.5234375,-0.3831329345703125,-0.7252197265625
180342,0.5374603271484375,-0.373016357421875,-0.714111328125
180343,0.547027587890625,-0.376129150390625,-0.68817138671875
180344,0.550506591796875,-0.3918914794921875,-0.6872711181640625
180345,0.55145263671875,-0.430511474609375,-0.755462646484375
180346,0.5211029052734375,-0.4871673583984375,-0.82086181640625
180347,0.471588134765625,-0.5267181396484375,-0.8557891845703125
180348,0.4271392822265625,-0.5240325927734375,-0.894012451171875
180349,0.3927001953125,-0.5137176513671875,-0.9160308837890624
180350,0.37213134765625,-0.4979400634765625,-0.931488037109375
180351,0.349945068359375,-0.46820068359375,-0.9301910400390624
180352,0.327911376953125,-0.4327545166015625,-0.9222412109375
180353,0.3040313720703125,-0.401611328125,-0.91571044921875
180354,0.2886505126953125,-0.3595733642578125,-0.9044189453125
180355,0.276123046875,-0.323272705078125,-0.8910675048828125
180356,0.2588653564453125,-0.3030242919921875,-0.8839874267578125
180357,0.237701416015625,-0.2684783935546875,-0.890289306640625
180358,0.2027740478515625,-0.23089599609375,-0.897552490234375
180359,0.159759521484375,-0.207244873046875,-0.92254638671875
180360,0.1128082275390625,-0.1835174560546875,-0.9603271484375
180361,0.0603485107421875,-0.16180419921875,-1.013092041015625
180362,0.0109710693359375,-0.138580322265625,-1.035415649414062
180363,-0.015472412109375,-0.11273193359375,-0.991851806640625
180364,-0.029388427734375,-0.07183837890625,-0.9371795654296876
180365,-0.040191650390625,-0.02874755859375,-0.9268341064453124
180366,-0.0380401611328125,0.0057830810546875,-0.9541473388671876
180367,-0.0424652099609375,0.01544189453125,-0.9799957275390624
180368,-0.0472412109375,-0.010955810546875,-0.9951324462890624
180369,-0.035308837890625,-0.057403564453125,-1.012161254882812
180370,-0.001190185546875,-0.1259613037109375,-1.020889282226562
180371,0.05816650390625,-0.191192626953125,-1.030807495117188
180372,0.13177490234375,-0.2427825927734375,-1.05828857421875
180373,0.1944122314453125,-0.3006591796875,-1.091873168945312
180374,0.245208740234375,-0.369110107421875,-1.120513916015625
180375,0.2971954345703125,-0.4100341796875,-1.118637084960938
180376,0.319000244140625,-0.45697021484375,-1.0909423828125
180377,0.33270263671875,-0.4910888671875,-1.038909912109375
180378,0.3583526611328125,-0.4759521484375,-0.9780731201171876
180379,0.3888702392578125,-0.407745361328125,-0.9569854736328124
180380,0.395721435546875,-0.349517822265625,-0.9586029052734376
180381,0.3866424560546875,-0.334075927734375,-0.9339447021484376
180382,0.3815765380859375,-0.3424835205078125,-0.88421630859375
180383,0.3972625732421875,-0.3497161865234375,-0.8495941162109375
180384,0.440338134765625,-0.344146728515625,-0.8571624755859375
180385,0.491180419921875,-0.3458404541015625,-0.883575439453125
180386,0.5565948486328125,-0.3578338623046875,-0.9160308837890624
180387,0.6274871826171875,-0.377960205078125,-0.923248291015625
180388,0.71038818359375,-0.3918304443359375,-0.9119720458984376
180389,0.800140380859375,-0.392303466796875,-0.8783111572265625
180390,0.8554229736328125,-0.392852783203125,-0.8239593505859375
180391,0.8573150634765625,-0.414642333984375,-0.7767791748046875
180392,0.81610107421875,-0.453765869140625,-0.726531982421875
180393,0.7593536376953125,-0.488189697265625,-0.6967926025390625
180394,0.703399658203125,-0.5166015625,-0.7044677734375
180395,0.64532470703125,-0.5368194580078125,-0.700958251953125
180396,0.596343994140625,-0.5455169677734375,-0.6923675537109375
180397,0.550933837890625,-0.540771484375,-0.67205810546875
180398,0.5229644775390625,-0.5286102294921875,-0.654998779296875
180399,0.499053955078125,-0.5114593505859375,-0.6266021728515625
180400,0.481109619140625,-0.495269775390625,-0.6091766357421875
180401,0.465301513671875,-0.4820404052734375,-0.6101531982421875
180402,0.4593963623046875,-0.470458984375,-0.6124114990234375
180403,0.461151123046875,-0.465606689453125,-0.6172943115234375
180404,0.468780517578125,-0.4570159912109375,-0.6182708740234375
180405,0.4851531982421875,-0.4334869384765625,-0.6314697265625
180406,0.5033416748046875,-0.423675537109375,-0.6484375
180407,0.4623870849609375,-0.4631195068359375,-0.793182373046875
180408,0.18951416015625,-0.4667205810546875,-0.7855682373046875
180409,0.2902069091796875,-0.359283447265625,-0.603668212890625
180410,0.688812255859375,-0.446319580078125,-0.6075592041015625
180411,0.7511444091796875,-0.3611602783203125,-0.705535888671875
180412,0.6667633056640625,-0.3119049072265625,-0.958221435546875
180413,0.5001678466796875,-0.361328125,-1.083175659179688
180414,0.4385986328125,-0.3306732177734375,-0.842376708984375
180415,0.46087646484375,-0.3125457763671875,-0.7088165283203125
180416,0.3912353515625,-0.3235626220703125,-0.7238311767578125
180417,0.395416259765625,-0.1766204833984375,-0.7133636474609375
180418,0.3438873291015625,-0.2723236083984375,-0.716522216796875
180419,0.403472900390625,-0.1545257568359375,-0.764678955078125
180420,0.3534698486328125,-0.1570892333984375,-0.868896484375
180421,0.266754150390625,-0.161773681640625,-0.973968505859375
180422,0.2141571044921875,-0.161895751953125,-0.98876953125
180423,0.20367431640625,-0.1600341796875,-0.9422454833984376
180424,0.2104949951171875,-0.1470947265625,-0.8957672119140625
180425,0.1934661865234375,-0.1416015625,-0.9022979736328124
180426,0.152130126953125,-0.13812255859375,-0.9429931640625
180427,0.1179962158203125,-0.125244140625,-0.943878173828125
180428,0.06793212890625,-0.0912017822265625,-0.959930419921875
180429,0.0397491455078125,-0.0425262451171875,-0.9754638671875
180430,-0.0059661865234375,0.00445556640625,-0.9837646484375
180431,-0.0363006591796875,-0.0045623779296875,-0.9564056396484376
180432,-0.0516815185546875,-0.0099334716796875,-0.930145263671875
180433,-0.0516815185546875,-0.02105712890625,-0.933685302734375
180434,-0.0214996337890625,-0.05279541015625,-0.9639739990234376
180435,0.0200347900390625,-0.09259033203125,-1.003952026367188
180436,0.0658111572265625,-0.148590087890625,-1.049423217773438
180437,0.1313934326171875,-0.220458984375,-1.096939086914062
180438,0.1992645263671875,-0.298065185546875,-1.12982177734375
180439,0.258209228515625,-0.3631439208984375,-1.136077880859375
180440,0.3166656494140625,-0.3719482421875,-1.13507080078125
180441,0.3773956298828125,-0.3442840576171875,-1.130584716796875
180442,0.4503631591796875,-0.3279876708984375,-1.113357543945312
180443,0.4991607666015625,-0.2878570556640625,-1.07861328125
180444,0.5537567138671875,-0.27740478515625,-1.0081787109375
180445,0.5531005859375,-0.2740631103515625,-0.9096527099609376
180446,0.5463104248046875,-0.2810211181640625,-0.81402587890625
180447,0.51806640625,-0.295654296875,-0.7772979736328125
180448,0.4888763427734375,-0.3196563720703125,-0.7583465576171875
180449,0.4780426025390625,-0.3458099365234375,-0.75006103515625
180450,0.4914703369140625,-0.406646728515625,-0.7694091796875
180451,0.4706878662109375,-0.4583587646484375,-0.8250885009765625
180452,0.4610137939453125,-0.5325469970703125,-0.8856201171875
180453,0.4612274169921875,-0.6056060791015625,-0.9291229248046876
180454,0.4560699462890625,-0.6730499267578125,-0.9200897216796876
180455,0.4514923095703125,-0.7173309326171875,-0.8842926025390625
180456,0.4306182861328125,-0.727874755859375,-0.8412933349609375
180457,0.412109375,-0.7108154296875,-0.813323974609375
180458,0.4053802490234375,-0.6726837158203125,-0.793365478515625
180459,0.41339111328125,-0.6295318603515625,-0.780029296875
180460,0.4447479248046875,-0.6048583984375,-0.7771759033203125
180461,0.4553680419921875,-0.5913238525390625,-0.7397918701171875
180462,0.4696502685546875,-0.580718994140625,-0.68328857421875
180463,0.47796630859375,-0.55377197265625,-0.6360015869140625
180464,0.4480743408203125,-0.506561279296875,-0.615753173828125
180465,0.4334869384765625,-0.4658355712890625,-0.6062774658203125
180466,0.433929443359375,-0.4250640869140625,-0.619293212890625
180467,0.4462432861328125,-0.396697998046875,-0.6457061767578125
180468,0.4594268798828125,-0.3621368408203125,-0.67462158203125
180469,0.475006103515625,-0.33251953125,-0.704559326171875
180470,0.4929656982421875,-0.32122802734375,-0.728729248046875
180471,0.508026123046875,-0.3269500732421875,-0.72802734375
180472,0.520355224609375,-0.339263916015625,-0.70123291015625
180473,0.520477294921875,-0.346710205078125,-0.682464599609375
180474,0.5209503173828125,-0.3596954345703125,-0.671630859375
180475,0.5138397216796875,-0.3844757080078125,-0.67596435546875
180476,0.479522705078125,-0.4131317138671875,-0.67822265625
180477,0.4616546630859375,-0.426605224609375,-0.7296905517578125
180478,0.450653076171875,-0.4553680419921875,-0.8062286376953125
180479,0.4359130859375,-0.48345947265625,-0.8739166259765625
180480,0.4259796142578125,-0.5029144287109375,-0.9323883056640624
180481,0.3923797607421875,-0.513824462890625,-0.96697998046875
180482,0.3507080078125,-0.503997802734375,-0.9853515625
180483,0.3183746337890625,-0.487030029296875,-0.9837493896484376
180484,0.2855377197265625,-0.459686279296875,-0.967926025390625
180485,0.256439208984375,-0.4438323974609375,-0.9676513671875
180486,0.220977783203125,-0.4324798583984375,-0.9901123046875
180487,0.2016754150390625,-0.387847900390625,-1.027633666992188
180488,0.191009521484375,-0.3407135009765625,-1.034744262695312
180489,0.17425537109375,-0.308746337890625,-1.01171875
180490,0.1520233154296875,-0.2691497802734375,-0.9795074462890624
180491,0.118499755859375,-0.2239532470703125,-0.944854736328125
180492,0.074462890625,-0.1805877685546875,-0.9617156982421876
180493,0.028961181640625,-0.1309661865234375,-0.967987060546875
180494,-0.0074462890625,-0.089263916015625,-1.040374755859375
180495,-0.0568695068359375,-0.0690460205078125,-1.08477783203125
180496,-0.0850982666015625,-0.049102783203125,-0.98687744140625
180497,-0.0881500244140625,-0.028717041015625,-0.91497802734375
180498,-0.081573486328125,0.0040130615234375,-0.8764801025390625
180499,-0.0710296630859375,0.0332183837890625,-0.8665924072265625
180500,-0.0515594482421875,0.035858154296875,-0.8687286376953125
180501,-0.0355987548828125,0.021087646484375,-0.8985137939453125
180502,-0.0172119140625,-0.0088348388671875,-0.946563720703125
180503,0.0161590576171875,-0.0418243408203125,-0.9783782958984376
180504,0.06719970703125,-0.0853271484375,-1.01666259765625
180505,0.12115478515625,-0.1317291259765625,-1.075393676757812
180506,0.1790313720703125,-0.1966552734375,-1.1171875
180507,0.2451324462890625,-0.284332275390625,-1.12628173828125
180508,0.3033599853515625,-0.380828857421875,-1.092803955078125
180509,0.317169189453125,-0.4739532470703125,-1.062606811523438
180510,0.33233642578125,-0.444091796875,-1.067092895507812
180511,0.31768798828125,-0.472259521484375,-1.031417846679688
180512,0.3081207275390625,-0.43975830078125,-0.996917724609375
180513,0.2974853515625,-0.40618896484375,-0.9723663330078124
180514,0.31072998046875,-0.38641357421875,-0.9648284912109376
180515,0.2938232421875,-0.3724212646484375,-0.958099365234375
180516,0.31817626953125,-0.38690185546875,-0.959503173828125
180517,0.366363525390625,-0.397979736328125,-0.978912353515625
180518,0.4100189208984375,-0.3983306884765625,-1.031875610351562
180519,0.4589385986328125,-0.3931884765625,-1.069686889648438
180520,0.52117919921875,-0.400299072265625,-1.059707641601562
180521,0.5970611572265625,-0.4286346435546875,-1.004058837890625
180522,0.681976318359375,-0.460845947265625,-0.9337310791015624
180523,0.7027740478515625,-0.455963134765625,-0.86602783203125
180524,0.7244720458984375,-0.4746246337890625,-0.80938720703125
180525,0.720794677734375,-0.474639892578125,-0.7677764892578125
180526,0.701690673828125,-0.491302490234375,-0.73492431640625
180527,0.671051025390625,-0.5268096923828125,-0.6995849609375
180528,0.63665771484375,-0.5488433837890625,-0.68487548828125
180529,0.607818603515625,-0.552154541015625,-0.682403564453125
180530,0.6020965576171875,-0.5645751953125,-0.6751556396484375
180531,0.594940185546875,-0.5615692138671875,-0.6681060791015625
180532,0.5845794677734375,-0.5681915283203125,-0.6554718017578125
180533,0.5514678955078125,-0.5660858154296875,-0.6453094482421875
180534,0.51177978515625,-0.5488739013671875,-0.6494903564453125
180535,0.4813995361328125,-0.525054931640625,-0.6601104736328125
180536,0.4658966064453125,-0.5058135986328125,-0.67816162109375
180537,0.453094482421875,-0.481414794921875,-0.690093994140625
180538,0.4392242431640625,-0.455657958984375,-0.6973419189453125
180539,0.4331512451171875,-0.4301910400390625,-0.711883544921875
180540,0.4333648681640625,-0.40509033203125,-0.727752685546875
180541,0.4349822998046875,-0.380096435546875,-0.7567596435546875
180542,0.4393157958984375,-0.3651123046875,-0.78546142578125
180543,0.4490509033203125,-0.3524627685546875,-0.810455322265625
180544,0.4525299072265625,-0.332977294921875,-0.8350677490234375
180545,0.4486236572265625,-0.3076019287109375,-0.851837158203125
180546,0.44189453125,-0.2882232666015625,-0.83245849609375
180547,0.4262542724609375,-0.2675628662109375,-0.7948760986328125
180548,0.398895263671875,-0.243316650390625,-0.74810791015625
180549,0.378326416015625,-0.216400146484375,-0.73480224609375
180550,0.3498687744140625,-0.1913299560546875,-0.7561187744140625
180551,0.3166656494140625,-0.15301513671875,-0.7889251708984375
180552,0.2830352783203125,-0.116912841796875,-0.8218841552734375
180553,0.247314453125,-0.0938873291015625,-0.844329833984375
180554,0.212127685546875,-0.086090087890625,-0.8572845458984375
180555,0.175140380859375,-0.0902557373046875,-0.8755340576171875
180556,0.1357421875,-0.1048431396484375,-0.9002685546875
180557,0.1113128662109375,-0.0932464599609375,-0.89862060546875
180558,0.0759429931640625,-0.0810546875,-0.8810882568359375
180559,0.0596466064453125,-0.068695068359375,-0.880462646484375
180560,0.0296478271484375,-0.0638580322265625,-0.9317474365234376
180561,0.022003173828125,-0.054779052734375,-0.9408721923828124
180562,0.025482177734375,-0.04486083984375,-0.895904541015625
180563,0.0193023681640625,-0.0365447998046875,-0.8596343994140625
180564,0.0155181884765625,-0.0443115234375,-0.8792877197265625
180565,0.017303466796875,-0.056793212890625,-0.9110565185546876
180566,0.0309295654296875,-0.07989501953125,-0.94635009765625
180567,0.0517730712890625,-0.102569580078125,-0.9786224365234376
180568,0.0743865966796875,-0.1304168701171875,-1.039230346679688
180569,0.1084136962890625,-0.17230224609375,-1.107208251953125
180570,0.159210205078125,-0.2263641357421875,-1.150711059570312
180571,0.2191925048828125,-0.280364990234375,-1.166748046875
180572,0.2860565185546875,-0.3258819580078125,-1.162384033203125
180573,0.35748291015625,-0.3535919189453125,-1.132308959960938
180574,0.4200439453125,-0.3632659912109375,-1.0841064453125
180575,0.4741973876953125,-0.3607635498046875,-1.020050048828125
180576,0.5225830078125,-0.357635498046875,-0.9598846435546876
180577,0.566986083984375,-0.3613739013671875,-0.9154510498046876
180578,0.580902099609375,-0.364471435546875,-0.89129638671875
180579,0.566558837890625,-0.3470916748046875,-0.8893280029296875
180580,0.5033721923828125,-0.3730926513671875,-0.872802734375
180581,0.527252197265625,-0.4177093505859375,-0.865447998046875
180582,0.5109710693359375,-0.4615020751953125,-0.870635986328125
180583,0.4994964599609375,-0.5095672607421875,-0.9005279541015625
180584,0.4811859130859375,-0.568572998046875,-0.9502105712890624
180585,0.475067138671875,-0.64080810546875,-0.9523162841796876
180586,0.471343994140625,-0.700714111328125,-0.9222412109375
180587,0.4626617431640625,-0.7459259033203125,-0.8810272216796875
180588,0.4454803466796875,-0.7581024169921875,-0.8041839599609375
180589,0.42681884765625,-0.64971923828125,-0.71759033203125
180590,0.4269256591796875,-0.71875,-0.7366943359375
180591,0.4417724609375,-0.571685791015625,-0.71990966796875
180592,0.4617156982421875,-0.5370635986328125,-0.69384765625
180593,0.476104736328125,-0.5258636474609375,-0.636932373046875
180594,0.4724578857421875,-0.493682861328125,-0.5932159423828125
180595,0.4432525634765625,-0.4550323486328125,-0.57147216796875
180596,0.4145050048828125,-0.4191131591796875,-0.577606201171875
180597,0.396148681640625,-0.39520263671875,-0.6049041748046875
180598,0.3864593505859375,-0.3883819580078125,-0.646820068359375
180599,0.38055419921875,-0.382232666015625,-0.7005157470703125
180600,0.3859100341796875,-0.3701324462890625,-0.747589111328125
180601,0.395782470703125,-0.3638153076171875,-0.77508544921875
180602,0.4157257080078125,-0.3711395263671875,-0.8004150390625
180603,0.4360504150390625,-0.3836212158203125,-0.8315887451171875
180604,0.4608001708984375,-0.392242431640625,-0.8827362060546875
180605,0.4763031005859375,-0.407867431640625,-0.8719329833984375
180606,0.5015716552734375,-0.43853759765625,-0.8169097900390625
180607,0.5148162841796875,-0.476165771484375,-0.745330810546875
180608,0.506866455078125,-0.4781951904296875,-0.732635498046875
180609,0.502655029296875,-0.4832305908203125,-0.7975921630859375
180610,0.486480712890625,-0.503814697265625,-0.8745269775390625
180611,0.46319580078125,-0.5031890869140625,-0.9340972900390624
180612,0.424163818359375,-0.50299072265625,-0.9811553955078124
180613,0.3811187744140625,-0.510040283203125,-0.9971160888671876
180614,0.3378753662109375,-0.5061492919921875,-0.9803314208984376
180615,0.3001708984375,-0.4969482421875,-0.94805908203125
180616,0.277557373046875,-0.4770965576171875,-0.943145751953125
180617,0.254913330078125,-0.448883056640625,-0.9576873779296876
180618,0.2408447265625,-0.4061126708984375,-0.9455108642578124
180619,0.23077392578125,-0.3517608642578125,-0.9100189208984376
180620,0.2303924560546875,-0.2725677490234375,-0.8857269287109375
180621,0.231597900390625,-0.1849212646484375,-0.8674163818359375
180622,0.225555419921875,-0.1348114013671875,-0.8660125732421875
180623,0.20953369140625,-0.1034088134765625,-0.87200927734375
180624,0.171966552734375,-0.083038330078125,-0.89019775390625
180625,0.127410888671875,-0.065948486328125,-0.8975372314453125
180626,0.0757904052734375,-0.0464324951171875,-0.894989013671875
180627,0.011993408203125,-0.0391845703125,-0.9178619384765624
180628,-0.0315093994140625,-0.0239410400390625,-0.9023590087890624
180629,-0.070343017578125,-0.00054931640625,-0.8815460205078125
180630,-0.090087890625,0.0271148681640625,-0.8714141845703125
180631,-0.107666015625,0.045135498046875,-0.8827972412109375
180632,-0.1190032958984375,0.0492706298828125,-0.9307098388671876
180633,-0.1131591796875,0.0458221435546875,-0.9934234619140624
180634,-0.1013641357421875,0.0069427490234375,-1.052352905273438
180635,-0.06884765625,-0.0611114501953125,-1.116195678710938
180636,-0.01556396484375,-0.1421051025390625,-1.161453247070312
180637,0.050262451171875,-0.2324981689453125,-1.19561767578125
180638,0.11077880859375,-0.327178955078125,-1.210235595703125
180639,0.1642608642578125,-0.415740966796875,-1.196029663085938
180640,0.208221435546875,-0.47802734375,-1.165634155273438
180641,0.2388763427734375,-0.5130615234375,-1.128707885742188
180642,0.2512664794921875,-0.52984619140625,-1.066452026367188
180643,0.251678466796875,-0.495208740234375,-1.009918212890625
180644,0.24969482421875,-0.44342041015625,-0.9517364501953124
180645,0.2466888427734375,-0.3685760498046875,-0.9305572509765624
180646,0.24432373046875,-0.3147125244140625,-0.9436187744140624
180647,0.2509002685546875,-0.2865753173828125,-0.9296417236328124
180648,0.25262451171875,-0.272186279296875,-0.9152679443359376
180649,0.258514404296875,-0.273651123046875,-0.9377899169921876
180650,0.27435302734375,-0.29241943359375,-0.9858856201171876
180651,0.312652587890625,-0.318939208984375,-1.019561767578125
180652,0.3783416748046875,-0.3555755615234375,-1.016189575195312
180653,0.4628753662109375,-0.4145050048828125,-0.99444580078125
180654,0.546966552734375,-0.4943389892578125,-0.9672698974609376
180655,0.616943359375,-0.564422607421875,-0.918701171875
180656,0.6690673828125,-0.593597412109375,-0.8704986572265625
180657,0.7129974365234375,-0.612030029296875,-0.83123779296875
180658,0.74310302734375,-0.62225341796875,-0.7872161865234375
180659,0.7019500732421875,-0.6130828857421875,-0.743927001953125
180660,0.6681365966796875,-0.6161041259765625,-0.7159576416015625
180661,0.638153076171875,-0.5809326171875,-0.6872711181640625
180662,0.6338348388671875,-0.576171875,-0.650848388671875
180663,0.6126861572265625,-0.5662384033203125,-0.6273651123046875
180664,0.57525634765625,-0.5429840087890625,-0.618438720703125
180665,0.54644775390625,-0.5233917236328125,-0.6073455810546875
180666,0.5215606689453125,-0.502593994140625,-0.5987701416015625
180667,0.504638671875,-0.4857940673828125,-0.6020355224609375
180668,0.493988037109375,-0.471435546875,-0.6105194091796875
180669,0.4925079345703125,-0.4642181396484375,-0.62353515625
180670,0.501495361328125,-0.4544525146484375,-0.631683349609375
180671,0.507965087890625,-0.436431884765625,-0.6302337646484375
180672,0.5029296875,-0.4129486083984375,-0.636749267578125
180673,0.5014495849609375,-0.3986663818359375,-0.656982421875
180674,0.4963226318359375,-0.3906402587890625,-0.69610595703125
180675,0.4976348876953125,-0.3842010498046875,-0.7402801513671875
180676,0.4967803955078125,-0.38128662109375,-0.78204345703125
180677,0.494171142578125,-0.3699951171875,-0.80853271484375
180678,0.4920196533203125,-0.35382080078125,-0.823638916015625
180679,0.481231689453125,-0.33837890625,-0.8101959228515625
180680,0.461639404296875,-0.3136444091796875,-0.79449462890625
180681,0.4364166259765625,-0.28851318359375,-0.77606201171875
180682,0.4090576171875,-0.2758026123046875,-0.7805023193359375
180683,0.3791351318359375,-0.2655181884765625,-0.8020477294921875
180684,0.3516693115234375,-0.2548065185546875,-0.8339996337890625
180685,0.3350067138671875,-0.25067138671875,-0.8592987060546875
180686,0.313568115234375,-0.241912841796875,-0.8723907470703125
180687,0.2854156494140625,-0.2308197021484375,-0.8798675537109375
180688,0.25482177734375,-0.214141845703125,-0.8958282470703125
180689,0.222442626953125,-0.2021331787109375,-0.90985107421875
180690,0.1920318603515625,-0.1912384033203125,-0.9221038818359376
180691,0.1551666259765625,-0.170654296875,-0.9629364013671876
180692,0.1022796630859375,-0.1589813232421875,-1.007339477539062
180693,0.062164306640625,-0.11480712890625,-1.01385498046875
180694,0.0430755615234375,-0.0818328857421875,-1.008132934570312
180695,0.0170745849609375,-0.0679779052734375,-1.01654052734375
180696,-0.006439208984375,-0.045562744140625,-0.9970550537109376
180697,-0.0213165283203125,-0.0225982666015625,-0.9854278564453124
180698,-0.030426025390625,-0.01312255859375,-0.9776763916015624
180699,-0.032806396484375,-0.0154571533203125,-0.9983673095703124
180700,-0.0365142822265625,-0.0090484619140625,-1.009292602539062
180701,-0.0160369873046875,-0.0106658935546875,-1.034347534179688
180702,0.01025390625,-0.0225067138671875,-1.066986083984375
180703,0.0470733642578125,-0.043121337890625,-1.111175537109375
180704,0.104339599609375,-0.0833740234375,-1.14630126953125
180705,0.177734375,-0.118408203125,-1.1409912109375
180706,0.265472412109375,-0.1624908447265625,-1.119003295898438
180707,0.3496551513671875,-0.189666748046875,-1.077499389648438
180708,0.4320068359375,-0.2097320556640625,-1.027053833007812
180709,0.511077880859375,-0.2320098876953125,-0.9787139892578124
180710,0.5803985595703125,-0.2529144287109375,-0.91204833984375
180711,0.6290130615234375,-0.2683563232421875,-0.8363800048828125
180712,0.6612548828125,-0.293121337890625,-0.7786102294921875
180713,0.67791748046875,-0.321807861328125,-0.737335205078125
180714,0.632781982421875,-0.3072357177734375,-0.7328948974609375
180715,0.5630645751953125,-0.3209686279296875,-0.72430419921875
180716,0.56634521484375,-0.366943359375,-0.7363128662109375
180717,0.54638671875,-0.4044342041015625,-0.796478271484375
180718,0.51080322265625,-0.4383697509765625,-0.8382568359375
180719,0.4706268310546875,-0.4828643798828125,-0.868804931640625
180720,0.429779052734375,-0.5439605712890625,-0.919158935546875
180721,0.398284912109375,-0.6151885986328125,-0.9366912841796876
180722,0.3758697509765625,-0.68927001953125,-0.89654541015625
180723,0.338653564453125,-0.7427978515625,-0.8786468505859375
180724,0.3108978271484375,-0.758331298828125,-0.86346435546875
180725,0.2906341552734375,-0.7472076416015625,-0.8384552001953125
180726,0.2885284423828125,-0.7081146240234375,-0.837982177734375
180727,0.308563232421875,-0.66131591796875,-0.843353271484375
180728,0.341522216796875,-0.6019744873046875,-0.8528594970703125
180729,0.3657073974609375,-0.573638916015625,-0.81561279296875
180730,0.389434814453125,-0.5551605224609375,-0.7345428466796875
180731,0.4000091552734375,-0.524444580078125,-0.66497802734375
180732,0.38818359375,-0.4818267822265625,-0.6192626953125
180733,0.3764495849609375,-0.4361114501953125,-0.590423583984375
180734,0.3729095458984375,-0.4014739990234375,-0.5991668701171875
180735,0.382354736328125,-0.37982177734375,-0.635406494140625
180736,0.4020233154296875,-0.3660125732421875,-0.6759796142578125
180737,0.428955078125,-0.35595703125,-0.7088775634765625
180738,0.4546966552734375,-0.355224609375,-0.7332000732421875
180739,0.4663543701171875,-0.3658447265625,-0.7510528564453125
180740,0.4727935791015625,-0.3851776123046875,-0.7530670166015625
180741,0.4832916259765625,-0.402008056640625,-0.742431640625
180742,0.4891815185546875,-0.4047088623046875,-0.723876953125
180743,0.495819091796875,-0.409454345703125,-0.7306976318359375
180744,0.5024566650390625,-0.4428253173828125,-0.7450103759765625
180745,0.4959259033203125,-0.4709014892578125,-0.708953857421875
180746,0.4999237060546875,-0.492095947265625,-0.7134246826171875
180747,0.48370361328125,-0.519622802734375,-0.7694091796875
180748,0.4664154052734375,-0.545501708984375,-0.86199951171875
180749,0.4409027099609375,-0.554779052734375,-0.9180908203125
180750,0.394775390625,-0.563262939453125,-0.941070556640625
180751,0.3495941162109375,-0.5569610595703125,-0.9632110595703124
180752,0.3084564208984375,-0.54071044921875,-0.965240478515625
180753,0.268646240234375,-0.530426025390625,-0.9329833984375
180754,0.2442779541015625,-0.504425048828125,-0.915985107421875
180755,0.2293853759765625,-0.4692230224609375,-0.909393310546875
180756,0.22589111328125,-0.406402587890625,-0.8881988525390625
180757,0.22576904296875,-0.3363800048828125,-0.8632354736328125
180758,0.223876953125,-0.271331787109375,-0.8488311767578125
180759,0.22027587890625,-0.2137451171875,-0.8619384765625
180760,0.198883056640625,-0.174896240234375,-0.903289794921875
180761,0.1636962890625,-0.14129638671875,-0.9569854736328124
180762,0.1085052490234375,-0.1218719482421875,-0.9960784912109376
180763,0.05218505859375,-0.1229400634765625,-1.027435302734375
180764,-0.00665283203125,-0.1200103759765625,-1.058929443359375
180765,-0.0618438720703125,-0.1059112548828125,-1.046340942382812
180766,-0.0965576171875,-0.0839080810546875,-1.006271362304688
180767,-0.1307830810546875,-0.077972412109375,-0.983123779296875
180768,-0.1475372314453125,-0.0749359130859375,-0.99505615234375
180769,-0.1458587646484375,-0.07891845703125,-1.013107299804688
180770,-0.130615234375,-0.1057281494140625,-1.046859741210938
180771,-0.09674072265625,-0.1447296142578125,-1.089630126953125
180772,-0.0467987060546875,-0.20513916015625,-1.095870971679688
180773,0.009307861328125,-0.275054931640625,-1.0919189453125
180774,0.059417724609375,-0.3329010009765625,-1.094512939453125
180775,0.1003875732421875,-0.389404296875,-1.101791381835938
180776,0.12744140625,-0.4351806640625,-1.098541259765625
180777,0.1484527587890625,-0.467681884765625,-1.083084106445312
180778,0.1670684814453125,-0.4898681640625,-1.04998779296875
180779,0.1886444091796875,-0.4952392578125,-1.0255126953125
180780,0.20819091796875,-0.5040740966796875,-0.97528076171875
180781,0.23333740234375,-0.483917236328125,-0.9332275390625
180782,0.2486572265625,-0.428802490234375,-0.91741943359375
180783,0.261474609375,-0.3801727294921875,-0.9209747314453124
180784,0.2833251953125,-0.355438232421875,-0.9363861083984376
180785,0.307952880859375,-0.3544769287109375,-0.9503173828125
180786,0.343902587890625,-0.370269775390625,-0.9631805419921876
180787,0.388458251953125,-0.403778076171875,-0.971343994140625
180788,0.4371337890625,-0.4632110595703125,-0.97998046875
180789,0.4872589111328125,-0.5343780517578125,-0.9965057373046876
180790,0.5366668701171875,-0.5930938720703125,-0.9874725341796876
180791,0.58782958984375,-0.6256103515625,-0.9284210205078124
180792,0.6221466064453125,-0.635345458984375,-0.8495025634765625
180793,0.642974853515625,-0.6263885498046875,-0.77587890625
180794,0.657989501953125,-0.6036529541015625,-0.728546142578125
180795,0.6724090576171875,-0.5892333984375,-0.6998748779296875
180796,0.6851959228515625,-0.5675048828125,-0.6804962158203125
180797,0.695526123046875,-0.5416717529296875,-0.6651611328125
180798,0.7005615234375,-0.5212860107421875,-0.6572265625
180799,0.6879730224609375,-0.50018310546875,-0.664581298828125
180800,0.6622314453125,-0.47515869140625,-0.657562255859375
180801,0.624114990234375,-0.448822021484375,-0.62042236328125
180802,0.5800628662109375,-0.4329376220703125,-0.5827178955078125
180803,0.53570556640625,-0.419219970703125,-0.5596466064453125
180804,0.4918975830078125,-0.398101806640625,-0.5569305419921875
180805,0.45001220703125,-0.3768310546875,-0.5676422119140625
180806,0.411956787109375,-0.3614959716796875,-0.5863037109375
180807,0.385986328125,-0.3500213623046875,-0.6084442138671875
180808,0.3709869384765625,-0.3428955078125,-0.6337432861328125
180809,0.3622894287109375,-0.334014892578125,-0.6616363525390625
180810,0.352752685546875,-0.327911376953125,-0.6954803466796875
180811,0.343780517578125,-0.32440185546875,-0.7335968017578125
180812,0.33587646484375,-0.327667236328125,-0.778411865234375
180813,0.3437652587890625,-0.317138671875,-0.8266448974609375
180814,0.363189697265625,-0.29620361328125,-0.8695831298828125
180815,0.3707427978515625,-0.358306884765625,-0.885650634765625
180816,0.407073974609375,-0.3546142578125,-0.8851776123046875
180817,0.4527130126953125,-0.3529815673828125,-0.879119873046875
180818,0.4784393310546875,-0.35699462890625,-0.856781005859375
180819,0.48773193359375,-0.405029296875,-0.8029022216796875
180820,0.4883575439453125,-0.3232269287109375,-0.8191375732421875
180821,0.4661712646484375,-0.2762908935546875,-0.848388671875
180822,0.456268310546875,-0.298065185546875,-0.8434906005859375
180823,0.376739501953125,-0.2220611572265625,-0.83465576171875
180824,0.3266143798828125,-0.2069091796875,-0.8674774169921875
180825,0.297027587890625,-0.1955718994140625,-0.9082794189453124
180826,0.2707977294921875,-0.192108154296875,-0.95806884765625
180827,0.2296295166015625,-0.22235107421875,-0.9716796875
180828,0.1236724853515625,-0.3024444580078125,-0.902801513671875
180829,-0.0199432373046875,-0.402069091796875,-0.7415008544921875
180830,0.094635009765625,-0.2774505615234375,-0.9260101318359376
180831,0.0414886474609375,-0.242279052734375,-1.031982421875
180832,-0.03106689453125,-0.2434844970703125,-0.984649658203125
180833,-0.003753662109375,-0.1665191650390625,-1.011367797851562
180834,-0.0126953125,-0.135894775390625,-1.00469970703125
180835,-0.0695037841796875,-0.147369384765625,-0.9248046875
180836,0.081512451171875,-0.0598297119140625,-0.902435302734375
180837,0.1024932861328125,-0.082366943359375,-1.087203979492188
180838,-0.02667236328125,-0.18682861328125,-0.9476318359375
180839,0.0685272216796875,-0.214752197265625,-0.831298828125
180840,0.1331939697265625,-0.244354248046875,-0.841949462890625
180841,0.291534423828125,-0.286834716796875,-0.9553070068359376
180842,0.4918975830078125,-0.34869384765625,-1.0428466796875
180843,0.4484100341796875,-0.415771484375,-1.010696411132812
180844,0.4755706787109375,-0.39984130859375,-1.098480224609375
180845,0.4710693359375,-0.3808135986328125,-0.97076416015625
180846,0.5453338623046875,-0.210968017578125,-0.9724884033203124
180847,0.338165283203125,-0.2001800537109375,-0.8134307861328125
180848,0.3371124267578125,-0.2673797607421875,-0.7989654541015625
180849,0.912841796875,-0.3790283203125,-1.017532348632812
180850,0.7685546875,-0.56195068359375,-0.8479766845703125
180851,0.5727691650390625,-0.649444580078125,-0.761077880859375
180852,0.491607666015625,-0.694427490234375,-0.8724517822265625
180853,0.47772216796875,-0.6405487060546875,-1.076583862304688
180854,0.3209075927734375,-0.5114288330078125,-1.140472412109375
180855,0.2951202392578125,-0.4681396484375,-1.060882568359375
180856,0.316497802734375,-0.467437744140625,-0.9178466796875
180857,0.3399810791015625,-0.43988037109375,-0.79742431640625
180858,0.4404296875,-0.53955078125,-0.7710723876953125
180859,0.5350494384765625,-0.639190673828125,-0.70306396484375
180860,0.5504150390625,-0.6295623779296875,-0.6505889892578125
180861,0.486907958984375,-0.5533599853515625,-0.64495849609375
180862,0.467681884765625,-0.525115966796875,-0.7174072265625
180863,0.438079833984375,-0.480865478515625,-0.7387542724609375
180864,0.465606689453125,-0.5083770751953125,-0.7334136962890625
180865,0.4766998291015625,-0.5497894287109375,-0.6937713623046875
180866,0.4422760009765625,-0.55694580078125,-0.64208984375
180867,0.3551788330078125,-0.4901885986328125,-0.6065521240234375
180868,0.3690032958984375,-0.4466552734375,-0.631256103515625
180869,0.4642333984375,-0.4681549072265625,-0.67376708984375
180870,0.5631866455078125,-0.532684326171875,-0.66351318359375
180871,0.6294403076171875,-0.5860137939453125,-0.6264190673828125
180872,0.431610107421875,-0.3773040771484375,-0.5930328369140625
180873,0.404449462890625,-0.303192138671875,-0.7411651611328125
180874,0.4892120361328125,-0.300384521484375,-0.794586181640625
180875,0.5180206298828125,-0.3147735595703125,-0.8106231689453125
180876,0.521148681640625,-0.339202880859375,-0.7403106689453125
180877,0.507568359375,-0.364959716796875,-0.6713714599609375
180878,0.514556884765625,-0.378814697265625,-0.62060546875
180879,0.4290313720703125,-0.348785400390625,-0.702117919921875
180880,0.3939208984375,-0.4001922607421875,-0.785888671875
180881,0.3826751708984375,-0.435211181640625,-0.779876708984375
180882,0.1684417724609375,-0.3807220458984375,-0.8760833740234375
180883,-1.027664184570312,0.059600830078125,-1.281417846679688
180884,0.3138580322265625,-0.90228271484375,-1.294784545898438
180885,0.6025390625,-0.7369537353515625,-1.013885498046875
180886,0.734527587890625,-0.5048065185546875,-0.7420501708984375
180887,0.6595611572265625,-0.4111175537109375,-0.062744140625
180888,-0.0058441162109375,-0.6699676513671875,1.413833618164062
180889,0.0340576171875,-0.3354034423828125,-1.637939453125
180890,0.5489349365234375,-0.2563018798828125,-2.60565185546875
180891,0.381317138671875,-0.31005859375,-1.68975830078125
180892,0.4931793212890625,-0.3071136474609375,-1.185623168945312
180893,0.5482635498046875,-0.4985504150390625,-0.8669586181640625
180894,0.5074462890625,-0.33880615234375,-0.82244873046875
180895,0.4910430908203125,-0.2248382568359375,-0.8769073486328125
180896,0.4342498779296875,-0.1276397705078125,-0.9242706298828124
180897,0.335845947265625,-0.0496978759765625,-0.9198455810546876
180898,0.22491455078125,0.0032958984375,-0.8883056640625
180899,0.11181640625,0.0342864990234375,-0.8521728515625
180900,0.0104827880859375,0.019256591796875,-0.84039306640625
180901,-0.077362060546875,-0.039642333984375,-0.8287506103515625
180902,-0.12384033203125,-0.0800018310546875,-0.802398681640625
180903,-0.1429443359375,-0.117523193359375,-0.823974609375
180904,-0.143951416015625,-0.1494903564453125,-0.913055419921875
180905,-0.1236419677734375,-0.209136962890625,-1.006698608398438
180906,-0.0823822021484375,-0.2673492431640625,-1.062255859375
180907,-0.021575927734375,-0.32391357421875,-1.101577758789062
180908,0.043365478515625,-0.3824310302734375,-1.120132446289062
180909,0.110870361328125,-0.4344329833984375,-1.109237670898438
180910,0.1739959716796875,-0.4568634033203125,-1.103469848632812
180911,0.2280731201171875,-0.4832305908203125,-1.08160400390625
180912,0.27532958984375,-0.5014190673828125,-1.054153442382812
180913,0.305755615234375,-0.513427734375,-1.017623901367188
180914,0.3182220458984375,-0.511566162109375,-0.9807281494140624
180915,0.318603515625,-0.4910736083984375,-0.9354400634765624
180916,0.3081512451171875,-0.45880126953125,-0.9044189453125
180917,0.314239501953125,-0.4199981689453125,-0.8771514892578125
180918,0.32696533203125,-0.387725830078125,-0.850555419921875
180919,0.3253173828125,-0.35406494140625,-0.8717803955078125
180920,0.31683349609375,-0.3090972900390625,-0.9081573486328124
180921,0.3140411376953125,-0.2656707763671875,-0.94342041015625
180922,0.32763671875,-0.24444580078125,-0.955902099609375
180923,0.3654632568359375,-0.2581634521484375,-0.967681884765625
180924,0.416900634765625,-0.2955474853515625,-0.974884033203125
180925,0.4774017333984375,-0.3511810302734375,-0.962921142578125
180926,0.537261962890625,-0.4113311767578125,-0.92596435546875
180927,0.5877685546875,-0.4781494140625,-0.871307373046875
180928,0.6285247802734375,-0.5385284423828125,-0.81427001953125
180929,0.6454925537109375,-0.59210205078125,-0.77978515625
180930,0.660797119140625,-0.6175537109375,-0.775421142578125
180931,0.65478515625,-0.617095947265625,-0.801788330078125
180932,0.665283203125,-0.6100921630859375,-0.8341827392578125
180933,0.6761322021484375,-0.5696258544921875,-0.8427276611328125
180934,0.6801910400390625,-0.56109619140625,-0.81561279296875
180935,0.6755523681640625,-0.5579986572265625,-0.7528076171875
180936,0.65838623046875,-0.5300445556640625,-0.68499755859375
180937,0.6316680908203125,-0.5013885498046875,-0.62579345703125
180938,0.5955657958984375,-0.4832000732421875,-0.584564208984375
180939,0.5567169189453125,-0.4726715087890625,-0.5581817626953125
180940,0.517364501953125,-0.45556640625,-0.5595245361328125
180941,0.4879302978515625,-0.4450531005859375,-0.5849151611328125
180942,0.4690093994140625,-0.4169769287109375,-0.626129150390625
180943,0.456207275390625,-0.3931427001953125,-0.6617279052734375
180944,0.452392578125,-0.3862457275390625,-0.6805267333984375
180945,0.4662017822265625,-0.3749847412109375,-0.6727142333984375
180946,0.49066162109375,-0.3540191650390625,-0.67535400390625
180947,0.5434722900390625,-0.35028076171875,-0.6884307861328125
180948,0.5628204345703125,-0.4013824462890625,-0.6915130615234375
180949,0.525482177734375,-0.3509521484375,-0.7200775146484375
180950,0.4855194091796875,-0.3018341064453125,-0.8084564208984375
180951,0.495147705078125,-0.2892913818359375,-0.87335205078125
180952,0.497650146484375,-0.296844482421875,-0.900848388671875
180953,0.5590057373046875,-0.237030029296875,-0.96173095703125
180954,0.5002288818359375,-0.21160888671875,-0.917327880859375
180955,0.4549102783203125,-0.239501953125,-0.8119354248046875
180956,0.4616546630859375,-0.27337646484375,-0.755279541015625
180957,0.4320526123046875,-0.274932861328125,-0.7634735107421875
180958,0.4278717041015625,-0.259735107421875,-0.8395843505859375
180959,0.3877105712890625,-0.245758056640625,-0.8837890625
180960,0.336273193359375,-0.2537384033203125,-0.874114990234375
180961,0.27862548828125,-0.17584228515625,-0.949859619140625
180962,0.1882781982421875,-0.0382843017578125,-1.094268798828125
180963,0.028533935546875,-0.14068603515625,-0.854644775390625
180964,0.210845947265625,-0.321807861328125,-0.7137908935546875
180965,0.0467071533203125,-0.133026123046875,-1.135147094726562
180966,-0.025665283203125,-0.1618499755859375,-0.812286376953125
180967,0.0605621337890625,-0.1173858642578125,-1.06689453125
180968,-0.0708465576171875,-0.13787841796875,-0.849090576171875
180969,0.043212890625,-0.2614898681640625,-0.833160400390625
180970,-0.00653076171875,-0.1001739501953125,-1.031082153320312
180971,-0.022186279296875,-0.0511932373046875,-0.9624481201171876
180972,-0.0171051025390625,-0.0990753173828125,-0.966400146484375
180973,-0.0141448974609375,-0.1657562255859375,-0.853240966796875
180974,0.028594970703125,-0.2091827392578125,-0.901397705078125
180975,0.07818603515625,-0.1913299560546875,-1.007064819335938
180976,0.120513916015625,-0.1628265380859375,-1.03338623046875
180977,0.228179931640625,-0.193695068359375,-1.01031494140625
180978,0.3642578125,-0.2218780517578125,-1.019668579101562
180979,0.485443115234375,-0.2269439697265625,-1.006378173828125
180980,0.5943145751953125,-0.2154998779296875,-0.985015869140625
180981,0.6868133544921875,-0.194061279296875,-0.96795654296875
180982,0.757568359375,-0.1646575927734375,-0.9273223876953124
180983,0.7783050537109375,-0.1438140869140625,-0.8792877197265625
180984,0.7318572998046875,-0.16802978515625,-0.8505706787109375
180985,0.6276092529296875,-0.249176025390625,-0.8088226318359375
180986,0.526947021484375,-0.3112640380859375,-0.7684173583984375
180987,0.456146240234375,-0.352294921875,-0.7751617431640625
180988,0.410400390625,-0.4027099609375,-0.81842041015625
180989,0.390838623046875,-0.4534912109375,-0.8703460693359375
180990,0.393310546875,-0.50640869140625,-0.920654296875
180991,0.4136810302734375,-0.5654754638671875,-0.9710540771484376
180992,0.443389892578125,-0.630523681640625,-1.011383056640625
180993,0.4730682373046875,-0.6939849853515625,-1.02301025390625
180994,0.499481201171875,-0.7324981689453125,-1.0120849609375
180995,0.5173187255859375,-0.7364501953125,-0.9868927001953124
180996,0.525726318359375,-0.7093963623046875,-0.9617919921875
180997,0.5163421630859375,-0.66455078125,-0.9342193603515624
180998,0.505126953125,-0.6158294677734375,-0.9092559814453124
180999,0.5060272216796875,-0.563873291015625,-0.8839874267578125
181000,0.504669189453125,-0.5390167236328125,-0.831329345703125
181001,0.497955322265625,-0.532806396484375,-0.7505950927734375
181002,0.4994049072265625,-0.520843505859375,-0.6773681640625
181003,0.5095672607421875,-0.490936279296875,-0.6243896484375
181004,0.5147247314453125,-0.449249267578125,-0.5869903564453125
181005,0.5136566162109375,-0.4052276611328125,-0.574005126953125
181006,0.5232086181640625,-0.3649139404296875,-0.58135986328125
181007,0.531280517578125,-0.339263916015625,-0.5906829833984375
181008,0.536407470703125,-0.332733154296875,-0.600616455078125
181009,0.5417938232421875,-0.3342742919921875,-0.607086181640625
181010,0.536773681640625,-0.3372955322265625,-0.608673095703125
181011,0.5269012451171875,-0.3333892822265625,-0.6166839599609375
181012,0.5142822265625,-0.32659912109375,-0.6417999267578125
181013,0.508209228515625,-0.3145294189453125,-0.6773681640625
181014,0.5060272216796875,-0.3046722412109375,-0.7055816650390625
181015,0.5145263671875,-0.30035400390625,-0.72552490234375
181016,0.520233154296875,-0.301055908203125,-0.730712890625
181017,0.508514404296875,-0.3163299560546875,-0.716278076171875
181018,0.4940338134765625,-0.335693359375,-0.699249267578125
181019,0.474822998046875,-0.35943603515625,-0.69537353515625
181020,0.440765380859375,-0.394805908203125,-0.7220306396484375
181021,0.4083404541015625,-0.4157562255859375,-0.7782135009765625
181022,0.380157470703125,-0.4206390380859375,-0.8333282470703125
181023,0.35223388671875,-0.4066925048828125,-0.8726348876953125
181024,0.3308868408203125,-0.3954925537109375,-0.9027557373046876
181025,0.31524658203125,-0.3651580810546875,-0.9044189453125
181026,0.2981414794921875,-0.334442138671875,-0.881927490234375
181027,0.28155517578125,-0.3108978271484375,-0.8613128662109375
181028,0.2660675048828125,-0.275970458984375,-0.8466033935546875
181029,0.2448883056640625,-0.2327423095703125,-0.8462066650390625
181030,0.2148895263671875,-0.199951171875,-0.84747314453125
181031,0.1851043701171875,-0.1696319580078125,-0.855743408203125
181032,0.1612701416015625,-0.141845703125,-0.8827667236328125
181033,0.121612548828125,-0.1263427734375,-0.9234466552734376
181034,0.0863037109375,-0.1214141845703125,-0.9673004150390624
181035,0.05255126953125,-0.107269287109375,-1.010498046875
181036,0.0244903564453125,-0.0854949951171875,-1.0189208984375
181037,0.0016632080078125,-0.0610198974609375,-1.02691650390625
181038,-0.000518798828125,-0.04278564453125,-1.04266357421875
181039,-0.00091552734375,-0.0428009033203125,-1.02557373046875
181040,-0.005584716796875,-0.043182373046875,-1.019287109375
181041,-0.0003204345703125,-0.0510101318359375,-1.052734375
181042,0.018035888671875,-0.081207275390625,-1.084487915039062
181043,0.0537109375,-0.132110595703125,-1.102798461914062
181044,0.11297607421875,-0.1897735595703125,-1.126754760742188
181045,0.1891632080078125,-0.273101806640625,-1.15234375
181046,0.2683258056640625,-0.3465728759765625,-1.17413330078125
181047,0.3363037109375,-0.3965911865234375,-1.179061889648438
181048,0.3857421875,-0.4215850830078125,-1.16778564453125
181049,0.4121551513671875,-0.4190521240234375,-1.15155029296875
181050,0.422271728515625,-0.4005584716796875,-1.1309814453125
181051,0.439849853515625,-0.3614501953125,-1.107757568359375
181052,0.4431304931640625,-0.3438873291015625,-1.048080444335938
181053,0.432037353515625,-0.340301513671875,-0.98236083984375
181054,0.4302520751953125,-0.3285675048828125,-0.9361572265625
181055,0.42279052734375,-0.3115692138671875,-0.8809814453125
181056,0.4124298095703125,-0.30816650390625,-0.8489837646484375
181057,0.4054107666015625,-0.3004608154296875,-0.8468780517578125
181058,0.4110870361328125,-0.29071044921875,-0.859405517578125
181059,0.436981201171875,-0.2840576171875,-0.8869781494140625
181060,0.4833831787109375,-0.28326416015625,-0.9200592041015624
181061,0.5356903076171875,-0.2902069091796875,-0.9342041015625
181062,0.5887298583984375,-0.3055877685546875,-0.9276275634765624
181063,0.6218109130859375,-0.3385009765625,-0.893157958984375
181064,0.64276123046875,-0.395782470703125,-0.8439178466796875
181065,0.6543426513671875,-0.447479248046875,-0.80499267578125
181066,0.65435791015625,-0.4603424072265625,-0.7867279052734375
181067,0.6413421630859375,-0.471221923828125,-0.767242431640625
181068,0.6212005615234375,-0.4825439453125,-0.755767822265625
181069,0.5984954833984375,-0.48870849609375,-0.7423095703125
181070,0.5916290283203125,-0.488800048828125,-0.7228851318359375
181071,0.596435546875,-0.4918670654296875,-0.6885986328125
181072,0.6042938232421875,-0.4870452880859375,-0.6388092041015625
181073,0.6097564697265625,-0.4800872802734375,-0.583892822265625
181074,0.6171722412109375,-0.464752197265625,-0.56011962890625
181075,0.624786376953125,-0.43206787109375,-0.547027587890625
181076,0.620391845703125,-0.4099273681640625,-0.528472900390625
181077,0.6139068603515625,-0.406494140625,-0.5149993896484375
181078,0.6083526611328125,-0.4133453369140625,-0.507171630859375
181079,0.61444091796875,-0.4178009033203125,-0.5221099853515625
181080,0.6165008544921875,-0.4088134765625,-0.5499420166015625
181081,0.615997314453125,-0.396697998046875,-0.5937957763671875
181082,0.6133880615234375,-0.38641357421875,-0.638580322265625
181083,0.613189697265625,-0.3744049072265625,-0.692474365234375
181084,0.6148529052734375,-0.364227294921875,-0.7518463134765625
181085,0.60577392578125,-0.3551025390625,-0.8164520263671875
181086,0.6000518798828125,-0.3534088134765625,-0.866851806640625
181087,0.580810546875,-0.3535919189453125,-0.8546905517578125
181088,0.565032958984375,-0.33233642578125,-0.8065338134765625
181089,0.5517425537109375,-0.3031463623046875,-0.799713134765625
181090,0.512298583984375,-0.2621917724609375,-0.7889251708984375
181091,0.4622650146484375,-0.23736572265625,-0.7844085693359375
181092,0.41925048828125,-0.201995849609375,-0.8041229248046875
181093,0.386505126953125,-0.1587677001953125,-0.84710693359375
181094,0.3447113037109375,-0.1258544921875,-0.8906097412109375
181095,0.31793212890625,-0.099273681640625,-0.921630859375
181096,0.276123046875,-0.0916595458984375,-0.923095703125
181097,0.223663330078125,-0.1072235107421875,-0.913970947265625
181098,0.16357421875,-0.1277923583984375,-0.9125518798828124
181099,0.095367431640625,-0.1244964599609375,-0.933349609375
181100,0.036712646484375,-0.09320068359375,-0.9801788330078124
181101,0.000885009765625,-0.05938720703125,-1.070755004882812
181102,-3.0517578125e-05,-0.0224609375,-1.0799560546875
181103,-0.01318359375,0.013824462890625,-1.0640869140625
181104,-0.0120697021484375,0.0556640625,-1.029006958007812
181105,-0.0467987060546875,0.0914459228515625,-1.034912109375
181106,-0.052276611328125,0.0912017822265625,-0.9919281005859376
181107,-0.0230560302734375,0.0929107666015625,-0.966552734375
181108,0.0319061279296875,0.0735321044921875,-0.9631500244140624
181109,0.10406494140625,0.034423828125,-0.976409912109375
181110,0.172607421875,-0.025787353515625,-0.9998626708984376
181111,0.2536773681640625,-0.0990447998046875,-1.026641845703125
181112,0.341156005859375,-0.1893157958984375,-1.039443969726562
181113,0.4286346435546875,-0.2740020751953125,-1.040054321289062
181114,0.5058135986328125,-0.327789306640625,-1.0311279296875
181115,0.5761566162109375,-0.3235015869140625,-1.01116943359375
181116,0.6385345458984375,-0.2857666015625,-0.994537353515625
181117,0.6834716796875,-0.244659423828125,-0.9770660400390624
181118,0.7054290771484375,-0.2164459228515625,-0.9640350341796876
181119,0.6981048583984375,-0.2167816162109375,-0.937042236328125
181120,0.6619415283203125,-0.247222900390625,-0.880828857421875
181121,0.60791015625,-0.293609619140625,-0.81475830078125
181122,0.551361083984375,-0.330535888671875,-0.7727813720703125
181123,0.50006103515625,-0.35479736328125,-0.758941650390625
181124,0.468597412109375,-0.3875274658203125,-0.7707672119140625
181125,0.444305419921875,-0.4415283203125,-0.82098388671875
181126,0.4435882568359375,-0.5104522705078125,-0.8594818115234375
181127,0.464996337890625,-0.5972900390625,-0.871978759765625
181128,0.48736572265625,-0.6553955078125,-0.8541717529296875
181129,0.5118865966796875,-0.676513671875,-0.8307037353515625
181130,0.5335845947265625,-0.66058349609375,-0.816802978515625
181131,0.53424072265625,-0.61700439453125,-0.78948974609375
181132,0.5282440185546875,-0.5706939697265625,-0.7635345458984375
181133,0.5268402099609375,-0.53533935546875,-0.75634765625
181134,0.5319671630859375,-0.5234527587890625,-0.7511138916015625
181135,0.5349578857421875,-0.5388641357421875,-0.7287445068359375
181136,0.543914794921875,-0.552337646484375,-0.69976806640625
181137,0.5533294677734375,-0.5459136962890625,-0.6689300537109375
181138,0.549346923828125,-0.5253448486328125,-0.6376495361328125
181139,0.5196075439453125,-0.49560546875,-0.6258087158203125
181140,0.4792633056640625,-0.4569091796875,-0.634613037109375
181141,0.4488677978515625,-0.4239349365234375,-0.647674560546875
181142,0.4384002685546875,-0.3979949951171875,-0.66925048828125
181143,0.4530029296875,-0.37127685546875,-0.6981048583984375
181144,0.4765472412109375,-0.3540191650390625,-0.713531494140625
181145,0.5051727294921875,-0.34173583984375,-0.7126922607421875
181146,0.5268707275390625,-0.3317718505859375,-0.7142333984375
181147,0.53753662109375,-0.3206939697265625,-0.7135009765625
181148,0.5435943603515625,-0.3066253662109375,-0.696014404296875
181149,0.555511474609375,-0.284820556640625,-0.6997222900390625
181150,0.5584869384765625,-0.2792510986328125,-0.692840576171875
181151,0.546295166015625,-0.2970733642578125,-0.6597747802734375
181152,0.5322723388671875,-0.316619873046875,-0.6591949462890625
181153,0.5078277587890625,-0.3405914306640625,-0.6856689453125
181154,0.4908599853515625,-0.38128662109375,-0.739288330078125
181155,0.472015380859375,-0.42218017578125,-0.8066864013671875
181156,0.448974609375,-0.4398651123046875,-0.851898193359375
181157,0.4279937744140625,-0.432830810546875,-0.8809814453125
181158,0.407470703125,-0.4218292236328125,-0.9033203125
181159,0.3847503662109375,-0.4070892333984375,-0.915802001953125
181160,0.3530426025390625,-0.397705078125,-0.922821044921875
181161,0.3138275146484375,-0.3758392333984375,-0.9406890869140624
181162,0.274078369140625,-0.3448638916015625,-0.9682464599609376
181163,0.2349090576171875,-0.3146820068359375,-1.005767822265625
181164,0.1939239501953125,-0.3095855712890625,-1.0504150390625
181165,0.150177001953125,-0.299285888671875,-1.061874389648438
181166,0.100067138671875,-0.2764739990234375,-1.03814697265625
181167,0.045257568359375,-0.257598876953125,-1.016891479492188
181168,0.0037994384765625,-0.237213134765625,-1.018585205078125
181169,-0.02105712890625,-0.20806884765625,-1.0054931640625
181170,-0.0401611328125,-0.161712646484375,-0.9729461669921876
181171,-0.0446014404296875,-0.1154632568359375,-0.9439544677734376
181172,-0.0324859619140625,-0.0709075927734375,-0.91278076171875
181173,-0.015289306640625,-0.0391082763671875,-0.8882904052734375
181174,-0.003448486328125,-0.010467529296875,-0.867523193359375
181175,0.022003173828125,-0.0094146728515625,-0.8816680908203125
181176,0.054840087890625,-0.0319061279296875,-0.8900299072265625
181177,0.104644775390625,-0.066986083984375,-0.9230804443359376
181178,0.1807708740234375,-0.1121978759765625,-0.9621124267578124
181179,0.2718048095703125,-0.166015625,-0.9955596923828124
181180,0.3603515625,-0.235931396484375,-1.021148681640625
181181,0.444427490234375,-0.3148345947265625,-1.034896850585938
181182,0.5190582275390625,-0.3791961669921875,-1.036865234375
181183,0.566314697265625,-0.4259796142578125,-1.028305053710938
181184,0.5597686767578125,-0.4598236083984375,-1.005950927734375
181185,0.50567626953125,-0.4881439208984375,-0.9816436767578124
181186,0.4392852783203125,-0.503204345703125,-0.970733642578125
181187,0.3782196044921875,-0.492767333984375,-0.948974609375
181188,0.3292083740234375,-0.466827392578125,-0.9290924072265624
181189,0.2993316650390625,-0.428375244140625,-0.947021484375
181190,0.3020477294921875,-0.3999481201171875,-0.980224609375
181191,0.3205413818359375,-0.4080352783203125,-0.9710540771484376
181192,0.369293212890625,-0.4318695068359375,-0.956390380859375
181193,0.439849853515625,-0.44146728515625,-0.95318603515625
181194,0.5186920166015625,-0.4416961669921875,-0.9506378173828124
181195,0.60198974609375,-0.4411468505859375,-0.9481658935546876
181196,0.6800537109375,-0.436553955078125,-0.927398681640625
181197,0.7513427734375,-0.4422607421875,-0.882659912109375
181198,0.79901123046875,-0.4485015869140625,-0.8088226318359375
181199,0.805450439453125,-0.46044921875,-0.7320098876953125
181200,0.77813720703125,-0.4791259765625,-0.667572021484375
181201,0.738525390625,-0.484954833984375,-0.6465911865234375
181202,0.6931304931640625,-0.5064544677734375,-0.664459228515625
181203,0.6566925048828125,-0.5317230224609375,-0.6972808837890625
181204,0.640380859375,-0.54888916015625,-0.731201171875
181205,0.640899658203125,-0.5594482421875,-0.7512054443359375
181206,0.6431427001953125,-0.5619964599609375,-0.7338409423828125
181207,0.639190673828125,-0.547271728515625,-0.706634521484375
181208,0.6285247802734375,-0.5216522216796875,-0.6820526123046875
181209,0.60089111328125,-0.5048065185546875,-0.6581878662109375
181210,0.562744140625,-0.4913787841796875,-0.6397247314453125
181211,0.5334014892578125,-0.4751739501953125,-0.639373779296875
181212,0.5182952880859375,-0.4535980224609375,-0.653045654296875
181213,0.505706787109375,-0.4332427978515625,-0.6670379638671875
181214,0.5041656494140625,-0.4033660888671875,-0.67303466796875
181215,0.499664306640625,-0.3750457763671875,-0.6757354736328125
181216,0.494537353515625,-0.346923828125,-0.67803955078125
181217,0.492218017578125,-0.335418701171875,-0.68389892578125
181218,0.4954071044921875,-0.31884765625,-0.7061004638671875
181219,0.4978485107421875,-0.303253173828125,-0.726776123046875
181220,0.501251220703125,-0.290679931640625,-0.751678466796875
181221,0.5054779052734375,-0.2689056396484375,-0.765380859375
181222,0.5006256103515625,-0.2482147216796875,-0.7608642578125
181223,0.488616943359375,-0.2263336181640625,-0.760467529296875
181224,0.46514892578125,-0.2050018310546875,-0.7681732177734375
181225,0.4425506591796875,-0.182830810546875,-0.78704833984375
181226,0.4092254638671875,-0.1763763427734375,-0.8016357421875
181227,0.375213623046875,-0.1731414794921875,-0.80999755859375
181228,0.3449249267578125,-0.1744384765625,-0.8217010498046875
181229,0.3015289306640625,-0.18145751953125,-0.831817626953125
181230,0.2581634521484375,-0.186737060546875,-0.8312225341796875
181231,0.2098236083984375,-0.19036865234375,-0.8072662353515625
181232,0.1561126708984375,-0.1889495849609375,-0.7801055908203125
181233,0.1151885986328125,-0.17156982421875,-0.77789306640625
181234,0.0864715576171875,-0.1540374755859375,-0.8112640380859375
181235,0.0697479248046875,-0.13330078125,-0.8620147705078125
181236,0.0625152587890625,-0.1106719970703125,-0.908050537109375
181237,0.0604248046875,-0.0836029052734375,-0.9310302734375
181238,0.0597076416015625,-0.0639801025390625,-0.9356231689453124
181239,0.0607757568359375,-0.0518035888671875,-0.9374237060546876
181240,0.0657958984375,-0.047760009765625,-0.9404449462890624
181241,0.0718994140625,-0.0605926513671875,-0.942657470703125
181242,0.0751953125,-0.08880615234375,-0.93194580078125
181243,0.0791015625,-0.1179656982421875,-0.9350128173828124
181244,0.0951385498046875,-0.15093994140625,-0.964263916015625
181245,0.1415863037109375,-0.1933746337890625,-1.004364013671875
181246,0.2220306396484375,-0.2364501953125,-1.050308227539062
181247,0.3229827880859375,-0.284759521484375,-1.088958740234375
181248,0.4271240234375,-0.321075439453125,-1.1005859375
181249,0.5194854736328125,-0.329437255859375,-1.090927124023438
181250,0.58978271484375,-0.314697265625,-1.068756103515625
181251,0.6322479248046875,-0.29302978515625,-1.036514282226562
181252,0.6483306884765625,-0.279815673828125,-0.9850311279296876
181253,0.6321868896484375,-0.2714996337890625,-0.930389404296875
181254,0.5931549072265625,-0.27703857421875,-0.89825439453125
181255,0.5405426025390625,-0.301910400390625,-0.894866943359375
181256,0.4959259033203125,-0.3283233642578125,-0.89630126953125
181257,0.4624176025390625,-0.3748779296875,-0.8842315673828125
181258,0.453094482421875,-0.4264984130859375,-0.8882598876953125
181259,0.466583251953125,-0.4865875244140625,-0.91259765625
181260,0.4945526123046875,-0.5545806884765625,-0.9373016357421876
181261,0.533477783203125,-0.6120758056640625,-0.9494781494140624
181262,0.5759735107421875,-0.6450347900390625,-0.936004638671875
181263,0.6093902587890625,-0.64569091796875,-0.894561767578125
181264,0.6189727783203125,-0.630462646484375,-0.838531494140625
181265,0.5977630615234375,-0.6007537841796875,-0.7874755859375
181266,0.5706787109375,-0.584930419921875,-0.7554168701171875
181267,0.5509490966796875,-0.582000732421875,-0.73114013671875
181268,0.5187530517578125,-0.5577850341796875,-0.68768310546875
181269,0.53363037109375,-0.5684356689453125,-0.7089080810546875
181270,0.5058746337890625,-0.5344085693359375,-0.668853759765625
181271,0.488189697265625,-0.505096435546875,-0.6666717529296875
181272,0.4599761962890625,-0.4802093505859375,-0.6583709716796875
181273,0.431884765625,-0.4520416259765625,-0.658233642578125
181274,0.411834716796875,-0.423797607421875,-0.668670654296875
181275,0.4051513671875,-0.3966827392578125,-0.6806488037109375
181276,0.4134368896484375,-0.37957763671875,-0.690765380859375
181277,0.4277801513671875,-0.373565673828125,-0.703765869140625
181278,0.43463134765625,-0.364898681640625,-0.69635009765625
181279,0.4442596435546875,-0.354095458984375,-0.683929443359375
181280,0.466400146484375,-0.3352203369140625,-0.7001800537109375
181281,0.5007476806640625,-0.310333251953125,-0.7439422607421875
181282,0.529388427734375,-0.2910614013671875,-0.7691650390625
181283,0.552337646484375,-0.287994384765625,-0.76812744140625
181284,0.565643310546875,-0.3063201904296875,-0.748870849609375
181285,0.5750732421875,-0.3502349853515625,-0.7262725830078125
181286,0.5742950439453125,-0.4038848876953125,-0.7225799560546875
181287,0.5562896728515625,-0.44183349609375,-0.7470855712890625
181288,0.533233642578125,-0.458648681640625,-0.7802734375
181289,0.5053253173828125,-0.4727630615234375,-0.80828857421875
181290,0.478363037109375,-0.477783203125,-0.82794189453125
181291,0.4546356201171875,-0.472869873046875,-0.864837646484375
181292,0.4285125732421875,-0.4677276611328125,-0.894927978515625
181293,0.407470703125,-0.445709228515625,-0.9001617431640625
181294,0.39398193359375,-0.4300079345703125,-0.9054718017578124
181295,0.38165283203125,-0.4063873291015625,-0.913848876953125
181296,0.366363525390625,-0.3733978271484375,-0.9129638671875
181297,0.350738525390625,-0.3287811279296875,-0.9033355712890624
181298,0.327239990234375,-0.2937469482421875,-0.9036712646484376
181299,0.29998779296875,-0.2716217041015625,-0.8869476318359375
181300,0.2700958251953125,-0.24468994140625,-0.873626708984375
181301,0.2432098388671875,-0.1978607177734375,-0.8871612548828125
181302,0.22222900390625,-0.15277099609375,-0.9291839599609376
181303,0.177001953125,-0.1346435546875,-0.97039794921875
181304,0.1162261962890625,-0.1308441162109375,-1.012283325195312
181305,0.0486907958984375,-0.1242218017578125,-1.043136596679688
181306,-0.019073486328125,-0.120147705078125,-1.046463012695312
181307,-0.0493011474609375,-0.1204376220703125,-1.036087036132812
181308,-0.0256805419921875,-0.117401123046875,-0.967071533203125
181309,-0.02978515625,-0.0904388427734375,-0.892425537109375
181310,-0.031280517578125,-0.064849853515625,-0.9676971435546876
181311,0.0045166015625,-0.0507965087890625,-0.99139404296875
181312,0.0451507568359375,-0.0430755615234375,-0.9669036865234376
181313,0.0949859619140625,-0.059326171875,-0.9889984130859376
181314,0.1529388427734375,-0.110748291015625,-1.029586791992188
181315,0.2137451171875,-0.1902618408203125,-1.052658081054688
181316,0.28118896484375,-0.2710113525390625,-1.06158447265625
181317,0.341705322265625,-0.3537139892578125,-1.061737060546875
181318,0.4002685546875,-0.4148712158203125,-1.052688598632812
181319,0.441558837890625,-0.446746826171875,-1.026596069335938
181320,0.4583587646484375,-0.463043212890625,-0.9798126220703124
181321,0.4451141357421875,-0.45245361328125,-0.925628662109375
181322,0.424835205078125,-0.418060302734375,-0.8963775634765625
181323,0.403594970703125,-0.361846923828125,-0.8705902099609375
181324,0.37841796875,-0.32110595703125,-0.8512725830078125
181325,0.3649444580078125,-0.31451416015625,-0.841400146484375
181326,0.373016357421875,-0.3177032470703125,-0.8394622802734375
181327,0.3985137939453125,-0.3303375244140625,-0.8582000732421875
181328,0.452178955078125,-0.3373870849609375,-0.903839111328125
181329,0.53173828125,-0.3220367431640625,-0.944549560546875
181330,0.6077423095703125,-0.319488525390625,-0.955169677734375
181331,0.6812286376953125,-0.323211669921875,-0.9459381103515624
181332,0.740997314453125,-0.3390655517578125,-0.914215087890625
181333,0.7826690673828125,-0.368011474609375,-0.869598388671875
181334,0.7804412841796875,-0.411865234375,-0.798614501953125
181335,0.731109619140625,-0.458984375,-0.7763671875
181336,0.666473388671875,-0.4733734130859375,-0.8180999755859375
181337,0.60382080078125,-0.4748687744140625,-0.8386077880859375
181338,0.5787506103515625,-0.4760894775390625,-0.8138275146484375
181339,0.585052490234375,-0.4714202880859375,-0.7895050048828125
181340,0.59771728515625,-0.4650115966796875,-0.7758636474609375
181341,0.6156158447265625,-0.455047607421875,-0.764129638671875
181342,0.6335296630859375,-0.4384002685546875,-0.7603912353515625
181343,0.63629150390625,-0.4162445068359375,-0.7324371337890625
181344,0.6247711181640625,-0.40045166015625,-0.6834716796875
181345,0.6093902587890625,-0.3765106201171875,-0.6366424560546875
181346,0.5818023681640625,-0.3462677001953125,-0.6014862060546875
181347,0.5423126220703125,-0.3321075439453125,-0.58685302734375
181348,0.5001220703125,-0.3233795166015625,-0.587432861328125
181349,0.4678192138671875,-0.3177947998046875,-0.6002044677734375
181350,0.4505157470703125,-0.3160247802734375,-0.6139373779296875
181351,0.4441986083984375,-0.3150177001953125,-0.6293487548828125
181352,0.444183349609375,-0.3185577392578125,-0.64349365234375
181353,0.449005126953125,-0.32098388671875,-0.6568450927734375
181354,0.46124267578125,-0.319061279296875,-0.6783905029296875
181355,0.4771728515625,-0.3196868896484375,-0.710113525390625
181356,0.498443603515625,-0.3184814453125,-0.7591705322265625
181357,0.5181732177734375,-0.3143463134765625,-0.7919921875
181358,0.5322113037109375,-0.2998809814453125,-0.8170166015625
181359,0.548980712890625,-0.2820892333984375,-0.8236846923828125
181360,0.5449981689453125,-0.2451171875,-0.8155059814453125
181361,0.5266265869140625,-0.1982269287109375,-0.8154144287109375
181362,0.50469970703125,-0.1569366455078125,-0.8175811767578125
181363,0.4742431640625,-0.1399383544921875,-0.8135223388671875
181364,0.4421234130859375,-0.137420654296875,-0.826019287109375
181365,0.4034576416015625,-0.14178466796875,-0.857086181640625
181366,0.35455322265625,-0.1571044921875,-0.8887786865234375
181367,0.3090667724609375,-0.1759796142578125,-0.9243621826171876
181368,0.2761077880859375,-0.1778106689453125,-0.978363037109375
181369,0.2464752197265625,-0.175933837890625,-1.01666259765625
181370,0.218994140625,-0.1672210693359375,-1.026199340820312
181371,0.1997833251953125,-0.15057373046875,-1.027328491210938
181372,0.1749114990234375,-0.1352081298828125,-1.016983032226562
181373,0.1429901123046875,-0.1157684326171875,-1.004318237304688
181374,0.113189697265625,-0.1121826171875,-0.99755859375
181375,0.0867462158203125,-0.1192169189453125,-0.983856201171875
181376,0.0671844482421875,-0.11895751953125,-0.9658203125
181377,0.0603179931640625,-0.1162261962890625,-0.9461517333984376
181378,0.0657501220703125,-0.119842529296875,-0.9254150390625
181379,0.0846099853515625,-0.1286163330078125,-0.912445068359375
181380,0.1101531982421875,-0.1480255126953125,-0.915863037109375
181381,0.1426849365234375,-0.17169189453125,-0.9308624267578124
181382,0.1854705810546875,-0.187896728515625,-0.9501190185546876
181383,0.250762939453125,-0.203460693359375,-0.97760009765625
181384,0.3264923095703125,-0.222686767578125,-0.9973297119140624
181385,0.402099609375,-0.233978271484375,-1.002227783203125
181386,0.46734619140625,-0.2346038818359375,-1.001022338867188
181387,0.5279998779296875,-0.2266998291015625,-0.9958648681640624
181388,0.5766143798828125,-0.22125244140625,-0.96881103515625
181389,0.608062744140625,-0.2083740234375,-0.922149658203125
181390,0.620147705078125,-0.2034912109375,-0.8776702880859375
181391,0.650543212890625,-0.189178466796875,-0.7714385986328125
181392,0.6187286376953125,-0.209869384765625,-0.6993408203125
181393,0.561370849609375,-0.254119873046875,-0.6838531494140625
181394,0.51202392578125,-0.3040771484375,-0.70025634765625
181395,0.47601318359375,-0.3501129150390625,-0.7242431640625
181396,0.4531097412109375,-0.4022064208984375,-0.7440643310546875
181397,0.452880859375,-0.46112060546875,-0.78887939453125
181398,0.459716796875,-0.5114288330078125,-0.8023223876953125
181399,0.4766082763671875,-0.5651702880859375,-0.828094482421875
181400,0.48980712890625,-0.616424560546875,-0.8619384765625
181401,0.4967193603515625,-0.654266357421875,-0.8817901611328125
181402,0.50201416015625,-0.676605224609375,-0.8970794677734375
181403,0.503662109375,-0.6773834228515625,-0.89605712890625
181404,0.499359130859375,-0.66937255859375,-0.880218505859375
181405,0.50079345703125,-0.64910888671875,-0.86920166015625
181406,0.5082855224609375,-0.6080169677734375,-0.8777618408203125
181407,0.5169830322265625,-0.5761260986328125,-0.8555908203125
181408,0.5258026123046875,-0.5652313232421875,-0.78790283203125
181409,0.544647216796875,-0.5436248779296875,-0.7380218505859375
181410,0.5602569580078125,-0.5165557861328125,-0.70367431640625
181411,0.555450439453125,-0.4796905517578125,-0.6695556640625
181412,0.4804534912109375,-0.3992156982421875,-0.63311767578125
181413,0.5239410400390625,-0.4370269775390625,-0.647186279296875
181414,0.446807861328125,-0.3734893798828125,-0.6266937255859375
181415,0.4336090087890625,-0.35980224609375,-0.6346893310546875
181416,0.4370574951171875,-0.3543853759765625,-0.6492156982421875
181417,0.455291748046875,-0.352783203125,-0.6651153564453125
181418,0.4858856201171875,-0.349151611328125,-0.6931304931640625
181419,0.503448486328125,-0.351287841796875,-0.6552581787109375
181420,0.51129150390625,-0.35369873046875,-0.6225128173828125
181421,0.5171966552734375,-0.3280792236328125,-0.6620025634765625
181422,0.52056884765625,-0.30548095703125,-0.689849853515625
181423,0.5310516357421875,-0.3046875,-0.7017669677734375
181424,0.531829833984375,-0.321075439453125,-0.697479248046875
181425,0.5318756103515625,-0.345489501953125,-0.70574951171875
181426,0.53302001953125,-0.385894775390625,-0.74237060546875
181427,0.5262451171875,-0.448211669921875,-0.8113861083984375
181428,0.5009918212890625,-0.4883575439453125,-0.8926544189453125
181429,0.46197509765625,-0.4902496337890625,-0.962432861328125
181430,0.4244232177734375,-0.4732818603515625,-1.000808715820312
181431,0.4051361083984375,-0.453033447265625,-1.005691528320312
181432,0.387359619140625,-0.432647705078125,-0.9904937744140624
181433,0.3514404296875,-0.4163360595703125,-0.9709320068359376
181434,0.3213653564453125,-0.3695831298828125,-0.9592132568359376
181435,0.28936767578125,-0.32470703125,-0.963592529296875
181436,0.25335693359375,-0.2814788818359375,-0.970977783203125
181437,0.221466064453125,-0.244171142578125,-0.975006103515625
181438,0.1776123046875,-0.218048095703125,-0.9775238037109376
181439,0.13299560546875,-0.195220947265625,-0.986602783203125
181440,0.08782958984375,-0.1773681640625,-1.004608154296875
181441,0.041961669921875,-0.16143798828125,-1.023773193359375
181442,0.010284423828125,-0.1425323486328125,-1.032516479492188
181443,-0.011474609375,-0.1196746826171875,-1.02691650390625
181444,-0.023101806640625,-0.095794677734375,-1.013290405273438
181445,-0.032257080078125,-0.0743865966796875,-0.9698944091796876
181446,-0.0301513671875,-0.058013916015625,-0.92938232421875
181447,-0.02325439453125,-0.0460357666015625,-0.901397705078125
181448,-0.0005035400390625,-0.0443115234375,-0.894683837890625
181449,0.049346923828125,-0.061798095703125,-0.9150848388671876
181450,0.10858154296875,-0.1090240478515625,-0.9402008056640624
181451,0.1763153076171875,-0.1715850830078125,-0.960784912109375
181452,0.2977447509765625,-0.311798095703125,-1.026016235351562
181453,0.2459564208984375,-0.23651123046875,-0.998748779296875
181454,0.3485107421875,-0.3806610107421875,-1.050689697265625
181455,0.3888397216796875,-0.429290771484375,-1.078506469726562
181456,0.41748046875,-0.4569091796875,-1.079269409179688
181457,0.425384521484375,-0.4439849853515625,-1.043838500976562
181458,0.3892669677734375,-0.4935150146484375,-0.9951019287109376
181459,0.3521575927734375,-0.4827728271484375,-0.950836181640625
181460,0.34197998046875,-0.4073944091796875,-0.9431915283203124
181461,0.34600830078125,-0.3396148681640625,-0.959228515625
181462,0.344207763671875,-0.3188629150390625,-0.9519805908203124
181463,0.353973388671875,-0.3217926025390625,-0.9196929931640624
181464,0.392913818359375,-0.3258819580078125,-0.9022674560546876
181465,0.45025634765625,-0.319427490234375,-0.9371490478515624
181466,0.52001953125,-0.320770263671875,-0.9795379638671876
181467,0.59820556640625,-0.334808349609375,-0.9835662841796876
181468,0.678131103515625,-0.356964111328125,-0.9618072509765624
181469,0.755584716796875,-0.3695068359375,-0.9197845458984376
181470,0.820526123046875,-0.3809967041015625,-0.85369873046875
181471,0.853302001953125,-0.3926239013671875,-0.7784271240234375
181472,0.8505401611328125,-0.407562255859375,-0.71905517578125
181473,0.8069000244140625,-0.426239013671875,-0.6643218994140625
181474,0.7572021484375,-0.4408416748046875,-0.627685546875
181475,0.7071685791015625,-0.4560089111328125,-0.60113525390625
181476,0.6491851806640625,-0.471893310546875,-0.5831756591796875
181477,0.60345458984375,-0.4745635986328125,-0.5819091796875
181478,0.541229248046875,-0.506317138671875,-0.5922698974609375
181479,0.5351409912109375,-0.4850616455078125,-0.6356353759765625
181480,0.5652618408203125,-0.4459381103515625,-0.654388427734375
181481,0.5854034423828125,-0.4359893798828125,-0.6390228271484375
181482,0.572265625,-0.445526123046875,-0.62158203125
181483,0.5363311767578125,-0.4612579345703125,-0.6374053955078125
181484,0.516326904296875,-0.459808349609375,-0.6695709228515625
181485,0.5183258056640625,-0.47601318359375,-0.697113037109375
181486,0.544158935546875,-0.4572296142578125,-0.708038330078125
181487,0.5719451904296875,-0.4118804931640625,-0.6989288330078125
181488,0.5992279052734375,-0.3936309814453125,-0.7147369384765625
181489,0.5962066650390625,-0.3907470703125,-0.727294921875
181490,0.5950775146484375,-0.362762451171875,-0.7779388427734375
181491,0.5980377197265625,-0.321746826171875,-0.7986297607421875
181492,0.5924835205078125,-0.3009033203125,-0.8055572509765625
181493,0.5852203369140625,-0.2837677001953125,-0.81549072265625
181494,0.545745849609375,-0.26202392578125,-0.737213134765625
181495,0.53436279296875,-0.2468109130859375,-0.7513580322265625
181496,0.4917144775390625,-0.2265472412109375,-0.8114471435546875
181497,0.448638916015625,-0.21234130859375,-0.81597900390625
181498,0.4169921875,-0.1938629150390625,-0.7911529541015625
181499,0.384124755859375,-0.1728668212890625,-0.7709808349609375
181500,0.35284423828125,-0.14691162109375,-0.7984466552734375
181501,0.333831787109375,-0.1142578125,-0.850799560546875
181502,0.31915283203125,-0.1074676513671875,-0.861114501953125
181503,0.2927093505859375,-0.0977783203125,-0.8736724853515625
181504,0.251190185546875,-0.0835113525390625,-0.9268035888671876
181505,0.231597900390625,-0.0473175048828125,-0.9756317138671876
181506,0.2054901123046875,0.007415771484375,-1.037887573242188
181507,0.1562652587890625,-0.03509521484375,-1.022018432617188
181508,0.125030517578125,-0.0405731201171875,-1.000640869140625
181509,0.11083984375,-0.0189361572265625,-0.994964599609375
181510,0.058990478515625,-0.0652923583984375,-1.004364013671875
181511,0.0140838623046875,-0.0931549072265625,-0.97528076171875
181512,-0.003448486328125,-0.071044921875,-0.9304656982421876
181513,-0.0305328369140625,-0.0724639892578125,-0.9166107177734376
181514,-0.0399017333984375,-0.0998992919921875,-0.8899078369140625
181515,-0.0363006591796875,-0.1202239990234375,-0.8858184814453125
181516,-0.001617431640625,-0.125518798828125,-0.906158447265625
181517,0.043975830078125,-0.1180572509765625,-0.93792724609375
181518,0.10650634765625,-0.10906982421875,-0.96954345703125
181519,0.1858978271484375,-0.1175689697265625,-1.009979248046875
181520,0.2776031494140625,-0.1222686767578125,-1.0465087890625
181521,0.3739471435546875,-0.1202239990234375,-1.068359375
181522,0.4639129638671875,-0.1208343505859375,-1.064682006835938
181523,0.5452880859375,-0.113739013671875,-1.047866821289062
181524,0.6134490966796875,-0.108642578125,-1.020858764648438
181525,0.664398193359375,-0.1067352294921875,-0.9873504638671876
181526,0.695770263671875,-0.1087493896484375,-0.931671142578125
181527,0.6952056884765625,-0.138946533203125,-0.8497314453125
181528,0.66412353515625,-0.209381103515625,-0.77301025390625
181529,0.611785888671875,-0.2818450927734375,-0.71954345703125
181530,0.5632476806640625,-0.3304901123046875,-0.736572265625
181531,0.5152740478515625,-0.369537353515625,-0.7933807373046875
181532,0.4790496826171875,-0.4082183837890625,-0.83477783203125
181533,0.45562744140625,-0.4576873779296875,-0.8674468994140625
181534,0.4523773193359375,-0.51422119140625,-0.9026031494140624
181535,0.48480224609375,-0.5701446533203125,-0.9340972900390624
181536,0.5362396240234375,-0.63409423828125,-0.945037841796875
181537,0.5842742919921875,-0.67626953125,-0.923583984375
181538,0.615631103515625,-0.683746337890625,-0.8840179443359375
181539,0.629638671875,-0.669647216796875,-0.826263427734375
181540,0.6298828125,-0.6275482177734375,-0.7696990966796875
181541,0.620452880859375,-0.5834503173828125,-0.72998046875
181542,0.6141204833984375,-0.5567474365234375,-0.697174072265625
181543,0.60400390625,-0.550567626953125,-0.676727294921875
181544,0.5953216552734375,-0.5568389892578125,-0.6838531494140625
181545,0.5913848876953125,-0.559326171875,-0.70538330078125
181546,0.5731658935546875,-0.5404205322265625,-0.7158050537109375
181547,0.5440826416015625,-0.4983978271484375,-0.713165283203125
181548,0.4989776611328125,-0.4491424560546875,-0.693359375
181549,0.4528045654296875,-0.410400390625,-0.6776123046875
181550,0.42633056640625,-0.375091552734375,-0.671356201171875
181551,0.425048828125,-0.3439483642578125,-0.65301513671875
181552,0.4428253173828125,-0.3206787109375,-0.6269378662109375
181553,0.4625244140625,-0.3018798828125,-0.6027374267578125
181554,0.4793701171875,-0.2775421142578125,-0.5991363525390625
181555,0.485992431640625,-0.25445556640625,-0.609405517578125
181556,0.4852447509765625,-0.258148193359375,-0.6050262451171875
181557,0.491485595703125,-0.267578125,-0.6204833984375
181558,0.50189208984375,-0.2805938720703125,-0.65008544921875
181559,0.5124359130859375,-0.2986907958984375,-0.6905975341796875
181560,0.5145111083984375,-0.341949462890625,-0.7275390625
181561,0.5111846923828125,-0.4093017578125,-0.7637786865234375
181562,0.508514404296875,-0.4725341796875,-0.8245086669921875
181563,0.49212646484375,-0.5039520263671875,-0.89239501953125
181564,0.4618072509765625,-0.5174560546875,-0.95263671875
181565,0.4354095458984375,-0.5305938720703125,-0.98876953125
181566,0.412261962890625,-0.513580322265625,-0.984832763671875
181567,0.3953857421875,-0.4815673828125,-0.955230712890625
181568,0.387786865234375,-0.449188232421875,-0.9240264892578124
181569,0.3760528564453125,-0.43292236328125,-0.909149169921875
181570,0.355926513671875,-0.4025726318359375,-0.9030303955078124
181571,0.330810546875,-0.3751068115234375,-0.9048004150390624
181572,0.302520751953125,-0.3578338623046875,-0.916046142578125
181573,0.2823486328125,-0.3195953369140625,-0.9320068359375
181574,0.2561187744140625,-0.2887725830078125,-0.94305419921875
181575,0.2341766357421875,-0.24407958984375,-0.9549560546875
181576,0.2038116455078125,-0.2112579345703125,-0.98321533203125
181577,0.165283203125,-0.1838531494140625,-1.019393920898438
181578,0.1267242431640625,-0.159912109375,-1.053634643554688
181579,0.0889892578125,-0.1406097412109375,-1.060821533203125
181580,0.058197021484375,-0.122039794921875,-1.026046752929688
181581,0.0265350341796875,-0.100250244140625,-0.9679107666015624
181582,0.0033416748046875,-0.0908203125,-0.910064697265625
181583,-0.025238037109375,-0.0687408447265625,-0.869476318359375
181584,-0.0413970947265625,-0.045379638671875,-0.904266357421875
181585,-0.0309906005859375,-0.0363922119140625,-0.9264678955078124
181586,-0.001617431640625,-0.0442047119140625,-0.9254608154296876
181587,0.04107666015625,-0.0750274658203125,-0.93096923828125
181588,0.09320068359375,-0.13555908203125,-0.948333740234375
181589,0.157867431640625,-0.210968017578125,-0.954803466796875
181590,0.23175048828125,-0.278167724609375,-0.979217529296875
181591,0.2918548583984375,-0.34954833984375,-1.012985229492188
181592,0.339691162109375,-0.393829345703125,-1.049942016601562
181593,0.3675079345703125,-0.45733642578125,-1.0758056640625
181594,0.3911590576171875,-0.47210693359375,-1.060501098632812
181595,0.415191650390625,-0.4374237060546875,-0.99951171875
181596,0.424163818359375,-0.3996124267578125,-0.941162109375
181597,0.4114227294921875,-0.3710174560546875,-0.9075775146484376
181598,0.390045166015625,-0.340545654296875,-0.8925628662109375
181599,0.3734588623046875,-0.3246307373046875,-0.8889617919921875
181600,0.3735198974609375,-0.3300628662109375,-0.8848114013671875
181601,0.382904052734375,-0.3545989990234375,-0.887664794921875
181602,0.4092559814453125,-0.3745574951171875,-0.9173431396484376
181603,0.457672119140625,-0.3845062255859375,-0.96307373046875
181604,0.5176239013671875,-0.3874969482421875,-0.99005126953125
181605,0.598388671875,-0.383819580078125,-0.99920654296875
181606,0.6826171875,-0.376495361328125,-0.9807586669921876
181607,0.7531585693359375,-0.3669891357421875,-0.9376678466796876
181608,0.7987823486328125,-0.3656768798828125,-0.885650634765625
181609,0.8005828857421875,-0.393096923828125,-0.8111572265625
181610,0.766693115234375,-0.4391632080078125,-0.746917724609375
181611,0.732757568359375,-0.45648193359375,-0.725372314453125
181612,0.69482421875,-0.469818115234375,-0.7344207763671875
181613,0.6472930908203125,-0.4871826171875,-0.7325897216796875
181614,0.6096038818359375,-0.5039520263671875,-0.7241973876953125
181615,0.591583251953125,-0.519195556640625,-0.71990966796875
181616,0.578826904296875,-0.542510986328125,-0.700286865234375
181617,0.57867431640625,-0.5576934814453125,-0.6739044189453125
181618,0.5887603759765625,-0.5437774658203125,-0.6407318115234375
181619,0.5950775146484375,-0.5160980224609375,-0.62322998046875
181620,0.59027099609375,-0.4872894287109375,-0.5960540771484375
181621,0.57452392578125,-0.4675445556640625,-0.5659942626953125
181622,0.547607421875,-0.44342041015625,-0.5569000244140625
181623,0.524017333984375,-0.420928955078125,-0.5671539306640625
181624,0.5055084228515625,-0.39715576171875,-0.5865631103515625
181625,0.5012359619140625,-0.3763275146484375,-0.6057891845703125
181626,0.5067291259765625,-0.37261962890625,-0.6091461181640625
181627,0.5247039794921875,-0.362640380859375,-0.6241455078125
181628,0.5300750732421875,-0.36334228515625,-0.6504669189453125
181629,0.55694580078125,-0.339813232421875,-0.7091064453125
181630,0.57000732421875,-0.333831787109375,-0.7293243408203125
181631,0.549346923828125,-0.3306121826171875,-0.7628173828125
181632,0.5237579345703125,-0.317657470703125,-0.7900238037109375
181633,0.50543212890625,-0.28765869140625,-0.807159423828125
181634,0.4875946044921875,-0.24432373046875,-0.8072509765625
181635,0.45599365234375,-0.2183990478515625,-0.789764404296875
181636,0.4143218994140625,-0.197784423828125,-0.767974853515625
181637,0.3708648681640625,-0.1851043701171875,-0.7795867919921875
181638,0.340576171875,-0.18585205078125,-0.8684234619140625
181639,0.3372955322265625,-0.166412353515625,-0.965423583984375
181640,0.3082275390625,-0.1994781494140625,-0.9071197509765624
181641,0.2637176513671875,-0.243560791015625,-0.8542938232421875
181642,0.1945648193359375,-0.2440948486328125,-0.865966796875
181643,0.1313323974609375,-0.2188568115234375,-0.9309844970703124
181644,0.084564208984375,-0.181121826171875,-1.021148681640625
181645,0.05841064453125,-0.1373138427734375,-1.08966064453125
181646,0.04681396484375,-0.1046905517578125,-1.097518920898438
181647,0.0444793701171875,-0.06158447265625,-1.04766845703125
181648,0.045440673828125,-0.015838623046875,-1.001083374023438
181649,0.0206451416015625,0.0009613037109375,-0.9975433349609376
181650,0.0123291015625,0.007049560546875,-0.9727935791015624
181651,0.0215301513671875,-0.011627197265625,-0.963043212890625
181652,0.0417633056640625,-0.0328826904296875,-0.9777069091796876
181653,0.0787811279296875,-0.0620574951171875,-0.9997711181640624
181654,0.1342620849609375,-0.0980987548828125,-1.031997680664062
181655,0.21331787109375,-0.1412200927734375,-1.045440673828125
181656,0.2885284423828125,-0.1870269775390625,-1.04022216796875
181657,0.35882568359375,-0.2268829345703125,-1.050628662109375
181658,0.4235076904296875,-0.237518310546875,-1.056106567382812
181659,0.484710693359375,-0.2376251220703125,-1.05438232421875
181660,0.5487518310546875,-0.2179107666015625,-1.049713134765625
181661,0.6054229736328125,-0.186981201171875,-1.028274536132812
181662,0.652862548828125,-0.1787872314453125,-1.001937866210938
181663,0.68292236328125,-0.1892547607421875,-0.955902099609375
181664,0.68060302734375,-0.217010498046875,-0.87646484375
181665,0.6533203125,-0.2630767822265625,-0.797943115234375
181666,0.6110076904296875,-0.3041534423828125,-0.73779296875
181667,0.5641632080078125,-0.3416748046875,-0.7065277099609375
181668,0.509033203125,-0.371856689453125,-0.69525146484375
181669,0.45245361328125,-0.402496337890625,-0.693634033203125
181670,0.3979644775390625,-0.447021484375,-0.725921630859375
181671,0.3524017333984375,-0.50787353515625,-0.7844696044921875
181672,0.3236846923828125,-0.588348388671875,-0.820953369140625
181673,0.3024749755859375,-0.67254638671875,-0.8185577392578125
181674,0.309051513671875,-0.729248046875,-0.860382080078125
181675,0.3372955322265625,-0.7606201171875,-0.8992462158203125
181676,0.3713531494140625,-0.750030517578125,-0.8980255126953125
181677,0.4142303466796875,-0.7108612060546875,-0.879150390625
181678,0.4654693603515625,-0.66949462890625,-0.8497314453125
181679,0.521728515625,-0.6378326416015625,-0.8127288818359375
181680,0.566314697265625,-0.6188812255859375,-0.7706298828125
181681,0.5957183837890625,-0.60040283203125,-0.7334136962890625
181682,0.617279052734375,-0.582244873046875,-0.682281494140625
181683,0.622100830078125,-0.556427001953125,-0.63568115234375
181684,0.60577392578125,-0.5134429931640625,-0.5970306396484375
181685,0.571746826171875,-0.455352783203125,-0.567718505859375
181686,0.5391082763671875,-0.403839111328125,-0.565277099609375
181687,0.534332275390625,-0.36651611328125,-0.57757568359375
181688,0.554595947265625,-0.339630126953125,-0.58349609375
181689,0.577301025390625,-0.3229217529296875,-0.5769805908203125
181690,0.5940399169921875,-0.31268310546875,-0.5900726318359375
181691,0.5942535400390625,-0.307891845703125,-0.5770721435546875
181692,0.5843963623046875,-0.3006439208984375,-0.5641021728515625
181693,0.57611083984375,-0.283721923828125,-0.5739288330078125
181694,0.561676025390625,-0.2729644775390625,-0.5834197998046875
181695,0.5529327392578125,-0.2807464599609375,-0.600494384765625
181696,0.5448150634765625,-0.315032958984375,-0.63580322265625
181697,0.53271484375,-0.3813629150390625,-0.6963653564453125
181698,0.507537841796875,-0.4535064697265625,-0.78167724609375
181699,0.48974609375,-0.50555419921875,-0.88427734375
181700,0.4532470703125,-0.5420684814453125,-0.9014739990234376
181701,0.4339599609375,-0.591705322265625,-1.031494140625
181702,0.413238525390625,-0.573577880859375,-1.091964721679688
181703,0.3994140625,-0.5441741943359375,-1.05291748046875
181704,0.3842010498046875,-0.489227294921875,-1.009628295898438
181705,0.3629150390625,-0.4254302978515625,-0.98199462890625
181706,0.34027099609375,-0.376678466796875,-0.9749603271484376
181707,0.3045196533203125,-0.3381805419921875,-0.9578704833984376
181708,0.27117919921875,-0.304473876953125,-0.9435272216796876
181709,0.2394561767578125,-0.2779388427734375,-0.920867919921875
181710,0.2110748291015625,-0.252593994140625,-0.90057373046875
181711,0.1820831298828125,-0.2251739501953125,-0.8939056396484375
181712,0.148651123046875,-0.1978912353515625,-0.9174652099609376
181713,0.1195526123046875,-0.1707305908203125,-0.95672607421875
181714,0.0974578857421875,-0.1438140869140625,-0.9911956787109376
181715,0.0743560791015625,-0.1248016357421875,-1.014663696289062
181716,0.04608154296875,-0.1080322265625,-0.9990081787109376
181717,0.0193023681640625,-0.0995330810546875,-0.960784912109375
181718,-0.0090484619140625,-0.0922698974609375,-0.932220458984375
181719,-0.030975341796875,-0.0768890380859375,-0.9010772705078124
181720,-0.0283660888671875,-0.0598907470703125,-0.882293701171875
181721,-0.02001953125,-0.0413665771484375,-0.8488616943359375
181722,-0.0067138671875,-0.03057861328125,-0.853485107421875
181723,0.02374267578125,-0.0446929931640625,-0.8948211669921875
181724,0.0674896240234375,-0.0811920166015625,-0.939910888671875
181725,0.1228179931640625,-0.1380157470703125,-0.992584228515625
181726,0.1868743896484375,-0.2168426513671875,-1.042648315429688
181727,0.2579193115234375,-0.3099517822265625,-1.069625854492188
181728,0.33404541015625,-0.38763427734375,-1.090805053710938
181729,0.402984619140625,-0.44879150390625,-1.099395751953125
181730,0.439697265625,-0.486541748046875,-1.067626953125
181731,0.444610595703125,-0.4955596923828125,-1.045379638671875
181732,0.4329071044921875,-0.4838104248046875,-1.019729614257812
181733,0.424713134765625,-0.4460906982421875,-0.997589111328125
181734,0.4165496826171875,-0.38616943359375,-0.9930419921875
181735,0.394561767578125,-0.3389129638671875,-0.98565673828125
181736,0.37017822265625,-0.325897216796875,-0.948150634765625
181737,0.36688232421875,-0.331787109375,-0.92138671875
181738,0.3814849853515625,-0.345184326171875,-0.9209442138671876
181739,0.4198150634765625,-0.3513946533203125,-0.9413299560546876
181740,0.474273681640625,-0.3453369140625,-0.970855712890625
181741,0.5378875732421875,-0.34454345703125,-0.9882354736328124
181742,0.6062164306640625,-0.340606689453125,-0.9628448486328124
181743,0.682403564453125,-0.338043212890625,-0.98529052734375
181744,0.74798583984375,-0.350921630859375,-0.943359375
181745,0.785675048828125,-0.3702392578125,-0.8739166259765625
181746,0.7881011962890625,-0.3964996337890625,-0.7978973388671875
181747,0.7721099853515625,-0.4092254638671875,-0.7331390380859375
181748,0.74493408203125,-0.41717529296875,-0.69952392578125
181749,0.7281036376953125,-0.4243011474609375,-0.693603515625
181750,0.7138519287109375,-0.4307403564453125,-0.685577392578125
181751,0.687896728515625,-0.45111083984375,-0.6522979736328125
181752,0.65374755859375,-0.4697265625,-0.6112518310546875
181753,0.6097869873046875,-0.4745330810546875,-0.60577392578125
181754,0.571868896484375,-0.4473724365234375,-0.6303558349609375
181755,0.5477142333984375,-0.4019622802734375,-0.6614532470703125
181756,0.5323638916015625,-0.37091064453125,-0.6893768310546875
181757,0.514556884765625,-0.362213134765625,-0.696746826171875
181758,0.5004425048828125,-0.36431884765625,-0.6988525390625
181759,0.49957275390625,-0.3640594482421875,-0.7046661376953125
181760,0.5108184814453125,-0.3513031005859375,-0.706695556640625
181761,0.5204620361328125,-0.334136962890625,-0.68804931640625
181762,0.528717041015625,-0.3154754638671875,-0.6701507568359375
181763,0.5289459228515625,-0.308197021484375,-0.668914794921875
181764,0.520477294921875,-0.3079681396484375,-0.6939239501953125
181765,0.511077880859375,-0.31219482421875,-0.737152099609375
181766,0.51416015625,-0.310089111328125,-0.7907257080078125
181767,0.5140838623046875,-0.331756591796875,-0.8327178955078125
181768,0.5272674560546875,-0.3247222900390625,-0.8564910888671875
181769,0.540924072265625,-0.30450439453125,-0.844512939453125
181770,0.5398101806640625,-0.2835693359375,-0.8141632080078125
181771,0.5278167724609375,-0.257354736328125,-0.780303955078125
181772,0.508087158203125,-0.2132568359375,-0.75799560546875
181773,0.480255126953125,-0.173614501953125,-0.7591552734375
181774,0.446258544921875,-0.136138916015625,-0.77569580078125
181775,0.410491943359375,-0.1073150634765625,-0.8010711669921875
181776,0.3718414306640625,-0.0861968994140625,-0.8361053466796875
181777,0.33380126953125,-0.0841827392578125,-0.8553314208984375
181778,0.295135498046875,-0.084197998046875,-0.8617095947265625
181779,0.246337890625,-0.092529296875,-0.865081787109375
181780,0.193603515625,-0.0997772216796875,-0.8813018798828125
181781,0.142608642578125,-0.0943450927734375,-0.892608642578125
181782,0.110809326171875,-0.083404541015625,-0.9150543212890624
181783,0.0819244384765625,-0.08734130859375,-0.9378204345703124
181784,0.05584716796875,-0.0792388916015625,-0.9521484375
181785,0.027862548828125,-0.0623626708984375,-0.9638671875
181786,0.006103515625,-0.045806884765625,-0.9775848388671876
181787,-0.0113677978515625,-0.0303497314453125,-0.9796295166015624
181788,-0.0225982666015625,-0.0370025634765625,-0.980865478515625
181789,-0.0144500732421875,-0.060699462890625,-1.0006103515625
181790,0.021240234375,-0.071258544921875,-1.042266845703125
181791,0.072967529296875,-0.0936737060546875,-1.069168090820312
181792,0.1610107421875,-0.1136016845703125,-1.13079833984375
181793,0.24609375,-0.1328887939453125,-1.16217041015625
181794,0.3281097412109375,-0.1602935791015625,-1.16412353515625
181795,0.412200927734375,-0.162261962890625,-1.178909301757812
181796,0.493408203125,-0.142486572265625,-1.18048095703125
181797,0.5631103515625,-0.118438720703125,-1.145523071289062
181798,0.6131591796875,-0.1076812744140625,-1.087646484375
181799,0.65277099609375,-0.089202880859375,-1.050094604492188
181800,0.7066802978515625,-0.082672119140625,-0.930450439453125
181801,0.6786651611328125,-0.1115875244140625,-0.8442535400390625
181802,0.63177490234375,-0.15704345703125,-0.7580108642578125
181803,0.5665435791015625,-0.2210235595703125,-0.7037200927734375
181804,0.5130462646484375,-0.26409912109375,-0.6902923583984375
181805,0.4857635498046875,-0.3109588623046875,-0.7131500244140625
181806,0.4780120849609375,-0.3613128662109375,-0.7295379638671875
181807,0.478912353515625,-0.42205810546875,-0.743194580078125
181808,0.4700469970703125,-0.48187255859375,-0.7702484130859375
181809,0.4621429443359375,-0.537933349609375,-0.803680419921875
181810,0.452728271484375,-0.58966064453125,-0.8398895263671875
181811,0.446563720703125,-0.635589599609375,-0.8629913330078125
181812,0.4564971923828125,-0.6710968017578125,-0.87457275390625
181813,0.475677490234375,-0.69268798828125,-0.86248779296875
181814,0.49365234375,-0.69537353515625,-0.83209228515625
181815,0.5085906982421875,-0.6696929931640625,-0.812225341796875
181816,0.5250244140625,-0.619110107421875,-0.798095703125
181817,0.5363616943359375,-0.5560150146484375,-0.774810791015625
181818,0.5447845458984375,-0.5193634033203125,-0.7201995849609375
181819,0.554412841796875,-0.5052642822265625,-0.637542724609375
181820,0.5573577880859375,-0.477691650390625,-0.583404541015625
181821,0.54803466796875,-0.4337005615234375,-0.568817138671875
181822,0.5128326416015625,-0.4039306640625,-0.53887939453125
181823,0.4739532470703125,-0.380157470703125,-0.512908935546875
181824,0.4622955322265625,-0.3432769775390625,-0.5556488037109375
181825,0.4784088134765625,-0.318359375,-0.62017822265625
181826,0.504547119140625,-0.3155517578125,-0.648712158203125
181827,0.52813720703125,-0.314849853515625,-0.6557159423828125
181828,0.5356292724609375,-0.304473876953125,-0.6640625
181829,0.5204010009765625,-0.3141632080078125,-0.6709136962890625
181830,0.496063232421875,-0.3299560546875,-0.6864013671875
181831,0.48480224609375,-0.3369598388671875,-0.727508544921875
181832,0.4945526123046875,-0.333770751953125,-0.7753753662109375
181833,0.4991607666015625,-0.340301513671875,-0.8065032958984375
181834,0.5007781982421875,-0.3742523193359375,-0.8241729736328125
181835,0.5057830810546875,-0.431854248046875,-0.8503570556640625
181836,0.5133514404296875,-0.486541748046875,-0.8934783935546875
181837,0.5138397216796875,-0.5168304443359375,-0.9394989013671876
181838,0.50604248046875,-0.5249481201171875,-0.97869873046875
181839,0.482513427734375,-0.5145721435546875,-0.9846954345703124
181840,0.455657958984375,-0.48492431640625,-0.96795654296875
181841,0.423126220703125,-0.454498291015625,-0.955413818359375
181842,0.401519775390625,-0.4108123779296875,-0.952850341796875
181843,0.3817291259765625,-0.4002685546875,-0.9529571533203124
181844,0.35400390625,-0.3922882080078125,-0.96209716796875
181845,0.330474853515625,-0.372100830078125,-0.9605865478515624
181846,0.3100738525390625,-0.3411712646484375,-0.9600830078125
181847,0.284027099609375,-0.296905517578125,-0.936431884765625
181848,0.2632293701171875,-0.2387237548828125,-0.9035491943359376
181849,0.2445831298828125,-0.18450927734375,-0.8905792236328125
181850,0.209716796875,-0.1349334716796875,-0.8762054443359375
181851,0.1643524169921875,-0.101593017578125,-0.895843505859375
181852,0.1261749267578125,-0.066925048828125,-0.944732666015625
181853,0.090240478515625,-0.0544586181640625,-0.957061767578125
181854,0.0630340576171875,-0.04339599609375,-0.993743896484375
181855,0.0458221435546875,-0.0277099609375,-0.990570068359375
181856,0.0251312255859375,-0.02685546875,-0.968963623046875
181857,0.011749267578125,-0.026153564453125,-0.941253662109375
181858,0.006500244140625,-0.011474609375,-0.9468994140625
181859,0.02392578125,-0.0127716064453125,-0.979888916015625
181860,0.0496368408203125,-0.06317138671875,-0.9745330810546876
181861,0.079681396484375,-0.1096649169921875,-0.9622650146484376
181862,0.13714599609375,-0.1663055419921875,-1.024215698242188
181863,0.20977783203125,-0.231689453125,-1.03289794921875
181864,0.27679443359375,-0.2894744873046875,-1.029022216796875
181865,0.3303070068359375,-0.3452301025390625,-1.026260375976562
181866,0.3850860595703125,-0.3311004638671875,-1.029266357421875
181867,0.3919525146484375,-0.4261322021484375,-1.02978515625
181868,0.3905181884765625,-0.4542083740234375,-0.9737396240234376
181869,0.3997039794921875,-0.4312896728515625,-0.948272705078125
181870,0.3942413330078125,-0.4008941650390625,-0.941314697265625
181871,0.3926239013671875,-0.36669921875,-0.914215087890625
181872,0.3802032470703125,-0.3357696533203125,-0.873779296875
181873,0.3724365234375,-0.2959442138671875,-0.859283447265625
181874,0.3627471923828125,-0.2554168701171875,-0.847869873046875
181875,0.35211181640625,-0.2422027587890625,-0.8197479248046875
181876,0.3545684814453125,-0.2450408935546875,-0.78466796875
181877,0.379486083984375,-0.245361328125,-0.7728424072265625
181878,0.4252777099609375,-0.2413482666015625,-0.7916107177734375
181879,0.478607177734375,-0.24908447265625,-0.81591796875
181880,0.5379486083984375,-0.2826995849609375,-0.8552398681640625
181881,0.6002349853515625,-0.3226165771484375,-0.912689208984375
181882,0.662261962890625,-0.380096435546875,-0.9456939697265624
181883,0.70916748046875,-0.4364776611328125,-0.9284210205078124
181884,0.7327423095703125,-0.4871673583984375,-0.8912811279296875
181885,0.7281036376953125,-0.5059051513671875,-0.868194580078125
181886,0.6947784423828125,-0.510772705078125,-0.8432159423828125
181887,0.6458282470703125,-0.5169830322265625,-0.8246307373046875
181888,0.609344482421875,-0.515350341796875,-0.8322296142578125
181889,0.5868377685546875,-0.5197601318359375,-0.8485260009765625
181890,0.5811767578125,-0.5314178466796875,-0.85382080078125
181891,0.5829925537109375,-0.52899169921875,-0.8392791748046875
181892,0.59356689453125,-0.51068115234375,-0.776641845703125
181893,0.6056060791015625,-0.481689453125,-0.710235595703125
181894,0.6135101318359375,-0.4360504150390625,-0.66412353515625
181895,0.6038360595703125,-0.395843505859375,-0.6303253173828125
181896,0.5808868408203125,-0.368682861328125,-0.61566162109375
181897,0.5528717041015625,-0.349365234375,-0.6072540283203125
181898,0.5161590576171875,-0.3387451171875,-0.6037139892578125
181899,0.4807891845703125,-0.3343963623046875,-0.611907958984375
181900,0.4595794677734375,-0.3325347900390625,-0.61846923828125
181901,0.4482421875,-0.329833984375,-0.6133270263671875
181902,0.439849853515625,-0.3212127685546875,-0.611480712890625
