time_idx,accelerometerAccelerationX(G),accelerometerAccelerationY(G),accelerometerAccelerationZ(G)
80000,-0.013336181640625,0.0839080810546875,0.387664794921875
80001,0.0480499267578125,0.0483551025390625,0.3525848388671875
80002,0.0759429931640625,-0.006988525390625,0.316558837890625
80003,0.0252227783203125,-0.0055084228515625,0.2447052001953125
80004,-0.053619384765625,0.0298919677734375,0.236236572265625
80005,-0.1071014404296875,0.04766845703125,0.3016357421875
80006,-0.109527587890625,0.057861328125,0.3337860107421875
80007,-0.1076507568359375,0.1154327392578125,0.2645111083984375
80008,-0.1172943115234375,0.20513916015625,0.1711883544921875
80009,-0.113983154296875,0.295074462890625,0.1586151123046875
80010,-0.0503387451171875,0.3985748291015625,0.1834564208984375
80011,0.065155029296875,0.400634765625,0.2118072509765625
80012,0.180816650390625,0.312103271484375,0.240386962890625
80013,0.2514801025390625,0.2648468017578125,0.35345458984375
80014,0.2890472412109375,0.2795257568359375,0.593597412109375
80015,0.3318939208984375,0.299957275390625,0.849945068359375
80016,0.409271240234375,0.36370849609375,1.011688232421875
80017,0.5299530029296875,0.49652099609375,1.07879638671875
80018,0.76983642578125,0.5756378173828125,1.209640502929688
80019,1.169525146484375,0.455810546875,1.515533447265625
80020,1.1995849609375,0.5768280029296875,1.699172973632812
80021,1.294891357421875,0.99383544921875,1.671905517578125
80022,1.546218872070312,1.246185302734375,1.716812133789062
80023,1.71856689453125,1.258148193359375,1.9659423828125
80024,1.723388671875,1.22674560546875,2.049530029296875
80025,1.553237915039062,1.206649780273438,2.050857543945312
80026,1.307815551757812,1.03369140625,2.11602783203125
80027,1.108749389648438,0.8025360107421875,2.207290649414062
80028,0.9623260498046876,0.6332855224609375,2.274658203125
80029,0.8534088134765625,0.5449676513671875,2.210586547851562
80030,0.717926025390625,0.5233612060546875,2.050979614257812
80031,0.5602569580078125,0.5170745849609375,1.875442504882812
80032,0.4290924072265625,0.4969024658203125,1.778701782226562
80033,0.2908935546875,0.4395751953125,1.699066162109375
80034,0.181121826171875,0.2899169921875,1.604400634765625
80035,0.0851593017578125,0.1745452880859375,1.524337768554688
80036,0.03424072265625,0.1114654541015625,1.384963989257812
80037,0.005645751953125,0.1097564697265625,1.22540283203125
80038,-0.030609130859375,0.1009521484375,1.054092407226562
80039,-0.0245208740234375,0.0823974609375,0.88018798828125
80040,0.0138397216796875,0.0342254638671875,0.693023681640625
80041,0.004486083984375,0.002655029296875,0.53131103515625
80042,-0.0737762451171875,0.017486572265625,0.3683013916015625
80043,-0.196075439453125,0.043182373046875,0.27685546875
80044,-0.331634521484375,0.088592529296875,0.22686767578125
80045,-0.3875885009765625,0.1522979736328125,0.191619873046875
80046,-0.34930419921875,0.198333740234375,0.1280975341796875
80047,-0.21923828125,0.189849853515625,0.127532958984375
80048,-0.0509185791015625,0.14013671875,0.2460479736328125
80049,0.095245361328125,0.108154296875,0.4101715087890625
80050,0.20806884765625,0.1092071533203125,0.46087646484375
80051,0.2803497314453125,0.1655120849609375,0.434326171875
80052,0.3407135009765625,0.2322845458984375,0.416900634765625
80053,0.3746185302734375,0.2494049072265625,0.4084625244140625
80054,0.3706817626953125,0.2110443115234375,0.420562744140625
80055,0.3752593994140625,0.200958251953125,0.4732513427734375
80056,0.399017333984375,0.2696990966796875,0.582916259765625
80057,0.412322998046875,0.400238037109375,0.665283203125
80058,0.4334564208984375,0.595855712890625,0.617584228515625
80059,0.488433837890625,0.8538970947265625,0.43682861328125
80060,0.5571441650390625,1.087432861328125,0.14300537109375
80061,0.7106781005859375,1.259109497070312,-0.03460693359375
80062,0.924285888671875,1.468399047851562,0.0021514892578125
80063,1.201644897460938,1.724090576171875,0.0299835205078125
80064,1.416000366210938,1.948944091796875,-0.134246826171875
80065,1.544113159179688,2.072219848632812,-0.404815673828125
80066,1.710769653320312,1.872055053710938,-0.48248291015625
80067,1.823898315429688,1.442764282226562,-0.2365264892578125
80068,1.655990600585938,1.149444580078125,0.02850341796875
80069,1.287399291992188,0.9757232666015624,0.1549835205078125
80070,1.001144409179688,0.8616943359375,0.1656951904296875
80071,0.8415374755859375,0.7288055419921875,0.139373779296875
80072,0.7429656982421875,0.5408935546875,0.0732574462890625
80073,0.6231231689453125,0.3761138916015625,-0.047119140625
80074,0.4910430908203125,0.2218170166015625,-0.119720458984375
80075,0.3884735107421875,0.071685791015625,-0.07989501953125
80076,0.3275299072265625,-0.005889892578125,0.076019287109375
80077,0.2827911376953125,-0.0304107666015625,0.2782135009765625
80078,0.220367431640625,-0.0805816650390625,0.4968719482421875
80079,0.1056671142578125,-0.099639892578125,0.6914215087890625
80080,-0.00738525390625,-0.0524139404296875,0.709259033203125
80081,-0.085784912109375,0.0830841064453125,0.630035400390625
80082,-0.0915985107421875,0.2056121826171875,0.5809173583984375
80083,-0.159820556640625,0.338043212890625,0.5086669921875
80084,-0.181671142578125,0.33941650390625,0.3677978515625
80085,-0.110809326171875,0.12701416015625,0.561920166015625
80086,0.1055908203125,-0.0839691162109375,0.710601806640625
80087,0.1103057861328125,-0.08819580078125,0.5380401611328125
80088,-0.01123046875,-0.0076141357421875,0.2897186279296875
80089,-0.0989990234375,0.0531768798828125,0.1040191650390625
80090,-0.17315673828125,0.1300506591796875,0.0105133056640625
80091,-0.188690185546875,0.19146728515625,0.02020263671875
80092,-0.15533447265625,0.21636962890625,0.1058807373046875
80093,-0.059173583984375,0.188995361328125,0.2321929931640625
80094,0.10247802734375,0.1880950927734375,0.3697662353515625
80095,0.2617950439453125,0.275634765625,0.5051116943359375
80096,0.370941162109375,0.30126953125,0.64898681640625
80097,0.4040069580078125,0.317535400390625,0.8138427734375
80098,0.462188720703125,0.4149627685546875,0.9917449951171876
80099,0.585418701171875,0.5739593505859375,1.21148681640625
80100,0.80133056640625,0.6326904296875,1.441482543945312
80101,1.115432739257812,0.606109619140625,1.690872192382812
80102,1.274307250976562,0.79583740234375,1.831207275390625
80103,1.268402099609375,1.088043212890625,1.8809814453125
80104,1.49566650390625,1.1756591796875,2.074478149414062
80105,1.659881591796875,1.09857177734375,2.247238159179688
80106,1.532302856445312,1.117218017578125,2.18865966796875
80107,1.33526611328125,1.054946899414062,2.053955078125
80108,1.168807983398438,0.84747314453125,1.98724365234375
80109,1.009597778320312,0.6461181640625,2.109359741210938
80110,0.797882080078125,0.544677734375,2.197128295898438
80111,0.583770751953125,0.536224365234375,2.130722045898438
80112,0.4397735595703125,0.548797607421875,2.007034301757812
80113,0.33624267578125,0.506103515625,1.896621704101562
80114,0.242767333984375,0.4219512939453125,1.77667236328125
80115,0.1392974853515625,0.30316162109375,1.693267822265625
80116,0.07049560546875,0.197723388671875,1.642684936523438
80117,0.0574188232421875,0.1297760009765625,1.589569091796875
80118,0.0765228271484375,0.106109619140625,1.43780517578125
80119,0.0633087158203125,0.12420654296875,1.195053100585938
80120,0.0369720458984375,0.146453857421875,0.9149322509765624
80121,-0.00408935546875,0.1795654296875,0.6973114013671875
80122,-0.0315399169921875,0.175201416015625,0.5235595703125
80123,-0.057159423828125,0.15655517578125,0.388946533203125
80124,-0.094024658203125,0.1177825927734375,0.3111114501953125
80125,-0.1718597412109375,0.0916290283203125,0.255218505859375
80126,-0.236358642578125,0.1316986083984375,0.2064208984375
80127,-0.2035369873046875,0.1799163818359375,0.1380157470703125
80128,-0.0851593017578125,0.1568603515625,0.1271209716796875
80129,0.0083465576171875,0.1292877197265625,0.2609100341796875
80130,0.0438385009765625,0.1188507080078125,0.4317474365234375
80131,0.0630950927734375,0.1215972900390625,0.5242919921875
80132,0.0957794189453125,0.1506195068359375,0.5365447998046875
80133,0.1201171875,0.1944732666015625,0.5022125244140625
80134,0.1497650146484375,0.1973419189453125,0.4584197998046875
80135,0.1912689208984375,0.2080230712890625,0.3655548095703125
80136,0.2246246337890625,0.235504150390625,0.2805328369140625
80137,0.2355804443359375,0.2909698486328125,0.239898681640625
80138,0.2437591552734375,0.380279541015625,0.2357025146484375
80139,0.269378662109375,0.4748992919921875,0.2371673583984375
80140,0.323974609375,0.6002960205078125,0.2519989013671875
80141,0.4607391357421875,0.7908782958984375,0.2547607421875
80142,0.7195892333984375,1.010513305664062,0.2277069091796875
80143,1.016510009765625,1.207061767578125,0.151336669921875
80144,1.273757934570312,1.407501220703125,0.06689453125
80145,1.42425537109375,1.612548828125,0.0196685791015625
80146,1.501922607421875,1.750717163085938,0.038299560546875
80147,1.547225952148438,1.841781616210938,0.0687255859375
80148,1.501480102539062,1.829879760742188,0.014129638671875
80149,1.303298950195312,1.70843505859375,-0.1099090576171875
80150,1.116134643554688,1.505844116210938,-0.170196533203125
80151,1.01715087890625,1.267898559570312,-0.1395721435546875
80152,0.926971435546875,1.06610107421875,-0.11004638671875
80153,0.8366851806640625,0.867919921875,-0.0879364013671875
80154,0.7557830810546875,0.657623291015625,-0.0620574951171875
80155,0.6769866943359375,0.4354095458984375,-0.034912109375
80156,0.58880615234375,0.1862640380859375,0.0489501953125
80157,0.494049072265625,0.0200958251953125,0.249298095703125
80158,0.419219970703125,0.006622314453125,0.5302734375
80159,0.36883544921875,0.1057891845703125,0.729949951171875
80160,0.3044891357421875,0.13165283203125,0.8160247802734375
80161,0.22515869140625,0.1169281005859375,0.7773590087890625
80162,0.12725830078125,0.1378326416015625,0.6386260986328125
80163,0.0265960693359375,0.1792755126953125,0.470428466796875
80164,-0.014556884765625,0.1524505615234375,0.4717559814453125
80165,-0.0085601806640625,0.086669921875,0.41400146484375
80166,-0.015106201171875,0.0147247314453125,0.286163330078125
80167,-0.0162200927734375,-0.0407562255859375,0.314483642578125
80168,-0.05157470703125,-0.06683349609375,0.444244384765625
80169,-0.1192626953125,-0.0661773681640625,0.4669342041015625
80170,-0.1543731689453125,-0.0122833251953125,0.44146728515625
80171,-0.0934906005859375,0.0863037109375,0.3524932861328125
80172,-0.02081298828125,0.135406494140625,0.1940460205078125
80173,0.0430755615234375,0.1352081298828125,0.1118621826171875
80174,0.0782623291015625,0.1368255615234375,0.178955078125
80175,0.0968170166015625,0.1484832763671875,0.209075927734375
80176,0.097900390625,0.1512298583984375,0.2494659423828125
80177,0.1016845703125,0.1466217041015625,0.2467498779296875
80178,0.126190185546875,0.1463165283203125,0.191192626953125
80179,0.1573638916015625,0.1858978271484375,0.3859710693359375
80180,0.19976806640625,0.2375335693359375,0.7790679931640625
80181,0.30194091796875,0.2647247314453125,1.071487426757812
80182,0.42779541015625,0.280029296875,1.183807373046875
80183,0.541290283203125,0.3391571044921875,1.25390625
80184,0.729644775390625,0.487518310546875,1.423553466796875
80185,1.33319091796875,0.383758544921875,1.9208984375
80186,1.517059326171875,0.3517608642578125,2.298385620117188
80187,1.520050048828125,1.047714233398438,2.085983276367188
80188,1.716018676757812,1.5947265625,2.09490966796875
80189,1.625244140625,1.474822998046875,2.306381225585938
80190,1.332870483398438,1.134307861328125,2.2686767578125
80191,1.0550537109375,0.9498291015625,2.100982666015625
80192,0.900787353515625,0.80377197265625,2.021453857421875
80193,0.8236083984375,0.612457275390625,2.084991455078125
80194,0.7668609619140625,0.480194091796875,2.04852294921875
80195,0.7089691162109375,0.4343719482421875,1.90850830078125
80196,0.585784912109375,0.3947601318359375,1.772384643554688
80197,0.4215545654296875,0.3379058837890625,1.68756103515625
80198,0.27777099609375,0.260223388671875,1.638748168945312
80199,0.1980743408203125,0.161041259765625,1.586502075195312
80200,0.1708221435546875,0.14324951171875,1.411026000976562
80201,0.1426239013671875,0.18756103515625,1.28021240234375
80202,0.1255645751953125,0.1729888916015625,1.198486328125
80203,0.1129150390625,0.127899169921875,1.082290649414062
80204,0.087310791015625,0.0891876220703125,0.9082183837890624
80205,0.0371246337890625,0.062530517578125,0.70721435546875
80206,-0.0657806396484375,0.0465240478515625,0.515106201171875
80207,-0.18572998046875,0.0443878173828125,0.3280181884765625
80208,-0.3004913330078125,0.08099365234375,0.2037811279296875
80209,-0.3574066162109375,0.1685638427734375,0.155517578125
80210,-0.3408203125,0.2226104736328125,0.1383056640625
80211,-0.2036895751953125,0.235260009765625,0.0899200439453125
80212,-0.006256103515625,0.212890625,0.0794830322265625
80213,0.157012939453125,0.21051025390625,0.2456207275390625
80214,0.2471771240234375,0.220611572265625,0.43206787109375
80215,0.2613067626953125,0.2298583984375,0.5238189697265625
80216,0.2839508056640625,0.247833251953125,0.5574188232421875
80217,0.325439453125,0.24859619140625,0.5364532470703125
80218,0.34234619140625,0.221893310546875,0.4370269775390625
80219,0.3507080078125,0.2346649169921875,0.3313140869140625
80220,0.377227783203125,0.27203369140625,0.2713470458984375
80221,0.4090118408203125,0.3289794921875,0.2650146484375
80222,0.4540252685546875,0.43145751953125,0.3042755126953125
80223,0.53802490234375,0.6439971923828125,0.3634490966796875
80224,0.6606292724609375,0.975067138671875,0.4052276611328125
80225,0.8332061767578125,1.184341430664062,0.3907928466796875
80226,1.064712524414062,1.253646850585938,0.4373931884765625
80227,1.227813720703125,1.3526611328125,0.5205535888671875
80228,1.250823974609375,1.508071899414062,0.41815185546875
80229,1.168014526367188,1.690322875976562,0.1124267578125
80230,1.164794921875,1.76470947265625,-0.28411865234375
80231,1.235626220703125,1.738815307617188,-0.4179229736328125
80232,1.272979736328125,1.625747680664062,-0.2623291015625
80233,1.135833740234375,1.39044189453125,-0.105010986328125
80234,0.956573486328125,1.143569946289062,0.051300048828125
80235,0.84918212890625,0.8979034423828125,0.1464385986328125
80236,0.7501220703125,0.6174774169921875,0.17315673828125
80237,0.6347503662109375,0.364959716796875,0.110565185546875
80238,0.510284423828125,0.0849609375,-0.0069122314453125
80239,0.3941497802734375,-0.1185760498046875,-0.100921630859375
80240,0.3092041015625,-0.17303466796875,0.0250701904296875
80241,0.25372314453125,-0.2406768798828125,0.336883544921875
80242,0.195648193359375,-0.3146209716796875,0.5587005615234375
80243,0.1284027099609375,-0.29583740234375,0.6673126220703125
80244,0.0821685791015625,-0.178863525390625,0.7268524169921875
80245,0.07659912109375,-0.02215576171875,0.7278289794921875
80246,0.08953857421875,0.1664886474609375,0.5848846435546875
80247,0.1361236572265625,0.305999755859375,0.3527374267578125
80248,0.169891357421875,0.2639617919921875,0.16815185546875
80249,0.1222686767578125,0.1678619384765625,0.1914215087890625
80250,0.04779052734375,0.063873291015625,0.4011077880859375
80251,-0.0269317626953125,0.0187835693359375,0.421539306640625
80252,-0.081512451171875,0.028472900390625,0.3312835693359375
80253,-0.0838623046875,0.083343505859375,0.2504730224609375
80254,-0.0637054443359375,0.129486083984375,0.180267333984375
80255,-0.054046630859375,0.2066192626953125,0.1222381591796875
80256,-0.0159759521484375,0.3086700439453125,0.0400543212890625
80257,0.06671142578125,0.3720703125,0.0784759521484375
80258,0.1649627685546875,0.4227752685546875,0.27838134765625
80259,0.284271240234375,0.3961181640625,0.44317626953125
80260,0.418548583984375,0.292388916015625,0.58074951171875
80261,0.5408782958984375,0.273956298828125,0.7419281005859375
80262,0.6729583740234375,0.3698883056640625,0.8998565673828125
80263,0.9918975830078124,0.4215240478515625,1.127517700195312
80264,1.258804321289062,0.3438568115234375,1.496612548828125
80265,1.2635498046875,0.39971923828125,1.659622192382812
80266,1.389114379882812,0.5628204345703125,1.473236083984375
80267,1.460769653320312,0.84271240234375,1.86199951171875
80268,1.5662841796875,1.1839599609375,2.142318725585938
80269,1.671829223632812,1.267593383789062,1.985519409179688
80270,1.635604858398438,1.19384765625,1.805023193359375
80271,1.48199462890625,0.9423065185546876,1.838424682617188
80272,1.308120727539062,0.647247314453125,1.949295043945312
80273,1.207046508789062,0.5072174072265625,2.031021118164062
80274,1.08544921875,0.4455413818359375,2.056961059570312
80275,0.903350830078125,0.4572601318359375,1.984664916992188
80276,0.7086029052734375,0.4773712158203125,1.834701538085938
80277,0.5198974609375,0.46319580078125,1.764678955078125
80278,0.3359375,0.4072265625,1.71875
80279,0.203582763671875,0.336334228515625,1.63018798828125
80280,0.10699462890625,0.2569122314453125,1.571456909179688
80281,0.08837890625,0.188507080078125,1.447952270507812
80282,0.0996246337890625,0.19378662109375,1.414443969726562
80283,0.1058807373046875,0.1832275390625,1.324142456054688
80284,0.137298583984375,0.14874267578125,1.208816528320312
80285,0.15484619140625,0.0955352783203125,1.09271240234375
80286,0.1448516845703125,0.044830322265625,0.9441680908203124
80287,0.0745391845703125,0.0389404296875,0.75152587890625
80288,-0.017608642578125,0.0413665771484375,0.5333251953125
80289,-0.095947265625,0.0578155517578125,0.3683624267578125
80290,-0.1682586669921875,0.11102294921875,0.2499847412109375
80291,-0.2053985595703125,0.15716552734375,0.121307373046875
80292,-0.188507080078125,0.2012786865234375,0.1019744873046875
80293,-0.121856689453125,0.2194671630859375,0.0433197021484375
80294,0.0002593994140625,0.21734619140625,-0.010101318359375
80295,0.0953216552734375,0.221466064453125,0.1545257568359375
80296,0.141448974609375,0.205657958984375,0.3412322998046875
80297,0.158416748046875,0.1876220703125,0.4485015869140625
80298,0.18316650390625,0.1883544921875,0.5018768310546875
80299,0.213897705078125,0.207427978515625,0.4859619140625
80300,0.2455902099609375,0.2389678955078125,0.432464599609375
80301,0.28466796875,0.3061981201171875,0.3969573974609375
80302,0.33514404296875,0.3971710205078125,0.3719024658203125
80303,0.403564453125,0.5076446533203125,0.3642120361328125
80304,0.4867095947265625,0.657257080078125,0.349578857421875
80305,0.5889739990234375,0.9561614990234376,0.3668212890625
80306,0.7424774169921875,1.266036987304688,0.3526458740234375
80307,1.062484741210938,1.327651977539062,0.2724761962890625
80308,1.364288330078125,1.32781982421875,0.191131591796875
80309,1.480987548828125,1.437667846679688,0.093353271484375
80310,1.399658203125,1.647369384765625,0.0846099853515625
80311,1.321182250976562,1.763687133789062,0.060821533203125
80312,1.341278076171875,1.7696533203125,-0.0915679931640625
80313,1.45318603515625,1.639373779296875,-0.2318267822265625
80314,1.463943481445312,1.459243774414062,-0.201446533203125
80315,1.26116943359375,1.26654052734375,-0.0845947265625
80316,1.065994262695312,1.040603637695312,0.0560302734375
80317,0.97174072265625,0.778656005859375,0.173065185546875
80318,0.9239044189453124,0.478790283203125,0.2684478759765625
80319,0.8258514404296875,0.1863250732421875,0.20318603515625
80320,0.641448974609375,-0.035369873046875,0.0187835693359375
80321,0.4395294189453125,-0.1988067626953125,-0.0540924072265625
80322,0.2855072021484375,-0.2451324462890625,0.1123046875
80323,0.1427764892578125,-0.211944580078125,0.394775390625
80324,0.0080108642578125,-0.1997528076171875,0.5555877685546875
80325,-0.11590576171875,-0.15673828125,0.5368804931640625
80326,-0.1720428466796875,-0.068115234375,0.466217041015625
80327,-0.1400146484375,0.0203704833984375,0.3948822021484375
80328,-0.07147216796875,0.07769775390625,0.3612518310546875
80329,0.0029296875,0.0557403564453125,0.3658599853515625
80330,0.068603515625,-0.00537109375,0.428802490234375
80331,0.0679473876953125,-0.003997802734375,0.4351654052734375
80332,-0.00799560546875,0.052703857421875,0.3316192626953125
80333,-0.0886383056640625,0.1074066162109375,0.254669189453125
80334,-0.1087646484375,0.174041748046875,0.2578887939453125
80335,-0.0436859130859375,0.196441650390625,0.295654296875
80336,0.0169525146484375,0.2010345458984375,0.2771759033203125
80337,0.0437469482421875,0.231048583984375,0.2220458984375
80338,0.0731964111328125,0.2781219482421875,0.2024383544921875
80339,0.1317901611328125,0.2941741943359375,0.243133544921875
80340,0.214324951171875,0.286224365234375,0.2787017822265625
80341,0.2816009521484375,0.279449462890625,0.314117431640625
80342,0.3270263671875,0.24627685546875,0.454193115234375
80343,0.3533935546875,0.226318359375,0.63702392578125
80344,0.3724517822265625,0.2912139892578125,0.7937469482421875
80345,0.4522247314453125,0.434539794921875,0.9412994384765624
80346,0.6188201904296875,0.5979461669921875,1.049407958984375
80347,0.9442291259765624,0.6206817626953125,1.39501953125
80348,1.099151611328125,0.59881591796875,1.724822998046875
80349,1.170166015625,0.66473388671875,1.760894775390625
80350,1.376876831054688,0.8707275390625,2.003768920898438
80351,1.58331298828125,1.1231689453125,2.16961669921875
80352,1.589035034179688,1.197586059570312,2.127273559570312
80353,1.456893920898438,1.185562133789062,2.067733764648438
80354,1.348876953125,1.110931396484375,1.9498291015625
80355,1.229995727539062,0.8903045654296875,1.936874389648438
80356,1.0684814453125,0.6582183837890625,2.018234252929688
80357,0.9272918701171876,0.498077392578125,2.083221435546875
80358,0.8295135498046875,0.4493255615234375,2.061477661132812
80359,0.6927032470703125,0.4534149169921875,1.940032958984375
80360,0.5344696044921875,0.44415283203125,1.845138549804688
80361,0.3983001708984375,0.4043426513671875,1.771636962890625
80362,0.266998291015625,0.316314697265625,1.689956665039062
80363,0.1943359375,0.2206268310546875,1.527359008789062
80364,0.1319427490234375,0.2292327880859375,1.415359497070312
80365,0.07464599609375,0.2543487548828125,1.306732177734375
80366,0.0493927001953125,0.2291717529296875,1.231338500976562
80367,0.054168701171875,0.1792449951171875,1.115951538085938
80368,0.047821044921875,0.1598968505859375,0.9019927978515624
80369,0.0148773193359375,0.1370086669921875,0.6711883544921875
80370,-0.0115509033203125,0.088226318359375,0.53936767578125
80371,-0.0777130126953125,0.0600128173828125,0.40087890625
80372,-0.1447906494140625,0.043548583984375,0.2724151611328125
80373,-0.18927001953125,0.06585693359375,0.1547698974609375
80374,-0.17486572265625,0.0877838134765625,0.1134185791015625
80375,-0.1329193115234375,0.15972900390625,0.1051025390625
80376,-0.0345306396484375,0.174652099609375,0.0788116455078125
80377,0.0592498779296875,0.16009521484375,0.2534637451171875
80378,0.1373443603515625,0.1451416015625,0.513427734375
80379,0.185638427734375,0.14422607421875,0.66790771484375
80380,0.2241973876953125,0.1900177001953125,0.6957550048828125
80381,0.270355224609375,0.2705841064453125,0.6399078369140625
80382,0.3027801513671875,0.3215789794921875,0.530609130859375
80383,0.326019287109375,0.342254638671875,0.4170684814453125
80384,0.34490966796875,0.3792877197265625,0.31671142578125
80385,0.3852691650390625,0.4334259033203125,0.2350921630859375
80386,0.4561004638671875,0.4941253662109375,0.173858642578125
80387,0.566925048828125,0.5770263671875,0.1388397216796875
80388,0.7053985595703125,0.7010498046875,0.090850830078125
80389,0.8660736083984375,0.8621673583984375,0.072723388671875
80390,1.0269775390625,1.02410888671875,0.0892486572265625
80391,1.186447143554688,1.186965942382812,0.1461944580078125
80392,1.260147094726562,1.389266967773438,0.2582550048828125
80393,1.255203247070312,1.576705932617188,0.3229522705078125
80394,1.247726440429688,1.705154418945312,0.377655029296875
80395,1.258346557617188,1.767807006835938,0.3265380859375
80396,1.188491821289062,1.703323364257812,0.099273681640625
80397,1.081985473632812,1.526901245117188,-0.1617431640625
80398,1.040420532226562,1.326690673828125,-0.272308349609375
80399,0.9732513427734376,1.173049926757812,-0.2711639404296875
80400,0.8754730224609375,1.014328002929688,-0.2341766357421875
80401,0.7812042236328125,0.804595947265625,-0.2012939453125
80402,0.66839599609375,0.5782318115234375,-0.180816650390625
80403,0.55889892578125,0.3467864990234375,-0.1197357177734375
80404,0.46527099609375,0.1115264892578125,0.0556793212890625
80405,0.387359619140625,-0.0754852294921875,0.2610931396484375
80406,0.3172454833984375,-0.1260223388671875,0.476409912109375
80407,0.24884033203125,-0.0704498291015625,0.7035369873046875
80408,0.1675262451171875,-0.022918701171875,0.7974700927734375
80409,0.091888427734375,0.0222625732421875,0.7913665771484375
80410,0.0511474609375,0.056610107421875,0.718719482421875
80411,0.05377197265625,0.0540924072265625,0.549468994140625
80412,0.06634521484375,0.07586669921875,0.329132080078125
80413,0.074951171875,0.075531005859375,0.1771697998046875
80414,0.0348968505859375,0.021697998046875,0.135894775390625
80415,0.016326904296875,-0.020172119140625,0.2483367919921875
80416,0.0172119140625,-0.04083251953125,0.393524169921875
80417,-0.074188232421875,-0.0087127685546875,0.4803924560546875
80418,-0.1750030517578125,0.0692901611328125,0.5447235107421875
80419,-0.2083282470703125,0.1846771240234375,0.4791412353515625
80420,-0.0756683349609375,0.2740478515625,0.2833709716796875
80421,0.0309600830078125,0.31573486328125,0.1529998779296875
80422,0.0804901123046875,0.4127044677734375,0.1891326904296875
80423,0.1763458251953125,0.44720458984375,0.2324371337890625
80424,0.2208709716796875,0.32421875,0.304229736328125
80425,0.16302490234375,0.155914306640625,0.440826416015625
80426,0.1068878173828125,0.12738037109375,0.56280517578125
80427,0.1227874755859375,0.2269134521484375,0.6848907470703125
80428,0.1936187744140625,0.3356170654296875,0.786224365234375
80429,0.3255462646484375,0.4068145751953125,0.884124755859375
80430,0.455322265625,0.471832275390625,0.996368408203125
80431,0.58209228515625,0.5675811767578125,1.202316284179688
80432,0.826416015625,0.65087890625,1.511627197265625
80433,1.226303100585938,0.705780029296875,1.883377075195312
80434,1.78851318359375,0.70343017578125,2.45184326171875
80435,2.0399169921875,0.98602294921875,2.706787109375
80436,1.965316772460938,1.444351196289062,1.989227294921875
80437,1.74603271484375,1.286529541015625,2.0552978515625
80438,1.385223388671875,1.027969360351562,2.224227905273438
80439,1.139999389648438,0.9317474365234376,2.042083740234375
80440,0.9751129150390624,0.7026824951171875,2.17095947265625
80441,0.8472747802734375,0.5512237548828125,2.292526245117188
80442,0.7274627685546875,0.4899139404296875,2.23114013671875
80443,0.5866851806640625,0.47686767578125,2.064193725585938
80444,0.4379425048828125,0.4323883056640625,1.906494140625
80445,0.2996368408203125,0.354217529296875,1.786529541015625
80446,0.216796875,0.2733306884765625,1.664093017578125
80447,0.1273040771484375,0.2229461669921875,1.539459228515625
80448,0.029388427734375,0.2264556884765625,1.386474609375
80449,-0.0469207763671875,0.24798583984375,1.252456665039062
80450,-0.0768280029296875,0.2373504638671875,1.173355102539062
80451,-0.0743865966796875,0.2033233642578125,1.037841796875
80452,-0.0735321044921875,0.207122802734375,0.8291473388671875
80453,-0.0731353759765625,0.218048095703125,0.627593994140625
80454,-0.0680694580078125,0.215728759765625,0.446533203125
80455,-0.098175048828125,0.193145751953125,0.31341552734375
80456,-0.162109375,0.16693115234375,0.2171478271484375
80457,-0.23040771484375,0.154571533203125,0.1550750732421875
80458,-0.25628662109375,0.1609344482421875,0.1270751953125
80459,-0.171875,0.163116455078125,0.085662841796875
80460,-0.0488128662109375,0.1270751953125,0.14263916015625
80461,0.0722808837890625,0.056915283203125,0.231048583984375
80462,0.15899658203125,0.0254974365234375,0.3088836669921875
80463,0.21124267578125,0.06964111328125,0.3360137939453125
80464,0.2256622314453125,0.155853271484375,0.31060791015625
80465,0.202392578125,0.1880645751953125,0.3000030517578125
80466,0.1572113037109375,0.16619873046875,0.3187103271484375
80467,0.099456787109375,0.145355224609375,0.32867431640625
80468,0.0452728271484375,0.146240234375,0.32476806640625
80469,0.019256591796875,0.19818115234375,0.36907958984375
80470,0.0053253173828125,0.3031158447265625,0.435577392578125
80471,0.013458251953125,0.480224609375,0.4872894287109375
80472,0.1136627197265625,0.750640869140625,0.509796142578125
80473,0.2946014404296875,1.034927368164062,0.4658050537109375
80474,0.4928131103515625,1.218017578125,0.338043212890625
80475,0.731201171875,1.390609741210938,0.27154541015625
80476,1.053298950195312,1.57952880859375,0.3408203125
80477,1.370712280273438,1.789779663085938,0.330078125
80478,1.541351318359375,1.991912841796875,0.048919677734375
80479,1.618301391601562,2.0867919921875,-0.36676025390625
80480,1.665634155273438,1.973052978515625,-0.5221405029296875
80481,1.632156372070312,1.723419189453125,-0.2508392333984375
80482,1.4239501953125,1.458358764648438,0.131805419921875
80483,1.185699462890625,1.16998291015625,0.31280517578125
80484,1.040359497070312,0.9390411376953124,0.32470703125
80485,0.96331787109375,0.7080230712890625,0.2421722412109375
80486,0.85528564453125,0.4840545654296875,0.1067047119140625
80487,0.7456207275390625,0.32708740234375,0.111907958984375
80488,0.689422607421875,0.212066650390625,0.20306396484375
80489,0.63714599609375,0.082672119140625,0.265533447265625
80490,0.554656982421875,0.003662109375,0.4118804931640625
80491,0.3995819091796875,0.023193359375,0.5824432373046875
80492,0.264862060546875,0.0817718505859375,0.6476287841796875
80493,0.1925811767578125,0.1241912841796875,0.62615966796875
80494,0.1361541748046875,0.15814208984375,0.5235137939453125
80495,0.0766143798828125,0.168121337890625,0.4439849853515625
80496,0.021636962890625,0.1419830322265625,0.3506317138671875
80497,-0.0475006103515625,0.1273345947265625,0.2381744384765625
80498,-0.0697784423828125,0.045379638671875,0.40869140625
80499,-0.072784423828125,-0.064483642578125,0.5513763427734375
80500,-0.0696258544921875,-0.112060546875,0.48370361328125
80501,-0.0509033203125,-0.124359130859375,0.3378448486328125
80502,-0.04840087890625,-0.113037109375,0.2356414794921875
80503,-0.0600738525390625,-0.0776214599609375,0.1375885009765625
80504,-0.0947418212890625,-0.037506103515625,0.0307464599609375
80505,-0.1235809326171875,0.0262603759765625,-0.0505828857421875
80506,-0.095916748046875,0.102081298828125,-0.017974853515625
80507,-0.012115478515625,0.1530609130859375,0.0626373291015625
80508,0.12200927734375,0.1729888916015625,0.08782958984375
80509,0.27618408203125,0.1992340087890625,0.05133056640625
80510,0.390167236328125,0.2332611083984375,0.1702880859375
80511,0.4243316650390625,0.2503814697265625,0.5850982666015625
80512,0.3897705078125,0.3091278076171875,0.9721832275390624
80513,0.33599853515625,0.4120330810546875,1.0281982421875
80514,0.27947998046875,0.529937744140625,0.9442291259765624
80515,0.3595428466796875,0.5921478271484375,1.113479614257812
80516,0.5341033935546875,0.6206512451171875,1.463653564453125
80517,0.9241943359375,0.54669189453125,1.813186645507812
80518,1.439071655273438,0.3688201904296875,2.195114135742188
80519,1.585540771484375,0.8129119873046875,2.29595947265625
80520,1.838104248046875,1.44549560546875,2.2855224609375
80521,1.922393798828125,1.599151611328125,2.450454711914062
80522,1.653884887695312,1.450424194335938,2.413864135742188
80523,1.226638793945312,1.199020385742188,2.236984252929688
80524,0.958648681640625,0.9171905517578124,2.179244995117188
80525,0.853424072265625,0.6816864013671875,2.220489501953125
80526,0.76312255859375,0.5764007568359375,2.233734130859375
80527,0.6205291748046875,0.5342254638671875,2.148651123046875
80528,0.4694366455078125,0.494384765625,1.989883422851562
80529,0.33209228515625,0.4205780029296875,1.838607788085938
80530,0.216766357421875,0.3229217529296875,1.687484741210938
80531,0.1080322265625,0.210968017578125,1.56134033203125
80532,-0.004302978515625,0.1529388427734375,1.450714111328125
80533,-0.058502197265625,0.1063079833984375,1.35601806640625
80534,-0.0817718505859375,0.123443603515625,1.22552490234375
80535,-0.07708740234375,0.09564208984375,1.033416748046875
80536,-0.0364532470703125,0.1022491455078125,0.8548583984375
80537,-0.0058135986328125,0.1052398681640625,0.627166748046875
80538,-0.001708984375,0.110809326171875,0.4150543212890625
80539,-0.040985107421875,0.1304168701171875,0.259002685546875
80540,-0.096588134765625,0.1198272705078125,0.193115234375
80541,-0.171905517578125,0.1258392333984375,0.146514892578125
80542,-0.2353363037109375,0.1466217041015625,0.1126556396484375
80543,-0.218109130859375,0.1543731689453125,0.1132965087890625
80544,-0.07977294921875,0.136199951171875,0.0897674560546875
80545,0.0476226806640625,0.09906005859375,0.214874267578125
80546,0.1195220947265625,0.0788116455078125,0.3777618408203125
80547,0.1548004150390625,0.0812530517578125,0.499267578125
80548,0.1728668212890625,0.111053466796875,0.57354736328125
80549,0.2010040283203125,0.147796630859375,0.5861663818359375
80550,0.2252349853515625,0.1820831298828125,0.5421142578125
80551,0.2469482421875,0.2019805908203125,0.4525299072265625
80552,0.23974609375,0.2246246337890625,0.35418701171875
80553,0.2033233642578125,0.2437591552734375,0.28668212890625
80554,0.15545654296875,0.26519775390625,0.2564544677734375
80555,0.1132659912109375,0.284210205078125,0.2540740966796875
80556,0.101593017578125,0.3489837646484375,0.268798828125
80557,0.13214111328125,0.4671630859375,0.29888916015625
80558,0.2473907470703125,0.649871826171875,0.3438873291015625
80559,0.475982666015625,0.9337158203125,0.3489532470703125
80560,0.7800140380859375,1.279861450195312,0.29400634765625
80561,1.0980224609375,1.664749145507812,0.2332611083984375
80562,1.4644775390625,1.988113403320312,0.2777557373046875
80563,1.8175048828125,2.133834838867188,0.3090667724609375
80564,1.980621337890625,2.0745849609375,0.056060791015625
80565,1.791900634765625,1.9510498046875,-0.43060302734375
80566,1.57080078125,1.812820434570312,-0.5839385986328125
80567,1.44854736328125,1.529998779296875,-0.2731781005859375
80568,1.34539794921875,1.224746704101562,0.0843353271484375
80569,1.200820922851562,1.006637573242188,0.267059326171875
80570,1.036468505859375,0.8389129638671875,0.301300048828125
80571,0.871826171875,0.6438751220703125,0.1989898681640625
80572,0.7352142333984375,0.3921966552734375,0.0500030517578125
80573,0.6088104248046875,0.170318603515625,-0.0091400146484375
80574,0.4867095947265625,0.02081298828125,0.10101318359375
80575,0.3618927001953125,-0.065277099609375,0.438262939453125
80576,0.2336883544921875,-0.1181182861328125,0.74237060546875
80577,0.1099395751953125,-0.0936431884765625,0.817779541015625
80578,0.0215606689453125,0.0479736328125,0.736328125
80579,-0.0277557373046875,0.1817626953125,0.586334228515625
80580,-0.0941314697265625,0.25018310546875,0.4416656494140625
80581,-0.2026214599609375,0.30474853515625,0.2388916015625
80582,-0.175140380859375,0.2049713134765625,0.304412841796875
80583,0.043212890625,-0.06365966796875,0.6699676513671875
80584,0.3270416259765625,-0.275299072265625,0.7297515869140625
80585,0.356719970703125,-0.283447265625,0.610809326171875
80586,0.2012939453125,-0.178131103515625,0.3590545654296875
80587,0.0208587646484375,-0.0339813232421875,0.093170166015625
80588,-0.1766357421875,0.1532440185546875,-0.167205810546875
80589,-0.2781829833984375,0.3239898681640625,-0.213165283203125
80590,-0.279083251953125,0.3274078369140625,-0.0075225830078125
80591,-0.17547607421875,0.300994873046875,0.16021728515625
80592,-0.0584564208984375,0.3293304443359375,0.3035125732421875
80593,0.03125,0.3320770263671875,0.3638916015625
80594,0.08642578125,0.30096435546875,0.3572235107421875
80595,0.0977020263671875,0.2912139892578125,0.496551513671875
80596,0.1173095703125,0.2787628173828125,0.7490386962890625
80597,0.177398681640625,0.2785186767578125,0.92327880859375
80598,0.299102783203125,0.347808837890625,1.023162841796875
80599,0.4093017578125,0.474334716796875,1.129165649414062
80600,0.522918701171875,0.6191253662109375,1.280868530273438
80601,0.7314453125,0.6760406494140625,1.512313842773438
80602,1.09747314453125,0.71929931640625,1.862503051757812
80603,1.69464111328125,0.781402587890625,2.355682373046875
80604,2.049163818359375,0.9135589599609376,2.772842407226562
80605,1.68817138671875,1.618316650390625,2.019805908203125
80606,1.611862182617188,1.385162353515625,2.1942138671875
80607,1.220626831054688,0.963104248046875,2.432815551757812
80608,0.9313812255859376,0.8418731689453125,2.088821411132812
80609,0.82489013671875,0.7480621337890625,1.987884521484375
80610,0.684539794921875,0.6139373779296875,2.0008544921875
80611,0.523529052734375,0.530181884765625,1.908187866210938
80612,0.4221954345703125,0.473358154296875,1.768844604492188
80613,0.38360595703125,0.4019622802734375,1.636367797851562
80614,0.3436431884765625,0.295440673828125,1.542190551757812
80615,0.2075653076171875,0.2364044189453125,1.466522216796875
80616,0.0605621337890625,0.205078125,1.4139404296875
80617,-0.0372314453125,0.1617431640625,1.318496704101562
80618,-0.0705108642578125,0.133270263671875,1.2222900390625
80619,-0.0946197509765625,0.1320037841796875,1.061691284179688
80620,-0.080230712890625,0.1135711669921875,0.86566162109375
80621,-0.0356597900390625,0.098968505859375,0.705902099609375
80622,-0.0004425048828125,0.07305908203125,0.5415496826171875
80623,-0.0277862548828125,0.0593414306640625,0.4137115478515625
80624,-0.1197357177734375,0.0708465576171875,0.3299713134765625
80625,-0.2277984619140625,0.117279052734375,0.2630157470703125
80626,-0.2795562744140625,0.1611175537109375,0.2324066162109375
80627,-0.2215118408203125,0.17803955078125,0.160430908203125
80628,-0.0493927001953125,0.1424560546875,0.1873321533203125
80629,0.09375,0.0846405029296875,0.2907867431640625
80630,0.1980438232421875,0.057464599609375,0.369171142578125
80631,0.2618560791015625,0.05499267578125,0.4218292236328125
80632,0.3050384521484375,0.0940704345703125,0.394744873046875
80633,0.31756591796875,0.1600494384765625,0.3349609375
80634,0.339874267578125,0.1967620849609375,0.266937255859375
80635,0.3537750244140625,0.229522705078125,0.1948699951171875
80636,0.3661651611328125,0.2812347412109375,0.222442626953125
80637,0.3529052734375,0.3382720947265625,0.3345947265625
80638,0.3252410888671875,0.4224395751953125,0.437652587890625
80639,0.338836669921875,0.58306884765625,0.4529876708984375
80640,0.483795166015625,0.84747314453125,0.358978271484375
80641,0.7158203125,1.1600341796875,0.2086944580078125
80642,0.9436187744140624,1.347122192382812,0.129608154296875
80643,1.182723999023438,1.44146728515625,0.1962432861328125
80644,1.434783935546875,1.52838134765625,0.414154052734375
80645,1.643936157226562,1.6021728515625,0.61212158203125
80646,1.686904907226562,1.651123046875,0.43048095703125
80647,1.465408325195312,1.65576171875,-0.0799407958984375
80648,1.30145263671875,1.5828857421875,-0.3836212158203125
80649,1.263870239257812,1.3934326171875,-0.339324951171875
80650,1.185760498046875,1.182342529296875,-0.160552978515625
80651,1.017425537109375,0.97802734375,-0.037567138671875
80652,0.8239288330078125,0.784088134765625,-0.0006561279296875
80653,0.6633148193359375,0.5959625244140625,-0.0336761474609375
80654,0.5037689208984375,0.3773345947265625,-0.0391082763671875
80655,0.3609161376953125,0.17449951171875,0.0549774169921875
80656,0.26287841796875,0.029083251953125,0.2969512939453125
80657,0.18853759765625,0.00787353515625,0.6475067138671875
80658,0.1414794921875,-0.01971435546875,0.827911376953125
80659,0.11151123046875,-0.0570831298828125,0.7447052001953125
80660,0.091064453125,0.0025177001953125,0.616363525390625
80661,0.074066162109375,0.0990753173828125,0.48040771484375
80662,0.049072265625,0.162109375,0.3643646240234375
80663,0.0088348388671875,0.17303466796875,0.277496337890625
80664,-0.0947265625,0.2015533447265625,0.172698974609375
80665,-0.076141357421875,0.1585540771484375,0.337646484375
80666,0.097930908203125,0.0106353759765625,0.6016845703125
80667,0.2439422607421875,-0.0844268798828125,0.6212615966796875
80668,0.1512908935546875,0.003997802734375,0.4652252197265625
80669,0.011444091796875,0.1110687255859375,0.19989013671875
80670,-0.041015625,0.181396484375,0.01141357421875
80671,-0.032196044921875,0.2602996826171875,0.0361480712890625
80672,-0.0053558349609375,0.2360992431640625,0.23406982421875
80673,0.0009307861328125,0.234649658203125,0.2024993896484375
80674,0.1031341552734375,0.25189208984375,0.002105712890625
80675,0.1907196044921875,0.217742919921875,0.019073486328125
80676,0.2156982421875,0.2137451171875,0.1799163818359375
80677,0.257354736328125,0.213714599609375,0.535919189453125
80678,0.292449951171875,0.18817138671875,0.867218017578125
80679,0.3112030029296875,0.2047576904296875,1.01690673828125
80680,0.3845367431640625,0.24835205078125,1.060455322265625
80681,0.4716339111328125,0.27496337890625,1.122207641601562
80682,0.53143310546875,0.3203582763671875,1.253067016601562
80683,0.6435546875,0.463134765625,1.424972534179688
80684,0.820892333984375,0.702178955078125,1.648651123046875
80685,1.169769287109375,0.9510955810546876,1.967056274414062
80686,1.9031982421875,0.8653717041015625,2.46771240234375
80687,2.031051635742188,1.451583862304688,2.109085083007812
80688,1.988296508789062,1.616836547851562,1.872711181640625
80689,1.679336547851562,1.164581298828125,2.201400756835938
80690,1.206024169921875,1.016738891601562,2.049636840820312
80691,1.021682739257812,0.95556640625,1.9561767578125
80692,0.9370880126953124,0.797149658203125,2.026901245117188
80693,0.784210205078125,0.7081756591796875,2.01287841796875
80694,0.612762451171875,0.6954193115234375,1.94464111328125
80695,0.462921142578125,0.6344146728515625,1.86834716796875
80696,0.3172149658203125,0.53662109375,1.783660888671875
80697,0.2475433349609375,0.347625732421875,1.695846557617188
80698,0.1572418212890625,0.244110107421875,1.559799194335938
80699,-0.02056884765625,0.3023681640625,1.364532470703125
80700,-0.1403350830078125,0.31011962890625,1.202880859375
80701,-0.1875762939453125,0.2801361083984375,1.104080200195312
80702,-0.1735382080078125,0.226470947265625,1.035171508789062
80703,-0.11541748046875,0.162384033203125,0.87884521484375
80704,-0.0611419677734375,0.1291351318359375,0.68212890625
80705,-0.034698486328125,0.1090850830078125,0.545013427734375
80706,-0.0582427978515625,0.080657958984375,0.43951416015625
80707,-0.13909912109375,0.06707763671875,0.3426055908203125
80708,-0.265869140625,0.1191558837890625,0.2647857666015625
80709,-0.3545379638671875,0.164581298828125,0.1875152587890625
80710,-0.3361358642578125,0.1612701416015625,0.1049346923828125
80711,-0.2640228271484375,0.115142822265625,0.1490325927734375
80712,-0.1521759033203125,0.0287322998046875,0.2855072021484375
80713,-0.027984619140625,-0.05194091796875,0.451507568359375
80714,0.1015472412109375,-0.07537841796875,0.487091064453125
80715,0.207855224609375,-0.01708984375,0.4212493896484375
80716,0.259796142578125,0.107269287109375,0.358734130859375
80717,0.265411376953125,0.2100830078125,0.27508544921875
80718,0.25537109375,0.2746429443359375,0.2226409912109375
80719,0.268829345703125,0.3195953369140625,0.2158660888671875
80720,0.2913970947265625,0.351165771484375,0.235687255859375
80721,0.33905029296875,0.4066162109375,0.288055419921875
80722,0.42486572265625,0.5679473876953125,0.37213134765625
80723,0.5767974853515625,0.9061279296875,0.430419921875
80724,0.8365631103515625,1.2908935546875,0.433990478515625
80725,1.138687133789062,1.554779052734375,0.4472198486328125
80726,1.434249877929688,1.671630859375,0.5041351318359375
80727,1.642623901367188,1.699310302734375,0.529327392578125
80728,1.738357543945312,1.704498291015625,0.49200439453125
80729,1.775161743164062,1.641647338867188,0.3416290283203125
80730,1.781936645507812,1.56903076171875,0.0351409912109375
80731,1.679458618164062,1.482803344726562,-0.2870635986328125
80732,1.420318603515625,1.3541259765625,-0.39459228515625
80733,1.1593017578125,1.216888427734375,-0.3252105712890625
80734,0.941925048828125,0.991973876953125,-0.1923065185546875
80735,0.712677001953125,0.7451629638671875,-0.032806396484375
80736,0.4756622314453125,0.509185791015625,0.1837310791015625
80737,0.281890869140625,0.3334503173828125,0.3373565673828125
80738,0.0867156982421875,0.215179443359375,0.297088623046875
80739,-0.065155029296875,0.09075927734375,0.1914825439453125
80740,-0.1595001220703125,-0.050567626953125,0.2877349853515625
80741,-0.15130615234375,-0.1576385498046875,0.467193603515625
80742,-0.102996826171875,-0.202911376953125,0.585906982421875
80743,-0.05712890625,-0.1273651123046875,0.6286468505859375
80744,-0.00091552734375,-0.06201171875,0.609283447265625
80745,0.04071044921875,-0.0110931396484375,0.5029449462890625
80746,0.0313262939453125,0.0468292236328125,0.394195556640625
80747,-0.0466156005859375,0.1103057861328125,0.3476409912109375
80748,-0.0682220458984375,0.0987091064453125,0.473846435546875
80749,-0.03839111328125,0.0240478515625,0.5037384033203125
80750,0.0068817138671875,0.0174102783203125,0.4761505126953125
80751,0.0850830078125,0.0722198486328125,0.414703369140625
80752,0.1548309326171875,0.132659912109375,0.3257293701171875
80753,0.21441650390625,0.193023681640625,0.2409210205078125
80754,0.2379608154296875,0.2473602294921875,0.16363525390625
80755,0.2449188232421875,0.304443359375,0.073150634765625
80756,0.2553863525390625,0.3322296142578125,-0.0179290771484375
80757,0.2431640625,0.314544677734375,-0.059356689453125
80758,0.189910888671875,0.305633544921875,0.1263885498046875
80759,0.1625823974609375,0.324615478515625,0.545867919921875
80760,0.2050323486328125,0.3577117919921875,0.94342041015625
80761,0.333526611328125,0.40423583984375,1.210342407226562
80762,0.5067291259765625,0.46551513671875,1.291915893554688
80763,0.673736572265625,0.5249786376953125,1.400711059570312
80764,0.867340087890625,0.5483856201171875,1.576568603515625
80765,1.174484252929688,0.556121826171875,1.862289428710938
80766,1.581146240234375,0.47198486328125,2.195114135742188
80767,1.639663696289062,0.60418701171875,2.051712036132812
80768,1.38385009765625,1.049514770507812,1.8590087890625
80769,1.240631103515625,1.110061645507812,1.986648559570312
80770,1.092575073242188,0.9653167724609376,2.169601440429688
80771,0.9224853515625,0.8829803466796875,2.13006591796875
80772,0.81304931640625,0.749176025390625,2.009201049804688
80773,0.68572998046875,0.5847320556640625,1.97528076171875
80774,0.5473480224609375,0.4813385009765625,1.946517944335938
80775,0.44061279296875,0.431121826171875,1.866119384765625
80776,0.367889404296875,0.38507080078125,1.762619018554688
80777,0.2958221435546875,0.341461181640625,1.6534423828125
80778,0.241363525390625,0.295562744140625,1.545562744140625
80779,0.2092132568359375,0.2036895751953125,1.478424072265625
80780,0.130645751953125,0.185943603515625,1.335739135742188
80781,0.0711212158203125,0.1969146728515625,1.241180419921875
80782,0.034942626953125,0.174285888671875,1.128997802734375
80783,0.0152130126953125,0.1433258056640625,0.929534912109375
80784,-0.003692626953125,0.1163482666015625,0.6856231689453125
80785,-0.056854248046875,0.10638427734375,0.441314697265625
80786,-0.11932373046875,0.083892822265625,0.323944091796875
80787,-0.17950439453125,0.07684326171875,0.282806396484375
80788,-0.229400634765625,0.0773773193359375,0.2203369140625
80789,-0.2378997802734375,0.1100006103515625,0.1810302734375
80790,-0.2004241943359375,0.17767333984375,0.1715545654296875
80791,-0.065460205078125,0.178619384765625,0.11553955078125
80792,0.0720062255859375,0.1546783447265625,0.18017578125
80793,0.1736907958984375,0.1317291259765625,0.418426513671875
80794,0.2256011962890625,0.1177520751953125,0.6644439697265625
80795,0.2464752197265625,0.1614227294921875,0.7747039794921875
80796,0.2816314697265625,0.2310943603515625,0.778167724609375
80797,0.354095458984375,0.2924041748046875,0.6720733642578125
80798,0.3982391357421875,0.3317413330078125,0.537322998046875
80799,0.408294677734375,0.3715057373046875,0.43572998046875
80800,0.4072265625,0.39617919921875,0.3751068115234375
80801,0.420623779296875,0.4114990234375,0.3479461669921875
80802,0.46112060546875,0.44775390625,0.3355865478515625
80803,0.562896728515625,0.515350341796875,0.2821197509765625
80804,0.747161865234375,0.63525390625,0.194671630859375
80805,0.99322509765625,0.8507843017578125,0.1352996826171875
80806,1.2327880859375,1.151580810546875,0.0966796875
80807,1.412628173828125,1.3778076171875,0.108642578125
80808,1.400115966796875,1.500656127929688,0.161224365234375
80809,1.244415283203125,1.588104248046875,0.2721710205078125
80810,1.133743286132812,1.633102416992188,0.2884063720703125
80811,1.142501831054688,1.580490112304688,0.0803985595703125
80812,1.192703247070312,1.466934204101562,-0.1693115234375
80813,1.228607177734375,1.332778930664062,-0.3157196044921875
80814,1.189056396484375,1.167694091796875,-0.374359130859375
80815,1.058547973632812,0.95355224609375,-0.33099365234375
80816,0.871246337890625,0.71893310546875,-0.248291015625
80817,0.6623382568359375,0.4925689697265625,-0.132415771484375
80818,0.4807586669921875,0.27276611328125,0.07647705078125
80819,0.35174560546875,0.169464111328125,0.404754638671875
80820,0.3085174560546875,0.2560882568359375,0.7447509765625
80821,0.31829833984375,0.2911834716796875,0.9149169921875
80822,0.324859619140625,0.2428131103515625,0.923248291015625
80823,0.3023529052734375,0.1533660888671875,0.9158935546875
80824,0.2286376953125,0.098419189453125,0.8964080810546875
80825,0.143341064453125,0.0866241455078125,0.704925537109375
80826,0.047393798828125,0.12042236328125,0.339080810546875
80827,-0.0151214599609375,0.1419525146484375,0.066650390625
80828,-0.056488037109375,0.101837158203125,-0.0080718994140625
80829,-0.0772552490234375,0.026458740234375,0.0747833251953125
80830,-0.091522216796875,-0.0720672607421875,0.3473968505859375
80831,-0.069366455078125,-0.107696533203125,0.604156494140625
80832,-0.041046142578125,-0.0378875732421875,0.5546417236328125
80833,-0.0918121337890625,0.1495208740234375,0.2509002685546875
80834,-0.1484375,0.393585205078125,-0.0064544677734375
80835,-0.1453704833984375,0.5569915771484375,-0.007171630859375
80836,-0.0481109619140625,0.4871063232421875,0.136199951171875
80837,0.029144287109375,0.2823028564453125,0.3489227294921875
80838,0.0599365234375,0.2138519287109375,0.5030670166015625
80839,0.151763916015625,0.1540985107421875,0.5407257080078125
80840,0.236968994140625,0.12078857421875,0.5353851318359375
80841,0.3181610107421875,0.123077392578125,0.600921630859375
80842,0.4003143310546875,0.142425537109375,0.800201416015625
80843,0.5030517578125,0.218353271484375,1.0723876953125
80844,0.605621337890625,0.4033355712890625,1.266845703125
80845,0.6561737060546875,0.6861114501953125,1.454452514648438
80846,0.720428466796875,1.016036987304688,1.597000122070312
80847,0.98834228515625,1.230514526367188,1.839126586914062
80848,1.634658813476562,1.0921630859375,2.339981079101562
80849,1.861419677734375,0.9647216796875,2.336441040039062
80850,1.538253784179688,1.102706909179688,1.717391967773438
80851,1.271835327148438,1.046951293945312,1.854202270507812
80852,1.0858154296875,0.956390380859375,2.092041015625
80853,0.9666290283203124,0.861083984375,1.991989135742188
80854,0.845672607421875,0.6892852783203125,1.879409790039062
80855,0.6943511962890625,0.538177490234375,1.887847900390625
80856,0.5434417724609375,0.458160400390625,1.917327880859375
80857,0.40557861328125,0.44757080078125,1.877395629882812
80858,0.305572509765625,0.4408416748046875,1.769180297851562
80859,0.2488861083984375,0.395263671875,1.634490966796875
80860,0.225067138671875,0.2916259765625,1.531173706054688
80861,0.1201019287109375,0.2671356201171875,1.383804321289062
80862,0.0104217529296875,0.3079376220703125,1.317398071289062
80863,-0.01104736328125,0.2656707763671875,1.26361083984375
80864,0.023468017578125,0.2077178955078125,1.068862915039062
80865,0.0562896728515625,0.1814422607421875,0.8813018798828125
80866,0.06201171875,0.15252685546875,0.6326904296875
80867,0.022979736328125,0.134002685546875,0.4189300537109375
80868,-0.021453857421875,0.1183319091796875,0.3081817626953125
80869,-0.11834716796875,0.1128997802734375,0.2366790771484375
80870,-0.231536865234375,0.1193084716796875,0.2292327880859375
80871,-0.294708251953125,0.166717529296875,0.2327880859375
80872,-0.2536163330078125,0.1906585693359375,0.1921539306640625
80873,-0.1322784423828125,0.1691131591796875,0.1972808837890625
80874,0.0496368408203125,0.1002655029296875,0.269989013671875
80875,0.1956329345703125,0.0642242431640625,0.37933349609375
80876,0.2837371826171875,0.0945892333984375,0.4848480224609375
80877,0.33685302734375,0.124603271484375,0.4982147216796875
80878,0.3678131103515625,0.1677703857421875,0.4390869140625
80879,0.359588623046875,0.213653564453125,0.4037628173828125
80880,0.3177642822265625,0.22845458984375,0.373046875
80881,0.272796630859375,0.2247161865234375,0.3481903076171875
80882,0.2266998291015625,0.2330169677734375,0.3578643798828125
80883,0.1966094970703125,0.296173095703125,0.33721923828125
80884,0.239532470703125,0.45343017578125,0.2993621826171875
80885,0.400787353515625,0.7327728271484375,0.2626190185546875
80886,0.662445068359375,1.098037719726562,0.2413787841796875
80887,0.9558868408203124,1.353759765625,0.2690582275390625
80888,1.265548706054688,1.514373779296875,0.3730010986328125
80889,1.54754638671875,1.6279296875,0.498870849609375
80890,1.69195556640625,1.652847290039062,0.4840240478515625
80891,1.595626831054688,1.598800659179688,0.193603515625
80892,1.444808959960938,1.56982421875,-0.145233154296875
80893,1.397415161132812,1.531036376953125,-0.383209228515625
80894,1.360504150390625,1.4053955078125,-0.4438934326171875
80895,1.24859619140625,1.19403076171875,-0.346221923828125
80896,1.085205078125,0.9735565185546876,-0.199920654296875
80897,0.895599365234375,0.771209716796875,-0.07110595703125
80898,0.69281005859375,0.594757080078125,0.005462646484375
80899,0.490997314453125,0.3940887451171875,0.0589447021484375
80900,0.3349151611328125,0.20794677734375,0.153411865234375
80901,0.2272796630859375,0.045074462890625,0.3084869384765625
80902,0.1567535400390625,-0.0738677978515625,0.3968658447265625
80903,0.09698486328125,-0.1104736328125,0.4809722900390625
80904,0.06829833984375,-0.079315185546875,0.553009033203125
80905,0.0447845458984375,0.0008544921875,0.5893096923828125
80906,0.0137786865234375,0.1099700927734375,0.5803070068359375
80907,-0.0268096923828125,0.21881103515625,0.451934814453125
80908,-0.03167724609375,0.2707672119140625,0.23065185546875
80909,-0.002716064453125,0.251068115234375,0.07293701171875
80910,-0.052886962890625,0.2317047119140625,0.0755157470703125
80911,-0.1736602783203125,0.2173919677734375,0.11016845703125
80912,-0.161834716796875,0.13311767578125,0.2690582275390625
80913,-0.0939483642578125,0.03814697265625,0.45489501953125
80914,-0.0430908203125,-0.037750244140625,0.4841461181640625
80915,-0.02752685546875,-0.0302276611328125,0.4210968017578125
80916,-0.0273895263671875,0.076263427734375,0.2508392333984375
80917,-0.017303466796875,0.1980743408203125,0.072235107421875
80918,0.0256500244140625,0.2647705078125,0.0213165283203125
80919,0.161834716796875,0.311798095703125,0.1378936767578125
80920,0.3513336181640625,0.368499755859375,0.512939453125
80921,0.4498443603515625,0.3763427734375,0.9806976318359376
80922,0.5606536865234375,0.37164306640625,1.186492919921875
80923,0.6625823974609375,0.4522247314453125,1.2587890625
80924,0.7334442138671875,0.73779296875,1.324172973632812
80925,1.041702270507812,1.03668212890625,1.50323486328125
80926,1.602798461914062,0.990478515625,1.828704833984375
80927,1.714111328125,1.079696655273438,1.780197143554688
80928,1.652862548828125,1.368606567382812,1.562362670898438
80929,1.630950927734375,1.141387939453125,1.807571411132812
80930,1.317169189453125,0.918853759765625,1.9742431640625
80931,1.065185546875,0.8291778564453125,1.938919067382812
80932,0.9470977783203124,0.7958221435546875,1.94866943359375
80933,0.8547210693359375,0.7074127197265625,1.939437866210938
80934,0.710479736328125,0.603240966796875,1.926406860351562
80935,0.5598297119140625,0.545928955078125,1.957077026367188
80936,0.4388427734375,0.5000152587890625,1.986541748046875
80937,0.325103759765625,0.45263671875,1.96966552734375
80938,0.2122802734375,0.4251556396484375,1.874343872070312
80939,0.1194610595703125,0.349822998046875,1.759521484375
80940,0.058624267578125,0.2548065185546875,1.668212890625
80941,0.0334930419921875,0.2243499755859375,1.548583984375
80942,0.019775390625,0.202362060546875,1.395538330078125
80943,-0.0018768310546875,0.1838836669921875,1.209823608398438
80944,-0.0349273681640625,0.1734619140625,0.997711181640625
80945,-0.04681396484375,0.18133544921875,0.7619171142578125
80946,-0.02960205078125,0.1877899169921875,0.53497314453125
80947,-0.00543212890625,0.1582183837890625,0.37493896484375
80948,-0.020965576171875,0.1138153076171875,0.321044921875
80949,-0.08740234375,0.0791168212890625,0.2748870849609375
80950,-0.155670166015625,0.0872039794921875,0.21856689453125
80951,-0.18646240234375,0.128662109375,0.2034912109375
80952,-0.1290130615234375,0.1626739501953125,0.138092041015625
80953,0.0005340576171875,0.132476806640625,0.12139892578125
80954,0.084747314453125,0.1239166259765625,0.30596923828125
80955,0.149505615234375,0.1069183349609375,0.5297088623046875
80956,0.1759490966796875,0.11944580078125,0.6486968994140625
80957,0.2197113037109375,0.178863525390625,0.6509552001953125
80958,0.2554931640625,0.23321533203125,0.550689697265625
80959,0.2819976806640625,0.2498321533203125,0.412017822265625
80960,0.30303955078125,0.2460479736328125,0.3043365478515625
80961,0.3169708251953125,0.2375030517578125,0.2362213134765625
80962,0.3230438232421875,0.266387939453125,0.20904541015625
80963,0.3227996826171875,0.364593505859375,0.26251220703125
80964,0.33709716796875,0.5350189208984375,0.3485565185546875
80965,0.437225341796875,0.750457763671875,0.3862152099609375
80966,0.6409759521484375,0.9774169921875,0.3620452880859375
80967,0.900970458984375,1.160629272460938,0.28558349609375
80968,1.180419921875,1.293807983398438,0.2327880859375
80969,1.485565185546875,1.405105590820312,0.2952728271484375
80970,1.751617431640625,1.490432739257812,0.411956787109375
80971,1.809951782226562,1.493148803710938,0.3319854736328125
80972,1.589324951171875,1.537429809570312,-0.0904541015625
80973,1.386886596679688,1.614303588867188,-0.460235595703125
80974,1.289093017578125,1.524459838867188,-0.514007568359375
80975,1.19940185546875,1.347396850585938,-0.33056640625
80976,1.037582397460938,1.19482421875,-0.1052093505859375
80977,0.836883544921875,1.03240966796875,-0.006805419921875
80978,0.682220458984375,0.8371124267578125,-0.0027008056640625
80979,0.5147552490234375,0.5924224853515625,0.012847900390625
80980,0.360504150390625,0.351226806640625,0.100830078125
80981,0.2304534912109375,0.183624267578125,0.2819366455078125
80982,0.1536407470703125,0.0686492919921875,0.4125213623046875
80983,0.11065673828125,0.0235748291015625,0.476318359375
80984,0.0915679931640625,-0.0202789306640625,0.5567779541015625
80985,0.093597412109375,-0.0372772216796875,0.6338958740234375
80986,0.092864990234375,0.0003204345703125,0.639129638671875
80987,0.0499267578125,0.1036529541015625,0.6078948974609375
80988,0.0252838134765625,0.1784210205078125,0.5358734130859375
80989,-0.0109710693359375,0.20819091796875,0.3669586181640625
80990,-0.1331787109375,0.3124847412109375,0.2540283203125
80991,-0.14044189453125,0.2927398681640625,0.4018402099609375
80992,-0.0417938232421875,0.1014404296875,0.51531982421875
80993,0.0441741943359375,-0.03192138671875,0.4169464111328125
80994,0.0348358154296875,-0.0331573486328125,0.2525482177734375
80995,0.003509521484375,-0.0418243408203125,0.097625732421875
80996,0.0050201416015625,-0.040985107421875,0.0066680908203125
80997,0.020721435546875,0.00482177734375,-0.0257415771484375
80998,0.057891845703125,0.0824432373046875,0.0113067626953125
80999,0.0830230712890625,0.2100372314453125,0.0807952880859375
81000,0.1028594970703125,0.32415771484375,0.1408233642578125
81001,0.1666412353515625,0.438934326171875,0.253448486328125
81002,0.3242034912109375,0.4911956787109375,0.5652618408203125
81003,0.484893798828125,0.477081298828125,1.052047729492188
81004,0.5955810546875,0.5531768798828125,1.366531372070312
81005,0.71685791015625,0.773101806640625,1.305068969726562
81006,0.943634033203125,0.9590606689453124,1.148330688476562
81007,1.325149536132812,0.8666839599609375,1.472213745117188
81008,1.548355102539062,0.8568878173828125,1.70941162109375
81009,1.681655883789062,1.116897583007812,1.457107543945312
81010,1.886611938476562,1.14410400390625,1.665481567382812
81011,1.823638916015625,0.9723968505859376,1.96856689453125
81012,1.5130615234375,0.9202117919921876,1.943466186523438
81013,1.221389770507812,0.945068359375,1.798492431640625
81014,1.058547973632812,0.8835601806640625,1.822845458984375
81015,0.9159393310546876,0.774169921875,1.9417724609375
81016,0.74237060546875,0.6573638916015625,1.999053955078125
81017,0.5677947998046875,0.6024169921875,2.026657104492188
81018,0.3993682861328125,0.5668182373046875,2.040176391601562
81019,0.24591064453125,0.5072174072265625,1.959030151367188
81020,0.132568359375,0.4368743896484375,1.8446044921875
81021,0.046905517578125,0.3654327392578125,1.734466552734375
81022,-0.0185546875,0.3134765625,1.594436645507812
81023,-0.027862548828125,0.27349853515625,1.470199584960938
81024,-0.0435028076171875,0.2585906982421875,1.343978881835938
81025,-0.07574462890625,0.2365875244140625,1.130523681640625
81026,-0.0911865234375,0.2293548583984375,0.92645263671875
81027,-0.0905914306640625,0.215789794921875,0.7438507080078125
81028,-0.05999755859375,0.1601104736328125,0.577056884765625
81029,-0.0315704345703125,0.1040496826171875,0.4297027587890625
81030,-0.0418243408203125,0.0660552978515625,0.3234710693359375
81031,-0.08001708984375,0.047607421875,0.2331695556640625
81032,-0.10906982421875,0.0639495849609375,0.1961517333984375
81033,-0.1180877685546875,0.104461669921875,0.1682586669921875
81034,-0.0530242919921875,0.17071533203125,0.096160888671875
81035,0.0334625244140625,0.1958160400390625,0.1761627197265625
81036,0.084686279296875,0.219696044921875,0.4323883056640625
81037,0.12548828125,0.219573974609375,0.6159210205078125
81038,0.167633056640625,0.23834228515625,0.6710662841796875
81039,0.219573974609375,0.2928009033203125,0.597259521484375
81040,0.2434234619140625,0.3418731689453125,0.4947509765625
81041,0.23760986328125,0.334075927734375,0.4004669189453125
81042,0.211761474609375,0.293487548828125,0.310028076171875
81043,0.1835479736328125,0.241973876953125,0.2719268798828125
81044,0.1730499267578125,0.2364044189453125,0.25396728515625
81045,0.197235107421875,0.3144073486328125,0.2532806396484375
81046,0.2617034912109375,0.4499969482421875,0.2349700927734375
81047,0.432647705078125,0.658721923828125,0.173492431640625
81048,0.71563720703125,0.9121856689453124,0.0907135009765625
81049,1.00933837890625,1.118499755859375,0.0465545654296875
81050,1.30084228515625,1.2939453125,0.137664794921875
81051,1.584609985351562,1.449371337890625,0.435821533203125
81052,1.839202880859375,1.560409545898438,0.6843109130859375
81053,1.870712280273438,1.62774658203125,0.55706787109375
81054,1.59356689453125,1.728530883789062,0.0829620361328125
81055,1.380447387695312,1.742889404296875,-0.236053466796875
81056,1.256805419921875,1.54461669921875,-0.3375396728515625
81057,1.161712646484375,1.274795532226562,-0.310455322265625
81058,1.062103271484375,1.054443359375,-0.18048095703125
81059,0.93536376953125,0.8524932861328125,-0.019927978515625
81060,0.7497711181640625,0.669647216796875,0.0699005126953125
81061,0.5439605712890625,0.50830078125,0.1144561767578125
81062,0.3858489990234375,0.353179931640625,0.155792236328125
81063,0.2651214599609375,0.198516845703125,0.2966156005859375
81064,0.1413116455078125,0.106109619140625,0.5727996826171875
81065,0.0482940673828125,0.1054534912109375,0.857208251953125
81066,-0.009979248046875,0.121490478515625,0.862640380859375
81067,-0.0333709716796875,0.1361846923828125,0.7045745849609375
81068,-0.0212554931640625,0.120697021484375,0.5533294677734375
81069,-0.0029449462890625,0.0805511474609375,0.3863677978515625
81070,-0.1025390625,0.10711669921875,0.2869110107421875
81071,-0.076629638671875,0.0797271728515625,0.4142913818359375
81072,0.158538818359375,-0.1225128173828125,0.6192779541015625
81073,0.3112030029296875,-0.2474212646484375,0.5798187255859375
81074,0.1487274169921875,-0.1322021484375,0.422454833984375
81075,-0.0742645263671875,0.0612335205078125,0.2162933349609375
81076,-0.19586181640625,0.223602294921875,0.1075439453125
81077,-0.20196533203125,0.31829833984375,0.144134521484375
81078,-0.1065826416015625,0.3457489013671875,0.188873291015625
81079,0.0248870849609375,0.3494415283203125,0.1851348876953125
81080,0.1414031982421875,0.2707366943359375,0.31182861328125
81081,0.2183837890625,0.22216796875,0.4362945556640625
81082,0.2212677001953125,0.188018798828125,0.469970703125
81083,0.1927947998046875,0.11016845703125,0.360595703125
81084,0.2125244140625,0.0800323486328125,0.3039703369140625
81085,0.259521484375,0.115386962890625,0.611663818359375
81086,0.3063507080078125,0.1979827880859375,1.0433349609375
81087,0.43353271484375,0.257965087890625,1.367752075195312
81088,0.6050872802734375,0.2956390380859375,1.526687622070312
81089,0.78289794921875,0.382781982421875,1.536331176757812
81090,1.017959594726562,0.5992584228515625,1.5400390625
81091,1.434799194335938,0.78228759765625,1.783187866210938
81092,1.825820922851562,0.7181396484375,2.2467041015625
81093,1.5828857421875,1.1707763671875,2.22943115234375
81094,1.523544311523438,1.401947021484375,2.10302734375
81095,1.388336181640625,1.173583984375,2.351348876953125
81096,1.124786376953125,1.066925048828125,2.28033447265625
81097,0.9834747314453124,0.879638671875,2.09918212890625
81098,0.82891845703125,0.7042083740234375,1.996139526367188
81099,0.6541900634765625,0.617645263671875,1.974075317382812
81100,0.51702880859375,0.565643310546875,1.874954223632812
81101,0.41326904296875,0.5362091064453125,1.700454711914062
81102,0.38165283203125,0.4281463623046875,1.553909301757812
81103,0.287261962890625,0.323699951171875,1.502151489257812
81104,0.176422119140625,0.246978759765625,1.49078369140625
81105,0.104278564453125,0.1966094970703125,1.429519653320312
81106,0.0418701171875,0.1710205078125,1.249267578125
81107,0.0066070556640625,0.1380462646484375,1.062423706054688
81108,-0.0040740966796875,0.1262664794921875,0.83203125
81109,0.011871337890625,0.1116790771484375,0.60040283203125
81110,0.0484466552734375,0.0895538330078125,0.4601898193359375
81111,0.046875,0.0851287841796875,0.363250732421875
81112,0.011688232421875,0.063201904296875,0.3132781982421875
81113,-0.0919342041015625,0.05072021484375,0.3746490478515625
81114,-0.2144317626953125,0.079833984375,0.37286376953125
81115,-0.2476043701171875,0.14923095703125,0.3249053955078125
81116,-0.193023681640625,0.1699981689453125,0.319000244140625
81117,-0.1143035888671875,0.132965087890625,0.3058624267578125
81118,0.003021240234375,0.0911865234375,0.3397674560546875
81119,0.1351318359375,0.06475830078125,0.350372314453125
81120,0.269195556640625,0.1056060791015625,0.321502685546875
81121,0.3718109130859375,0.1922607421875,0.2967376708984375
81122,0.387237548828125,0.2557525634765625,0.2576751708984375
81123,0.36260986328125,0.2520751953125,0.273345947265625
81124,0.3198089599609375,0.1911773681640625,0.3259735107421875
81125,0.257049560546875,0.15264892578125,0.4123992919921875
81126,0.1699676513671875,0.1561737060546875,0.5021820068359375
81127,0.1025238037109375,0.195098876953125,0.5398712158203125
81128,0.1074676513671875,0.287872314453125,0.50830078125
81129,0.287994384765625,0.471923828125,0.393524169921875
81130,0.5862884521484375,0.704193115234375,0.2294769287109375
81131,0.8849945068359375,0.9048004150390624,0.1450958251953125
81132,1.17718505859375,1.13348388671875,0.2501678466796875
81133,1.465545654296875,1.408706665039062,0.533538818359375
81134,1.668930053710938,1.596466064453125,0.745880126953125
81135,1.543228149414062,1.703887939453125,0.457794189453125
81136,1.27130126953125,1.9197998046875,-0.037384033203125
81137,1.23486328125,1.94244384765625,-0.3263397216796875
81138,1.31842041015625,1.594406127929688,-0.41827392578125
81139,1.353195190429688,1.2196044921875,-0.3753509521484375
81140,1.298873901367188,0.9584197998046876,-0.18304443359375
81141,1.15625,0.7442626953125,0.0695648193359375
81142,0.9472198486328124,0.552734375,0.27667236328125
81143,0.71844482421875,0.3748626708984375,0.3679046630859375
81144,0.53424072265625,0.21990966796875,0.41448974609375
81145,0.43377685546875,0.1201629638671875,0.496673583984375
81146,0.3987274169921875,0.043426513671875,0.549285888671875
81147,0.373870849609375,-0.0113677978515625,0.5238189697265625
81148,0.2911529541015625,0.00341796875,0.459503173828125
81149,0.1823883056640625,-0.01043701171875,0.42645263671875
81150,0.0753631591796875,-0.0077056884765625,0.4629974365234375
81151,0.0234527587890625,0.020294189453125,0.4358367919921875
81152,-0.00848388671875,0.0780181884765625,0.36676025390625
81153,-0.05938720703125,0.14544677734375,0.27032470703125
81154,-0.0546875,0.127105712890625,0.30126953125
81155,-0.065704345703125,0.0780181884765625,0.3589935302734375
81156,-0.084503173828125,0.09857177734375,0.5107421875
81157,-0.0808258056640625,0.1066741943359375,0.4846649169921875
81158,-0.153411865234375,0.086517333984375,0.362823486328125
81159,-0.2303924560546875,0.135894775390625,0.27923583984375
81160,-0.2591094970703125,0.212432861328125,0.1974334716796875
81161,-0.2344512939453125,0.251190185546875,0.1502532958984375
81162,-0.152252197265625,0.27496337890625,0.1105804443359375
81163,0.0024871826171875,0.29901123046875,0.08740234375
81164,0.169647216796875,0.335296630859375,0.18975830078125
81165,0.2988739013671875,0.3430633544921875,0.469085693359375
81166,0.4099578857421875,0.33477783203125,0.8154754638671875
81167,0.49383544921875,0.382080078125,1.010467529296875
81168,0.5743408203125,0.5025177001953125,1.156631469726562
81169,0.9508819580078124,0.6179046630859375,1.455810546875
81170,1.493499755859375,0.481048583984375,1.852615356445312
81171,1.425506591796875,0.7977752685546875,1.850357055664062
81172,1.567153930664062,1.385848999023438,1.530929565429688
81173,1.842910766601562,1.5093994140625,1.79241943359375
81174,1.842880249023438,1.424224853515625,1.903228759765625
81175,1.589263916015625,1.193862915039062,1.916183471679688
81176,1.288299560546875,1.078994750976562,2.092300415039062
81177,1.088470458984375,0.95574951171875,2.013427734375
81178,0.9647674560546876,0.763275146484375,1.958358764648438
81179,0.8373260498046875,0.6306304931640625,2.00665283203125
81180,0.69146728515625,0.5539398193359375,2.013595581054688
81181,0.554840087890625,0.5019989013671875,1.95782470703125
81182,0.4129180908203125,0.4622802734375,1.89874267578125
81183,0.263916015625,0.3996429443359375,1.816299438476562
81184,0.1630096435546875,0.299957275390625,1.68487548828125
81185,0.116607666015625,0.211578369140625,1.572341918945312
81186,0.0359344482421875,0.2191619873046875,1.396087646484375
81187,-0.015167236328125,0.21673583984375,1.233322143554688
81188,-0.03924560546875,0.181121826171875,1.145721435546875
81189,-0.0306396484375,0.1389007568359375,0.991119384765625
81190,-0.0152130126953125,0.09942626953125,0.7644500732421875
81191,-0.026458740234375,0.078704833984375,0.5423126220703125
81192,-0.0731201171875,0.061859130859375,0.3527374267578125
81193,-0.15069580078125,0.0614471435546875,0.258575439453125
81194,-0.2451324462890625,0.087249755859375,0.197052001953125
81195,-0.2819671630859375,0.1084442138671875,0.1623687744140625
81196,-0.2674560546875,0.1231842041015625,0.1497802734375
81197,-0.1425018310546875,0.0915374755859375,0.1573486328125
81198,0.02166748046875,0.04034423828125,0.2135467529296875
81199,0.14080810546875,-0.009033203125,0.3084259033203125
81200,0.2181854248046875,-0.00872802734375,0.4267578125
81201,0.2404022216796875,0.033050537109375,0.4842987060546875
81202,0.241241455078125,0.0878753662109375,0.473663330078125
81203,0.267303466796875,0.13104248046875,0.403961181640625
81204,0.2860260009765625,0.1405487060546875,0.2921295166015625
81205,0.2785797119140625,0.1483917236328125,0.2597503662109375
81206,0.2657470703125,0.1732177734375,0.301055908203125
81207,0.270294189453125,0.241729736328125,0.377777099609375
81208,0.2825469970703125,0.3628387451171875,0.4455108642578125
81209,0.31646728515625,0.548492431640625,0.4828033447265625
81210,0.4265594482421875,0.809600830078125,0.474395751953125
81211,0.6349945068359375,1.100372314453125,0.378143310546875
81212,0.86370849609375,1.3321533203125,0.228057861328125
81213,1.126754760742188,1.518646240234375,0.1933135986328125
81214,1.514007568359375,1.625442504882812,0.3132171630859375
81215,1.886123657226562,1.579788208007812,0.4368133544921875
81216,1.913803100585938,1.474594116210938,0.1875152587890625
81217,1.669540405273438,1.567825317382812,-0.305877685546875
81218,1.568649291992188,1.610244750976562,-0.53594970703125
81219,1.539535522460938,1.427474975585938,-0.2602691650390625
81220,1.371566772460938,1.188919067382812,0.033599853515625
81221,1.083404541015625,0.9900970458984376,0.1540374755859375
81222,0.8659820556640625,0.79071044921875,0.1567840576171875
81223,0.7080230712890625,0.5802459716796875,0.1154327392578125
81224,0.5153350830078125,0.3844146728515625,0.1856536865234375
81225,0.35614013671875,0.2355499267578125,0.37335205078125
81226,0.25164794921875,0.1436004638671875,0.4989776611328125
81227,0.185546875,0.07635498046875,0.4893646240234375
81228,0.11163330078125,0.03582763671875,0.36566162109375
81229,0.0288543701171875,0.0407867431640625,0.2447357177734375
81230,-0.024749755859375,0.059356689453125,0.37518310546875
81231,-0.0328826904296875,0.0615081787109375,0.5033111572265625
81232,-0.0971221923828125,0.1010589599609375,0.539764404296875
81233,-0.219207763671875,0.2236480712890625,0.49542236328125
81234,-0.241851806640625,0.249664306640625,0.5172119140625
81235,-0.1224822998046875,0.139251708984375,0.6381683349609375
81236,0.1405487060546875,-0.015594482421875,0.6571502685546875
81237,0.2189483642578125,-0.027435302734375,0.579833984375
81238,0.0806121826171875,0.038177490234375,0.32012939453125
81239,-0.087738037109375,0.13916015625,0.035614013671875
81240,-0.1488800048828125,0.2640380859375,-0.042938232421875
81241,-0.1433868408203125,0.3448944091796875,0.00335693359375
81242,-0.1214141845703125,0.3614654541015625,0.0532379150390625
81243,-0.0210418701171875,0.3455810546875,0.1407928466796875
81244,0.1310577392578125,0.3198699951171875,0.2366485595703125
81245,0.24810791015625,0.3123016357421875,0.3367156982421875
81246,0.289520263671875,0.326080322265625,0.536376953125
81247,0.322998046875,0.32391357421875,0.8272857666015625
81248,0.34014892578125,0.313140869140625,0.995361328125
81249,0.3771209716796875,0.3722686767578125,1.12060546875
81250,0.5099639892578125,0.4770660400390625,1.339828491210938
81251,0.72406005859375,0.5952301025390625,1.5128173828125
81252,0.9281768798828124,0.7373199462890625,1.470916748046875
81253,1.256607055664062,0.88885498046875,1.614456176757812
81254,1.780715942382812,0.85772705078125,2.159942626953125
81255,2.019119262695312,1.0821533203125,2.316970825195312
81256,1.71771240234375,1.447982788085938,1.95257568359375
81257,1.428543090820312,1.28411865234375,2.141433715820312
81258,1.120895385742188,1.057296752929688,2.232894897460938
81259,0.960479736328125,0.943603515625,2.011428833007812
81260,0.8320465087890625,0.84747314453125,1.853103637695312
81261,0.6463775634765625,0.7352752685546875,1.85870361328125
81262,0.498321533203125,0.6199493408203125,1.94549560546875
81263,0.3923797607421875,0.5333251953125,1.965713500976562
81264,0.2987213134765625,0.4457855224609375,1.918548583984375
81265,0.2168731689453125,0.3293304443359375,1.777206420898438
81266,0.123382568359375,0.223602294921875,1.575653076171875
81267,0.010467529296875,0.154754638671875,1.428848266601562
81268,-0.0675048828125,0.08978271484375,1.258468627929688
81269,-0.074951171875,0.021881103515625,1.046310424804688
81270,-0.07293701171875,0.0135345458984375,0.8240203857421875
81271,-0.0498809814453125,0.0299835205078125,0.651092529296875
81272,-0.0265350341796875,0.0449981689453125,0.5519256591796875
81273,-0.01397705078125,0.03143310546875,0.4742279052734375
81274,-0.069488525390625,0.02301025390625,0.3724517822265625
81275,-0.186370849609375,0.086761474609375,0.256744384765625
81276,-0.3050994873046875,0.1768951416015625,0.211212158203125
81277,-0.3624725341796875,0.2132110595703125,0.1817779541015625
81278,-0.304534912109375,0.198516845703125,0.14007568359375
81279,-0.1668548583984375,0.1454925537109375,0.17047119140625
81280,-0.0574798583984375,0.089111328125,0.32098388671875
81281,0.011627197265625,0.057281494140625,0.460601806640625
81282,0.0906524658203125,0.0687713623046875,0.55438232421875
81283,0.1593017578125,0.122772216796875,0.5784759521484375
81284,0.175750732421875,0.158050537109375,0.5426483154296875
81285,0.18609619140625,0.182403564453125,0.4584503173828125
81286,0.2020111083984375,0.21502685546875,0.3695526123046875
81287,0.225128173828125,0.22393798828125,0.3165740966796875
81288,0.27630615234375,0.24359130859375,0.3484954833984375
81289,0.3712310791015625,0.31414794921875,0.4206390380859375
81290,0.5397186279296875,0.5191650390625,0.4877166748046875
81291,0.7637481689453125,0.8287200927734375,0.482177734375
81292,1.012603759765625,1.14593505859375,0.4181060791015625
81293,1.214004516601562,1.401412963867188,0.44970703125
81294,1.46148681640625,1.513534545898438,0.5592803955078125
81295,1.720565795898438,1.494277954101562,0.5355987548828125
81296,1.703704833984375,1.498825073242188,0.2816162109375
81297,1.493179321289062,1.698654174804688,-0.0983123779296875
81298,1.453643798828125,1.91229248046875,-0.305267333984375
81299,1.5350341796875,1.849807739257812,-0.2795257568359375
81300,1.432601928710938,1.659515380859375,-0.0109405517578125
81301,1.131500244140625,1.511520385742188,0.12762451171875
81302,0.8651885986328125,1.318267822265625,0.170135498046875
81303,0.6966400146484375,1.079757690429688,0.2054595947265625
81304,0.522308349609375,0.7838134765625,0.171630859375
81305,0.3765869140625,0.46087646484375,0.125701904296875
81306,0.2500762939453125,0.1018829345703125,0.0191192626953125
81307,0.163787841796875,-0.147613525390625,-0.0365142822265625
81308,0.09332275390625,-0.214813232421875,0.0818634033203125
81309,0.0314483642578125,-0.219482421875,0.245208740234375
81310,0.0147552490234375,-0.2735748291015625,0.417236328125
81311,0.0020904541015625,-0.2722625732421875,0.507720947265625
81312,0.0057525634765625,-0.197662353515625,0.4874267578125
81313,-0.00531005859375,-0.1102447509765625,0.4617919921875
81314,-0.0832977294921875,0.0508575439453125,0.4439239501953125
81315,-0.1229248046875,0.190887451171875,0.4813690185546875
81316,-0.0428619384765625,0.12615966796875,0.540435791015625
81317,0.046630859375,-0.0114593505859375,0.5232391357421875
81318,0.074005126953125,-0.0361175537109375,0.475921630859375
81319,0.031982421875,-0.0007781982421875,0.375946044921875
81320,-0.0246429443359375,0.076690673828125,0.1934356689453125
81321,-0.0301666259765625,0.150726318359375,0.0183563232421875
81322,0.0018768310546875,0.1703948974609375,-0.039459228515625
81323,0.044403076171875,0.1746063232421875,-0.0194244384765625
81324,0.07525634765625,0.1953277587890625,0.0087890625
81325,0.15234375,0.2772369384765625,0.165740966796875
81326,0.27130126953125,0.3518218994140625,0.4771881103515625
81327,0.3898162841796875,0.3299102783203125,0.707183837890625
81328,0.495361328125,0.3152618408203125,0.8140716552734375
81329,0.5693206787109375,0.440582275390625,0.95025634765625
81330,0.6830596923828125,0.6336212158203125,1.205764770507812
81331,0.9656219482421876,0.7166900634765625,1.482635498046875
81332,1.336166381835938,0.802154541015625,1.547210693359375
81333,1.607955932617188,0.8062744140625,1.88720703125
81334,1.443466186523438,1.138320922851562,1.915618896484375
81335,1.396957397460938,1.272232055664062,1.79473876953125
81336,1.399993896484375,1.0374755859375,1.909500122070312
81337,1.253067016601562,0.899627685546875,1.969390869140625
81338,1.112838745117188,0.7984466552734375,1.970260620117188
81339,0.992431640625,0.730377197265625,1.882598876953125
81340,0.833984375,0.703460693359375,1.798980712890625
81341,0.6834564208984375,0.6612091064453125,1.786788940429688
81342,0.56878662109375,0.629913330078125,1.834243774414062
81343,0.475555419921875,0.598968505859375,1.847885131835938
81344,0.3901214599609375,0.572509765625,1.7830810546875
81345,0.3188018798828125,0.5131683349609375,1.66650390625
81346,0.2353515625,0.4275665283203125,1.550628662109375
81347,0.1719818115234375,0.2939453125,1.447662353515625
81348,0.1558380126953125,0.20147705078125,1.3543701171875
81349,0.1162261962890625,0.1751556396484375,1.215927124023438
81350,0.08148193359375,0.126678466796875,1.024383544921875
81351,0.1142120361328125,0.10302734375,0.82696533203125
81352,0.1165924072265625,0.0931549072265625,0.6336517333984375
81353,0.0844879150390625,0.0742340087890625,0.4721527099609375
81354,0.003204345703125,0.0640869140625,0.401153564453125
81355,-0.1145477294921875,0.0677032470703125,0.3584442138671875
81356,-0.2480926513671875,0.087615966796875,0.3262786865234375
81357,-0.324432373046875,0.1455535888671875,0.243804931640625
81358,-0.2467041015625,0.180023193359375,0.101898193359375
81359,-0.087677001953125,0.144805908203125,0.077117919921875
81360,0.02178955078125,0.09820556640625,0.1992340087890625
81361,0.0770263671875,0.08502197265625,0.421173095703125
81362,0.09967041015625,0.101837158203125,0.5998382568359375
81363,0.1239471435546875,0.180267333984375,0.6366729736328125
81364,0.174896240234375,0.2780914306640625,0.5458831787109375
81365,0.2288360595703125,0.332977294921875,0.46258544921875
81366,0.2724456787109375,0.3434600830078125,0.4072265625
81367,0.3271331787109375,0.3305206298828125,0.3759765625
81368,0.420806884765625,0.3598175048828125,0.4314422607421875
81369,0.5337066650390625,0.4559783935546875,0.524658203125
81370,0.6468505859375,0.6474151611328125,0.5660858154296875
81371,0.7425994873046875,0.888519287109375,0.5370941162109375
81372,0.866851806640625,1.099472045898438,0.502410888671875
81373,1.1226806640625,1.22430419921875,0.5670318603515625
81374,1.494277954101562,1.282150268554688,0.4403228759765625
81375,1.851455688476562,1.360504150390625,0.14190673828125
81376,1.799285888671875,1.512954711914062,-0.217498779296875
81377,1.61492919921875,1.7314453125,-0.4043121337890625
81378,1.765960693359375,1.70770263671875,-0.270263671875
81379,1.830230712890625,1.471466064453125,-0.16180419921875
81380,1.568023681640625,1.276107788085938,-0.052520751953125
81381,1.143646240234375,1.112960815429688,0.1815338134765625
81382,0.838043212890625,0.906768798828125,0.3854217529296875
81383,0.69927978515625,0.6695404052734375,0.461090087890625
81384,0.5433807373046875,0.38299560546875,0.4286651611328125
81385,0.3021392822265625,0.1281280517578125,0.2171478271484375
81386,0.0890655517578125,-0.0416107177734375,0.041778564453125
81387,-0.04864501953125,-0.1438140869140625,0.0362548828125
81388,-0.15289306640625,-0.2144317626953125,0.1930389404296875
81389,-0.2084197998046875,-0.21746826171875,0.3824462890625
81390,-0.1961669921875,-0.179962158203125,0.46923828125
81391,-0.1840362548828125,-0.1312408447265625,0.42620849609375
81392,-0.1848602294921875,0.0053558349609375,0.4422454833984375
81393,-0.1848602294921875,0.2344818115234375,0.478729248046875
81394,-0.1473846435546875,0.3446807861328125,0.4696197509765625
81395,-0.0407257080078125,0.2419586181640625,0.5645904541015625
81396,0.099700927734375,0.0995941162109375,0.60150146484375
81397,0.109710693359375,0.0599365234375,0.49176025390625
81398,0.0323486328125,0.0718841552734375,0.2844696044921875
81399,0.0050048828125,0.073883056640625,0.0454254150390625
81400,0.053558349609375,0.0782318115234375,-0.073089599609375
81401,0.1271820068359375,0.104278564453125,-0.07684326171875
81402,0.1885986328125,0.128662109375,-0.0632781982421875
81403,0.192779541015625,0.1867218017578125,-0.0150909423828125
81404,0.1876068115234375,0.286285400390625,0.128509521484375
81405,0.2446136474609375,0.35595703125,0.33599853515625
81406,0.364898681640625,0.391265869140625,0.5932464599609375
81407,0.4838409423828125,0.4420318603515625,0.86260986328125
81408,0.527618408203125,0.5054168701171875,1.113632202148438
81409,0.56903076171875,0.655548095703125,1.236114501953125
81410,0.8090362548828125,0.8263397216796875,1.34429931640625
81411,1.176956176757812,0.841094970703125,1.471878051757812
81412,1.448822021484375,0.7371826171875,1.857177734375
81413,1.367340087890625,0.9116363525390624,2.065414428710938
81414,1.3912353515625,1.193679809570312,1.953460693359375
81415,1.4869384765625,1.265487670898438,2.060821533203125
81416,1.372467041015625,1.165191650390625,2.12518310546875
81417,1.218353271484375,1.0311279296875,1.996490478515625
81418,1.108932495117188,0.8116607666015625,1.9261474609375
81419,0.9876708984375,0.6127471923828125,2.0098876953125
81420,0.809326171875,0.51824951171875,2.027450561523438
81421,0.6373138427734375,0.4731292724609375,1.985015869140625
81422,0.507171630859375,0.423858642578125,1.93463134765625
81423,0.3820953369140625,0.3916168212890625,1.867523193359375
81424,0.2653045654296875,0.333770751953125,1.750961303710938
81425,0.1362762451171875,0.2482147216796875,1.622848510742188
81426,0.026611328125,0.166595458984375,1.5509033203125
81427,-0.0669097900390625,0.1365966796875,1.433380126953125
81428,-0.06756591796875,0.1046905517578125,1.276718139648438
81429,-0.0610504150390625,0.0985870361328125,1.114044189453125
81430,-0.0582733154296875,0.0931549072265625,0.875244140625
81431,-0.0443115234375,0.10980224609375,0.686492919921875
81432,-0.030242919921875,0.1178741455078125,0.5506591796875
81433,-0.0323333740234375,0.115234375,0.449005126953125
81434,-0.0862579345703125,0.131561279296875,0.37579345703125
81435,-0.1972198486328125,0.1999969482421875,0.2730712890625
81436,-0.2709197998046875,0.2857666015625,0.1378631591796875
81437,-0.2309112548828125,0.3115692138671875,0.06439208984375
81438,-0.0947723388671875,0.2921295166015625,0.1194000244140625
81439,0.040802001953125,0.228759765625,0.2543792724609375
81440,0.147308349609375,0.1557769775390625,0.415313720703125
81441,0.2188262939453125,0.104949951171875,0.5120697021484375
81442,0.2322540283203125,0.1065673828125,0.5029754638671875
81443,0.23443603515625,0.129608154296875,0.4370269775390625
81444,0.231689453125,0.149932861328125,0.402862548828125
81445,0.200408935546875,0.1242828369140625,0.347503662109375
81446,0.179595947265625,0.1122589111328125,0.27313232421875
81447,0.178680419921875,0.1548309326171875,0.2430572509765625
81448,0.22039794921875,0.25146484375,0.2727203369140625
81449,0.3097991943359375,0.4271392822265625,0.353912353515625
81450,0.43115234375,0.719390869140625,0.4662628173828125
81451,0.5985107421875,1.05108642578125,0.5406036376953125
81452,0.750091552734375,1.27435302734375,0.562744140625
81453,0.89044189453125,1.396011352539062,0.670745849609375
81454,1.197265625,1.440017700195312,0.7625732421875
81455,1.675613403320312,1.48773193359375,0.4651947021484375
81456,2.028472900390625,1.525405883789062,-0.2229766845703125
81457,1.9642333984375,1.621719360351562,-0.7255706787109375
81458,1.855072021484375,1.611648559570312,-0.57025146484375
81459,1.8497314453125,1.373336791992188,-0.208404541015625
81460,1.588714599609375,1.157211303710938,0.1784515380859375
81461,1.102508544921875,1.021484375,0.4526519775390625
81462,0.722015380859375,0.841644287109375,0.5657196044921875
81463,0.5405120849609375,0.6496734619140625,0.5925750732421875
81464,0.3861541748046875,0.4607086181640625,0.563201904296875
81465,0.21917724609375,0.2480010986328125,0.4490814208984375
81466,0.0612945556640625,0.08477783203125,0.23199462890625
81467,-0.0709686279296875,0.0491790771484375,0.013092041015625
81468,-0.118438720703125,0.05657958984375,0.0883941650390625
81469,-0.075469970703125,0.011444091796875,0.2530670166015625
81470,-0.0340118408203125,-0.066131591796875,0.38287353515625
81471,-0.0035552978515625,-0.120361328125,0.5343017578125
81472,-0.04986572265625,-0.0469207763671875,0.580291748046875
81473,-0.0814208984375,0.0703277587890625,0.550140380859375
81474,0.045684814453125,0.040985107421875,0.7931060791015625
81475,0.246368408203125,-0.0530853271484375,0.9036102294921876
81476,0.2383270263671875,0.0513916015625,0.796630859375
81477,0.022796630859375,0.3274993896484375,0.5200042724609375
81478,-0.0772247314453125,0.5328521728515625,0.1291351318359375
81479,0.0001983642578125,0.5951690673828125,-0.155792236328125
81480,0.1059112548828125,0.4559173583984375,-0.102630615234375
81481,0.1599578857421875,0.208770751953125,0.11785888671875
81482,0.22821044921875,0.171234130859375,0.1816864013671875
81483,0.258636474609375,0.194610595703125,0.0661468505859375
81484,0.266204833984375,0.1985626220703125,0.009979248046875
81485,0.2385406494140625,0.2354278564453125,0.1261138916015625
81486,0.1800384521484375,0.28863525390625,0.38690185546875
81487,0.194366455078125,0.3186187744140625,0.7013397216796875
81488,0.28399658203125,0.3248443603515625,0.9741363525390624
81489,0.3925018310546875,0.361724853515625,1.151229858398438
81490,0.494384765625,0.429718017578125,1.269424438476562
81491,0.6192474365234375,0.5269927978515625,1.391128540039062
81492,0.8475494384765625,0.652496337890625,1.574569702148438
81493,1.228103637695312,0.693695068359375,1.780792236328125
81494,1.49005126953125,0.67529296875,2.017120361328125
81495,1.458740234375,0.8983612060546875,1.993423461914062
81496,1.45068359375,1.069915771484375,2.090850830078125
81497,1.365859985351562,1.124420166015625,2.123580932617188
81498,1.162551879882812,1.090774536132812,1.981903076171875
81499,1.04547119140625,0.9469757080078124,1.864913940429688
81500,0.9612884521484376,0.7643280029296875,1.815322875976562
81501,0.7641448974609375,0.6116180419921875,1.90350341796875
81502,0.5693817138671875,0.50933837890625,1.998275756835938
81503,0.432159423828125,0.4609527587890625,1.971527099609375
81504,0.307708740234375,0.454437255859375,1.872695922851562
81505,0.194549560546875,0.4468994140625,1.759185791015625
81506,0.100006103515625,0.4154205322265625,1.623062133789062
81507,0.02703857421875,0.322174072265625,1.499420166015625
81508,-0.026458740234375,0.2419891357421875,1.405807495117188
81509,-0.017913818359375,0.160308837890625,1.257568359375
81510,-0.0204010009765625,0.12921142578125,1.03302001953125
81511,-0.0234832763671875,0.1372222900390625,0.806488037109375
81512,-0.0068511962890625,0.12615966796875,0.6226959228515625
81513,-0.03240966796875,0.1279449462890625,0.4862518310546875
81514,-0.07354736328125,0.14776611328125,0.363922119140625
81515,-0.1517181396484375,0.17144775390625,0.3136138916015625
81516,-0.2491912841796875,0.2054443359375,0.2499237060546875
81517,-0.3089752197265625,0.265533447265625,0.1922149658203125
81518,-0.2534637451171875,0.28240966796875,0.148193359375
81519,-0.11529541015625,0.2407684326171875,0.1610260009765625
81520,-0.0012054443359375,0.2066497802734375,0.25213623046875
81521,0.1088104248046875,0.1443939208984375,0.4317474365234375
81522,0.193939208984375,0.09039306640625,0.556365966796875
81523,0.25714111328125,0.1011199951171875,0.5966949462890625
81524,0.2916717529296875,0.1725311279296875,0.5994873046875
81525,0.3256072998046875,0.2079620361328125,0.5351104736328125
81526,0.342376708984375,0.2120208740234375,0.410003662109375
81527,0.3376007080078125,0.2252960205078125,0.2966156005859375
81528,0.3399505615234375,0.2368011474609375,0.2332763671875
81529,0.3623809814453125,0.290618896484375,0.2119598388671875
81530,0.4042510986328125,0.418426513671875,0.2481231689453125
81531,0.495849609375,0.6446990966796875,0.3431854248046875
81532,0.6498260498046875,0.956146240234375,0.47088623046875
81533,0.8707733154296875,1.210952758789062,0.4659271240234375
81534,1.1048583984375,1.346054077148438,0.3893280029296875
81535,1.323440551757812,1.507293701171875,0.4271697998046875
81536,1.455368041992188,1.655181884765625,0.4598388671875
81537,1.456436157226562,1.745208740234375,0.3647308349609375
81538,1.456695556640625,1.78271484375,0.1891021728515625
81539,1.465530395507812,1.713775634765625,-0.0764312744140625
81540,1.435836791992188,1.562210083007812,-0.2442626953125
81541,1.359085083007812,1.423324584960938,-0.2220916748046875
81542,1.233184814453125,1.256149291992188,-0.1215057373046875
81543,1.07794189453125,1.059051513671875,-0.00738525390625
81544,0.8583526611328125,0.8509979248046875,0.0321502685546875
81545,0.6305999755859375,0.6246337890625,0.0368804931640625
81546,0.429534912109375,0.400146484375,0.0513763427734375
81547,0.260955810546875,0.18939208984375,0.097137451171875
81548,0.110321044921875,0.0015869140625,0.1444549560546875
81549,-0.0073089599609375,-0.1133270263671875,0.2924346923828125
81550,-0.085113525390625,-0.1927947998046875,0.487396240234375
81551,-0.141448974609375,-0.2407379150390625,0.562774658203125
81552,-0.1523590087890625,-0.2326202392578125,0.566253662109375
81553,-0.1362762451171875,-0.194549560546875,0.576812744140625
81554,-0.1002655029296875,-0.1305694580078125,0.5066680908203125
81555,-0.066009521484375,-0.025787353515625,0.350830078125
81556,-0.04022216796875,0.0822296142578125,0.238311767578125
81557,-0.0570220947265625,0.15216064453125,0.131683349609375
81558,-0.112945556640625,0.1830596923828125,0.0374298095703125
81559,-0.13336181640625,0.1528472900390625,0.0438232421875
81560,-0.071563720703125,0.0412139892578125,0.119842529296875
81561,0.0217437744140625,-0.0404510498046875,0.2561492919921875
81562,0.0711212158203125,-0.0648193359375,0.267730712890625
81563,0.1063995361328125,-0.043243408203125,0.1208648681640625
81564,0.1495819091796875,0.0697021484375,0.0726776123046875
81565,0.13507080078125,0.1892242431640625,0.207183837890625
81566,0.131195068359375,0.31005859375,0.419647216796875
81567,0.195526123046875,0.461212158203125,0.5638427734375
81568,0.290435791015625,0.5697174072265625,0.625244140625
81569,0.417327880859375,0.49969482421875,0.7637939453125
81570,0.4539947509765625,0.4373016357421875,0.9119720458984376
81571,0.425262451171875,0.5339508056640625,1.067520141601562
81572,0.56134033203125,0.71630859375,1.22784423828125
81573,0.893768310546875,0.7993316650390625,1.385009765625
81574,1.252532958984375,0.80096435546875,1.761917114257812
81575,1.583969116210938,0.7003936767578125,2.316207885742188
81576,1.569580078125,0.9592437744140624,2.3909912109375
81577,1.562026977539062,1.339767456054688,1.837081909179688
81578,1.563018798828125,1.26531982421875,1.933929443359375
81579,1.33514404296875,1.083908081054688,2.1827392578125
81580,1.138839721679688,0.9667816162109376,2.081192016601562
81581,1.018295288085938,0.836334228515625,1.9569091796875
81582,0.8899078369140625,0.7208251953125,1.948150634765625
81583,0.7323455810546875,0.6501312255859375,1.972686767578125
81584,0.554229736328125,0.6202239990234375,1.984909057617188
81585,0.4183502197265625,0.5847625732421875,1.963241577148438
81586,0.326904296875,0.54132080078125,1.886932373046875
81587,0.26385498046875,0.4578399658203125,1.709381103515625
81588,0.21649169921875,0.332855224609375,1.53997802734375
81589,0.1279754638671875,0.2175750732421875,1.43939208984375
81590,0.0409698486328125,0.1839752197265625,1.339859008789062
81591,-0.020233154296875,0.2237396240234375,1.179794311523438
81592,-0.0008697509765625,0.2420806884765625,1.0059814453125
81593,0.0579681396484375,0.15277099609375,0.8616943359375
81594,0.042724609375,0.10723876953125,0.688629150390625
81595,0.033233642578125,0.0811309814453125,0.517120361328125
81596,0.0041961669921875,0.061737060546875,0.349761962890625
81597,-0.091827392578125,0.0631103515625,0.2404632568359375
81598,-0.249267578125,0.116912841796875,0.1711578369140625
81599,-0.339813232421875,0.188873291015625,0.1316375732421875
81600,-0.256439208984375,0.1974639892578125,0.0808258056640625
81601,-0.1167449951171875,0.173126220703125,0.102386474609375
81602,-0.0065765380859375,0.1675262451171875,0.208099365234375
81603,0.0851287841796875,0.1607818603515625,0.3452911376953125
81604,0.1463470458984375,0.1597442626953125,0.4239044189453125
81605,0.1596527099609375,0.1851348876953125,0.4118194580078125
81606,0.1569366455078125,0.1994476318359375,0.387451171875
81607,0.13653564453125,0.1903533935546875,0.3646087646484375
81608,0.116912841796875,0.18194580078125,0.3718109130859375
81609,0.1113433837890625,0.209320068359375,0.4181671142578125
81610,0.12396240234375,0.2611083984375,0.47344970703125
81611,0.168670654296875,0.347076416015625,0.5452728271484375
81612,0.2464141845703125,0.4679412841796875,0.570556640625
81613,0.3809356689453125,0.649383544921875,0.509368896484375
81614,0.571563720703125,0.837127685546875,0.4009246826171875
81615,0.7705841064453125,1.042068481445312,0.405548095703125
81616,1.032196044921875,1.260528564453125,0.518035888671875
81617,1.435211181640625,1.461990356445312,0.5339813232421875
81618,1.750518798828125,1.607162475585938,0.2895050048828125
81619,1.709304809570312,1.73095703125,-0.1601715087890625
81620,1.655807495117188,1.897201538085938,-0.57403564453125
81621,1.8236083984375,1.779510498046875,-0.6144866943359375
81622,1.887374877929688,1.417816162109375,-0.3598480224609375
81623,1.572296142578125,1.23040771484375,0.0514984130859375
81624,1.1051025390625,1.065948486328125,0.34393310546875
81625,0.8178558349609375,0.7943267822265625,0.5361480712890625
81626,0.6756439208984375,0.5299530029296875,0.5369873046875
81627,0.4636383056640625,0.2971038818359375,0.3938140869140625
81628,0.278289794921875,0.1107940673828125,0.26812744140625
81629,0.1733856201171875,0.0748443603515625,0.2411041259765625
81630,0.119842529296875,0.10736083984375,0.2730865478515625
81631,0.1138763427734375,0.0841522216796875,0.2132568359375
81632,0.1480255126953125,0.0026702880859375,0.2190704345703125
81633,0.1848297119140625,-0.0636138916015625,0.4337615966796875
81634,0.1734771728515625,-0.05615234375,0.6622314453125
81635,0.0186614990234375,0.056121826171875,0.7958984375
81636,-0.107513427734375,0.22454833984375,0.7758026123046875
81637,-0.0512237548828125,0.204193115234375,0.84368896484375
81638,0.1957855224609375,0.032745361328125,0.785308837890625
81639,0.37640380859375,-0.040802001953125,0.701904296875
81640,0.2600250244140625,0.0187225341796875,0.3978118896484375
81641,-0.006988525390625,0.1853179931640625,-0.032501220703125
81642,-0.152923583984375,0.3960723876953125,-0.1697540283203125
81643,-0.207366943359375,0.4364013671875,-0.124725341796875
81644,-0.158416748046875,0.3632354736328125,-0.0287322998046875
81645,-0.070556640625,0.2683563232421875,0.1009063720703125
81646,0.0225982666015625,0.2342529296875,0.231048583984375
81647,0.130279541015625,0.2388916015625,0.29876708984375
81648,0.23211669921875,0.2538299560546875,0.2853546142578125
81649,0.277191162109375,0.2642364501953125,0.2977447509765625
81650,0.286529541015625,0.2567138671875,0.3890533447265625
81651,0.2955169677734375,0.2051544189453125,0.523895263671875
81652,0.29046630859375,0.1483154296875,0.638702392578125
81653,0.2682037353515625,0.170562744140625,0.7611541748046875
81654,0.22454833984375,0.2669219970703125,0.881683349609375
81655,0.2789459228515625,0.364776611328125,1.039031982421875
81656,0.4344940185546875,0.43768310546875,1.25189208984375
81657,0.6286163330078125,0.51043701171875,1.517837524414062
81658,0.9912872314453124,0.5340118408203125,1.873764038085938
81659,1.367218017578125,0.6338348388671875,2.25885009765625
81660,1.641952514648438,1.086013793945312,2.429550170898438
81661,1.88128662109375,1.677841186523438,2.294891357421875
81662,1.852447509765625,1.696014404296875,2.200881958007812
81663,1.507781982421875,1.472198486328125,2.16619873046875
81664,1.2335205078125,1.16925048828125,2.002777099609375
81665,1.075668334960938,1.005615234375,1.950119018554688
81666,0.968292236328125,0.8894805908203125,2.002883911132812
81667,0.7889556884765625,0.8062744140625,2.039901733398438
81668,0.623443603515625,0.73187255859375,2.047210693359375
81669,0.47637939453125,0.6363677978515625,1.972518920898438
81670,0.30694580078125,0.5329437255859375,1.836196899414062
81671,0.13330078125,0.4141693115234375,1.612579345703125
81672,-0.001129150390625,0.288482666015625,1.464065551757812
81673,-0.0780792236328125,0.1873626708984375,1.378067016601562
81674,-0.0605926513671875,0.074066162109375,1.241668701171875
81675,-0.0569915771484375,0.0629730224609375,0.9939117431640624
81676,-0.0346221923828125,0.0881500244140625,0.7484893798828125
81677,-0.0116729736328125,0.111663818359375,0.6205291748046875
81678,-0.00970458984375,0.0984039306640625,0.50738525390625
81679,-0.04150390625,0.0777130126953125,0.393768310546875
81680,-0.1352996826171875,0.102813720703125,0.2802886962890625
81681,-0.259490966796875,0.1952667236328125,0.1528472900390625
81682,-0.291290283203125,0.2792816162109375,0.0706024169921875
81683,-0.19122314453125,0.2862396240234375,0.05712890625
81684,-0.0466156005859375,0.2362060546875,0.1695098876953125
81685,0.0438079833984375,0.1445159912109375,0.2855377197265625
81686,0.09649658203125,0.0732421875,0.378753662109375
81687,0.1383056640625,0.0347137451171875,0.4443206787109375
81688,0.1755828857421875,0.0380401611328125,0.442108154296875
81689,0.2115325927734375,0.057373046875,0.4085235595703125
81690,0.198974609375,0.05926513671875,0.353424072265625
81691,0.1419677734375,0.054901123046875,0.2865753173828125
81692,0.0799407958984375,0.0531005859375,0.24462890625
81693,0.04071044921875,0.086517333984375,0.2736663818359375
81694,0.03216552734375,0.17303466796875,0.3834686279296875
81695,0.0563507080078125,0.321624755859375,0.52191162109375
81696,0.1342010498046875,0.5521697998046875,0.636993408203125
81697,0.264617919921875,0.8691864013671875,0.6564483642578125
81698,0.4230194091796875,1.208602905273438,0.5872955322265625
81699,0.639678955078125,1.566497802734375,0.5973052978515625
81700,0.9723968505859376,1.884597778320312,0.6049041748046875
81701,1.423187255859375,2.108810424804688,0.3903961181640625
81702,1.69342041015625,2.117141723632812,-0.2062835693359375
81703,1.665267944335938,2.0140380859375,-0.842620849609375
81704,1.6787109375,1.846267700195312,-0.97003173828125
81705,1.812759399414062,1.511856079101562,-0.610687255859375
81706,1.829635620117188,1.185043334960938,-0.0723876953125
81707,1.49267578125,0.9807281494140624,0.3506317138671875
81708,1.067916870117188,0.8446044921875,0.5493621826171875
81709,0.8594970703125,0.710205078125,0.5338287353515625
81710,0.738677978515625,0.5604248046875,0.3587799072265625
81711,0.6077880859375,0.375091552734375,0.12396240234375
81712,0.50067138671875,0.16937255859375,-0.0494842529296875
81713,0.4082794189453125,0.0177001953125,-0.0855560302734375
81714,0.351409912109375,-0.1075439453125,0.0601806640625
81715,0.26458740234375,-0.192108154296875,0.3019256591796875
81716,0.1672515869140625,-0.2128753662109375,0.5997161865234375
81717,0.0756072998046875,-0.15948486328125,0.8029937744140625
81718,-0.0234222412109375,-0.05889892578125,0.8248443603515625
81719,-0.18701171875,0.158966064453125,0.8383331298828125
81720,-0.1667633056640625,0.2679443359375,0.9159698486328124
81721,-0.0677642822265625,0.1992645263671875,0.95318603515625
81722,0.171356201171875,0.055328369140625,0.75799560546875
81723,0.216400146484375,0.0616607666015625,0.5948944091796875
81724,0.0935516357421875,0.1635284423828125,0.2220458984375
81725,-0.0306549072265625,0.2619171142578125,-0.19915771484375
81726,-0.1243743896484375,0.312042236328125,-0.417205810546875
81727,-0.193572998046875,0.300201416015625,-0.285003662109375
81728,-0.2188873291015625,0.2422637939453125,-0.0478515625
81729,-0.15008544921875,0.2165374755859375,0.0988616943359375
81730,-0.02764892578125,0.2262420654296875,0.1629486083984375
81731,0.1337738037109375,0.2178802490234375,0.2220611572265625
81732,0.272247314453125,0.1993255615234375,0.357208251953125
81733,0.3256072998046875,0.164764404296875,0.5263214111328125
81734,0.3420257568359375,0.1846771240234375,0.721282958984375
81735,0.37530517578125,0.2825164794921875,0.892364501953125
81736,0.35430908203125,0.4450836181640625,0.9926605224609376
81737,0.3892364501953125,0.630462646484375,1.113754272460938
81738,0.6185760498046875,0.686920166015625,1.297210693359375
81739,0.959259033203125,0.7449188232421875,1.5782470703125
81740,1.166183471679688,0.95556640625,1.783447265625
81741,1.33245849609375,1.239990234375,1.737548828125
81742,1.64349365234375,1.385696411132812,1.971603393554688
81743,1.861831665039062,1.400909423828125,2.143646240234375
81744,1.80120849609375,1.312774658203125,2.003753662109375
81745,1.574951171875,1.149887084960938,1.86016845703125
81746,1.362030029296875,1.006622314453125,1.737808227539062
81747,1.22674560546875,0.8470916748046875,1.68267822265625
81748,1.11456298828125,0.653167724609375,1.73114013671875
81749,0.9456024169921876,0.5249481201171875,1.827285766601562
81750,0.73236083984375,0.5019989013671875,1.860382080078125
81751,0.5587310791015625,0.46905517578125,1.821762084960938
81752,0.393951416015625,0.4622955322265625,1.799789428710938
81753,0.24029541015625,0.4490814208984375,1.74267578125
81754,0.125244140625,0.40362548828125,1.59161376953125
81755,0.022735595703125,0.33502197265625,1.434234619140625
81756,-0.0414581298828125,0.2396392822265625,1.361434936523438
81757,-0.048309326171875,0.1647186279296875,1.331985473632812
81758,0.0196533203125,0.0787200927734375,1.258087158203125
81759,0.07867431640625,0.05078125,1.055084228515625
81760,0.075439453125,0.0662689208984375,0.7563629150390625
81761,0.0447998046875,0.0521697998046875,0.5247039794921875
81762,-0.03948974609375,0.026519775390625,0.4167022705078125
81763,-0.1363677978515625,0.010162353515625,0.3517608642578125
81764,-0.2585601806640625,0.0254974365234375,0.2899017333984375
81765,-0.36602783203125,0.1024627685546875,0.2061767578125
81766,-0.332244873046875,0.1875762939453125,0.0695953369140625
81767,-0.1671142578125,0.180145263671875,-0.0260467529296875
81768,-0.0044097900390625,0.147705078125,0.021514892578125
81769,0.0726165771484375,0.140625,0.2388153076171875
81770,0.10052490234375,0.14459228515625,0.4810028076171875
81771,0.1066436767578125,0.17474365234375,0.624053955078125
81772,0.0917205810546875,0.2137908935546875,0.6312103271484375
81773,0.09197998046875,0.2408905029296875,0.5673370361328125
81774,0.1077728271484375,0.292999267578125,0.511962890625
81775,0.13995361328125,0.325042724609375,0.4337615966796875
81776,0.1632080078125,0.371826171875,0.332000732421875
81777,0.2135772705078125,0.42510986328125,0.22998046875
81778,0.2959136962890625,0.5469970703125,0.19580078125
81779,0.4167938232421875,0.716552734375,0.245208740234375
81780,0.661529541015625,0.89324951171875,0.31146240234375
81781,1.025054931640625,1.097122192382812,0.3043365478515625
81782,1.400222778320312,1.302703857421875,0.24395751953125
81783,1.651107788085938,1.487899780273438,0.218841552734375
81784,1.71197509765625,1.558837890625,0.314117431640625
81785,1.548416137695312,1.58428955078125,0.3981781005859375
81786,1.348907470703125,1.634124755859375,0.4194183349609375
81787,1.21466064453125,1.680801391601562,0.3612518310546875
81788,1.12908935546875,1.701095581054688,0.126312255859375
81789,1.108673095703125,1.619140625,-0.1559600830078125
81790,1.141830444335938,1.453811645507812,-0.29852294921875
81791,1.089080810546875,1.268585205078125,-0.289581298828125
81792,0.93212890625,1.036605834960938,-0.2250518798828125
81793,0.755523681640625,0.777923583984375,-0.158050537109375
81794,0.56707763671875,0.49322509765625,-0.0866241455078125
81795,0.42364501953125,0.183685302734375,0.0473480224609375
81796,0.3036651611328125,-0.14404296875,0.1610565185546875
81797,0.201385498046875,-0.2199554443359375,0.29345703125
81798,0.1363983154296875,-0.157012939453125,0.4691009521484375
81799,0.0692138671875,-0.1340789794921875,0.57177734375
81800,0.0101318359375,-0.1132659912109375,0.584869384765625
81801,-0.01385498046875,-0.0819854736328125,0.5575408935546875
81802,0.0070648193359375,-0.0805816650390625,0.5220794677734375
81803,0.062774658203125,-0.1028900146484375,0.4532928466796875
81804,0.1016082763671875,-0.115264892578125,0.392578125
81805,0.110870361328125,-0.1074676513671875,0.3104095458984375
81806,0.0830841064453125,-0.0965576171875,0.208892822265625
81807,0.045074462890625,-0.092132568359375,0.174774169921875
81808,0.0117340087890625,-0.069122314453125,0.156494140625
81809,-0.018280029296875,-0.0431976318359375,0.0958404541015625
81810,-0.0553131103515625,-0.01806640625,0.071502685546875
81811,-0.0768890380859375,0.0252838134765625,0.0853118896484375
81812,-0.066162109375,0.07672119140625,0.1330718994140625
81813,-0.04144287109375,0.132965087890625,0.143310546875
81814,0.0017852783203125,0.21795654296875,0.11773681640625
81815,0.1128997802734375,0.298980712890625,0.154815673828125
81816,0.2222137451171875,0.347076416015625,0.3849639892578125
81817,0.289947509765625,0.319793701171875,0.8165740966796875
81818,0.320648193359375,0.30078125,1.0001220703125
81819,0.3403778076171875,0.357818603515625,0.7642364501953125
81820,0.3835296630859375,0.5379638671875,0.73651123046875
81821,0.5102386474609375,0.6649627685546875,1.113723754882812
81822,0.710845947265625,0.716461181640625,1.367691040039062
81823,0.926513671875,0.75274658203125,1.488113403320312
81824,1.2462158203125,0.71661376953125,1.861801147460938
81825,1.705795288085938,0.405517578125,2.596206665039062
81826,1.56414794921875,0.70050048828125,3.081405639648438
81827,1.461074829101562,1.518798828125,2.453338623046875
81828,1.588180541992188,1.598129272460938,1.961044311523438
81829,1.390350341796875,1.164962768554688,2.380462646484375
81830,1.191848754882812,0.8995208740234375,2.2247314453125
81831,1.073883056640625,0.760772705078125,2.016021728515625
81832,0.9566192626953124,0.63946533203125,2.009109497070312
81833,0.8049774169921875,0.575653076171875,1.91326904296875
81834,0.68804931640625,0.5403289794921875,1.831039428710938
81835,0.5764923095703125,0.49835205078125,1.799057006835938
81836,0.4645233154296875,0.4071197509765625,1.694549560546875
81837,0.3532867431640625,0.2637176513671875,1.606704711914062
81838,0.241973876953125,0.1943206787109375,1.499847412109375
81839,0.1662750244140625,0.131011962890625,1.357040405273438
81840,0.134307861328125,0.07891845703125,1.171295166015625
81841,0.0994873046875,0.0698089599609375,1.039108276367188
81842,0.0665435791015625,0.05767822265625,0.8314208984375
81843,0.0386199951171875,0.0576934814453125,0.616180419921875
81844,0.019866943359375,0.02783203125,0.4694976806640625
81845,-0.02496337890625,0.0303955078125,0.3567962646484375
81846,-0.0950164794921875,0.025482177734375,0.241119384765625
81847,-0.16412353515625,-0.0114898681640625,0.173095703125
81848,-0.2617645263671875,0.0685882568359375,0.2375946044921875
81849,-0.2818603515625,0.1996307373046875,0.1730499267578125
81850,-0.170257568359375,0.2350311279296875,0.1505889892578125
81851,-0.0447845458984375,0.2260589599609375,0.29119873046875
81852,0.0695343017578125,0.18902587890625,0.43115234375
81853,0.130645751953125,0.1551666259765625,0.479522705078125
81854,0.1520843505859375,0.154632568359375,0.42266845703125
81855,0.16302490234375,0.186065673828125,0.348358154296875
81856,0.17327880859375,0.220245361328125,0.2877197265625
81857,0.1944427490234375,0.255950927734375,0.241302490234375
81858,0.224884033203125,0.272979736328125,0.221466064453125
81859,0.2794036865234375,0.2878570556640625,0.2412872314453125
81860,0.35968017578125,0.3349151611328125,0.282257080078125
81861,0.458099365234375,0.461883544921875,0.37066650390625
81862,0.55731201171875,0.7198333740234375,0.4933013916015625
81863,0.709136962890625,1.079696655273438,0.592864990234375
81864,0.9373779296875,1.37353515625,0.6322479248046875
81865,1.267349243164062,1.59185791015625,0.548797607421875
81866,1.569869995117188,1.784210205078125,0.3963775634765625
81867,1.614181518554688,1.905731201171875,0.304290771484375
81868,1.427993774414062,1.797882080078125,0.2080841064453125
81869,1.359344482421875,1.617141723632812,0.056732177734375
81870,1.391036987304688,1.48907470703125,-0.1658782958984375
81871,1.431884765625,1.368637084960938,-0.317474365234375
81872,1.308074951171875,1.22686767578125,-0.3213043212890625
81873,1.05950927734375,1.038436889648438,-0.1613006591796875
81874,0.7883453369140625,0.8352203369140625,-0.02496337890625
81875,0.5446624755859375,0.606201171875,0.0150299072265625
81876,0.3559722900390625,0.3303070068359375,0.0537872314453125
81877,0.2272186279296875,0.082611083984375,0.1295318603515625
81878,0.1168975830078125,-0.1265411376953125,0.2043609619140625
81879,0.065704345703125,-0.207763671875,0.3663787841796875
81880,0.0474090576171875,-0.2405853271484375,0.5149078369140625
81881,0.0260009765625,-0.2516021728515625,0.616424560546875
81882,0.0125885009765625,-0.1705169677734375,0.646331787109375
81883,0.040802001953125,-0.055816650390625,0.6558837890625
81884,0.0976715087890625,0.0138702392578125,0.5936737060546875
81885,0.1848602294921875,0.0273590087890625,0.549774169921875
81886,0.2358856201171875,0.0455322265625,0.4512939453125
81887,0.21978759765625,0.06890869140625,0.4026947021484375
81888,0.084014892578125,0.119415283203125,0.400848388671875
81889,-0.0911865234375,0.2565155029296875,0.3646087646484375
81890,-0.126129150390625,0.36053466796875,0.3676300048828125
81891,-0.02862548828125,0.3397369384765625,0.3484039306640625
81892,0.0076751708984375,0.326263427734375,0.2547454833984375
81893,0.0005645751953125,0.3850555419921875,0.2019195556640625
81894,0.0107269287109375,0.4780120849609375,0.20733642578125
81895,0.095062255859375,0.4631805419921875,0.2135009765625
81896,0.1585540771484375,0.37579345703125,0.22076416015625
81897,0.17974853515625,0.3002471923828125,0.282989501953125
81898,0.1794281005859375,0.2070159912109375,0.39813232421875
81899,0.1894989013671875,0.1388702392578125,0.5222015380859375
81900,0.227325439453125,0.186004638671875,0.631439208984375
81901,0.26580810546875,0.323516845703125,0.7367095947265625
81902,0.3428497314453125,0.4197845458984375,0.9301300048828124
81903,0.4732666015625,0.4888916015625,1.1875
81904,0.6385955810546875,0.6298980712890625,1.405426025390625
81905,0.93267822265625,0.7698516845703125,1.584945678710938
81906,1.433456420898438,0.7010345458984375,2.171707153320312
81907,1.615402221679688,0.75543212890625,2.403030395507812
81908,1.573074340820312,1.292266845703125,1.785415649414062
81909,1.557022094726562,1.279495239257812,1.89495849609375
81910,1.3494873046875,1.120254516601562,2.185943603515625
81911,1.101531982421875,1.12506103515625,2.14459228515625
81912,0.9166107177734376,1.065444946289062,2.113876342773438
81913,0.775177001953125,0.8894500732421875,2.142974853515625
81914,0.6597442626953125,0.7496185302734375,2.156784057617188
81915,0.5560302734375,0.6776885986328125,2.106201171875
81916,0.46588134765625,0.614471435546875,2.027008056640625
81917,0.3694915771484375,0.5338134765625,1.887969970703125
81918,0.279754638671875,0.4431304931640625,1.730224609375
81919,0.21356201171875,0.3258209228515625,1.61773681640625
81920,0.181671142578125,0.2062835693359375,1.561325073242188
81921,0.111846923828125,0.1947174072265625,1.440689086914062
81922,0.03216552734375,0.21075439453125,1.273666381835938
81923,0.0318145751953125,0.18975830078125,1.094894409179688
81924,0.062774658203125,0.178863525390625,0.9019317626953124
81925,0.063568115234375,0.1639556884765625,0.6353607177734375
81926,0.01617431640625,0.147674560546875,0.4410247802734375
81927,-0.0829315185546875,0.136383056640625,0.296478271484375
81928,-0.2137451171875,0.147735595703125,0.167633056640625
81929,-0.292694091796875,0.20306396484375,0.09771728515625
81930,-0.2699127197265625,0.2478790283203125,0.0723876953125
81931,-0.1501617431640625,0.2070159912109375,0.05938720703125
81932,0.0086822509765625,0.161895751953125,0.1779327392578125
81933,0.133514404296875,0.1205291748046875,0.3007659912109375
81934,0.227935791015625,0.0879364013671875,0.3980255126953125
81935,0.2680511474609375,0.075897216796875,0.4594573974609375
81936,0.270355224609375,0.0819091796875,0.4790802001953125
81937,0.2428741455078125,0.071502685546875,0.4568328857421875
81938,0.2109222412109375,0.0542755126953125,0.378692626953125
81939,0.186737060546875,0.0720062255859375,0.3373260498046875
81940,0.171173095703125,0.1276397705078125,0.307281494140625
81941,0.1945648193359375,0.2216644287109375,0.3112030029296875
81942,0.2489471435546875,0.3457183837890625,0.3450927734375
81943,0.325775146484375,0.5200653076171875,0.36749267578125
81944,0.463104248046875,0.7996826171875,0.4397430419921875
81945,0.667236328125,1.114883422851562,0.481781005859375
81946,0.899627685546875,1.3441162109375,0.4333038330078125
81947,1.10345458984375,1.452835083007812,0.39239501953125
81948,1.278457641601562,1.541473388671875,0.3506011962890625
81949,1.34332275390625,1.64111328125,0.2587432861328125
81950,1.32843017578125,1.76312255859375,0.205047607421875
81951,1.33917236328125,1.824920654296875,0.2360687255859375
81952,1.2926025390625,1.784561157226562,0.1981964111328125
81953,1.22064208984375,1.623794555664062,0.08294677734375
81954,1.15606689453125,1.424819946289062,0.0174407958984375
81955,1.063201904296875,1.2286376953125,0.012115478515625
81956,0.9205169677734376,1.075454711914062,0.0395050048828125
81957,0.727294921875,0.90716552734375,0.02862548828125
81958,0.5204010009765625,0.6684722900390625,-0.0268096923828125
81959,0.37152099609375,0.4443817138671875,0.0094451904296875
81960,0.267791748046875,0.2431793212890625,0.12744140625
81961,0.18756103515625,0.0875244140625,0.2354888916015625
81962,0.126800537109375,-0.02264404296875,0.288543701171875
81963,0.09478759765625,-0.077178955078125,0.455078125
81964,0.087310791015625,-0.12213134765625,0.586212158203125
81965,0.0908966064453125,-0.1307220458984375,0.6218719482421875
81966,0.1054229736328125,-0.0990447998046875,0.6321258544921875
81967,0.1383056640625,-0.0959930419921875,0.600006103515625
81968,0.138031005859375,-0.089447021484375,0.5155792236328125
81969,0.0755157470703125,-0.0312957763671875,0.367919921875
81970,-0.0113372802734375,0.0819854736328125,0.18133544921875
81971,0.0108795166015625,0.0672760009765625,0.2012786865234375
81972,0.09002685546875,-0.0418243408203125,0.3604583740234375
81973,0.0924530029296875,-0.0708770751953125,0.3662567138671875
81974,0.020721435546875,-0.008697509765625,0.2411041259765625
81975,-0.084014892578125,0.0892181396484375,0.0770416259765625
81976,-0.1716156005859375,0.2173919677734375,0.0552978515625
81977,-0.164886474609375,0.32122802734375,0.176788330078125
81978,-0.0707550048828125,0.3498992919921875,0.2899627685546875
81979,0.093231201171875,0.33428955078125,0.33514404296875
81980,0.283477783203125,0.3067626953125,0.389892578125
81981,0.4025115966796875,0.2595977783203125,0.5157470703125
81982,0.4441680908203125,0.2391204833984375,0.6806793212890625
81983,0.4339752197265625,0.3079681396484375,0.795074462890625
81984,0.422088623046875,0.4516754150390625,0.8703155517578125
81985,0.5137786865234375,0.6206512451171875,0.97821044921875
81986,0.6795806884765625,0.7455291748046875,1.165115356445312
81987,0.8364410400390625,0.79754638671875,1.36431884765625
81988,0.9297332763671876,0.948486328125,1.593887329101562
81989,0.9936981201171876,1.139572143554688,1.987747192382812
81990,1.203018188476562,1.178054809570312,2.36944580078125
81991,1.436386108398438,1.105422973632812,2.583969116210938
81992,1.445327758789062,1.161544799804688,2.405899047851562
81993,1.277236938476562,1.33477783203125,2.086044311523438
81994,1.114242553710938,1.146469116210938,2.161834716796875
