time_idx,accelerometerAccelerationX(G),accelerometerAccelerationY(G),accelerometerAccelerationZ(G)
20000,0.28973388671875,-0.9569091796875,-0.0635528564453125
20001,0.2908782958984375,-0.9617767333984376,-0.0548553466796875
20002,0.2884063720703125,-0.9629974365234376,-0.0533905029296875
20003,0.2825164794921875,-0.96014404296875,-0.0625762939453125
20004,0.2806549072265625,-0.95928955078125,-0.07049560546875
20005,0.2851104736328125,-0.96044921875,-0.079254150390625
20006,0.2876739501953125,-0.9635467529296876,-0.0899658203125
20007,0.28643798828125,-0.965728759765625,-0.088653564453125
20008,0.282257080078125,-0.96319580078125,-0.077880859375
20009,0.2811737060546875,-0.96160888671875,-0.0728912353515625
20010,0.2820281982421875,-0.9608306884765624,-0.075714111328125
20011,0.2834320068359375,-0.959136962890625,-0.0774993896484375
20012,0.2846527099609375,-0.957977294921875,-0.0747833251953125
20013,0.28424072265625,-0.95721435546875,-0.0705413818359375
20014,0.2842864990234375,-0.9576873779296876,-0.0705108642578125
20015,0.2814178466796875,-0.9583740234375,-0.0716552734375
20016,0.2808074951171875,-0.9601898193359376,-0.069976806640625
20017,0.28277587890625,-0.963043212890625,-0.0734100341796875
20018,0.2823638916015625,-0.9627532958984376,-0.07904052734375
20019,0.2782135009765625,-0.9613037109375,-0.0765838623046875
20020,0.2791748046875,-0.9621124267578124,-0.0721893310546875
20021,0.2868499755859375,-0.9660797119140624,-0.06427001953125
20022,0.286590576171875,-0.966064453125,-0.057525634765625
20023,0.279998779296875,-0.96136474609375,-0.05487060546875
20024,0.2796783447265625,-0.9618988037109376,-0.056488037109375
20025,0.284423828125,-0.9651031494140624,-0.0665740966796875
20026,0.284515380859375,-0.9642791748046876,-0.0732574462890625
20027,0.285736083984375,-0.9651641845703124,-0.070281982421875
20028,0.28912353515625,-0.963714599609375,-0.0734405517578125
20029,0.2856597900390625,-0.9573974609375,-0.080810546875
20030,0.28253173828125,-0.9529876708984376,-0.0802459716796875
20031,0.28240966796875,-0.9518890380859376,-0.0720367431640625
20032,0.283233642578125,-0.9532012939453124,-0.0687408447265625
20033,0.2836151123046875,-0.9560394287109376,-0.067626953125
20034,0.2871551513671875,-0.9608612060546876,-0.0604248046875
20035,0.2914581298828125,-0.96649169921875,-0.0545501708984375
20036,0.2914886474609375,-0.969940185546875,-0.0601043701171875
20037,0.2878875732421875,-0.968994140625,-0.0690155029296875
20038,0.2849578857421875,-0.963897705078125,-0.071197509765625
20039,0.28363037109375,-0.9613037109375,-0.0714111328125
20040,0.2822113037109375,-0.9622039794921876,-0.0750885009765625
20041,0.2843780517578125,-0.9626312255859376,-0.0758056640625
20042,0.2834014892578125,-0.962982177734375,-0.0646820068359375
20043,0.2808380126953125,-0.9620513916015624,-0.055633544921875
20044,0.281402587890625,-0.9644927978515624,-0.056243896484375
20045,0.2817535400390625,-0.9664459228515624,-0.060150146484375
20046,0.2811279296875,-0.9658203125,-0.06671142578125
20047,0.282958984375,-0.965667724609375,-0.0680999755859375
20048,0.28338623046875,-0.965850830078125,-0.07000732421875
20049,0.2819061279296875,-0.96429443359375,-0.0707550048828125
20050,0.279632568359375,-0.9637298583984376,-0.0729217529296875
20051,0.2804412841796875,-0.9630889892578124,-0.072509765625
20052,0.278472900390625,-0.960113525390625,-0.0754852294921875
20053,0.2794189453125,-0.9594573974609376,-0.074127197265625
20054,0.282501220703125,-0.9637908935546876,-0.071014404296875
20055,0.286590576171875,-0.9661407470703124,-0.0619354248046875
20056,0.2891387939453125,-0.9671173095703124,-0.05804443359375
20057,0.28839111328125,-0.96673583984375,-0.0628814697265625
20058,0.2868194580078125,-0.963836669921875,-0.0681915283203125
20059,0.27825927734375,-0.9543914794921876,-0.064208984375
20060,0.2582855224609375,-0.9436187744140624,-0.003997802734375
20061,0.239715576171875,-0.928070068359375,0.0025634765625
20062,0.2707672119140625,-0.9462738037109376,-0.0677032470703125
20063,0.290191650390625,-0.9641571044921876,-0.1175079345703125
20064,0.295166015625,-0.9771575927734376,-0.1006622314453125
20065,0.296539306640625,-0.986968994140625,-0.07806396484375
20066,0.3000946044921875,-0.99517822265625,-0.0607757568359375
20067,0.29022216796875,-0.98553466796875,-0.052642822265625
20068,0.276611328125,-0.9724884033203124,-0.049713134765625
20069,0.2725982666015625,-0.9604034423828124,-0.045867919921875
20070,0.268829345703125,-0.9550933837890624,-0.0387420654296875
20071,0.271148681640625,-0.962066650390625,-0.0313720703125
20072,0.2691192626953125,-0.9581298828125,-0.033233642578125
20073,0.2662200927734375,-0.95391845703125,-0.0435943603515625
20074,0.269989013671875,-0.9568634033203124,-0.057769775390625
20075,0.2760467529296875,-0.96466064453125,-0.070404052734375
20076,0.2779083251953125,-0.9673614501953124,-0.079437255859375
20077,0.2823486328125,-0.9713897705078124,-0.08624267578125
20078,0.2847900390625,-0.97198486328125,-0.08380126953125
20079,0.2805023193359375,-0.9664306640625,-0.0720672607421875
20080,0.27960205078125,-0.9617919921875,-0.0637054443359375
20081,0.2784423828125,-0.9573974609375,-0.06353759765625
20082,0.2742919921875,-0.9516754150390624,-0.066253662109375
20083,0.272735595703125,-0.95037841796875,-0.0628509521484375
20084,0.27423095703125,-0.95428466796875,-0.056610107421875
20085,0.2730255126953125,-0.9564208984375,-0.05133056640625
20086,0.27105712890625,-0.9569091796875,-0.047515869140625
20087,0.272674560546875,-0.9602813720703124,-0.048583984375
20088,0.275146484375,-0.965362548828125,-0.0526123046875
20089,0.276763916015625,-0.970245361328125,-0.0524139404296875
20090,0.2778778076171875,-0.9746246337890624,-0.05010986328125
20091,0.2768096923828125,-0.9759368896484376,-0.0490875244140625
20092,0.275177001953125,-0.9746246337890624,-0.0520172119140625
20093,0.27294921875,-0.97088623046875,-0.05474853515625
20094,0.2680816650390625,-0.966766357421875,-0.055389404296875
20095,0.265777587890625,-0.965911865234375,-0.059539794921875
20096,0.2672271728515625,-0.96661376953125,-0.059173583984375
20097,0.267791748046875,-0.96661376953125,-0.052520751953125
20098,0.2684173583984375,-0.9664459228515624,-0.0502166748046875
20099,0.269012451171875,-0.968597412109375,-0.0535430908203125
20100,0.269317626953125,-0.9705810546875,-0.0512847900390625
20101,0.269317626953125,-0.97119140625,-0.0498046875
20102,0.2668914794921875,-0.9691009521484376,-0.0479736328125
20103,0.266357421875,-0.9670257568359376,-0.0459136962890625
20104,0.2673797607421875,-0.965362548828125,-0.048065185546875
20105,0.267974853515625,-0.9663238525390624,-0.0487060546875
20106,0.2713470458984375,-0.9673919677734376,-0.0511016845703125
20107,0.2707977294921875,-0.9649505615234376,-0.058135986328125
20108,0.2666473388671875,-0.959991455078125,-0.0649261474609375
20109,0.266204833984375,-0.9600372314453124,-0.065185546875
20110,0.2686614990234375,-0.96484375,-0.0609130859375
20111,0.2710113525390625,-0.9724273681640624,-0.0523529052734375
20112,0.2740325927734375,-0.979888916015625,-0.0426788330078125
20113,0.27349853515625,-0.982269287109375,-0.03900146484375
20114,0.26898193359375,-0.9814453125,-0.0342254638671875
20115,0.2684173583984375,-0.97857666015625,-0.0308380126953125
20116,0.2694091796875,-0.9738311767578124,-0.03167724609375
20117,0.2708282470703125,-0.96917724609375,-0.0377655029296875
20118,0.268646240234375,-0.9603424072265624,-0.0484619140625
20119,0.264617919921875,-0.9545440673828124,-0.0633087158203125
20120,0.2622833251953125,-0.952880859375,-0.0677490234375
20121,0.261627197265625,-0.95343017578125,-0.0648651123046875
20122,0.2660064697265625,-0.9584503173828124,-0.0598602294921875
20123,0.269378662109375,-0.963165283203125,-0.0541229248046875
20124,0.2695465087890625,-0.96466064453125,-0.0505218505859375
20125,0.270965576171875,-0.964263916015625,-0.0467376708984375
20126,0.271820068359375,-0.9639892578125,-0.0452117919921875
20127,0.274658203125,-0.9659423828125,-0.04376220703125
20128,0.2739410400390625,-0.968017578125,-0.0472869873046875
20129,0.2718963623046875,-0.969329833984375,-0.0534515380859375
20130,0.2719879150390625,-0.9686126708984376,-0.054412841796875
20131,0.272186279296875,-0.9687347412109376,-0.0564117431640625
20132,0.2700958251953125,-0.9678802490234376,-0.0608062744140625
20133,0.2706451416015625,-0.96734619140625,-0.0627899169921875
20134,0.26953125,-0.9664306640625,-0.06353759765625
20135,0.2677459716796875,-0.9644927978515624,-0.06158447265625
20136,0.267791748046875,-0.962310791015625,-0.054840087890625
20137,0.2685699462890625,-0.962127685546875,-0.04998779296875
20138,0.270843505859375,-0.9625091552734376,-0.0511474609375
20139,0.27337646484375,-0.9651641845703124,-0.0556640625
20140,0.276611328125,-0.9669342041015624,-0.0592041015625
20141,0.2745513916015625,-0.9687347412109376,-0.0576019287109375
20142,0.2718963623046875,-0.9680328369140624,-0.0494537353515625
20143,0.2705535888671875,-0.9652252197265624,-0.045257568359375
20144,0.268829345703125,-0.9628753662109376,-0.0490570068359375
20145,0.2660675048828125,-0.9630889892578124,-0.04888916015625
20146,0.2678985595703125,-0.965972900390625,-0.041748046875
20147,0.27239990234375,-0.9686126708984376,-0.0375213623046875
20148,0.2732391357421875,-0.9682159423828124,-0.0408782958984375
20149,0.2718353271484375,-0.96551513671875,-0.04351806640625
20150,0.2745819091796875,-0.967041015625,-0.0465087890625
20151,0.2788848876953125,-0.9700164794921876,-0.0530853271484375
20152,0.2778167724609375,-0.9693603515625,-0.058349609375
20153,0.2729644775390625,-0.967376708984375,-0.056182861328125
20154,0.273406982421875,-0.9677734375,-0.0524749755859375
20155,0.2733917236328125,-0.9676666259765624,-0.0482940673828125
20156,0.2704925537109375,-0.965087890625,-0.0377349853515625
20157,0.2691192626953125,-0.9622344970703124,-0.02874755859375
20158,0.271240234375,-0.9624786376953124,-0.03594970703125
20159,0.275726318359375,-0.9662017822265624,-0.049652099609375
20160,0.2781219482421875,-0.9700775146484376,-0.062347412109375
20161,0.27630615234375,-0.970916748046875,-0.0692901611328125
20162,0.2765655517578125,-0.9698486328125,-0.070343017578125
20163,0.278533935546875,-0.9691162109375,-0.0702667236328125
20164,0.2786712646484375,-0.965911865234375,-0.0726165771484375
20165,0.27716064453125,-0.9598541259765624,-0.0684356689453125
20166,0.2761993408203125,-0.9571685791015624,-0.0623626708984375
20167,0.27459716796875,-0.958038330078125,-0.0590362548828125
20168,0.2728424072265625,-0.9597625732421876,-0.0522918701171875
20169,0.273895263671875,-0.963897705078125,-0.0502166748046875
20170,0.275054931640625,-0.9650115966796876,-0.0540313720703125
20171,0.2730712890625,-0.966583251953125,-0.05780029296875
20172,0.2742919921875,-0.96685791015625,-0.060455322265625
20173,0.2728424072265625,-0.9671630859375,-0.0653533935546875
20174,0.270538330078125,-0.9659423828125,-0.072021484375
20175,0.26983642578125,-0.9615478515625,-0.07318115234375
20176,0.269439697265625,-0.9579010009765624,-0.070404052734375
20177,0.2668914794921875,-0.954315185546875,-0.059967041015625
20178,0.2641143798828125,-0.95526123046875,-0.0453338623046875
20179,0.2708740234375,-0.961395263671875,-0.0313568115234375
20180,0.2768402099609375,-0.964874267578125,-0.02880859375
20181,0.27301025390625,-0.962493896484375,-0.0324249267578125
20182,0.271240234375,-0.959991455078125,-0.0370941162109375
20183,0.27569580078125,-0.960052490234375,-0.046356201171875
20184,0.281646728515625,-0.9629974365234376,-0.061004638671875
20185,0.288238525390625,-0.9703216552734376,-0.05743408203125
20186,0.2848358154296875,-0.96221923828125,-0.0482635498046875
20187,0.27813720703125,-0.9602508544921876,-0.0684967041015625
20188,0.285369873046875,-0.962799072265625,-0.0915069580078125
20189,0.2826690673828125,-0.963348388671875,-0.0900726318359375
20190,0.275726318359375,-0.9610748291015624,-0.0702667236328125
20191,0.27020263671875,-0.96282958984375,-0.059112548828125
20192,0.2691802978515625,-0.966705322265625,-0.061798095703125
20193,0.273468017578125,-0.9678955078125,-0.063720703125
20194,0.2760162353515625,-0.9720458984375,-0.06451416015625
20195,0.276123046875,-0.9737091064453124,-0.05877685546875
20196,0.2768402099609375,-0.972747802734375,-0.0456085205078125
20197,0.2771453857421875,-0.9685211181640624,-0.044891357421875
20198,0.2735137939453125,-0.966064453125,-0.0545806884765625
20199,0.27203369140625,-0.9657440185546876,-0.062713623046875
20200,0.2763519287109375,-0.9644622802734376,-0.0641326904296875
20201,0.27703857421875,-0.962890625,-0.059051513671875
20202,0.277618408203125,-0.9615325927734376,-0.05413818359375
20203,0.2790985107421875,-0.9595947265625,-0.0426788330078125
20204,0.2788238525390625,-0.9582061767578124,-0.0205230712890625
20205,0.2789459228515625,-0.955963134765625,-0.0147247314453125
20206,0.282958984375,-0.9609222412109376,-0.0318603515625
20207,0.2909393310546875,-0.9667816162109376,-0.0535888671875
20208,0.2923431396484375,-0.968505859375,-0.066680908203125
20209,0.2855987548828125,-0.9665069580078124,-0.0661163330078125
20210,0.278656005859375,-0.96484375,-0.0628509521484375
20211,0.2733612060546875,-0.96466064453125,-0.0561370849609375
20212,0.2710113525390625,-0.96661376953125,-0.0498504638671875
20213,0.273773193359375,-0.9716339111328124,-0.0595550537109375
20214,0.278076171875,-0.9740142822265624,-0.0655670166015625
20215,0.281768798828125,-0.9725494384765624,-0.06500244140625
20216,0.283233642578125,-0.967437744140625,-0.0619354248046875
20217,0.276458740234375,-0.957366943359375,-0.05810546875
20218,0.27252197265625,-0.9523162841796876,-0.057708740234375
20219,0.27239990234375,-0.9540863037109376,-0.0610809326171875
20220,0.2803955078125,-0.9619903564453124,-0.0617523193359375
20221,0.282806396484375,-0.9661865234375,-0.0602874755859375
20222,0.281768798828125,-0.967529296875,-0.06060791015625
20223,0.280517578125,-0.9675750732421876,-0.0589599609375
20224,0.27874755859375,-0.9676513671875,-0.0576171875
20225,0.2771148681640625,-0.966064453125,-0.0557098388671875
20226,0.2735748291015625,-0.9626922607421876,-0.0508575439453125
20227,0.272216796875,-0.96087646484375,-0.0497589111328125
20228,0.2720184326171875,-0.96142578125,-0.049560546875
20229,0.2771759033203125,-0.9648895263671876,-0.05010986328125
20230,0.2800140380859375,-0.966827392578125,-0.057098388671875
20231,0.2816009521484375,-0.9659423828125,-0.0614166259765625
20232,0.2821502685546875,-0.966400146484375,-0.06597900390625
20233,0.281707763671875,-0.96673583984375,-0.0698089599609375
20234,0.280914306640625,-0.965423583984375,-0.0718536376953125
20235,0.27880859375,-0.964935302734375,-0.0645751953125
20236,0.277557373046875,-0.9641571044921876,-0.05426025390625
20237,0.2780303955078125,-0.9615936279296876,-0.0491943359375
20238,0.276336669921875,-0.957000732421875,-0.0498809814453125
20239,0.277099609375,-0.9570159912109376,-0.057403564453125
20240,0.2785797119140625,-0.9587249755859376,-0.062103271484375
20241,0.280029296875,-0.962646484375,-0.0652618408203125
20242,0.281982421875,-0.96661376953125,-0.0633697509765625
20243,0.279815673828125,-0.9668731689453124,-0.058349609375
20244,0.276641845703125,-0.96453857421875,-0.0552215576171875
20245,0.2777862548828125,-0.9650115966796876,-0.0527801513671875
20246,0.2809295654296875,-0.9660491943359376,-0.04986572265625
20247,0.2823333740234375,-0.9652252197265624,-0.056640625
20248,0.2780609130859375,-0.960479736328125,-0.0658721923828125
20249,0.274505615234375,-0.9611053466796876,-0.064239501953125
20250,0.279296875,-0.9633026123046876,-0.0644989013671875
20251,0.280029296875,-0.9624481201171876,-0.0686798095703125
20252,0.2783660888671875,-0.96038818359375,-0.069366455078125
20253,0.2786865234375,-0.9603118896484376,-0.06268310546875
20254,0.2803192138671875,-0.9636993408203124,-0.059814453125
20255,0.279449462890625,-0.965423583984375,-0.0536346435546875
20256,0.28125,-0.967987060546875,-0.0490875244140625
20257,0.2816619873046875,-0.9672088623046876,-0.0549163818359375
20258,0.2798614501953125,-0.964691162109375,-0.0618438720703125
20259,0.2830963134765625,-0.9649505615234376,-0.0660400390625
20260,0.2846832275390625,-0.96575927734375,-0.07598876953125
20261,0.282928466796875,-0.9636077880859376,-0.0770416259765625
20262,0.2799072265625,-0.959869384765625,-0.0694732666015625
20263,0.275238037109375,-0.9550018310546876,-0.0605926513671875
20264,0.272796630859375,-0.9566650390625,-0.0584869384765625
20265,0.2805633544921875,-0.964508056640625,-0.05712890625
20266,0.2840118408203125,-0.96710205078125,-0.05975341796875
20267,0.284454345703125,-0.966400146484375,-0.061798095703125
20268,0.2839508056640625,-0.9666748046875,-0.0608367919921875
20269,0.2836151123046875,-0.96539306640625,-0.059967041015625
20270,0.2799224853515625,-0.9603729248046876,-0.06146240234375
20271,0.28057861328125,-0.9586639404296876,-0.0595855712890625
20272,0.2800750732421875,-0.95684814453125,-0.0592041015625
20273,0.2772674560546875,-0.955841064453125,-0.0594329833984375
20274,0.2788848876953125,-0.9600067138671876,-0.06121826171875
20275,0.281158447265625,-0.95880126953125,-0.068267822265625
20276,0.2792510986328125,-0.9586639404296876,-0.0756378173828125
20277,0.2799072265625,-0.9597015380859376,-0.0739288330078125
20278,0.2828216552734375,-0.964752197265625,-0.0665740966796875
20279,0.2857818603515625,-0.9664459228515624,-0.0618438720703125
20280,0.2839202880859375,-0.9668121337890624,-0.064971923828125
20281,0.2821197509765625,-0.9675445556640624,-0.0573272705078125
20282,0.2810516357421875,-0.9688720703125,-0.048248291015625
20283,0.2822723388671875,-0.9702301025390624,-0.045989990234375
20284,0.2829437255859375,-0.9687347412109376,-0.053192138671875
20285,0.276214599609375,-0.9610748291015624,-0.059417724609375
20286,0.272369384765625,-0.958251953125,-0.063995361328125
20287,0.2762298583984375,-0.9602508544921876,-0.07122802734375
20288,0.2785797119140625,-0.9633941650390624,-0.0791778564453125
20289,0.277099609375,-0.9630889892578124,-0.071044921875
20290,0.275054931640625,-0.9613037109375,-0.0557098388671875
20291,0.2774505615234375,-0.9629058837890624,-0.053924560546875
20292,0.2808685302734375,-0.96160888671875,-0.0632476806640625
20293,0.2823944091796875,-0.960723876953125,-0.070343017578125
20294,0.286041259765625,-0.962371826171875,-0.07342529296875
20295,0.2868194580078125,-0.9648284912109376,-0.0719451904296875
20296,0.28375244140625,-0.9637451171875,-0.0651397705078125
20297,0.2830657958984375,-0.9644317626953124,-0.062957763671875
20298,0.28375244140625,-0.9654541015625,-0.065216064453125
20299,0.2822723388671875,-0.9619598388671876,-0.071990966796875
20300,0.280426025390625,-0.9610748291015624,-0.0745849609375
20301,0.277587890625,-0.96466064453125,-0.07061767578125
20302,0.2796173095703125,-0.966094970703125,-0.0550537109375
20303,0.27880859375,-0.9672393798828124,-0.0442962646484375
20304,0.2786407470703125,-0.9698333740234376,-0.043487548828125
20305,0.2777252197265625,-0.9685516357421876,-0.0451507568359375
20306,0.28021240234375,-0.967803955078125,-0.059722900390625
20307,0.2800445556640625,-0.96307373046875,-0.08221435546875
20308,0.2795562744140625,-0.9593353271484376,-0.0950469970703125
20309,0.27923583984375,-0.9561309814453124,-0.0980377197265625
20310,0.2798614501953125,-0.9580230712890624,-0.08843994140625
20311,0.2824554443359375,-0.9602813720703124,-0.0713043212890625
20312,0.281768798828125,-0.9608612060546876,-0.0640716552734375
20313,0.2791595458984375,-0.9602508544921876,-0.0670013427734375
20314,0.27777099609375,-0.9594268798828124,-0.0698699951171875
20315,0.2810821533203125,-0.9647064208984376,-0.0673065185546875
20316,0.28399658203125,-0.96728515625,-0.062835693359375
20317,0.2855377197265625,-0.971435546875,-0.06451416015625
20318,0.28460693359375,-0.9732208251953124,-0.0687103271484375
20319,0.285308837890625,-0.972930908203125,-0.0672454833984375
20320,0.284576416015625,-0.97259521484375,-0.06195068359375
20321,0.283050537109375,-0.96771240234375,-0.0593719482421875
20322,0.27862548828125,-0.9651336669921876,-0.0603179931640625
20323,0.275299072265625,-0.9615631103515624,-0.0715484619140625
20324,0.2770843505859375,-0.962066650390625,-0.077728271484375
20325,0.2833404541015625,-0.9654083251953124,-0.0775299072265625
20326,0.2886962890625,-0.9694061279296876,-0.069091796875
20327,0.286895751953125,-0.9697113037109376,-0.061614990234375
20328,0.2825164794921875,-0.9645538330078124,-0.062774658203125
20329,0.27874755859375,-0.9599609375,-0.0709075927734375
20330,0.2764892578125,-0.96124267578125,-0.0797576904296875
20331,0.27557373046875,-0.9646148681640624,-0.076934814453125
20332,0.27960205078125,-0.9732818603515624,-0.0723724365234375
20333,0.2833709716796875,-0.9770355224609376,-0.066864013671875
20334,0.2801055908203125,-0.972381591796875,-0.062652587890625
20335,0.2747955322265625,-0.9643096923828124,-0.0758819580078125
20336,0.2705535888671875,-0.95947265625,-0.0880584716796875
20337,0.2674560546875,-0.954254150390625,-0.0951385498046875
20338,0.271392822265625,-0.9513702392578124,-0.0968170166015625
20339,0.276214599609375,-0.953399658203125,-0.093048095703125
20340,0.274993896484375,-0.9531707763671876,-0.08367919921875
20341,0.270904541015625,-0.9559173583984376,-0.0789337158203125
20342,0.2724761962890625,-0.9622955322265624,-0.0764617919921875
20343,0.2795867919921875,-0.97149658203125,-0.0722198486328125
20344,0.2826995849609375,-0.9758758544921876,-0.0666351318359375
20345,0.2834930419921875,-0.978424072265625,-0.06927490234375
20346,0.2824554443359375,-0.9720916748046876,-0.0749053955078125
20347,0.2800445556640625,-0.964752197265625,-0.0811614990234375
20348,0.2837677001953125,-0.9596405029296876,-0.0874786376953125
20349,0.283843994140625,-0.9537811279296876,-0.08587646484375
20350,0.2800750732421875,-0.9491119384765624,-0.0798492431640625
20351,0.2769927978515625,-0.945526123046875,-0.081207275390625
20352,0.2753448486328125,-0.9474334716796876,-0.0773162841796875
20353,0.2769775390625,-0.9544677734375,-0.0643768310546875
20354,0.2829437255859375,-0.96441650390625,-0.053741455078125
20355,0.2828826904296875,-0.970062255859375,-0.0449981689453125
20356,0.2759246826171875,-0.9649200439453124,-0.05010986328125
20357,0.2729339599609375,-0.966156005859375,-0.065399169921875
20358,0.27618408203125,-0.968048095703125,-0.078887939453125
20359,0.2744903564453125,-0.9633636474609376,-0.091339111328125
20360,0.2708587646484375,-0.958221435546875,-0.0963134765625
20361,0.270965576171875,-0.9576263427734376,-0.0942840576171875
20362,0.278656005859375,-0.9627227783203124,-0.0864715576171875
20363,0.282684326171875,-0.963775634765625,-0.0804443359375
20364,0.278839111328125,-0.9609527587890624,-0.07147216796875
20365,0.28094482421875,-0.96221923828125,-0.057952880859375
20366,0.2834320068359375,-0.966461181640625,-0.0548248291015625
20367,0.280548095703125,-0.967498779296875,-0.0545196533203125
20368,0.276885986328125,-0.9648590087890624,-0.056182861328125
20369,0.2775726318359375,-0.966033935546875,-0.06549072265625
20370,0.276123046875,-0.9660186767578124,-0.0700531005859375
20371,0.2752227783203125,-0.9666595458984376,-0.0733642578125
20372,0.2775421142578125,-0.9669036865234376,-0.078643798828125
20373,0.27655029296875,-0.9648590087890624,-0.0854644775390625
20374,0.2750396728515625,-0.9625701904296876,-0.088348388671875
20375,0.2781829833984375,-0.9627227783203124,-0.0843353271484375
20376,0.27972412109375,-0.96197509765625,-0.076629638671875
20377,0.2802886962890625,-0.961090087890625,-0.0695953369140625
20378,0.2787322998046875,-0.96160888671875,-0.06903076171875
20379,0.278594970703125,-0.960052490234375,-0.073211669921875
20380,0.2809906005859375,-0.958740234375,-0.079681396484375
20381,0.280059814453125,-0.9572296142578124,-0.0875091552734375
20382,0.279052734375,-0.9577789306640624,-0.0907745361328125
20383,0.277557373046875,-0.9561614990234376,-0.0940399169921875
20384,0.274658203125,-0.956817626953125,-0.0936126708984375
20385,0.2740936279296875,-0.9604339599609376,-0.084136962890625
20386,0.2783050537109375,-0.96612548828125,-0.0685272216796875
20387,0.280670166015625,-0.97003173828125,-0.0565185546875
20388,0.2783660888671875,-0.9690093994140624,-0.054046630859375
20389,0.2736968994140625,-0.96221923828125,-0.0567474365234375
20390,0.2725067138671875,-0.959075927734375,-0.0693817138671875
20391,0.2765960693359375,-0.959625244140625,-0.079986572265625
20392,0.2787322998046875,-0.9605712890625,-0.08770751953125
20393,0.2834320068359375,-0.9622039794921876,-0.090728759765625
20394,0.2837371826171875,-0.962310791015625,-0.0911407470703125
20395,0.2789154052734375,-0.9612579345703124,-0.086578369140625
20396,0.279083251953125,-0.962860107421875,-0.0742645263671875
20397,0.281005859375,-0.9668731689453124,-0.0663604736328125
20398,0.2806854248046875,-0.968902587890625,-0.057098388671875
20399,0.27734375,-0.969573974609375,-0.049468994140625
20400,0.276336669921875,-0.9683685302734376,-0.05133056640625
20401,0.2774505615234375,-0.967742919921875,-0.065032958984375
20402,0.2778472900390625,-0.9654693603515624,-0.0778350830078125
20403,0.2786407470703125,-0.9637451171875,-0.0838165283203125
20404,0.2793731689453125,-0.96142578125,-0.086334228515625
20405,0.2784576416015625,-0.9601593017578124,-0.0852203369140625
20406,0.2780914306640625,-0.9626312255859376,-0.0811309814453125
20407,0.2782440185546875,-0.964935302734375,-0.0745086669921875
20408,0.2748870849609375,-0.9629364013671876,-0.0702362060546875
20409,0.2736358642578125,-0.9633941650390624,-0.0610809326171875
20410,0.2735748291015625,-0.96209716796875,-0.0546875
20411,0.2689361572265625,-0.960540771484375,-0.051666259765625
20412,0.2716064453125,-0.9605560302734376,-0.057586669921875
20413,0.2776947021484375,-0.96551513671875,-0.072174072265625
20414,0.2779541015625,-0.96856689453125,-0.0808563232421875
20415,0.27325439453125,-0.968109130859375,-0.0767364501953125
20416,0.2733154296875,-0.9694061279296876,-0.0716705322265625
20417,0.2745208740234375,-0.9693450927734376,-0.074432373046875
20418,0.2759246826171875,-0.9683380126953124,-0.0747222900390625
20419,0.276336669921875,-0.9654083251953124,-0.0682830810546875
20420,0.2729949951171875,-0.96112060546875,-0.062225341796875
20421,0.2723846435546875,-0.9586639404296876,-0.06207275390625
20422,0.2729949951171875,-0.9590911865234376,-0.0654144287109375
20423,0.2734375,-0.96112060546875,-0.0673370361328125
20424,0.272857666015625,-0.961456298828125,-0.07476806640625
20425,0.2739410400390625,-0.9646148681640624,-0.0806884765625
20426,0.277130126953125,-0.9687957763671876,-0.0782623291015625
20427,0.2785186767578125,-0.972808837890625,-0.0752410888671875
20428,0.276031494140625,-0.9722900390625,-0.0736083984375
20429,0.2697906494140625,-0.9681396484375,-0.0703125
20430,0.2691192626953125,-0.9636383056640624,-0.06890869140625
20431,0.2698211669921875,-0.96197509765625,-0.0736541748046875
20432,0.2691497802734375,-0.9610137939453124,-0.0767669677734375
20433,0.2711639404296875,-0.9622650146484376,-0.07391357421875
20434,0.2722015380859375,-0.9633941650390624,-0.073944091796875
20435,0.2734222412109375,-0.9654693603515624,-0.068450927734375
20436,0.274749755859375,-0.9655303955078124,-0.066558837890625
20437,0.2727813720703125,-0.964996337890625,-0.071044921875
20438,0.2702178955078125,-0.963897705078125,-0.0726165771484375
20439,0.2689666748046875,-0.9634857177734376,-0.0756683349609375
20440,0.270233154296875,-0.964141845703125,-0.0772552490234375
20441,0.270355224609375,-0.9636993408203124,-0.074676513671875
20442,0.269866943359375,-0.963714599609375,-0.074432373046875
20443,0.271209716796875,-0.9648590087890624,-0.075836181640625
20444,0.271148681640625,-0.9645843505859376,-0.0785369873046875
20445,0.27215576171875,-0.9661712646484376,-0.07952880859375
20446,0.2738189697265625,-0.9678192138671876,-0.0799713134765625
20447,0.2750244140625,-0.9697723388671876,-0.074432373046875
20448,0.2756805419921875,-0.970672607421875,-0.066741943359375
20449,0.2724761962890625,-0.968963623046875,-0.064208984375
20450,0.2675323486328125,-0.9643096923828124,-0.06292724609375
20451,0.2660369873046875,-0.96173095703125,-0.05938720703125
20452,0.2675323486328125,-0.9611663818359376,-0.0657806396484375
20453,0.269500732421875,-0.961456298828125,-0.0751953125
20454,0.2720184326171875,-0.963287353515625,-0.08013916015625
20455,0.2718353271484375,-0.96368408203125,-0.080596923828125
20456,0.273590087890625,-0.965911865234375,-0.0805816650390625
20457,0.27508544921875,-0.9680328369140624,-0.0726470947265625
20458,0.275634765625,-0.96929931640625,-0.0646514892578125
20459,0.2724456787109375,-0.97064208984375,-0.0600738525390625
20460,0.266357421875,-0.96533203125,-0.0553741455078125
20461,0.2649383544921875,-0.9615325927734376,-0.05828857421875
20462,0.2696533203125,-0.9626922607421876,-0.071533203125
20463,0.2716217041015625,-0.965057373046875,-0.0768890380859375
20464,0.272491455078125,-0.9671173095703124,-0.07281494140625
20465,0.27099609375,-0.9663543701171876,-0.070556640625
20466,0.2694854736328125,-0.9653778076171876,-0.071624755859375
20467,0.27252197265625,-0.9669952392578124,-0.0745697021484375
20468,0.2733917236328125,-0.966705322265625,-0.0762939453125
20469,0.2695770263671875,-0.96502685546875,-0.0733184814453125
20470,0.266632080078125,-0.9622039794921876,-0.0717926025390625
20471,0.2677001953125,-0.9641265869140624,-0.077362060546875
20472,0.271270751953125,-0.966766357421875,-0.07708740234375
20473,0.27191162109375,-0.9661865234375,-0.0724029541015625
20474,0.268829345703125,-0.965484619140625,-0.069976806640625
20475,0.2666168212890625,-0.963348388671875,-0.0625152587890625
20476,0.2654266357421875,-0.9635467529296876,-0.0589141845703125
20477,0.268310546875,-0.965667724609375,-0.0633697509765625
20478,0.270294189453125,-0.9674530029296876,-0.062225341796875
20479,0.27337646484375,-0.970062255859375,-0.061248779296875
20480,0.2725067138671875,-0.968780517578125,-0.062408447265625
20481,0.2698822021484375,-0.9656219482421876,-0.06292724609375
20482,0.2701568603515625,-0.964019775390625,-0.0706787109375
20483,0.2732696533203125,-0.965423583984375,-0.075531005859375
20484,0.2738189697265625,-0.966278076171875,-0.0706024169921875
20485,0.2708282470703125,-0.9651947021484376,-0.0647735595703125
20486,0.2680511474609375,-0.9645843505859376,-0.063568115234375
20487,0.267425537109375,-0.9636383056640624,-0.0674285888671875
20488,0.2665557861328125,-0.96466064453125,-0.070404052734375
20489,0.2704010009765625,-0.9693603515625,-0.0685882568359375
20490,0.27435302734375,-0.971527099609375,-0.069366455078125
20491,0.274871826171875,-0.9714508056640624,-0.065521240234375
20492,0.27398681640625,-0.9698486328125,-0.0620269775390625
20493,0.271026611328125,-0.966827392578125,-0.065521240234375
20494,0.2683258056640625,-0.9630126953125,-0.0664215087890625
20495,0.2667083740234375,-0.96124267578125,-0.06658935546875
20496,0.262451171875,-0.9581146240234376,-0.065216064453125
20497,0.26104736328125,-0.9599609375,-0.062255859375
20498,0.265838623046875,-0.9653778076171876,-0.0638580322265625
20499,0.26885986328125,-0.9681243896484376,-0.061187744140625
20500,0.2681427001953125,-0.9658966064453124,-0.06353759765625
20501,0.263580322265625,-0.9617767333984376,-0.068359375
20502,0.272735595703125,-0.968902587890625,-0.06048583984375
20503,0.281585693359375,-0.97607421875,-0.05804443359375
20504,0.2790374755859375,-0.9741363525390624,-0.0565032958984375
20505,0.2691802978515625,-0.96673583984375,-0.0583953857421875
20506,0.26251220703125,-0.96142578125,-0.060821533203125
20507,0.2620086669921875,-0.959136962890625,-0.0587310791015625
20508,0.2649078369140625,-0.961944580078125,-0.0649261474609375
20509,0.2661285400390625,-0.9647369384765624,-0.0726318359375
20510,0.266632080078125,-0.9658660888671876,-0.0733184814453125
20511,0.2679443359375,-0.96820068359375,-0.0704345703125
20512,0.2704925537109375,-0.9698638916015624,-0.0638580322265625
20513,0.27569580078125,-0.9727325439453124,-0.060638427734375
20514,0.27630615234375,-0.9728851318359376,-0.05963134765625
20515,0.2741241455078125,-0.9715576171875,-0.0592041015625
20516,0.2697906494140625,-0.9701995849609376,-0.0580596923828125
20517,0.2670440673828125,-0.9678955078125,-0.0549163818359375
20518,0.2659759521484375,-0.968719482421875,-0.05963134765625
20519,0.2623291015625,-0.9669036865234376,-0.0650787353515625
20520,0.2620697021484375,-0.9652557373046876,-0.06689453125
20521,0.2653045654296875,-0.965576171875,-0.0638885498046875
20522,0.2713775634765625,-0.970184326171875,-0.0628509521484375
20523,0.278350830078125,-0.9688262939453124,-0.06329345703125
20524,0.2823638916015625,-0.96832275390625,-0.0691680908203125
20525,0.2758331298828125,-0.9582061767578124,-0.0789337158203125
20526,0.269927978515625,-0.9616546630859376,-0.059783935546875
20527,0.2742156982421875,-0.964447021484375,-0.0556793212890625
20528,0.26611328125,-0.958160400390625,-0.0619659423828125
20529,0.2609100341796875,-0.9547271728515624,-0.062103271484375
20530,0.2627716064453125,-0.9590301513671876,-0.0631866455078125
20531,0.2696380615234375,-0.9643707275390624,-0.0695648193359375
20532,0.2745819091796875,-0.972900390625,-0.0742645263671875
20533,0.2766265869140625,-0.977264404296875,-0.071868896484375
20534,0.2746734619140625,-0.9770050048828124,-0.064300537109375
20535,0.2719573974609375,-0.971954345703125,-0.0620269775390625
20536,0.269744873046875,-0.9681243896484376,-0.062591552734375
20537,0.26995849609375,-0.96435546875,-0.061187744140625
20538,0.27191162109375,-0.967010498046875,-0.0605316162109375
20539,0.271209716796875,-0.96759033203125,-0.0627593994140625
20540,0.26580810546875,-0.96380615234375,-0.0635223388671875
20541,0.2622528076171875,-0.9615631103515624,-0.0675506591796875
20542,0.2649688720703125,-0.96136474609375,-0.064361572265625
20543,0.2678680419921875,-0.9631500244140624,-0.0593109130859375
20544,0.269927978515625,-0.9656829833984376,-0.056671142578125
20545,0.2709197998046875,-0.964508056640625,-0.0591583251953125
20546,0.2722015380859375,-0.9663848876953124,-0.06304931640625
20547,0.2690277099609375,-0.964569091796875,-0.06536865234375
20548,0.2679901123046875,-0.965240478515625,-0.068389892578125
20549,0.271148681640625,-0.9678192138671876,-0.06842041015625
20550,0.2698974609375,-0.9676971435546876,-0.07147216796875
20551,0.27069091796875,-0.968994140625,-0.071258544921875
20552,0.272369384765625,-0.9682159423828124,-0.066070556640625
20553,0.275421142578125,-0.9692230224609376,-0.0626983642578125
20554,0.272613525390625,-0.9675750732421876,-0.0618438720703125
20555,0.2661895751953125,-0.96435546875,-0.05810546875
20556,0.265533447265625,-0.9635772705078124,-0.05523681640625
20557,0.2667694091796875,-0.9661407470703124,-0.0557098388671875
20558,0.266510009765625,-0.964080810546875,-0.05242919921875
20559,0.269134521484375,-0.964630126953125,-0.0560760498046875
20560,0.267669677734375,-0.9647979736328124,-0.0624847412109375
20561,0.26715087890625,-0.964080810546875,-0.067108154296875
20562,0.26708984375,-0.964019775390625,-0.0688629150390625
20563,0.2667694091796875,-0.9632568359375,-0.070831298828125
20564,0.2665557861328125,-0.963592529296875,-0.0691070556640625
20565,0.264007568359375,-0.96527099609375,-0.0631103515625
20566,0.2668304443359375,-0.9702911376953124,-0.0522613525390625
20567,0.268096923828125,-0.9737091064453124,-0.0463409423828125
20568,0.2623291015625,-0.9721527099609376,-0.0435028076171875
20569,0.262786865234375,-0.9716949462890624,-0.0427093505859375
20570,0.2651519775390625,-0.969757080078125,-0.0497589111328125
20571,0.2664031982421875,-0.9669342041015624,-0.0616912841796875
20572,0.269317626953125,-0.9639892578125,-0.071075439453125
20573,0.2705230712890625,-0.9624176025390624,-0.077667236328125
20574,0.271270751953125,-0.9631500244140624,-0.0808258056640625
20575,0.2712554931640625,-0.9618682861328124,-0.07635498046875
20576,0.2682342529296875,-0.9630279541015624,-0.0660552978515625
20577,0.2643280029296875,-0.9647064208984376,-0.0593109130859375
20578,0.2614898681640625,-0.9632110595703124,-0.0518951416015625
20579,0.2628021240234375,-0.9660491943359376,-0.0464630126953125
20580,0.2649993896484375,-0.9675140380859376,-0.047119140625
20581,0.264801025390625,-0.966766357421875,-0.049224853515625
20582,0.266204833984375,-0.967803955078125,-0.052032470703125
20583,0.267730712890625,-0.967254638671875,-0.0534210205078125
20584,0.267974853515625,-0.96710205078125,-0.0635833740234375
20585,0.27001953125,-0.9699859619140624,-0.071685791015625
20586,0.269134521484375,-0.969512939453125,-0.072479248046875
20587,0.2682952880859375,-0.9698638916015624,-0.0706939697265625
20588,0.2679901123046875,-0.9704742431640624,-0.062774658203125
20589,0.267547607421875,-0.969757080078125,-0.052703857421875
20590,0.2701263427734375,-0.9669647216796876,-0.048919677734375
20591,0.2660369873046875,-0.9594879150390624,-0.05523681640625
20592,0.2604522705078125,-0.9530792236328124,-0.0563812255859375
20593,0.264495849609375,-0.9552459716796876,-0.0561981201171875
20594,0.269744873046875,-0.9626312255859376,-0.06597900390625
20595,0.2710113525390625,-0.970550537109375,-0.0723876953125
20596,0.270538330078125,-0.973052978515625,-0.07232666015625
20597,0.266693115234375,-0.9749298095703124,-0.069427490234375
20598,0.2646026611328125,-0.975341796875,-0.0673675537109375
20599,0.2662200927734375,-0.97540283203125,-0.0674285888671875
20600,0.264801025390625,-0.973846435546875,-0.063690185546875
20601,0.263916015625,-0.9724884033203124,-0.055267333984375
20602,0.2628326416015625,-0.9707183837890624,-0.0530853271484375
20603,0.2646484375,-0.97125244140625,-0.0533294677734375
20604,0.2669525146484375,-0.970062255859375,-0.053436279296875
20605,0.26904296875,-0.9678955078125,-0.0603485107421875
20606,0.2730560302734375,-0.9665679931640624,-0.069793701171875
20607,0.2731170654296875,-0.9622955322265624,-0.0745086669921875
20608,0.2720184326171875,-0.9608917236328124,-0.0736846923828125
20609,0.269378662109375,-0.9599609375,-0.072052001953125
20610,0.2675018310546875,-0.95947265625,-0.071258544921875
20611,0.2662353515625,-0.9611358642578124,-0.0675811767578125
20612,0.263824462890625,-0.9632415771484376,-0.066558837890625
20613,0.26373291015625,-0.967437744140625,-0.0614166259765625
20614,0.2648468017578125,-0.9682159423828124,-0.0588836669921875
20615,0.26800537109375,-0.97003173828125,-0.063262939453125
20616,0.270355224609375,-0.9712371826171876,-0.0646514892578125
20617,0.2699737548828125,-0.966278076171875,-0.059417724609375
20618,0.272705078125,-0.9645843505859376,-0.058837890625
20619,0.274444580078125,-0.96466064453125,-0.0651397705078125
20620,0.2725067138671875,-0.9648284912109376,-0.068145751953125
20621,0.270355224609375,-0.964813232421875,-0.06610107421875
20622,0.2705230712890625,-0.9662628173828124,-0.066436767578125
20623,0.2713165283203125,-0.9662322998046876,-0.0672454833984375
20624,0.2745208740234375,-0.9651641845703124,-0.0664215087890625
20625,0.2772064208984375,-0.9662628173828124,-0.0697174072265625
20626,0.2781524658203125,-0.9646453857421876,-0.071624755859375
20627,0.275482177734375,-0.961578369140625,-0.0703582763671875
20628,0.270416259765625,-0.9589080810546876,-0.0709991455078125
20629,0.2640380859375,-0.9585418701171876,-0.072052001953125
20630,0.2615966796875,-0.9595947265625,-0.07379150390625
20631,0.264190673828125,-0.9640960693359376,-0.0760650634765625
20632,0.2686767578125,-0.9686737060546876,-0.0739593505859375
20633,0.2715606689453125,-0.971771240234375,-0.067718505859375
20634,0.2743072509765625,-0.9704742431640624,-0.060943603515625
20635,0.2734832763671875,-0.9671630859375,-0.0558319091796875
20636,0.2710723876953125,-0.9621429443359376,-0.0498046875
20637,0.2671051025390625,-0.9574432373046876,-0.0453948974609375
20638,0.2639617919921875,-0.957366943359375,-0.047454833984375
20639,0.2657012939453125,-0.963623046875,-0.050048828125
20640,0.269927978515625,-0.97222900390625,-0.046844482421875
20641,0.2736358642578125,-0.9790802001953124,-0.044281005859375
20642,0.2733154296875,-0.981201171875,-0.0517578125
20643,0.27178955078125,-0.9797821044921876,-0.0584716796875
20644,0.271148681640625,-0.9727020263671876,-0.0623016357421875
20645,0.266937255859375,-0.9682464599609376,-0.07403564453125
20646,0.265716552734375,-0.9659881591796876,-0.0800323486328125
20647,0.2642974853515625,-0.96478271484375,-0.081878662109375
20648,0.264923095703125,-0.9622955322265624,-0.08026123046875
20649,0.2673187255859375,-0.9642486572265624,-0.0726470947265625
20650,0.26544189453125,-0.963043212890625,-0.0647125244140625
20651,0.2652435302734375,-0.962982177734375,-0.0611572265625
20652,0.268280029296875,-0.9644927978515624,-0.0589752197265625
20653,0.2705230712890625,-0.9642486572265624,-0.0615386962890625
20654,0.2687835693359375,-0.9663848876953124,-0.0633087158203125
20655,0.2661285400390625,-0.9668731689453124,-0.0602264404296875
20656,0.2661895751953125,-0.97039794921875,-0.0617218017578125
20657,0.2646942138671875,-0.97265625,-0.0627899169921875
20658,0.2637176513671875,-0.9730377197265624,-0.063446044921875
20659,0.2624053955078125,-0.97296142578125,-0.066375732421875
20660,0.2602386474609375,-0.97235107421875,-0.067779541015625
20661,0.259185791015625,-0.9710693359375,-0.0719757080078125
20662,0.2592315673828125,-0.9703521728515624,-0.0718841552734375
20663,0.2637176513671875,-0.9716796875,-0.0704345703125
20664,0.2658538818359375,-0.97039794921875,-0.069427490234375
20665,0.260986328125,-0.965545654296875,-0.071014404296875
20666,0.2611541748046875,-0.962310791015625,-0.0700531005859375
20667,0.266326904296875,-0.964691162109375,-0.07318115234375
20668,0.2652740478515625,-0.965087890625,-0.076934814453125
20669,0.2645111083984375,-0.9642181396484376,-0.0763702392578125
20670,0.2672576904296875,-0.9644317626953124,-0.0748291015625
20671,0.2682037353515625,-0.9634246826171876,-0.073883056640625
20672,0.2681121826171875,-0.9634552001953124,-0.071044921875
20673,0.26861572265625,-0.964630126953125,-0.067962646484375
20674,0.2660064697265625,-0.9622039794921876,-0.06658935546875
20675,0.2603607177734375,-0.9584808349609376,-0.06732177734375
20676,0.257720947265625,-0.9588470458984376,-0.06414794921875
20677,0.257293701171875,-0.9594268798828124,-0.0584564208984375
20678,0.2555389404296875,-0.963165283203125,-0.0561981201171875
20679,0.2562713623046875,-0.9654693603515624,-0.0566558837890625
20680,0.2592315673828125,-0.96600341796875,-0.0577850341796875
20681,0.2628936767578125,-0.9655609130859376,-0.066864013671875
20682,0.2636871337890625,-0.964263916015625,-0.0766143798828125
20683,0.2628936767578125,-0.9618988037109376,-0.0767822265625
20684,0.2613525390625,-0.95953369140625,-0.0758819580078125
20685,0.26043701171875,-0.9574737548828124,-0.076995849609375
20686,0.26043701171875,-0.9581756591796876,-0.0744171142578125
20687,0.2628326416015625,-0.9606170654296876,-0.0677337646484375
20688,0.2621002197265625,-0.9599761962890624,-0.0631256103515625
20689,0.2630767822265625,-0.9572601318359376,-0.0714874267578125
20690,0.263397216796875,-0.9526824951171876,-0.08807373046875
20691,0.2639923095703125,-0.94635009765625,-0.0984344482421875
20692,0.264556884765625,-0.94464111328125,-0.0986328125
20693,0.26116943359375,-0.944244384765625,-0.0922393798828125
20694,0.254852294921875,-0.9418487548828124,-0.0854644775390625
20695,0.2508087158203125,-0.9473114013671876,-0.079498291015625
20696,0.2473907470703125,-0.9552459716796876,-0.0735321044921875
20697,0.2465057373046875,-0.9646453857421876,-0.0634613037109375
20698,0.25152587890625,-0.9740447998046876,-0.0643157958984375
20699,0.2545318603515625,-0.980010986328125,-0.074859619140625
20700,0.2554779052734375,-0.9814910888671876,-0.079437255859375
20701,0.2605438232421875,-0.981475830078125,-0.0839080810546875
20702,0.2667999267578125,-0.9797821044921876,-0.09674072265625
20703,0.27001953125,-0.971435546875,-0.108367919921875
20704,0.2706146240234375,-0.9638519287109376,-0.1157379150390625
20705,0.2696380615234375,-0.956878662109375,-0.1204833984375
20706,0.2664337158203125,-0.9501800537109376,-0.1202239990234375
20707,0.2700347900390625,-0.954345703125,-0.1113739013671875
20708,0.2795562744140625,-0.9613189697265624,-0.0992584228515625
20709,0.2837371826171875,-0.96624755859375,-0.095001220703125
20710,0.283355712890625,-0.968994140625,-0.09246826171875
20711,0.28350830078125,-0.9700927734375,-0.0887603759765625
20712,0.2836761474609375,-0.9732666015625,-0.0874176025390625
20713,0.2812652587890625,-0.9729766845703124,-0.0892486572265625
20714,0.28045654296875,-0.97332763671875,-0.091033935546875
20715,0.2778167724609375,-0.973968505859375,-0.088653564453125
20716,0.2833404541015625,-0.9787445068359376,-0.0889129638671875
20717,0.2843475341796875,-0.9801788330078124,-0.0970916748046875
20718,0.276092529296875,-0.9735107421875,-0.0935516357421875
20719,0.2764129638671875,-0.9781951904296876,-0.092742919921875
20720,0.28436279296875,-0.9817352294921876,-0.0851898193359375
20721,0.28265380859375,-0.9791107177734376,-0.0778350830078125
20722,0.287872314453125,-0.9801483154296876,-0.0832977294921875
20723,0.2894134521484375,-0.9733428955078124,-0.09014892578125
20724,0.28790283203125,-0.96533203125,-0.095458984375
20725,0.288665771484375,-0.9597930908203124,-0.1042327880859375
20726,0.28387451171875,-0.9535675048828124,-0.107696533203125
20727,0.2785797119140625,-0.94915771484375,-0.100189208984375
20728,0.2779541015625,-0.9497222900390624,-0.090301513671875
20729,0.2802886962890625,-0.9552459716796876,-0.0860443115234375
20730,0.280609130859375,-0.9573516845703124,-0.082794189453125
20731,0.2805938720703125,-0.9571990966796876,-0.0754547119140625
20732,0.2841339111328125,-0.9583587646484376,-0.0792999267578125
20733,0.2877197265625,-0.9577178955078124,-0.0881195068359375
20734,0.28887939453125,-0.9581451416015624,-0.09747314453125
20735,0.2872314453125,-0.9566497802734376,-0.103668212890625
20736,0.2831878662109375,-0.9585723876953124,-0.10736083984375
20737,0.280975341796875,-0.9626312255859376,-0.1031341552734375
20738,0.2772674560546875,-0.967803955078125,-0.0925140380859375
20739,0.2736358642578125,-0.9695892333984376,-0.0843505859375
20740,0.2698822021484375,-0.96990966796875,-0.0796051025390625
20741,0.2694091796875,-0.970703125,-0.0806427001953125
20742,0.269775390625,-0.9712982177734376,-0.0856170654296875
20743,0.2734527587890625,-0.971221923828125,-0.088287353515625
20744,0.2749786376953125,-0.9688262939453124,-0.0937347412109375
20745,0.273773193359375,-0.964019775390625,-0.10028076171875
20746,0.2787017822265625,-0.9628143310546876,-0.1066131591796875
20747,0.2813262939453125,-0.9623565673828124,-0.112823486328125
20748,0.278167724609375,-0.9596405029296876,-0.11175537109375
20749,0.277374267578125,-0.9593505859375,-0.1007080078125
20750,0.276580810546875,-0.9597625732421876,-0.0946807861328125
20751,0.2745361328125,-0.962554931640625,-0.0897064208984375
20752,0.2725067138671875,-0.9619293212890624,-0.0841064453125
20753,0.2725677490234375,-0.961456298828125,-0.0834197998046875
20754,0.2703704833984375,-0.960052490234375,-0.0889739990234375
20755,0.26971435546875,-0.95849609375,-0.0902099609375
20756,0.27252197265625,-0.9600830078125,-0.0909423828125
20757,0.2783660888671875,-0.9627838134765624,-0.09686279296875
20758,0.2808380126953125,-0.9631195068359376,-0.09954833984375
20759,0.2826995849609375,-0.9624786376953124,-0.0960235595703125
20760,0.282073974609375,-0.9616851806640624,-0.0941009521484375
20761,0.281707763671875,-0.9614105224609376,-0.09197998046875
20762,0.2828826904296875,-0.961883544921875,-0.091552734375
20763,0.2801513671875,-0.9594268798828124,-0.094573974609375
20764,0.2778167724609375,-0.9600067138671876,-0.0937347412109375
20765,0.2776336669921875,-0.9615631103515624,-0.092803955078125
20766,0.278106689453125,-0.9609222412109376,-0.095947265625
20767,0.27880859375,-0.9625701904296876,-0.102264404296875
20768,0.278961181640625,-0.964141845703125,-0.1041717529296875
20769,0.280029296875,-0.9642486572265624,-0.105010986328125
20770,0.2806854248046875,-0.96710205078125,-0.103240966796875
20771,0.2791290283203125,-0.96826171875,-0.102691650390625
20772,0.2748870849609375,-0.9681243896484376,-0.098602294921875
20773,0.2728729248046875,-0.9695281982421876,-0.0909576416015625
20774,0.2688140869140625,-0.96881103515625,-0.0879974365234375
20775,0.26666259765625,-0.968231201171875,-0.0879058837890625
20776,0.2686309814453125,-0.9681854248046876,-0.0861663818359375
20777,0.27362060546875,-0.9708251953125,-0.0915374755859375
20778,0.2761688232421875,-0.9691619873046876,-0.100341796875
20779,0.279876708984375,-0.966522216796875,-0.1026458740234375
20780,0.2831268310546875,-0.965179443359375,-0.105712890625
20781,0.2791748046875,-0.96124267578125,-0.1105194091796875
20782,0.2747802734375,-0.960205078125,-0.114471435546875
20783,0.275482177734375,-0.9632720947265624,-0.1104888916015625
20784,0.2734222412109375,-0.9656219482421876,-0.097442626953125
20785,0.2730560302734375,-0.9686737060546876,-0.0888214111328125
20786,0.2729949951171875,-0.970062255859375,-0.0831298828125
20787,0.2734527587890625,-0.968017578125,-0.084808349609375
20788,0.275787353515625,-0.96466064453125,-0.09124755859375
20789,0.27581787109375,-0.9601898193359376,-0.095245361328125
20790,0.276580810546875,-0.95428466796875,-0.100433349609375
20791,0.27947998046875,-0.9508819580078124,-0.1067657470703125
20792,0.2782745361328125,-0.946197509765625,-0.10736083984375
20793,0.277099609375,-0.9436187744140624,-0.1104278564453125
20794,0.27325439453125,-0.9415130615234376,-0.1130523681640625
20795,0.26531982421875,-0.9395294189453124,-0.1067962646484375
20796,0.2587432861328125,-0.9439849853515624,-0.10162353515625
20797,0.2617340087890625,-0.954559326171875,-0.0997467041015625
20798,0.2589263916015625,-0.9555816650390624,-0.0892333984375
20799,0.268310546875,-0.96478271484375,-0.089569091796875
20800,0.28314208984375,-0.969757080078125,-0.0969696044921875
20801,0.2876129150390625,-0.96868896484375,-0.102935791015625
20802,0.2866973876953125,-0.9645233154296876,-0.104034423828125
20803,0.2829132080078125,-0.9636993408203124,-0.0962066650390625
20804,0.2796478271484375,-0.965484619140625,-0.0875701904296875
20805,0.280517578125,-0.9672088623046876,-0.0845947265625
20806,0.282806396484375,-0.969268798828125,-0.081024169921875
20807,0.2827301025390625,-0.9666748046875,-0.0790557861328125
20808,0.281768798828125,-0.96270751953125,-0.082763671875
20809,0.2811126708984375,-0.958740234375,-0.0887451171875
20810,0.2779998779296875,-0.95416259765625,-0.0979461669921875
20811,0.2758026123046875,-0.952850341796875,-0.1038360595703125
20812,0.2781524658203125,-0.9556884765625,-0.1038055419921875
20813,0.2789764404296875,-0.959686279296875,-0.1045379638671875
20814,0.2781524658203125,-0.962982177734375,-0.1002655029296875
20815,0.27960205078125,-0.9644317626953124,-0.0915985107421875
20816,0.277557373046875,-0.96710205078125,-0.086822509765625
20817,0.2750244140625,-0.967987060546875,-0.0824737548828125
20818,0.2772979736328125,-0.96826171875,-0.0801544189453125
20819,0.28143310546875,-0.9709625244140624,-0.0832366943359375
20820,0.2847137451171875,-0.9715576171875,-0.0876312255859375
20821,0.28515625,-0.967498779296875,-0.09637451171875
20822,0.2840423583984375,-0.9654541015625,-0.1014556884765625
20823,0.2862091064453125,-0.9633636474609376,-0.1034393310546875
20824,0.2829742431640625,-0.9589080810546876,-0.10626220703125
20825,0.2792205810546875,-0.9551544189453124,-0.1041107177734375
20826,0.27532958984375,-0.95294189453125,-0.09918212890625
20827,0.269989013671875,-0.952484130859375,-0.0936126708984375
20828,0.2655487060546875,-0.953948974609375,-0.08819580078125
20829,0.2640838623046875,-0.9581451416015624,-0.084136962890625
20830,0.262908935546875,-0.9599456787109376,-0.086517333984375
20831,0.265167236328125,-0.9636077880859376,-0.0894775390625
20832,0.26861572265625,-0.966644287109375,-0.09295654296875
20833,0.269561767578125,-0.9675140380859376,-0.0981597900390625
20834,0.2715911865234375,-0.9697113037109376,-0.103515625
20835,0.2737274169921875,-0.96966552734375,-0.1071624755859375
20836,0.2698516845703125,-0.96563720703125,-0.1083984375
20837,0.2684478759765625,-0.9649200439453124,-0.099456787109375
20838,0.27288818359375,-0.9672698974609376,-0.089385986328125
20839,0.2801666259765625,-0.9703826904296876,-0.0849456787109375
20840,0.2826995849609375,-0.970123291015625,-0.085784912109375
20841,0.281646728515625,-0.9654998779296876,-0.0821685791015625
20842,0.2778472900390625,-0.959808349609375,-0.0846405029296875
20843,0.2758331298828125,-0.956329345703125,-0.090301513671875
20844,0.2752685546875,-0.9565582275390624,-0.0928802490234375
20845,0.27349853515625,-0.958251953125,-0.09344482421875
20846,0.2721099853515625,-0.9576263427734376,-0.0963134765625
20847,0.27252197265625,-0.9581756591796876,-0.095947265625
20848,0.271331787109375,-0.959564208984375,-0.092864990234375
20849,0.2733154296875,-0.9599456787109376,-0.0882720947265625
20850,0.2733612060546875,-0.95965576171875,-0.0862579345703125
20851,0.272857666015625,-0.9611968994140624,-0.0855255126953125
20852,0.2724456787109375,-0.962158203125,-0.08258056640625
20853,0.2733001708984375,-0.964935302734375,-0.080963134765625
20854,0.2713775634765625,-0.965576171875,-0.0873565673828125
20855,0.2638397216796875,-0.961090087890625,-0.091705322265625
20856,0.25958251953125,-0.9589691162109376,-0.0895233154296875
20857,0.2590484619140625,-0.9600067138671876,-0.0896453857421875
20858,0.2544097900390625,-0.961517333984375,-0.0864410400390625
20859,0.254119873046875,-0.96441650390625,-0.078948974609375
20860,0.260650634765625,-0.9724578857421876,-0.074310302734375
20861,0.266387939453125,-0.9782257080078124,-0.0786895751953125
20862,0.2622528076171875,-0.9753570556640624,-0.08392333984375
20863,0.2633209228515625,-0.971038818359375,-0.086273193359375
20864,0.26806640625,-0.969146728515625,-0.093994140625
20865,0.268524169921875,-0.9669342041015624,-0.1044769287109375
20866,0.2667694091796875,-0.9654083251953124,-0.1051177978515625
20867,0.267791748046875,-0.9644317626953124,-0.098846435546875
20868,0.265594482421875,-0.9656829833984376,-0.09210205078125
20869,0.2598114013671875,-0.96441650390625,-0.088287353515625
20870,0.25732421875,-0.9665069580078124,-0.0835113525390625
20871,0.2623138427734375,-0.972869873046875,-0.08099365234375
20872,0.2684326171875,-0.97735595703125,-0.0802764892578125
20873,0.27166748046875,-0.9774627685546876,-0.0787811279296875
20874,0.2678070068359375,-0.974761962890625,-0.0815277099609375
20875,0.2637176513671875,-0.972076416015625,-0.081268310546875
20876,0.26336669921875,-0.9687347412109376,-0.0816497802734375
20877,0.26007080078125,-0.9675750732421876,-0.084625244140625
20878,0.2616424560546875,-0.96600341796875,-0.085235595703125
20879,0.263824462890625,-0.9657440185546876,-0.0838623046875
20880,0.2618408203125,-0.9631500244140624,-0.0874786376953125
20881,0.2590484619140625,-0.9601593017578124,-0.0883331298828125
20882,0.263671875,-0.96466064453125,-0.0858612060546875
20883,0.270965576171875,-0.9695281982421876,-0.087432861328125
20884,0.272979736328125,-0.971343994140625,-0.087890625
20885,0.2722625732421875,-0.968963623046875,-0.0826568603515625
20886,0.2720489501953125,-0.9656982421875,-0.0737152099609375
20887,0.271575927734375,-0.96063232421875,-0.0717620849609375
20888,0.267608642578125,-0.955841064453125,-0.0701141357421875
20889,0.2602386474609375,-0.9504852294921876,-0.0739898681640625
20890,0.2583465576171875,-0.9515380859375,-0.0830078125
20891,0.2610321044921875,-0.955780029296875,-0.0865936279296875
20892,0.265167236328125,-0.9618682861328124,-0.0889892578125
20893,0.265106201171875,-0.96429443359375,-0.0941162109375
20894,0.263031005859375,-0.96441650390625,-0.091705322265625
20895,0.2661590576171875,-0.9674835205078124,-0.083526611328125
20896,0.265380859375,-0.9681549072265624,-0.0763092041015625
20897,0.2640380859375,-0.9681396484375,-0.0679473876953125
20898,0.2623748779296875,-0.9678955078125,-0.0655517578125
20899,0.258331298828125,-0.9658355712890624,-0.0669708251953125
20900,0.25787353515625,-0.9650421142578124,-0.0725555419921875
20901,0.2584075927734375,-0.9660186767578124,-0.078857421875
20902,0.2612152099609375,-0.9686279296875,-0.086578369140625
20903,0.26214599609375,-0.968902587890625,-0.097137451171875
20904,0.2625885009765625,-0.968414306640625,-0.1025848388671875
20905,0.264801025390625,-0.9693145751953124,-0.1002655029296875
20906,0.266204833984375,-0.9669647216796876,-0.100128173828125
20907,0.2621612548828125,-0.962799072265625,-0.0987091064453125
20908,0.2619476318359375,-0.96160888671875,-0.0901336669921875
20909,0.2605438232421875,-0.9626312255859376,-0.0857086181640625
20910,0.25726318359375,-0.9628753662109376,-0.0841522216796875
20911,0.2596435546875,-0.9656829833984376,-0.0765533447265625
20912,0.26666259765625,-0.970550537109375,-0.0750885009765625
20913,0.271636962890625,-0.974151611328125,-0.083587646484375
20914,0.270660400390625,-0.9717254638671876,-0.089569091796875
20915,0.2687835693359375,-0.9669952392578124,-0.0963287353515625
20916,0.2677001953125,-0.964447021484375,-0.1042022705078125
20917,0.2722320556640625,-0.964630126953125,-0.106964111328125
20918,0.2779693603515625,-0.965545654296875,-0.105621337890625
20919,0.2812347412109375,-0.966339111328125,-0.1022186279296875
20920,0.280120849609375,-0.9647064208984376,-0.0892333984375
20921,0.2744293212890625,-0.96038818359375,-0.076812744140625
20922,0.2668304443359375,-0.953399658203125,-0.0696563720703125
20923,0.261322021484375,-0.9514312744140624,-0.0662994384765625
20924,0.2582855224609375,-0.9487457275390624,-0.0677490234375
20925,0.2583160400390625,-0.95025634765625,-0.0735015869140625
20926,0.2626495361328125,-0.955535888671875,-0.0852813720703125
20927,0.27056884765625,-0.9667510986328124,-0.0982513427734375
20928,0.2746124267578125,-0.9700775146484376,-0.1152191162109375
20929,0.27093505859375,-0.9768218994140624,-0.1243438720703125
20930,0.2734832763671875,-0.9830474853515624,-0.1217803955078125
20931,0.28033447265625,-0.9967803955078124,-0.117645263671875
20932,0.2866363525390625,-1.002670288085938,-0.1092987060546875
20933,0.28314208984375,-0.994598388671875,-0.1042327880859375
20934,0.2730712890625,-0.9825897216796876,-0.11102294921875
20935,0.2709503173828125,-0.97198486328125,-0.109344482421875
20936,0.2738494873046875,-0.963470458984375,-0.099609375
20937,0.2736053466796875,-0.956390380859375,-0.0856475830078125
20938,0.273040771484375,-0.9521331787109376,-0.078582763671875
20939,0.2732696533203125,-0.947845458984375,-0.0711212158203125
20940,0.26922607421875,-0.9493865966796876,-0.064361572265625
20941,0.265167236328125,-0.95098876953125,-0.0574951171875
20942,0.262359619140625,-0.954833984375,-0.057830810546875
20943,0.2653045654296875,-0.9606781005859376,-0.05804443359375
20944,0.26812744140625,-0.966400146484375,-0.06793212890625
20945,0.2710418701171875,-0.9694366455078124,-0.0780487060546875
20946,0.2741546630859375,-0.9696807861328124,-0.0796051025390625
20947,0.275665283203125,-0.9687347412109376,-0.076934814453125
20948,0.2736968994140625,-0.963104248046875,-0.0707855224609375
20949,0.2727203369140625,-0.958099365234375,-0.0633087158203125
20950,0.2709197998046875,-0.957183837890625,-0.06085205078125
20951,0.2691497802734375,-0.9573211669921876,-0.0564727783203125
20952,0.2653045654296875,-0.95623779296875,-0.052032470703125
20953,0.2618408203125,-0.957305908203125,-0.0478515625
20954,0.257965087890625,-0.9607086181640624,-0.04876708984375
20955,0.2557525634765625,-0.96270751953125,-0.0531005859375
20956,0.256561279296875,-0.9683074951171876,-0.0584564208984375
20957,0.256866455078125,-0.9704132080078124,-0.0686798095703125
20958,0.2579345703125,-0.9716033935546876,-0.0781097412109375
20959,0.2544708251953125,-0.967529296875,-0.0875701904296875
20960,0.2498779296875,-0.96392822265625,-0.094879150390625
20961,0.2487335205078125,-0.961334228515625,-0.1001129150390625
20962,0.24798583984375,-0.9622039794921876,-0.0960845947265625
20963,0.2502593994140625,-0.96514892578125,-0.092803955078125
20964,0.25103759765625,-0.9666748046875,-0.0977325439453125
20965,0.2527923583984375,-0.9678802490234376,-0.104339599609375
20966,0.254547119140625,-0.9692535400390624,-0.1060791015625
20967,0.2574310302734375,-0.971649169921875,-0.102783203125
20968,0.257904052734375,-0.9740142822265624,-0.0961456298828125
20969,0.2564544677734375,-0.9739227294921876,-0.0919952392578125
20970,0.2583465576171875,-0.974700927734375,-0.0967864990234375
20971,0.2579803466796875,-0.9766082763671876,-0.1007537841796875
20972,0.253662109375,-0.97607421875,-0.0942230224609375
20973,0.251708984375,-0.978240966796875,-0.0867767333984375
20974,0.25115966796875,-0.980926513671875,-0.0784454345703125
20975,0.2492828369140625,-0.9784088134765624,-0.0685882568359375
20976,0.251312255859375,-0.978179931640625,-0.0609130859375
20977,0.25482177734375,-0.976776123046875,-0.060394287109375
20978,0.2561187744140625,-0.9704132080078124,-0.0694122314453125
20979,0.2533416748046875,-0.9636383056640624,-0.0760345458984375
20980,0.25091552734375,-0.960235595703125,-0.0831298828125
20981,0.252166748046875,-0.9561767578125,-0.0898895263671875
20982,0.253173828125,-0.95855712890625,-0.0926055908203125
20983,0.253997802734375,-0.962799072265625,-0.0904541015625
20984,0.2530059814453125,-0.9678497314453124,-0.0867919921875
20985,0.25531005859375,-0.97552490234375,-0.0852813720703125
20986,0.25787353515625,-0.980438232421875,-0.088226318359375
20987,0.2600860595703125,-0.9811859130859376,-0.0901031494140625
20988,0.26171875,-0.978271484375,-0.0963897705078125
20989,0.2653961181640625,-0.9745941162109376,-0.1075286865234375
20990,0.2697906494140625,-0.969879150390625,-0.11212158203125
20991,0.27691650390625,-0.9655303955078124,-0.10565185546875
20992,0.2802276611328125,-0.9598388671875,-0.0985107421875
20993,0.2764892578125,-0.9522857666015624,-0.0936126708984375
20994,0.2758331298828125,-0.9501495361328124,-0.085174560546875
20995,0.2776947021484375,-0.9510955810546876,-0.0787353515625
20996,0.276885986328125,-0.9538116455078124,-0.070281982421875
20997,0.27587890625,-0.958221435546875,-0.0597686767578125
20998,0.2737579345703125,-0.96295166015625,-0.0523681640625
20999,0.267425537109375,-0.9637908935546876,-0.050262451171875
21000,0.2615509033203125,-0.964813232421875,-0.0520782470703125
21001,0.2607269287109375,-0.9654693603515624,-0.0626068115234375
21002,0.263519287109375,-0.9691619873046876,-0.076934814453125
21003,0.2641754150390625,-0.9719696044921876,-0.08648681640625
21004,0.264801025390625,-0.97125244140625,-0.0885162353515625
21005,0.2646331787109375,-0.96905517578125,-0.0887603759765625
21006,0.2661285400390625,-0.9671173095703124,-0.087158203125
21007,0.263671875,-0.963104248046875,-0.080535888671875
21008,0.2617034912109375,-0.9595184326171876,-0.0706634521484375
21009,0.2642059326171875,-0.95904541015625,-0.0677947998046875
21010,0.26556396484375,-0.959075927734375,-0.0626068115234375
21011,0.265960693359375,-0.955047607421875,-0.061614990234375
21012,0.2646026611328125,-0.954437255859375,-0.068878173828125
21013,0.2625885009765625,-0.9488067626953124,-0.06976318359375
21014,0.2659454345703125,-0.95086669921875,-0.0710906982421875
21015,0.2713470458984375,-0.9575958251953124,-0.0782928466796875
21016,0.2723236083984375,-0.961578369140625,-0.0820465087890625
21017,0.270538330078125,-0.96429443359375,-0.0839996337890625
21018,0.267120361328125,-0.9688568115234376,-0.0850067138671875
21019,0.2672882080078125,-0.973236083984375,-0.0862884521484375
21020,0.26959228515625,-0.974395751953125,-0.086822509765625
21021,0.2732391357421875,-0.973785400390625,-0.08343505859375
21022,0.27685546875,-0.9702911376953124,-0.0836944580078125
21023,0.2795562744140625,-0.967193603515625,-0.0805816650390625
21024,0.2834014892578125,-0.965362548828125,-0.0780792236328125
21025,0.286956787109375,-0.96490478515625,-0.0708770751953125
21026,0.284027099609375,-0.9618988037109376,-0.0645751953125
21027,0.2790985107421875,-0.9604339599609376,-0.058624267578125
21028,0.2759246826171875,-0.961212158203125,-0.0554046630859375
21029,0.2754364013671875,-0.9637451171875,-0.05133056640625
21030,0.274627685546875,-0.962890625,-0.0544281005859375
21031,0.2703399658203125,-0.9617919921875,-0.0624542236328125
21032,0.26995849609375,-0.9642181396484376,-0.0693817138671875
21033,0.272430419921875,-0.96575927734375,-0.0759735107421875
21034,0.2722930908203125,-0.967010498046875,-0.080169677734375
21035,0.2717437744140625,-0.9670562744140624,-0.0809783935546875
21036,0.273284912109375,-0.97015380859375,-0.085845947265625
21037,0.2722320556640625,-0.9714202880859376,-0.086334228515625
21038,0.2713623046875,-0.969879150390625,-0.0819854736328125
21039,0.266693115234375,-0.9644927978515624,-0.0803070068359375
21040,0.2621307373046875,-0.96002197265625,-0.0770721435546875
21041,0.2606658935546875,-0.958984375,-0.07342529296875
21042,0.25799560546875,-0.9580078125,-0.0770111083984375
21043,0.2527008056640625,-0.9574432373046876,-0.07745361328125
21044,0.2513427734375,-0.9595489501953124,-0.07281494140625
21045,0.253997802734375,-0.96551513671875,-0.0762939453125
21046,0.2564239501953125,-0.96990966796875,-0.0817108154296875
21047,0.261199951171875,-0.975921630859375,-0.0837554931640625
21048,0.26568603515625,-0.982269287109375,-0.0911102294921875
21049,0.26953125,-0.9814605712890624,-0.0984344482421875
21050,0.271484375,-0.982452392578125,-0.105072021484375
21051,0.2783355712890625,-0.9847564697265624,-0.1106109619140625
21052,0.2809295654296875,-0.980133056640625,-0.109130859375
21053,0.2852325439453125,-0.973907470703125,-0.1061859130859375
21054,0.289520263671875,-0.9685211181640624,-0.0993804931640625
21055,0.2913970947265625,-0.9647369384765624,-0.0915679931640625
21056,0.2938079833984375,-0.962493896484375,-0.08123779296875
21057,0.294891357421875,-0.9613494873046876,-0.0739593505859375
21058,0.29534912109375,-0.9589691162109376,-0.070648193359375
21059,0.288787841796875,-0.954315185546875,-0.070648193359375
21060,0.284698486328125,-0.9533843994140624,-0.072967529296875
21061,0.2864227294921875,-0.96038818359375,-0.07666015625
21062,0.287200927734375,-0.963348388671875,-0.0831146240234375
21063,0.281829833984375,-0.95989990234375,-0.08477783203125
21064,0.2712860107421875,-0.9539794921875,-0.082061767578125
21065,0.2631683349609375,-0.9477691650390624,-0.077880859375
21066,0.2562713623046875,-0.9455413818359376,-0.0816192626953125
21067,0.2535552978515625,-0.9488372802734376,-0.08203125
21068,0.2521514892578125,-0.9506378173828124,-0.0796966552734375
21069,0.247161865234375,-0.9511871337890624,-0.08026123046875
21070,0.24627685546875,-0.951385498046875,-0.0762939453125
21071,0.250152587890625,-0.95428466796875,-0.072509765625
21072,0.258026123046875,-0.9611968994140624,-0.0716094970703125
21073,0.2645263671875,-0.966766357421875,-0.07421875
21074,0.267822265625,-0.971954345703125,-0.069976806640625
21075,0.2673187255859375,-0.974761962890625,-0.0628814697265625
21076,0.26507568359375,-0.9752655029296876,-0.0621337890625
21077,0.263031005859375,-0.9744873046875,-0.06597900390625
21078,0.2625274658203125,-0.97344970703125,-0.073760986328125
21079,0.2606658935546875,-0.9715423583984376,-0.0848236083984375
21080,0.26507568359375,-0.9718780517578124,-0.09417724609375
21081,0.2772674560546875,-0.9778289794921876,-0.1052703857421875
21082,0.2884063720703125,-0.980743408203125,-0.11456298828125
21083,0.2967529296875,-0.98126220703125,-0.11785888671875
21084,0.3032989501953125,-0.9771881103515624,-0.11553955078125
21085,0.3027191162109375,-0.9680938720703124,-0.1075286865234375
21086,0.302764892578125,-0.96307373046875,-0.0930023193359375
21087,0.302642822265625,-0.9605865478515624,-0.0796661376953125
21088,0.2991943359375,-0.9571533203125,-0.0662384033203125
21089,0.2911529541015625,-0.9537353515625,-0.0603790283203125
21090,0.2824554443359375,-0.95269775390625,-0.05914306640625
21091,0.2802734375,-0.9549407958984376,-0.0565643310546875
21092,0.281005859375,-0.96087646484375,-0.063629150390625
21093,0.282012939453125,-0.9641876220703124,-0.0738372802734375
21094,0.2808685302734375,-0.9625091552734376,-0.0797882080078125
21095,0.2791595458984375,-0.96270751953125,-0.0867156982421875
21096,0.2728729248046875,-0.9599761962890624,-0.0896453857421875
21097,0.2652435302734375,-0.9553375244140624,-0.08734130859375
21098,0.2630615234375,-0.9561614990234376,-0.08428955078125
21099,0.2613372802734375,-0.956756591796875,-0.0839385986328125
21100,0.2581634521484375,-0.9568328857421876,-0.0785980224609375
21101,0.2573699951171875,-0.9556427001953124,-0.0762939453125
21102,0.256591796875,-0.9561767578125,-0.0789794921875
21103,0.260772705078125,-0.9591522216796876,-0.077484130859375
21104,0.2700042724609375,-0.96563720703125,-0.081817626953125
21105,0.275177001953125,-0.9720458984375,-0.08868408203125
21106,0.2800750732421875,-0.978759765625,-0.0878753662109375
21107,0.282318115234375,-0.9818878173828124,-0.0776214599609375
21108,0.282867431640625,-0.98095703125,-0.0727691650390625
21109,0.282806396484375,-0.977020263671875,-0.073760986328125
21110,0.279052734375,-0.970123291015625,-0.0795440673828125
21111,0.273834228515625,-0.9624786376953124,-0.087890625
21112,0.2690277099609375,-0.955596923828125,-0.0968017578125
21113,0.26666259765625,-0.9534912109375,-0.1036376953125
21114,0.2640380859375,-0.9522705078125,-0.107879638671875
21115,0.2644805908203125,-0.953155517578125,-0.1051177978515625
21116,0.265869140625,-0.9575042724609376,-0.1018218994140625
21117,0.266845703125,-0.9615631103515624,-0.096282958984375
21118,0.2701263427734375,-0.96710205078125,-0.0888519287109375
21119,0.275970458984375,-0.9733734130859376,-0.0843048095703125
21120,0.277801513671875,-0.97491455078125,-0.0782623291015625
21121,0.2770538330078125,-0.9721832275390624,-0.0691070556640625
21122,0.2801666259765625,-0.9729461669921876,-0.067352294921875
21123,0.278961181640625,-0.9694976806640624,-0.0725250244140625
21124,0.2759246826171875,-0.9654541015625,-0.0813751220703125
21125,0.2758941650390625,-0.9647216796875,-0.086334228515625
21126,0.2753143310546875,-0.966796875,-0.092010498046875
21127,0.2745819091796875,-0.967041015625,-0.0943450927734375
21128,0.272064208984375,-0.9629058837890624,-0.096771240234375
21129,0.26873779296875,-0.959869384765625,-0.095611572265625
21130,0.2680511474609375,-0.9595794677734376,-0.0902252197265625
21131,0.2662811279296875,-0.957977294921875,-0.0901947021484375
21132,0.2632293701171875,-0.9573822021484376,-0.0904083251953125
21133,0.258453369140625,-0.959197998046875,-0.083831787109375
21134,0.255126953125,-0.961029052734375,-0.0731353759765625
21135,0.2578277587890625,-0.9669952392578124,-0.0714263916015625
21136,0.2606353759765625,-0.9712066650390624,-0.076507568359375
21137,0.2596435546875,-0.969879150390625,-0.0808258056640625
21138,0.256866455078125,-0.962554931640625,-0.08575439453125
21139,0.2558746337890625,-0.9627685546875,-0.093048095703125
21140,0.258392333984375,-0.9651641845703124,-0.0958709716796875
21141,0.262725830078125,-0.968292236328125,-0.09478759765625
21142,0.2687530517578125,-0.974456787109375,-0.0905303955078125
21143,0.2662506103515625,-0.974212646484375,-0.08612060546875
21144,0.2585906982421875,-0.9677734375,-0.0803985595703125
21145,0.2528533935546875,-0.964263916015625,-0.0723724365234375
21146,0.2544097900390625,-0.9664154052734376,-0.0701446533203125
21147,0.2595367431640625,-0.967315673828125,-0.077423095703125
21148,0.261199951171875,-0.9673919677734376,-0.085113525390625
21149,0.26177978515625,-0.9663543701171876,-0.088714599609375
21150,0.263580322265625,-0.966766357421875,-0.09112548828125
21151,0.2638397216796875,-0.9639739990234376,-0.0858917236328125
21152,0.2625274658203125,-0.9631500244140624,-0.07464599609375
21153,0.2624969482421875,-0.9617156982421876,-0.0628509521484375
21154,0.2612152099609375,-0.9598388671875,-0.0595550537109375
21155,0.258392333984375,-0.9573516845703124,-0.0665435791015625
21156,0.254547119140625,-0.957000732421875,-0.0677642822265625
21157,0.2584381103515625,-0.9622039794921876,-0.0703887939453125
21158,0.266143798828125,-0.9711761474609376,-0.0826416015625
21159,0.27203369140625,-0.975250244140625,-0.0964508056640625
21160,0.2739715576171875,-0.9751129150390624,-0.10137939453125
21161,0.27459716796875,-0.97308349609375,-0.0960845947265625
21162,0.2745208740234375,-0.9709625244140624,-0.087371826171875
21163,0.2721710205078125,-0.9661102294921876,-0.08062744140625
21164,0.269195556640625,-0.9596405029296876,-0.077117919921875
21165,0.2639923095703125,-0.954376220703125,-0.0764923095703125
21166,0.2581329345703125,-0.952056884765625,-0.074676513671875
21167,0.26025390625,-0.9633636474609376,-0.0729217529296875
21168,0.265411376953125,-0.9742279052734376,-0.073760986328125
21169,0.2686767578125,-0.9808807373046876,-0.08154296875
21170,0.271820068359375,-0.983551025390625,-0.0919036865234375
21171,0.2746429443359375,-0.984405517578125,-0.1024322509765625
21172,0.277191162109375,-0.9851837158203124,-0.1050262451171875
21173,0.2772064208984375,-0.981414794921875,-0.09979248046875
21174,0.2742919921875,-0.97515869140625,-0.089202880859375
21175,0.269500732421875,-0.966156005859375,-0.0850372314453125
21176,0.25909423828125,-0.9553680419921876,-0.0793914794921875
21177,0.2509765625,-0.9511871337890624,-0.07183837890625
21178,0.2430877685546875,-0.9484405517578124,-0.068878173828125
21179,0.2368011474609375,-0.9517059326171876,-0.0681915283203125
21180,0.2449951171875,-0.959564208984375,-0.074188232421875
21181,0.2425994873046875,-0.9596710205078124,-0.0730743408203125
21182,0.246917724609375,-0.9680328369140624,-0.0786895751953125
21183,0.2553863525390625,-0.973114013671875,-0.08209228515625
21184,0.254913330078125,-0.9698028564453124,-0.08349609375
21185,0.2530975341796875,-0.96588134765625,-0.0870361328125
21186,0.2554168701171875,-0.9639739990234376,-0.0921173095703125
21187,0.2610015869140625,-0.96142578125,-0.0955810546875
21188,0.263458251953125,-0.957672119140625,-0.097991943359375
21189,0.269439697265625,-0.956390380859375,-0.098388671875
21190,0.280242919921875,-0.96197509765625,-0.0947265625
21191,0.2932586669921875,-0.9658050537109376,-0.0865936279296875
21192,0.302093505859375,-0.9713592529296876,-0.07965087890625
21193,0.306976318359375,-0.972930908203125,-0.0653533935546875
21194,0.3085174560546875,-0.973907470703125,-0.051727294921875
21195,0.3098297119140625,-0.9777069091796876,-0.0380859375
21196,0.309722900390625,-0.9830169677734376,-0.03033447265625
21197,0.3063812255859375,-0.98797607421875,-0.03192138671875
21198,0.2994537353515625,-0.9885406494140624,-0.034423828125
21199,0.29833984375,-0.9923248291015624,-0.037872314453125
21200,0.3015899658203125,-0.99505615234375,-0.0435791015625
21201,0.3016510009765625,-0.99407958984375,-0.0484619140625
21202,0.3017120361328125,-0.9904327392578124,-0.0503692626953125
21203,0.2983856201171875,-0.98388671875,-0.0539703369140625
21204,0.2944183349609375,-0.974578857421875,-0.0579986572265625
21205,0.2861785888671875,-0.96502685546875,-0.057830810546875
21206,0.27947998046875,-0.9597930908203124,-0.0521087646484375
21207,0.2765655517578125,-0.9580078125,-0.042510986328125
21208,0.27178955078125,-0.958343505859375,-0.0328216552734375
21209,0.2655029296875,-0.9624786376953124,-0.0249176025390625
21210,0.261474609375,-0.9698638916015624,-0.0237274169921875
21211,0.256317138671875,-0.9756622314453124,-0.022430419921875
21212,0.2509002685546875,-0.979522705078125,-0.0294342041015625
21213,0.2470245361328125,-0.9827880859375,-0.0382843017578125
21214,0.2469329833984375,-0.982025146484375,-0.047332763671875
21215,0.248291015625,-0.9781951904296876,-0.05670166015625
21216,0.250396728515625,-0.9711456298828124,-0.0682373046875
21217,0.2527923583984375,-0.963714599609375,-0.0702667236328125
21218,0.2561798095703125,-0.958343505859375,-0.0667724609375
21219,0.257537841796875,-0.958526611328125,-0.05419921875
21220,0.2595977783203125,-0.959991455078125,-0.0374603271484375
21221,0.26385498046875,-0.966400146484375,-0.026641845703125
21222,0.271759033203125,-0.9726409912109376,-0.0202789306640625
21223,0.2741546630859375,-0.9746551513671876,-0.016265869140625
21224,0.27752685546875,-0.9761810302734376,-0.0171661376953125
21225,0.28369140625,-0.9746246337890624,-0.01483154296875
21226,0.286102294921875,-0.96875,-0.0122222900390625
21227,0.284423828125,-0.959747314453125,-0.013519287109375
21228,0.2821044921875,-0.9552001953125,-0.0082550048828125
21229,0.2830963134765625,-0.9609527587890624,0.000885009765625
21230,0.2856597900390625,-0.9720611572265624,0.015594482421875
21231,0.2868499755859375,-0.983062744140625,0.0296783447265625
21232,0.2830352783203125,-0.995849609375,0.0318756103515625
21233,0.2743072509765625,-0.9967041015625,0.0338592529296875
21234,0.2665863037109375,-0.9935455322265624,0.01922607421875
21235,0.2663421630859375,-0.9946746826171876,-0.0060272216796875
21236,0.2670745849609375,-0.9965667724609376,-0.025390625
21237,0.2698211669921875,-1.000213623046875,-0.0420989990234375
21238,0.26873779296875,-1.000823974609375,-0.054656982421875
21239,0.2665863037109375,-0.9970550537109376,-0.060394287109375
21240,0.2608489990234375,-0.990814208984375,-0.063323974609375
21241,0.2534332275390625,-0.980316162109375,-0.0624237060546875
21242,0.2433929443359375,-0.9710540771484376,-0.0580902099609375
21243,0.233123779296875,-0.9619140625,-0.0517730712890625
21244,0.2224273681640625,-0.957794189453125,-0.0473480224609375
21245,0.220855712890625,-0.9562530517578124,-0.0423736572265625
21246,0.2196807861328125,-0.9536590576171876,-0.043701171875
21247,0.2181549072265625,-0.9512481689453124,-0.0442047119140625
21248,0.21734619140625,-0.9493408203125,-0.037139892578125
21249,0.2192840576171875,-0.9503326416015624,-0.029144287109375
21250,0.221649169921875,-0.9502716064453124,-0.02105712890625
21251,0.2258148193359375,-0.953460693359375,-0.0153045654296875
21252,0.232757568359375,-0.95587158203125,-0.0163116455078125
21253,0.234344482421875,-0.9547271728515624,-0.0207061767578125
21254,0.23248291015625,-0.956573486328125,-0.0245208740234375
21255,0.238128662109375,-0.9615325927734376,-0.0313262939453125
21256,0.24365234375,-0.9655303955078124,-0.035186767578125
21257,0.2461395263671875,-0.965301513671875,-0.0357208251953125
21258,0.25103759765625,-0.9704132080078124,-0.0414581298828125
21259,0.25762939453125,-0.973388671875,-0.048553466796875
21260,0.2560272216796875,-0.9728546142578124,-0.0448455810546875
21261,0.244171142578125,-0.9691009521484376,-0.0286102294921875
21262,0.232574462890625,-0.966949462890625,-0.0129241943359375
21263,0.222930908203125,-0.966705322265625,-0.0077056884765625
21264,0.216064453125,-0.9693145751953124,-0.01092529296875
21265,0.2139892578125,-0.975799560546875,-0.0078887939453125
21266,0.2132110595703125,-0.985870361328125,-0.00177001953125
21267,0.2125396728515625,-0.9898834228515624,0.0006561279296875
21268,0.213043212890625,-0.9889678955078124,-0.006134033203125
21269,0.2134552001953125,-0.9867706298828124,-0.02569580078125
21270,0.2120513916015625,-0.981689453125,-0.05072021484375
21271,0.208984375,-0.9830169677734376,-0.0673828125
21272,0.1934814453125,-0.9838714599609376,-0.0691680908203125
21273,0.18817138671875,-0.9794769287109376,-0.0716705322265625
21274,0.1979827880859375,-0.992156982421875,-0.0673828125
21275,0.2075958251953125,-1.00469970703125,-0.0639801025390625
21276,0.220794677734375,-1.011260986328125,-0.0573272705078125
21277,0.23004150390625,-1.010726928710938,-0.0550537109375
21278,0.23309326171875,-1.002349853515625,-0.055938720703125
21279,0.2360076904296875,-0.990203857421875,-0.051788330078125
21280,0.2341766357421875,-0.9761505126953124,-0.0466156005859375
21281,0.2216644287109375,-0.96221923828125,-0.0353240966796875
21282,0.210662841796875,-0.9535675048828124,-0.0138397216796875
21283,0.2040557861328125,-0.9501953125,0.0110015869140625
21284,0.1998748779296875,-0.9470977783203124,0.0234832763671875
21285,0.1987457275390625,-0.9427642822265624,0.020416259765625
21286,0.1940765380859375,-0.93804931640625,0.0243072509765625
21287,0.1926727294921875,-0.9344024658203124,0.0209197998046875
21288,0.1943511962890625,-0.939971923828125,-0.0063018798828125
21289,0.1958160400390625,-0.943084716796875,-0.0313568115234375
21290,0.19293212890625,-0.945343017578125,-0.048431396484375
21291,0.1908721923828125,-0.955657958984375,-0.0565948486328125
21292,0.1900482177734375,-0.9701995849609376,-0.0493316650390625
21293,0.18896484375,-0.98211669921875,-0.0394287109375
21294,0.18475341796875,-0.99029541015625,-0.035369873046875
21295,0.186370849609375,-0.993499755859375,-0.039031982421875
21296,0.19024658203125,-0.99017333984375,-0.041107177734375
21297,0.19305419921875,-0.9860687255859376,-0.04644775390625
21298,0.19818115234375,-0.977325439453125,-0.0544281005859375
21299,0.199493408203125,-0.9725799560546876,-0.06134033203125
21300,0.2029571533203125,-0.9664154052734376,-0.0658721923828125
21301,0.205596923828125,-0.9578704833984376,-0.057098388671875
21302,0.21173095703125,-0.95806884765625,-0.0570831298828125
21303,0.2145538330078125,-0.952362060546875,-0.0506439208984375
21304,0.2178192138671875,-0.9539337158203124,-0.042449951171875
21305,0.22442626953125,-0.9596405029296876,-0.0382843017578125
21306,0.2270660400390625,-0.953765869140625,-0.0278778076171875
21307,0.2386474609375,-0.96051025390625,-0.00738525390625
21308,0.2492828369140625,-0.9722900390625,0.00518798828125
21309,0.246856689453125,-0.9821014404296876,-0.00439453125
21310,0.2355499267578125,-0.981048583984375,-0.0204315185546875
21311,0.22528076171875,-0.984954833984375,-0.03509521484375
21312,0.2199249267578125,-0.98614501953125,-0.0525970458984375
21313,0.2191619873046875,-0.9871368408203124,-0.060394287109375
21314,0.2175140380859375,-0.987701416015625,-0.0637054443359375
21315,0.21417236328125,-0.98321533203125,-0.057769775390625
21316,0.2130126953125,-0.982208251953125,-0.0610809326171875
21317,0.2237091064453125,-0.981719970703125,-0.05487060546875
21318,0.2355499267578125,-0.9788360595703124,-0.0313262939453125
21319,0.23419189453125,-0.9709930419921876,-0.0272369384765625
21320,0.232147216796875,-0.967010498046875,-0.0393218994140625
21321,0.2345123291015625,-0.96478271484375,-0.0586090087890625
21322,0.240203857421875,-0.963592529296875,-0.07354736328125
21323,0.241668701171875,-0.964569091796875,-0.0885162353515625
21324,0.2397613525390625,-0.961883544921875,-0.0972747802734375
21325,0.2442779541015625,-0.9654693603515624,-0.100128173828125
21326,0.2472991943359375,-0.96978759765625,-0.099029541015625
21327,0.2516632080078125,-0.9732666015625,-0.0868988037109375
21328,0.262481689453125,-0.9818878173828124,-0.073150634765625
21329,0.2803192138671875,-0.998504638671875,-0.0648345947265625
21330,0.3020172119140625,-1.010650634765625,-0.0818328857421875
21331,0.3054046630859375,-1.010223388671875,-0.0886993408203125
21332,0.2869110107421875,-0.9999847412109376,-0.092010498046875
21333,0.264312744140625,-0.9768218994140624,-0.0962982177734375
21334,0.2573394775390625,-0.9665985107421876,-0.0882568359375
21335,0.2633209228515625,-0.9665679931640624,-0.07708740234375
21336,0.257720947265625,-0.9601287841796876,-0.0625762939453125
21337,0.2454681396484375,-0.95281982421875,-0.04852294921875
21338,0.2438201904296875,-0.9524383544921876,-0.047119140625
21339,0.249603271484375,-0.962860107421875,-0.06207275390625
21340,0.2660064697265625,-0.976531982421875,-0.0775299072265625
21341,0.2819671630859375,-0.984100341796875,-0.089141845703125
21342,0.2864837646484375,-0.99090576171875,-0.0990142822265625
21343,0.282501220703125,-0.987152099609375,-0.1016387939453125
21344,0.2724456787109375,-0.9691314697265624,-0.101165771484375
21345,0.2550201416015625,-0.945465087890625,-0.109893798828125
21346,0.2346343994140625,-0.9271240234375,-0.118682861328125
21347,0.2368011474609375,-0.934417724609375,-0.1265106201171875
21348,0.2648773193359375,-0.956573486328125,-0.1289215087890625
21349,0.2823333740234375,-0.9669036865234376,-0.1261749267578125
21350,0.2869415283203125,-0.9692535400390624,-0.130615234375
21351,0.292144775390625,-0.9761962890625,-0.1266021728515625
21352,0.2923431396484375,-0.97650146484375,-0.1110992431640625
21353,0.2837677001953125,-0.9712677001953124,-0.1013641357421875
21354,0.2699737548828125,-0.9618682861328124,-0.1024322509765625
21355,0.2681884765625,-0.9633331298828124,-0.1063690185546875
21356,0.273101806640625,-0.963165283203125,-0.1099700927734375
21357,0.2745361328125,-0.9674835205078124,-0.1156768798828125
21358,0.280914306640625,-0.9696044921875,-0.1149444580078125
21359,0.2844696044921875,-0.9725341796875,-0.110595703125
21360,0.28985595703125,-0.9752044677734376,-0.1117095947265625
21361,0.2920074462890625,-0.9700775146484376,-0.10943603515625
21362,0.295867919921875,-0.9730987548828124,-0.10760498046875
21363,0.29827880859375,-0.972564697265625,-0.1080322265625
21364,0.2970428466796875,-0.9686126708984376,-0.109649658203125
21365,0.297271728515625,-0.9678802490234376,-0.1038360595703125
21366,0.2906494140625,-0.9699554443359376,-0.10565185546875
21367,0.2857513427734375,-0.9686126708984376,-0.105865478515625
21368,0.295562744140625,-0.97589111328125,-0.10003662109375
21369,0.2925567626953125,-0.9726715087890624,-0.0986328125
21370,0.27789306640625,-0.9607391357421876,-0.1090240478515625
21371,0.272705078125,-0.956695556640625,-0.1131744384765625
21372,0.27587890625,-0.9599609375,-0.103302001953125
21373,0.27783203125,-0.958251953125,-0.098388671875
21374,0.281524658203125,-0.960540771484375,-0.107421875
21375,0.2913818359375,-0.9652862548828124,-0.1209716796875
21376,0.2967987060546875,-0.9655914306640624,-0.1137237548828125
21377,0.2993927001953125,-0.964813232421875,-0.1105804443359375
21378,0.3007049560546875,-0.96209716796875,-0.105682373046875
21379,0.29803466796875,-0.9635009765625,-0.096832275390625
21380,0.2890472412109375,-0.959014892578125,-0.097930908203125
21381,0.284698486328125,-0.95361328125,-0.0977020263671875
21382,0.278717041015625,-0.947845458984375,-0.0946502685546875
21383,0.2703704833984375,-0.9434814453125,-0.104156494140625
21384,0.2669219970703125,-0.9444732666015624,-0.1174163818359375
21385,0.2679595947265625,-0.9410552978515624,-0.1297454833984375
21386,0.2560577392578125,-0.93255615234375,-0.1317291259765625
21387,0.2494964599609375,-0.93731689453125,-0.1422882080078125
21388,0.2639923095703125,-0.9444427490234376,-0.14556884765625
21389,0.277984619140625,-0.9492950439453124,-0.1374664306640625
21390,0.2796173095703125,-0.953033447265625,-0.1262359619140625
21391,0.28204345703125,-0.9595489501953124,-0.115692138671875
21392,0.2895965576171875,-0.967010498046875,-0.1071319580078125
21393,0.2979278564453125,-0.97296142578125,-0.1083984375
21394,0.303497314453125,-0.9776763916015624,-0.107452392578125
21395,0.2999725341796875,-0.972259521484375,-0.10565185546875
21396,0.2996826171875,-0.969207763671875,-0.0924224853515625
21397,0.3176422119140625,-0.9766082763671876,-0.0478515625
21398,0.33343505859375,-0.99127197265625,-0.041168212890625
21399,0.3532257080078125,-1.005645751953125,-0.010833740234375
21400,0.372467041015625,-1.015548706054688,-0.01708984375
21401,0.370361328125,-1.003692626953125,-0.021820068359375
21402,0.35516357421875,-0.98968505859375,0.003021240234375
21403,0.3079071044921875,-0.9630889892578124,0.0179595947265625
21404,0.25836181640625,-0.900634765625,-0.0228271484375
21405,0.1953887939453125,-0.8742523193359375,-0.045745849609375
21406,0.1497344970703125,-0.8662567138671875,-0.05206298828125
21407,0.11566162109375,-0.86065673828125,-0.118316650390625
21408,0.0724334716796875,-0.8227386474609375,-0.194854736328125
21409,0.0399322509765625,-0.7698974609375,-0.2996673583984375
21410,0.0672607421875,-0.7349853515625,-0.37548828125
21411,0.106719970703125,-0.760589599609375,-0.4035491943359375
21412,0.16375732421875,-0.811248779296875,-0.454132080078125
21413,0.230865478515625,-0.8467864990234375,-0.49481201171875
21414,0.3018798828125,-0.8971099853515625,-0.5125274658203125
21415,0.352783203125,-0.9424591064453124,-0.52423095703125
21416,0.37994384765625,-0.963623046875,-0.522003173828125
21417,0.3768768310546875,-0.9690399169921876,-0.513336181640625
21418,0.3479461669921875,-0.941009521484375,-0.5059967041015625
21419,0.301025390625,-0.9105377197265624,-0.50604248046875
21420,0.251495361328125,-0.859619140625,-0.5224456787109375
21421,0.2194671630859375,-0.823760986328125,-0.551849365234375
21422,0.2216033935546875,-0.8199310302734375,-0.576019287109375
21423,0.237152099609375,-0.828125,-0.5516815185546875
21424,0.2387847900390625,-0.82269287109375,-0.5170440673828125
21425,0.229095458984375,-0.81536865234375,-0.5053558349609375
21426,0.2196044921875,-0.8085479736328125,-0.5155181884765625
21427,0.2184906005859375,-0.809417724609375,-0.5487060546875
21428,0.218780517578125,-0.8105316162109375,-0.5850372314453125
21429,0.2204437255859375,-0.8117523193359375,-0.615234375
21430,0.2392425537109375,-0.830810546875,-0.6262054443359375
21431,0.2496185302734375,-0.84063720703125,-0.59844970703125
21432,0.23150634765625,-0.8314971923828125,-0.56378173828125
21433,0.2113494873046875,-0.8246002197265625,-0.544830322265625
21434,0.2095947265625,-0.820037841796875,-0.5346832275390625
21435,0.22149658203125,-0.8288726806640625,-0.5293121337890625
21436,0.2341156005859375,-0.8314208984375,-0.5104827880859375
21437,0.2490081787109375,-0.84393310546875,-0.489166259765625
21438,0.260589599609375,-0.846954345703125,-0.452301025390625
21439,0.274993896484375,-0.845733642578125,-0.419158935546875
21440,0.2968902587890625,-0.85595703125,-0.39837646484375
21441,0.3155517578125,-0.8541412353515625,-0.3698577880859375
21442,0.304718017578125,-0.8581390380859375,-0.3651123046875
21443,0.27642822265625,-0.8698272705078125,-0.3722076416015625
21444,0.275360107421875,-0.8775482177734375,-0.3793792724609375
21445,0.2962188720703125,-0.9027099609375,-0.390380859375
21446,0.312469482421875,-0.9304351806640624,-0.3946990966796875
21447,0.32781982421875,-0.926544189453125,-0.3936614990234375
21448,0.32672119140625,-0.917999267578125,-0.380767822265625
21449,0.326019287109375,-0.902099609375,-0.3702392578125
21450,0.328521728515625,-0.883087158203125,-0.3664703369140625
21451,0.343658447265625,-0.8871612548828125,-0.3576812744140625
21452,0.34918212890625,-0.8782196044921875,-0.3490753173828125
21453,0.3449859619140625,-0.8835296630859375,-0.381317138671875
21454,0.3310546875,-0.938140869140625,-0.4332427978515625
21455,0.330047607421875,-0.959930419921875,-0.4805908203125
21456,0.3313751220703125,-0.9398651123046876,-0.5237884521484375
21457,0.33209228515625,-0.927703857421875,-0.4809417724609375
21458,0.3383026123046875,-0.884918212890625,-0.4068756103515625
21459,0.27618408203125,-0.7474212646484375,-0.547454833984375
21460,0.24639892578125,-0.8167266845703125,-0.6692962646484375
21461,0.3430328369140625,-0.8068389892578125,-0.4693450927734375
21462,0.4188079833984375,-0.8461151123046875,-0.5212860107421875
21463,0.406005859375,-0.859344482421875,-0.540283203125
21464,0.386322021484375,-0.8187408447265625,-0.5624237060546875
21465,0.388214111328125,-0.7844390869140625,-0.6362457275390625
21466,0.3808135986328125,-0.7238922119140625,-0.68170166015625
21467,0.3658905029296875,-0.661773681640625,-0.727691650390625
21468,0.369720458984375,-0.646514892578125,-0.7676239013671875
21469,0.3883514404296875,-0.646881103515625,-0.78350830078125
21470,0.395965576171875,-0.646484375,-0.7758636474609375
21471,0.395751953125,-0.6574859619140625,-0.7647247314453125
21472,0.3848419189453125,-0.6847381591796875,-0.741302490234375
21473,0.3781280517578125,-0.7173919677734375,-0.7104034423828125
21474,0.3812255859375,-0.739013671875,-0.6830902099609375
21475,0.3722686767578125,-0.742218017578125,-0.6761322021484375
21476,0.3578643798828125,-0.7086334228515625,-0.68878173828125
21477,0.3351898193359375,-0.6619110107421875,-0.7212066650390625
21478,0.32098388671875,-0.623321533203125,-0.7293853759765625
21479,0.32586669921875,-0.6087493896484375,-0.7218170166015625
21480,0.32794189453125,-0.6112060546875,-0.7071533203125
21481,0.3361053466796875,-0.615631103515625,-0.6962127685546875
21482,0.350677490234375,-0.6194610595703125,-0.68133544921875
21483,0.370758056640625,-0.627197265625,-0.6624908447265625
21484,0.3943328857421875,-0.62261962890625,-0.648345947265625
21485,0.4219207763671875,-0.60516357421875,-0.637420654296875
21486,0.4559326171875,-0.588958740234375,-0.6331024169921875
21487,0.470367431640625,-0.56329345703125,-0.6538848876953125
21488,0.453216552734375,-0.5196990966796875,-0.674346923828125
21489,0.416656494140625,-0.48516845703125,-0.69775390625
21490,0.382232666015625,-0.4672088623046875,-0.701904296875
21491,0.350372314453125,-0.460845947265625,-0.701751708984375
21492,0.3236083984375,-0.4650115966796875,-0.6903076171875
21493,0.311004638671875,-0.47900390625,-0.6753997802734375
21494,0.3081817626953125,-0.4989166259765625,-0.6663665771484375
21495,0.3039398193359375,-0.52484130859375,-0.6490936279296875
21496,0.3106842041015625,-0.551666259765625,-0.6331329345703125
21497,0.3265380859375,-0.5784149169921875,-0.62408447265625
21498,0.345367431640625,-0.607391357421875,-0.6253509521484375
21499,0.3688507080078125,-0.626800537109375,-0.630645751953125
21500,0.382568359375,-0.634429931640625,-0.63153076171875
21501,0.3809661865234375,-0.636138916015625,-0.6389312744140625
21502,0.376800537109375,-0.6395263671875,-0.6487884521484375
21503,0.3677520751953125,-0.6464691162109375,-0.65167236328125
21504,0.359100341796875,-0.6511993408203125,-0.656097412109375
21505,0.3499298095703125,-0.6472015380859375,-0.6599884033203125
21506,0.33795166015625,-0.64801025390625,-0.657684326171875
21507,0.32830810546875,-0.6559906005859375,-0.6485137939453125
21508,0.3334808349609375,-0.6670379638671875,-0.63812255859375
21509,0.333160400390625,-0.679595947265625,-0.6254119873046875
21510,0.3285675048828125,-0.693084716796875,-0.624298095703125
21511,0.3220062255859375,-0.70074462890625,-0.6245880126953125
21512,0.3220977783203125,-0.705535888671875,-0.6279296875
21513,0.3217315673828125,-0.70782470703125,-0.6479339599609375
21514,0.3225860595703125,-0.7072296142578125,-0.656890869140625
21515,0.3187103271484375,-0.7053680419921875,-0.661285400390625
21516,0.326934814453125,-0.7155914306640625,-0.6585235595703125
21517,0.344024658203125,-0.730926513671875,-0.647491455078125
21518,0.360321044921875,-0.743194580078125,-0.628387451171875
21519,0.3673248291015625,-0.754364013671875,-0.612060546875
21520,0.3681640625,-0.7617340087890625,-0.5998382568359375
21521,0.364044189453125,-0.7617034912109375,-0.597381591796875
21522,0.3519134521484375,-0.7573089599609375,-0.595855712890625
21523,0.33599853515625,-0.751708984375,-0.603515625
21524,0.331451416015625,-0.7472381591796875,-0.6123199462890625
21525,0.329437255859375,-0.7381744384765625,-0.6172637939453125
21526,0.324615478515625,-0.729736328125,-0.6173248291015625
21527,0.3236236572265625,-0.7247772216796875,-0.61920166015625
21528,0.3288116455078125,-0.7183837890625,-0.6154937744140625
21529,0.338714599609375,-0.7127838134765625,-0.613067626953125
21530,0.344970703125,-0.7168121337890625,-0.6024932861328125
21531,0.3493194580078125,-0.7301483154296875,-0.5944061279296875
21532,0.356597900390625,-0.733795166015625,-0.59649658203125
21533,0.3549346923828125,-0.7281646728515625,-0.6071929931640625
21534,0.3559417724609375,-0.7124176025390625,-0.6229095458984375
21535,0.3578948974609375,-0.697052001953125,-0.6324615478515625
21536,0.3583984375,-0.6829681396484375,-0.6423187255859375
21537,0.356964111328125,-0.671295166015625,-0.6546478271484375
21538,0.3589630126953125,-0.6634674072265625,-0.659027099609375
21539,0.3656463623046875,-0.6665802001953125,-0.6591949462890625
21540,0.3677978515625,-0.6707916259765625,-0.6542816162109375
21541,0.360595703125,-0.6726531982421875,-0.650360107421875
21542,0.3590545654296875,-0.6759185791015625,-0.645111083984375
21543,0.3619537353515625,-0.6755218505859375,-0.64788818359375
21544,0.356475830078125,-0.667266845703125,-0.6556854248046875
21545,0.345977783203125,-0.656341552734375,-0.659515380859375
21546,0.3446197509765625,-0.6537628173828125,-0.66436767578125
21547,0.3471221923828125,-0.6571197509765625,-0.6621246337890625
21548,0.3499908447265625,-0.6597747802734375,-0.6593475341796875
21549,0.3491973876953125,-0.663482666015625,-0.652008056640625
21550,0.348724365234375,-0.6700592041015625,-0.6436004638671875
21551,0.3516387939453125,-0.6828155517578125,-0.63458251953125
21552,0.361083984375,-0.696929931640625,-0.632781982421875
21553,0.3696136474609375,-0.70458984375,-0.6283416748046875
21554,0.3708343505859375,-0.705902099609375,-0.6250762939453125
21555,0.36737060546875,-0.7015228271484375,-0.6259918212890625
21556,0.367156982421875,-0.696624755859375,-0.63299560546875
21557,0.3711395263671875,-0.6885528564453125,-0.638031005859375
21558,0.3816375732421875,-0.68048095703125,-0.6408233642578125
21559,0.3819427490234375,-0.6741790771484375,-0.6365509033203125
21560,0.381561279296875,-0.6764373779296875,-0.6257781982421875
21561,0.3776397705078125,-0.6811065673828125,-0.6122589111328125
21562,0.3720703125,-0.68585205078125,-0.5999908447265625
21563,0.369903564453125,-0.685333251953125,-0.59173583984375
21564,0.3650970458984375,-0.688751220703125,-0.5767669677734375
21565,0.3640594482421875,-0.690521240234375,-0.5694732666015625
21566,0.36090087890625,-0.682373046875,-0.5692901611328125
21567,0.3482208251953125,-0.6673736572265625,-0.5791778564453125
21568,0.3343505859375,-0.64581298828125,-0.6003570556640625
21569,0.3262939453125,-0.624481201171875,-0.61468505859375
21570,0.33026123046875,-0.6113739013671875,-0.63446044921875
21571,0.341796875,-0.5944366455078125,-0.644866943359375
21572,0.35369873046875,-0.585540771484375,-0.64495849609375
21573,0.3649444580078125,-0.5897674560546875,-0.6624908447265625
21574,0.36749267578125,-0.59625244140625,-0.652374267578125
21575,0.36749267578125,-0.6101226806640625,-0.6446685791015625
21576,0.3785552978515625,-0.6322174072265625,-0.6328582763671875
21577,0.381927490234375,-0.6530914306640625,-0.627960205078125
21578,0.3883056640625,-0.6632232666015625,-0.6251678466796875
21579,0.3926239013671875,-0.66204833984375,-0.62841796875
21580,0.3890838623046875,-0.65093994140625,-0.6325225830078125
21581,0.391693115234375,-0.646820068359375,-0.63250732421875
21582,0.4010162353515625,-0.644256591796875,-0.6361846923828125
21583,0.4133758544921875,-0.6431427001953125,-0.6312713623046875
21584,0.4210357666015625,-0.6521759033203125,-0.6206817626953125
21585,0.418853759765625,-0.65625,-0.6085357666015625
21586,0.4185028076171875,-0.665618896484375,-0.5966033935546875
21587,0.4163970947265625,-0.6832122802734375,-0.5845947265625
21588,0.420867919921875,-0.7062530517578125,-0.56158447265625
21589,0.42889404296875,-0.733917236328125,-0.5420074462890625
21590,0.44134521484375,-0.75836181640625,-0.5212554931640625
21591,0.451416015625,-0.7738494873046875,-0.5134429931640625
21592,0.459716796875,-0.7776947021484375,-0.51519775390625
21593,0.470123291015625,-0.766998291015625,-0.5207977294921875
21594,0.4734344482421875,-0.7441253662109375,-0.529388427734375
21595,0.4691314697265625,-0.716522216796875,-0.5475006103515625
21596,0.4660797119140625,-0.692413330078125,-0.562408447265625
21597,0.4739532470703125,-0.6981201171875,-0.5509185791015625
21598,0.4910125732421875,-0.7230987548828125,-0.5237884521484375
21599,0.505462646484375,-0.7408447265625,-0.5007171630859375
21600,0.51202392578125,-0.759124755859375,-0.47589111328125
21601,0.501007080078125,-0.7723846435546875,-0.4538421630859375
21602,0.4942474365234375,-0.7785186767578125,-0.462677001953125
21603,0.5136566162109375,-0.77703857421875,-0.487213134765625
21604,0.5266571044921875,-0.766510009765625,-0.50054931640625
21605,0.523223876953125,-0.7558441162109375,-0.5204010009765625
21606,0.5229644775390625,-0.747802734375,-0.518890380859375
21607,0.5277099609375,-0.759002685546875,-0.50543212890625
21608,0.5457916259765625,-0.782562255859375,-0.470977783203125
21609,0.57232666015625,-0.797607421875,-0.4307861328125
21610,0.5970458984375,-0.81365966796875,-0.3866729736328125
21611,0.6117095947265625,-0.8308258056640625,-0.355438232421875
21612,0.62042236328125,-0.8533172607421875,-0.343597412109375
21613,0.627838134765625,-0.861114501953125,-0.3494720458984375
21614,0.6275482177734375,-0.857940673828125,-0.3662567138671875
21615,0.6177215576171875,-0.843597412109375,-0.3677825927734375
21616,0.5968475341796875,-0.8303070068359375,-0.364166259765625
21617,0.5738677978515625,-0.8221893310546875,-0.3355255126953125
21618,0.55389404296875,-0.8143463134765625,-0.29205322265625
21619,0.5405120849609375,-0.7934417724609375,-0.2672576904296875
21620,0.5341033935546875,-0.78375244140625,-0.2706298828125
21621,0.53363037109375,-0.7743072509765625,-0.25555419921875
21622,0.533111572265625,-0.7754669189453125,-0.25518798828125
21623,0.5345611572265625,-0.7799835205078125,-0.25225830078125
21624,0.530120849609375,-0.776885986328125,-0.2398681640625
21625,0.511383056640625,-0.7714385986328125,-0.2519378662109375
21626,0.4933013916015625,-0.7810211181640625,-0.2626953125
21627,0.48773193359375,-0.797637939453125,-0.2501678466796875
21628,0.4837188720703125,-0.8040771484375,-0.220977783203125
21629,0.4861907958984375,-0.8238525390625,-0.1989288330078125
21630,0.4865264892578125,-0.8386993408203125,-0.1791229248046875
21631,0.4832000732421875,-0.8497314453125,-0.154205322265625
21632,0.4741363525390625,-0.8633880615234375,-0.14251708984375
21633,0.4738311767578125,-0.8909149169921875,-0.1327667236328125
21634,0.4674835205078125,-0.9012603759765624,-0.110870361328125
21635,0.4513092041015625,-0.8901519775390625,-0.0989837646484375
21636,0.4498291015625,-0.88751220703125,-0.101348876953125
21637,0.456787109375,-0.8822784423828125,-0.106292724609375
21638,0.455596923828125,-0.869293212890625,-0.1094818115234375
21639,0.453887939453125,-0.8721771240234375,-0.1094512939453125
21640,0.461212158203125,-0.877227783203125,-0.0897979736328125
21641,0.4725341796875,-0.8892059326171875,-0.068145751953125
21642,0.477386474609375,-0.90216064453125,-0.0477752685546875
21643,0.473175048828125,-0.9048309326171876,-0.0348663330078125
21644,0.467010498046875,-0.9019622802734376,-0.039581298828125
21645,0.458648681640625,-0.886383056640625,-0.0589141845703125
21646,0.447174072265625,-0.8833770751953125,-0.073883056640625
21647,0.4360809326171875,-0.88714599609375,-0.07183837890625
21648,0.431854248046875,-0.888275146484375,-0.058929443359375
21649,0.4321441650390625,-0.887603759765625,-0.0555877685546875
21650,0.4403076171875,-0.89544677734375,-0.0592803955078125
21651,0.4551849365234375,-0.896759033203125,-0.066497802734375
21652,0.4627227783203125,-0.9013214111328124,-0.0699310302734375
21653,0.466064453125,-0.90826416015625,-0.0620880126953125
21654,0.4609832763671875,-0.9036102294921876,-0.0505523681640625
21655,0.451690673828125,-0.8967437744140625,-0.05487060546875
21656,0.4499664306640625,-0.8955078125,-0.0675201416015625
21657,0.4521484375,-0.889892578125,-0.0929718017578125
21658,0.453704833984375,-0.8834991455078125,-0.1111907958984375
21659,0.4525604248046875,-0.875518798828125,-0.1249542236328125
21660,0.4497528076171875,-0.8751220703125,-0.1383514404296875
21661,0.4560699462890625,-0.887176513671875,-0.1251678466796875
21662,0.462310791015625,-0.9038238525390624,-0.097747802734375
21663,0.4629058837890625,-0.913970947265625,-0.070587158203125
21664,0.4603271484375,-0.9143829345703124,-0.057220458984375
21665,0.4537506103515625,-0.900360107421875,-0.042938232421875
21666,0.43896484375,-0.8895263671875,-0.0474853515625
21667,0.4305267333984375,-0.884246826171875,-0.0642242431640625
21668,0.431549072265625,-0.8777313232421875,-0.0670013427734375
21669,0.4386444091796875,-0.871917724609375,-0.0681304931640625
21670,0.4402618408203125,-0.8709259033203125,-0.0816497802734375
21671,0.4393310546875,-0.8834075927734375,-0.1008758544921875
21672,0.4437103271484375,-0.8917236328125,-0.0954742431640625
21673,0.454376220703125,-0.896514892578125,-0.083404541015625
21674,0.4680938720703125,-0.90118408203125,-0.06787109375
21675,0.475311279296875,-0.9058990478515624,-0.0659027099609375
21676,0.471893310546875,-0.8986358642578125,-0.0777435302734375
21677,0.4664154052734375,-0.88787841796875,-0.103057861328125
21678,0.46844482421875,-0.8813018798828125,-0.1380462646484375
21679,0.4716644287109375,-0.878997802734375,-0.166107177734375
21680,0.47314453125,-0.877655029296875,-0.1753082275390625
21681,0.466339111328125,-0.8787689208984375,-0.172271728515625
21682,0.466827392578125,-0.8844451904296875,-0.1661224365234375
21683,0.4701080322265625,-0.88970947265625,-0.157623291015625
21684,0.4657745361328125,-0.8917694091796875,-0.1515655517578125
21685,0.460174560546875,-0.8904876708984375,-0.147918701171875
21686,0.464324951171875,-0.891387939453125,-0.1432342529296875
21687,0.4669952392578125,-0.8902740478515625,-0.1388397216796875
21688,0.4658050537109375,-0.8855133056640625,-0.13763427734375
21689,0.4649200439453125,-0.883026123046875,-0.1427459716796875
21690,0.4700469970703125,-0.88128662109375,-0.1405487060546875
21691,0.476226806640625,-0.8776397705078125,-0.131195068359375
21692,0.4737701416015625,-0.8770751953125,-0.125518798828125
21693,0.4649658203125,-0.874359130859375,-0.11236572265625
21694,0.4570770263671875,-0.874908447265625,-0.10137939453125
21695,0.456268310546875,-0.8830108642578125,-0.091217041015625
21696,0.4588165283203125,-0.889678955078125,-0.086944580078125
21697,0.46588134765625,-0.8915557861328125,-0.082916259765625
21698,0.4666290283203125,-0.8922576904296875,-0.0814666748046875
21699,0.4680633544921875,-0.891387939453125,-0.0847930908203125
21700,0.4737091064453125,-0.889068603515625,-0.096771240234375
21701,0.476348876953125,-0.88427734375,-0.1069488525390625
21702,0.4728240966796875,-0.8785858154296875,-0.10906982421875
21703,0.4697723388671875,-0.8766021728515625,-0.11273193359375
21704,0.46673583984375,-0.8744964599609375,-0.1168670654296875
21705,0.4610443115234375,-0.8662872314453125,-0.1149444580078125
21706,0.45050048828125,-0.860137939453125,-0.123138427734375
21707,0.4562225341796875,-0.863800048828125,-0.1297454833984375
21708,0.4620513916015625,-0.872344970703125,-0.126007080078125
21709,0.4644927978515625,-0.8741607666015625,-0.1209869384765625
21710,0.468963623046875,-0.8816986083984375,-0.117645263671875
21711,0.4752655029296875,-0.8889923095703125,-0.107177734375
21712,0.4838714599609375,-0.8913421630859375,-0.093170166015625
21713,0.4862823486328125,-0.8986968994140625,-0.0958709716796875
21714,0.484344482421875,-0.8995513916015625,-0.103302001953125
21715,0.47747802734375,-0.8929290771484375,-0.094879150390625
21716,0.4644317626953125,-0.8859405517578125,-0.10491943359375
21717,0.45989990234375,-0.88446044921875,-0.11016845703125
21718,0.4542236328125,-0.8708038330078125,-0.100311279296875
21719,0.445343017578125,-0.869232177734375,-0.0997772216796875
21720,0.45343017578125,-0.8744964599609375,-0.09161376953125
21721,0.4695281982421875,-0.88623046875,-0.085906982421875
21722,0.483489990234375,-0.88958740234375,-0.0832366943359375
21723,0.4893646240234375,-0.8895111083984375,-0.0894775390625
21724,0.4876556396484375,-0.8834381103515625,-0.0974884033203125
21725,0.484222412109375,-0.8792266845703125,-0.1094970703125
21726,0.48370361328125,-0.881134033203125,-0.1158294677734375
21727,0.4818115234375,-0.88067626953125,-0.1076202392578125
21728,0.4768829345703125,-0.8807373046875,-0.08941650390625
21729,0.4702911376953125,-0.88641357421875,-0.0720672607421875
21730,0.4641876220703125,-0.8878021240234375,-0.06048583984375
21731,0.4597625732421875,-0.8866119384765625,-0.0563812255859375
21732,0.46173095703125,-0.8903350830078125,-0.0640869140625
21733,0.469940185546875,-0.8918914794921875,-0.0662841796875
21734,0.478790283203125,-0.8961181640625,-0.0657806396484375
21735,0.48016357421875,-0.8939666748046875,-0.066925048828125
21736,0.478118896484375,-0.893035888671875,-0.0737457275390625
21737,0.471435546875,-0.885589599609375,-0.0776824951171875
21738,0.465850830078125,-0.8818359375,-0.082366943359375
21739,0.4622344970703125,-0.8795166015625,-0.082275390625
21740,0.4565582275390625,-0.8752899169921875,-0.079132080078125
21741,0.4511871337890625,-0.8721923828125,-0.07830810546875
21742,0.456207275390625,-0.8795166015625,-0.0820770263671875
21743,0.46832275390625,-0.8857269287109375,-0.0800018310546875
21744,0.47064208984375,-0.8912200927734375,-0.0803985595703125
21745,0.4680633544921875,-0.89520263671875,-0.0751953125
21746,0.46923828125,-0.89862060546875,-0.073394775390625
21747,0.4689483642578125,-0.895660400390625,-0.07635498046875
21748,0.463623046875,-0.891754150390625,-0.0850372314453125
21749,0.4598236083984375,-0.8885955810546875,-0.086456298828125
21750,0.454986572265625,-0.884033203125,-0.0818634033203125
21751,0.4537506103515625,-0.8885040283203125,-0.07098388671875
21752,0.4564361572265625,-0.8903350830078125,-0.058868408203125
21753,0.45709228515625,-0.8944549560546875,-0.0545196533203125
21754,0.4601898193359375,-0.8974151611328125,-0.0585479736328125
21755,0.46026611328125,-0.8931121826171875,-0.0632781982421875
21756,0.4581298828125,-0.888946533203125,-0.0680084228515625
21757,0.4570159912109375,-0.88580322265625,-0.0746917724609375
21758,0.45721435546875,-0.8834228515625,-0.08050537109375
21759,0.4626922607421875,-0.8851165771484375,-0.0879974365234375
21760,0.4649658203125,-0.8777923583984375,-0.0797119140625
21761,0.468109130859375,-0.8891754150390625,-0.082550048828125
21762,0.475433349609375,-0.9014434814453124,-0.0721588134765625
21763,0.483306884765625,-0.917327880859375,-0.0591888427734375
21764,0.484771728515625,-0.912872314453125,-0.0440216064453125
21765,0.440826416015625,-0.895904541015625,0.005645751953125
21766,0.3990936279296875,-0.8656158447265625,0.0141448974609375
21767,0.3864288330078125,-0.8492584228515625,-0.000885009765625
21768,0.3969573974609375,-0.854095458984375,-0.035247802734375
21769,0.42694091796875,-0.8731231689453125,-0.068023681640625
21770,0.4554595947265625,-0.8880157470703125,-0.0586090087890625
21771,0.46966552734375,-0.9059295654296876,-0.0582733154296875
21772,0.4808807373046875,-0.925689697265625,-0.053924560546875
21773,0.48175048828125,-0.929351806640625,-0.0447845458984375
21774,0.4804840087890625,-0.93255615234375,-0.0471038818359375
21775,0.48944091796875,-0.9364013671875,-0.0516815185546875
21776,0.485107421875,-0.9278564453125,-0.048492431640625
21777,0.4608917236328125,-0.90618896484375,-0.0414886474609375
21778,0.440704345703125,-0.8949737548828125,-0.0445556640625
21779,0.430389404296875,-0.882080078125,-0.0445098876953125
21780,0.4255218505859375,-0.8721466064453125,-0.0313568115234375
21781,0.42864990234375,-0.868927001953125,-0.01495361328125
21782,0.4351043701171875,-0.872406005859375,-0.0182952880859375
21783,0.445465087890625,-0.878875732421875,-0.0304107666015625
21784,0.45367431640625,-0.891571044921875,-0.0381927490234375
21785,0.4589996337890625,-0.90179443359375,-0.0422210693359375
21786,0.4633636474609375,-0.903228759765625,-0.0431365966796875
21787,0.460235595703125,-0.901092529296875,-0.049468994140625
21788,0.453277587890625,-0.900299072265625,-0.072662353515625
21789,0.4541473388671875,-0.901763916015625,-0.0931396484375
21790,0.4611358642578125,-0.9011688232421876,-0.09844970703125
21791,0.463104248046875,-0.899688720703125,-0.09063720703125
21792,0.4637603759765625,-0.9019317626953124,-0.0814361572265625
21793,0.4631805419921875,-0.90216064453125,-0.0822296142578125
21794,0.4604644775390625,-0.899688720703125,-0.0792999267578125
21795,0.4592132568359375,-0.8974456787109375,-0.069610595703125
21796,0.4545745849609375,-0.8980255126953125,-0.0587310791015625
21797,0.44525146484375,-0.8921356201171875,-0.0446624755859375
21798,0.4319305419921875,-0.8816070556640625,-0.0478515625
21799,0.42803955078125,-0.8804168701171875,-0.0684356689453125
21800,0.4333038330078125,-0.882476806640625,-0.080230712890625
21801,0.444366455078125,-0.88592529296875,-0.0857086181640625
21802,0.4569091796875,-0.8908538818359375,-0.09246826171875
21803,0.4643402099609375,-0.89202880859375,-0.0878753662109375
21804,0.46868896484375,-0.89886474609375,-0.08172607421875
21805,0.474884033203125,-0.898468017578125,-0.0738983154296875
21806,0.4673004150390625,-0.8888092041015625,-0.0727691650390625
21807,0.450164794921875,-0.8780670166015625,-0.077545166015625
21808,0.442413330078125,-0.87896728515625,-0.084930419921875
21809,0.4398345947265625,-0.8791351318359375,-0.0879058837890625
21810,0.4427032470703125,-0.8797607421875,-0.109893798828125
21811,0.46099853515625,-0.887420654296875,-0.1357421875
21812,0.4794464111328125,-0.8963165283203125,-0.1314849853515625
21813,0.490142822265625,-0.9075775146484376,-0.114776611328125
21814,0.493011474609375,-0.916473388671875,-0.1032867431640625
21815,0.4860687255859375,-0.9180908203125,-0.0931243896484375
21816,0.479766845703125,-0.920562744140625,-0.0859375
21817,0.4754486083984375,-0.913330078125,-0.07940673828125
21818,0.464263916015625,-0.89532470703125,-0.0777587890625
21819,0.44903564453125,-0.88153076171875,-0.0994873046875
21820,0.4468231201171875,-0.8819427490234375,-0.1195068359375
21821,0.45428466796875,-0.8864288330078125,-0.1079864501953125
21822,0.4552001953125,-0.8882293701171875,-0.0834197998046875
21823,0.4517059326171875,-0.8895721435546875,-0.073272705078125
21824,0.446990966796875,-0.8919830322265625,-0.0723724365234375
21825,0.4469146728515625,-0.8869781494140625,-0.07843017578125
21826,0.44659423828125,-0.882568359375,-0.089111328125
21827,0.4421234130859375,-0.878814697265625,-0.1008148193359375
21828,0.4442138671875,-0.878021240234375,-0.105224609375
21829,0.4490814208984375,-0.880279541015625,-0.109466552734375
21830,0.4492645263671875,-0.890167236328125,-0.1125335693359375
21831,0.4522247314453125,-0.8951416015625,-0.0972900390625
21832,0.45501708984375,-0.8922119140625,-0.0792388916015625
21833,0.4568023681640625,-0.892425537109375,-0.0789337158203125
21834,0.45770263671875,-0.8940582275390625,-0.0873565673828125
21835,0.45068359375,-0.895599365234375,-0.0861968994140625
21836,0.44439697265625,-0.8987884521484375,-0.0878143310546875
21837,0.4412384033203125,-0.90289306640625,-0.07952880859375
21838,0.4344940185546875,-0.9046478271484376,-0.0735321044921875
21839,0.4372406005859375,-0.911224365234375,-0.071807861328125
21840,0.4436798095703125,-0.909820556640625,-0.0638275146484375
21841,0.447540283203125,-0.903350830078125,-0.0653076171875
21842,0.4471282958984375,-0.8998565673828125,-0.0701904296875
21843,0.4474945068359375,-0.9001617431640625,-0.0807647705078125
21844,0.4522705078125,-0.9050140380859376,-0.08544921875
21845,0.454620361328125,-0.9097442626953124,-0.07879638671875
21846,0.4482574462890625,-0.9137115478515624,-0.07586669921875
21847,0.4407196044921875,-0.9160308837890624,-0.0760955810546875
21848,0.4359893798828125,-0.9117889404296876,-0.0701904296875
21849,0.432373046875,-0.908203125,-0.0642547607421875
21850,0.42779541015625,-0.9050140380859376,-0.058746337890625
21851,0.4300994873046875,-0.901031494140625,-0.0594482421875
21852,0.439453125,-0.903656005859375,-0.0688934326171875
21853,0.4426422119140625,-0.900482177734375,-0.065338134765625
21854,0.4349365234375,-0.892822265625,-0.0606689453125
21855,0.426239013671875,-0.8910675048828125,-0.0623016357421875
21856,0.42181396484375,-0.88958740234375,-0.0581817626953125
21857,0.4146881103515625,-0.8948211669921875,-0.05047607421875
21858,0.4078521728515625,-0.8997802734375,-0.0404052734375
21859,0.4028778076171875,-0.9022674560546876,-0.021148681640625
21860,0.4022369384765625,-0.909912109375,-0.017120361328125
21861,0.4122467041015625,-0.915496826171875,-0.015167236328125
21862,0.42230224609375,-0.91534423828125,-0.0241851806640625
21863,0.4246368408203125,-0.9124298095703124,-0.0416412353515625
21864,0.42919921875,-0.9120330810546876,-0.0555877685546875
21865,0.439544677734375,-0.911773681640625,-0.0644989013671875
21866,0.4429473876953125,-0.9111328125,-0.064208984375
21867,0.4421234130859375,-0.9063873291015624,-0.0562744140625
21868,0.432403564453125,-0.8969573974609375,-0.0537872314453125
21869,0.4199981689453125,-0.89849853515625,-0.0610198974609375
21870,0.4139251708984375,-0.9019927978515624,-0.051483154296875
21871,0.408538818359375,-0.8990478515625,-0.0391845703125
21872,0.4090576171875,-0.8976287841796875,-0.0415191650390625
21873,0.4178619384765625,-0.9063568115234376,-0.0423126220703125
21874,0.422515869140625,-0.90924072265625,-0.03656005859375
21875,0.4282073974609375,-0.90985107421875,-0.03790283203125
21876,0.432952880859375,-0.9037322998046876,-0.0398712158203125
21877,0.43121337890625,-0.9009246826171876,-0.0377349853515625
21878,0.42864990234375,-0.9045562744140624,-0.0474853515625
21879,0.4230804443359375,-0.90887451171875,-0.0450286865234375
21880,0.4126129150390625,-0.9076690673828124,-0.034088134765625
21881,0.403228759765625,-0.9058380126953124,-0.034088134765625
21882,0.3994140625,-0.9085235595703124,-0.042572021484375
21883,0.4022064208984375,-0.9098663330078124,-0.0426177978515625
21884,0.4087677001953125,-0.90899658203125,-0.03955078125
21885,0.4220733642578125,-0.908905029296875,-0.053009033203125
21886,0.4374847412109375,-0.9078216552734376,-0.07171630859375
21887,0.4480133056640625,-0.9032440185546876,-0.0960845947265625
21888,0.458648681640625,-0.903411865234375,-0.120452880859375
21889,0.46490478515625,-0.9033660888671876,-0.1373138427734375
21890,0.4605712890625,-0.9001312255859375,-0.1511993408203125
21891,0.4461669921875,-0.898040771484375,-0.1563720703125
21892,0.4441986083984375,-0.90826416015625,-0.166229248046875
21893,0.456207275390625,-0.9159698486328124,-0.151824951171875
21894,0.4603729248046875,-0.9156341552734376,-0.12139892578125
21895,0.452117919921875,-0.9162445068359376,-0.1085052490234375
21896,0.4362335205078125,-0.90985107421875,-0.105499267578125
21897,0.421875,-0.899017333984375,-0.1024169921875
21898,0.4145050048828125,-0.8956298828125,-0.0958404541015625
21899,0.4179534912109375,-0.896942138671875,-0.0868988037109375
21900,0.42486572265625,-0.8966827392578125,-0.083770751953125
21901,0.4203643798828125,-0.8901214599609375,-0.0829620361328125
21902,0.417938232421875,-0.8934783935546875,-0.0834503173828125
21903,0.4258270263671875,-0.8970794677734375,-0.0750579833984375
21904,0.425048828125,-0.898956298828125,-0.0657958984375
21905,0.4230499267578125,-0.9015350341796876,-0.05633544921875
21906,0.42547607421875,-0.9052581787109376,-0.0519256591796875
21907,0.427581787109375,-0.9067535400390624,-0.0561676025390625
21908,0.4290771484375,-0.907135009765625,-0.0606842041015625
21909,0.4283294677734375,-0.9049072265625,-0.0612945556640625
21910,0.427337646484375,-0.9059295654296876,-0.065582275390625
21911,0.4316864013671875,-0.903045654296875,-0.074188232421875
21912,0.4425048828125,-0.9017333984375,-0.0846099853515625
21913,0.455322265625,-0.9032135009765624,-0.091552734375
21914,0.461212158203125,-0.8999786376953125,-0.0930633544921875
21915,0.45758056640625,-0.8892669677734375,-0.0870361328125
21916,0.438812255859375,-0.8841400146484375,-0.0869903564453125
21917,0.41973876953125,-0.8839569091796875,-0.0959014892578125
21918,0.41259765625,-0.893341064453125,-0.102569580078125
21919,0.4070892333984375,-0.8958740234375,-0.105316162109375
21920,0.4065704345703125,-0.8980712890625,-0.115509033203125
21921,0.40966796875,-0.900146484375,-0.124237060546875
21922,0.412261962890625,-0.9037322998046876,-0.131378173828125
21923,0.42327880859375,-0.9138946533203124,-0.1213836669921875
21924,0.447601318359375,-0.93505859375,-0.1139984130859375
21925,0.466278076171875,-0.9341278076171876,-0.1117706298828125
21926,0.468963623046875,-0.9221649169921876,-0.11004638671875
21927,0.4612884521484375,-0.913116455078125,-0.1174163818359375
21928,0.4563446044921875,-0.910369873046875,-0.134674072265625
21929,0.4532623291015625,-0.9081878662109376,-0.1400299072265625
21930,0.448455810546875,-0.9055023193359376,-0.1328277587890625
21931,0.4432220458984375,-0.90264892578125,-0.1301422119140625
21932,0.4265289306640625,-0.89056396484375,-0.132965087890625
