time_idx,accelerometerAccelerationX(G),accelerometerAccelerationY(G),accelerometerAccelerationZ(G)
60000,0.6416015625,0.331390380859375,0.6320648193359375
60001,0.6678314208984375,0.300384521484375,0.641754150390625
60002,0.7099761962890625,0.2810516357421875,0.64453125
60003,0.7516937255859375,0.2946014404296875,0.6680145263671875
60004,0.8433380126953125,0.288299560546875,0.748382568359375
60005,0.9196014404296876,0.3538970947265625,0.795257568359375
60006,0.999603271484375,0.40240478515625,0.889312744140625
60007,0.9813385009765624,0.4813995361328125,0.9159698486328124
60008,0.878631591796875,0.5537567138671875,0.90069580078125
60009,0.7923583984375,0.5904388427734375,0.926025390625
60010,0.697540283203125,0.586669921875,0.9219512939453124
60011,0.6136627197265625,0.56396484375,0.91387939453125
60012,0.5556640625,0.5477142333984375,0.8942108154296875
60013,0.513946533203125,0.5385589599609375,0.8539276123046875
60014,0.4799346923828125,0.5245361328125,0.80682373046875
60015,0.4398193359375,0.5009002685546875,0.7795867919921875
60016,0.3956298828125,0.4747467041015625,0.7604217529296875
60017,0.3565673828125,0.453582763671875,0.771881103515625
60018,0.3283538818359375,0.4247589111328125,0.8216552734375
60019,0.2924041748046875,0.401214599609375,0.8759613037109375
60020,0.2474212646484375,0.383636474609375,0.9170379638671876
60021,0.20977783203125,0.36114501953125,0.94403076171875
60022,0.18255615234375,0.33135986328125,0.9512481689453124
60023,0.164398193359375,0.2970123291015625,0.95770263671875
60024,0.13909912109375,0.279571533203125,0.9633026123046876
60025,0.10650634765625,0.26690673828125,0.95550537109375
60026,0.0602264404296875,0.2419891357421875,0.9561920166015624
60027,0.0025634765625,0.2110137939453125,0.9826507568359376
60028,-0.0654449462890625,0.1948699951171875,1.012405395507812
60029,-0.1184539794921875,0.19573974609375,1.042587280273438
60030,-0.154876708984375,0.2166595458984375,1.061798095703125
60031,-0.1699066162109375,0.2413177490234375,1.066024780273438
60032,-0.1694793701171875,0.253021240234375,1.046401977539062
60033,-0.1461181640625,0.26202392578125,1.01458740234375
60034,-0.119964599609375,0.305938720703125,0.9927215576171876
60035,-0.1008453369140625,0.3978424072265625,0.99822998046875
60036,-0.0444488525390625,0.430389404296875,1.045181274414062
60037,0.0459747314453125,0.43267822265625,1.087753295898438
60038,0.1492462158203125,0.4256744384765625,1.118194580078125
60039,0.2538604736328125,0.3996734619140625,1.1370849609375
60040,0.332122802734375,0.399810791015625,1.125732421875
60041,0.3944854736328125,0.430816650390625,1.078659057617188
60042,0.4580230712890625,0.4326324462890625,0.9965972900390624
60043,0.5162506103515625,0.401397705078125,0.9166412353515624
60044,0.544525146484375,0.3805694580078125,0.84442138671875
60045,0.5514678955078125,0.3662261962890625,0.7852020263671875
60046,0.548583984375,0.3583221435546875,0.7410736083984375
60047,0.5531768798828125,0.3410186767578125,0.7164459228515625
60048,0.561767578125,0.314453125,0.689300537109375
60049,0.54998779296875,0.303131103515625,0.6746673583984375
60050,0.532745361328125,0.2685699462890625,0.66656494140625
60051,0.5450439453125,0.19122314453125,0.635894775390625
60052,0.548828125,0.2259521484375,0.714080810546875
60053,0.57611083984375,0.2305450439453125,0.780975341796875
60054,0.6203765869140625,0.1873779296875,0.819122314453125
60055,0.6581878662109375,0.188568115234375,0.7849273681640625
60056,0.689697265625,0.2179107666015625,0.7519073486328125
60057,0.7187957763671875,0.232086181640625,0.7589111328125
60058,0.7252655029296875,0.2804412841796875,0.75018310546875
60059,0.6828765869140625,0.3853759765625,0.70159912109375
60060,0.6089935302734375,0.4503936767578125,0.6788330078125
60061,0.54486083984375,0.47900390625,0.6796417236328125
60062,0.4967041015625,0.4973602294921875,0.669097900390625
60063,0.4626922607421875,0.482635498046875,0.6562652587890625
60064,0.44769287109375,0.43951416015625,0.657440185546875
60065,0.4491119384765625,0.3984222412109375,0.66705322265625
60066,0.468353271484375,0.36334228515625,0.6779632568359375
60067,0.4943389892578125,0.34228515625,0.681976318359375
60068,0.51507568359375,0.3440399169921875,0.6845703125
60069,0.530548095703125,0.3593292236328125,0.6837310791015625
60070,0.5480499267578125,0.3749237060546875,0.6927032470703125
60071,0.5617218017578125,0.3913116455078125,0.71624755859375
60072,0.564727783203125,0.392486572265625,0.7607574462890625
60073,0.5633087158203125,0.405426025390625,0.8215789794921875
60074,0.5549163818359375,0.406097412109375,0.8870849609375
60075,0.546142578125,0.3982086181640625,0.936065673828125
60076,0.53643798828125,0.3836669921875,0.9636077880859376
60077,0.530975341796875,0.362762451171875,0.9665069580078124
60078,0.52459716796875,0.33001708984375,0.94781494140625
60079,0.51318359375,0.2886505126953125,0.918426513671875
60080,0.475341796875,0.241790771484375,0.88690185546875
60081,0.4084625244140625,0.2011566162109375,0.8459014892578125
60082,0.34661865234375,0.172027587890625,0.8203582763671875
60083,0.292205810546875,0.153778076171875,0.8174896240234375
60084,0.2444610595703125,0.1348876953125,0.833709716796875
60085,0.19647216796875,0.1329193115234375,0.8485565185546875
60086,0.161895751953125,0.1228790283203125,0.880157470703125
60087,0.1491851806640625,0.0972442626953125,0.91552734375
60088,0.14764404296875,0.0659332275390625,0.9471435546875
60089,0.1484832763671875,0.039886474609375,0.973358154296875
60090,0.150360107421875,0.0309295654296875,0.983978271484375
60091,0.1393890380859375,0.0374298095703125,0.976654052734375
60092,0.1377105712890625,0.0016632080078125,0.9290618896484376
60093,0.1406097412109375,-0.021209716796875,0.8877410888671875
60094,0.092742919921875,0.0272064208984375,0.9224395751953124
60095,0.0770263671875,0.0588226318359375,0.945709228515625
60096,0.08526611328125,0.097747802734375,0.9660797119140624
60097,0.1115264892578125,0.1133575439453125,0.9956512451171876
60098,0.1371917724609375,0.1378936767578125,1.017013549804688
60099,0.167816162109375,0.157806396484375,1.053085327148438
60100,0.2109375,0.1869049072265625,1.083786010742188
60101,0.2655792236328125,0.219635009765625,1.093780517578125
60102,0.34539794921875,0.243560791015625,1.07135009765625
60103,0.4241485595703125,0.26409912109375,1.019454956054688
60104,0.4928436279296875,0.2985076904296875,0.9801788330078124
60105,0.555206298828125,0.32135009765625,1.005294799804688
60106,0.5908355712890625,0.335968017578125,0.9486541748046876
60107,0.604583740234375,0.3708343505859375,0.9102630615234376
60108,0.6001739501953125,0.3988037109375,0.89080810546875
60109,0.58544921875,0.418304443359375,0.8599853515625
60110,0.5715179443359375,0.4254302978515625,0.8243865966796875
60111,0.5550384521484375,0.4383087158203125,0.79681396484375
60112,0.541229248046875,0.4471588134765625,0.792388916015625
60113,0.5200653076171875,0.45758056640625,0.778533935546875
60114,0.495635986328125,0.4728546142578125,0.76715087890625
60115,0.46636962890625,0.4946746826171875,0.7581939697265625
60116,0.435455322265625,0.50079345703125,0.7690277099609375
60117,0.406707763671875,0.524261474609375,0.7834014892578125
60118,0.371978759765625,0.548736572265625,0.7955322265625
60119,0.376678466796875,0.565032958984375,0.8072509765625
60120,0.425506591796875,0.5567626953125,0.8089599609375
60121,0.4764251708984375,0.5478057861328125,0.8281707763671875
60122,0.5373077392578125,0.539337158203125,0.8304901123046875
60123,0.6259613037109375,0.5113067626953125,0.800445556640625
60124,0.718170166015625,0.4775543212890625,0.7635650634765625
60125,0.7835540771484375,0.4412841796875,0.711029052734375
60126,0.8056182861328125,0.3979644775390625,0.638336181640625
60127,0.7863922119140625,0.372283935546875,0.5858154296875
60128,0.7590484619140625,0.368927001953125,0.589813232421875
60129,0.74591064453125,0.36865234375,0.6085205078125
60130,0.7476959228515625,0.358154296875,0.6260528564453125
60131,0.749603271484375,0.3624725341796875,0.652008056640625
60132,0.7333984375,0.403594970703125,0.661773681640625
60133,0.7095794677734375,0.4598236083984375,0.6682281494140625
60134,0.696136474609375,0.498443603515625,0.6877899169921875
60135,0.6985321044921875,0.5031890869140625,0.6947784423828125
60136,0.704071044921875,0.4884796142578125,0.6845855712890625
60137,0.68731689453125,0.471405029296875,0.6683349609375
60138,0.649658203125,0.4542999267578125,0.659271240234375
60139,0.602447509765625,0.44189453125,0.6648406982421875
60140,0.5551910400390625,0.4402008056640625,0.69000244140625
60141,0.5084381103515625,0.448028564453125,0.710479736328125
60142,0.4542388916015625,0.452880859375,0.71661376953125
60143,0.394134521484375,0.44207763671875,0.7332305908203125
60144,0.3460540771484375,0.427337646484375,0.7474365234375
60145,0.2936248779296875,0.43719482421875,0.7706146240234375
60146,0.2440643310546875,0.446624755859375,0.8095550537109375
60147,0.2096099853515625,0.441925048828125,0.873046875
60148,0.2014923095703125,0.4088134765625,0.9356689453125
60149,0.202392578125,0.3768310546875,0.9547271728515624
60150,0.1963043212890625,0.3427581787109375,0.95556640625
60151,0.176727294921875,0.3116302490234375,0.9713897705078124
60152,0.1507568359375,0.281524658203125,1.009536743164062
60153,0.093658447265625,0.3018951416015625,1.01947021484375
60154,0.047271728515625,0.300994873046875,1.03857421875
60155,0.017608642578125,0.2740020751953125,1.06396484375
60156,-0.0170440673828125,0.2645416259765625,1.05767822265625
60157,-0.04046630859375,0.2594451904296875,1.034317016601562
60158,-0.0471038818359375,0.274993896484375,0.9878082275390624
60159,-0.0490264892578125,0.3450164794921875,0.94256591796875
60160,-0.0142059326171875,0.3116607666015625,0.94378662109375
60161,0.0338592529296875,0.314422607421875,0.9511871337890624
60162,0.0924835205078125,0.334228515625,0.9889678955078124
60163,0.150665283203125,0.3545989990234375,1.032943725585938
60164,0.221466064453125,0.3731231689453125,1.045989990234375
60165,0.2952728271484375,0.3716583251953125,1.066329956054688
60166,0.3527984619140625,0.382568359375,1.061721801757812
60167,0.43206787109375,0.3675689697265625,1.081573486328125
60168,0.5106353759765625,0.355377197265625,1.041168212890625
60169,0.5505828857421875,0.3619537353515625,0.949462890625
60170,0.5544281005859375,0.35821533203125,0.862701416015625
60171,0.5467681884765625,0.3697052001953125,0.8070068359375
60172,0.5431976318359375,0.4009552001953125,0.76275634765625
60173,0.5467987060546875,0.4239501953125,0.7203369140625
60174,0.5530853271484375,0.3975067138671875,0.710540771484375
60175,0.5347900390625,0.3484039306640625,0.7102813720703125
60176,0.502166748046875,0.311065673828125,0.7341156005859375
60177,0.4775848388671875,0.2632293701171875,0.7730865478515625
60178,0.45367431640625,0.210235595703125,0.8152008056640625
60179,0.4436187744140625,0.1829071044921875,0.8617401123046875
60180,0.4489593505859375,0.182037353515625,0.9016265869140624
60181,0.5076751708984375,0.1724090576171875,0.8615570068359375
60182,0.5623779296875,0.1947479248046875,0.8975677490234375
60183,0.5824127197265625,0.207183837890625,0.855621337890625
60184,0.60223388671875,0.214874267578125,0.823883056640625
60185,0.609527587890625,0.277496337890625,0.7668304443359375
60186,0.6043701171875,0.3665313720703125,0.7165374755859375
60187,0.57781982421875,0.4024658203125,0.6980438232421875
60188,0.5380859375,0.4284210205078125,0.65802001953125
60189,0.4890899658203125,0.4467010498046875,0.6266632080078125
60190,0.45245361328125,0.438629150390625,0.6167144775390625
60191,0.437957763671875,0.4282379150390625,0.6054229736328125
60192,0.4342193603515625,0.41802978515625,0.584381103515625
60193,0.441864013671875,0.4109039306640625,0.5698394775390625
60194,0.4609375,0.409881591796875,0.5649566650390625
60195,0.4954681396484375,0.4154510498046875,0.566925048828125
60196,0.54925537109375,0.4252471923828125,0.578857421875
60197,0.6080322265625,0.420623779296875,0.6107177734375
60198,0.6486053466796875,0.4277191162109375,0.66387939453125
60199,0.67803955078125,0.444427490234375,0.741668701171875
60200,0.7027130126953125,0.44744873046875,0.8417205810546875
60201,0.704254150390625,0.43853759765625,0.90325927734375
60202,0.68902587890625,0.4268646240234375,0.9196624755859376
60203,0.662322998046875,0.39556884765625,0.9181976318359376
60204,0.62811279296875,0.3530731201171875,0.908233642578125
60205,0.5953369140625,0.3001708984375,0.88641357421875
60206,0.550750732421875,0.2476806640625,0.8517303466796875
60207,0.50616455078125,0.1905364990234375,0.80999755859375
60208,0.4567413330078125,0.164093017578125,0.774658203125
60209,0.41485595703125,0.1365509033203125,0.76177978515625
60210,0.372894287109375,0.1085357666015625,0.77947998046875
60211,0.3361053466796875,0.0939178466796875,0.8238677978515625
60212,0.301605224609375,0.0843353271484375,0.8941497802734375
60213,0.2866363525390625,0.0858917236328125,0.9561309814453124
60214,0.2818756103515625,0.0763397216796875,0.9877166748046876
60215,0.279449462890625,0.0682525634765625,0.9854888916015624
60216,0.26861572265625,0.0763397216796875,0.972442626953125
60217,0.2465057373046875,0.08447265625,0.9434661865234376
60218,0.2089691162109375,0.0767669677734375,0.9296112060546876
60219,0.1615142822265625,0.08746337890625,0.9279632568359376
60220,0.1174163818359375,0.100189208984375,0.9331817626953124
60221,0.0857086181640625,0.09002685546875,0.917755126953125
60222,0.09515380859375,0.06549072265625,0.92242431640625
60223,0.0937347412109375,0.10577392578125,0.9112548828125
60224,0.0911712646484375,0.1257781982421875,0.9203033447265624
60225,0.108367919921875,0.139312744140625,0.947967529296875
60226,0.156951904296875,0.1497802734375,0.9759063720703124
60227,0.2159271240234375,0.18310546875,0.98699951171875
60228,0.2805633544921875,0.22528076171875,0.9991302490234376
60229,0.36004638671875,0.2628173828125,1.004852294921875
60230,0.44537353515625,0.280517578125,1.019989013671875
60231,0.5060272216796875,0.282989501953125,1.022369384765625
60232,0.5494232177734375,0.277496337890625,1.020980834960938
60233,0.5942535400390625,0.2866973876953125,1.003677368164062
60234,0.62701416015625,0.3068695068359375,0.982269287109375
60235,0.633575439453125,0.3336029052734375,0.9266510009765624
60236,0.6145477294921875,0.37091064453125,0.884002685546875
60237,0.5761871337890625,0.413787841796875,0.8407440185546875
60238,0.5223388671875,0.4531707763671875,0.7794952392578125
60239,0.4673919677734375,0.46038818359375,0.7617034912109375
60240,0.4312286376953125,0.4513702392578125,0.771728515625
60241,0.375396728515625,0.461822509765625,0.784759521484375
60242,0.3220672607421875,0.471771240234375,0.7930908203125
60243,0.2791290283203125,0.481109619140625,0.793731689453125
60244,0.2316436767578125,0.4944305419921875,0.808319091796875
60245,0.1987457275390625,0.52581787109375,0.821807861328125
60246,0.217315673828125,0.5405426025390625,0.838043212890625
60247,0.2677764892578125,0.530792236328125,0.8477935791015625
60248,0.3472900390625,0.4860992431640625,0.8712615966796875
60249,0.4427337646484375,0.4149932861328125,0.883697509765625
60250,0.50860595703125,0.401031494140625,0.818450927734375
60251,0.565826416015625,0.40179443359375,0.7540740966796875
60252,0.60888671875,0.3860931396484375,0.7047576904296875
60253,0.645477294921875,0.3602294921875,0.686431884765625
60254,0.664398193359375,0.3351593017578125,0.658447265625
60255,0.677337646484375,0.329254150390625,0.65606689453125
60256,0.7002410888671875,0.3590240478515625,0.671905517578125
60257,0.7314300537109375,0.4064483642578125,0.69488525390625
60258,0.780853271484375,0.4518890380859375,0.743804931640625
60259,0.8397064208984375,0.4942169189453125,0.792510986328125
60260,0.88201904296875,0.5297393798828125,0.7968597412109375
60261,0.891571044921875,0.54595947265625,0.788818359375
60262,0.86920166015625,0.5422821044921875,0.765960693359375
60263,0.8323974609375,0.509063720703125,0.7340240478515625
60264,0.79559326171875,0.4710845947265625,0.70281982421875
60265,0.7611846923828125,0.44317626953125,0.68212890625
60266,0.7208251953125,0.4272308349609375,0.694366455078125
60267,0.6675567626953125,0.4254302978515625,0.732391357421875
60268,0.6136627197265625,0.43701171875,0.806182861328125
60269,0.549285888671875,0.435882568359375,0.8524627685546875
60270,0.4808349609375,0.4432525634765625,0.828765869140625
60271,0.42083740234375,0.446197509765625,0.7874603271484375
60272,0.3648834228515625,0.4302825927734375,0.7579498291015625
60273,0.3173980712890625,0.4205474853515625,0.781524658203125
60274,0.266754150390625,0.4033660888671875,0.8396148681640625
60275,0.223846435546875,0.396636962890625,0.945892333984375
60276,0.2148284912109375,0.36859130859375,1.005386352539062
60277,0.193695068359375,0.335235595703125,1.005828857421875
60278,0.1652069091796875,0.3152618408203125,0.98956298828125
60279,0.1439056396484375,0.2912445068359375,0.9765472412109376
60280,0.12158203125,0.259979248046875,0.983612060546875
60281,0.07080078125,0.245635986328125,0.9663848876953124
60282,0.00244140625,0.23516845703125,0.9178466796875
60283,-0.05279541015625,0.2263641357421875,0.9036712646484376
60284,-0.08306884765625,0.192413330078125,0.89447021484375
60285,-0.08575439453125,0.15484619140625,0.9071807861328124
60286,-0.0517578125,0.110748291015625,0.91400146484375
60287,-0.015899658203125,0.113922119140625,0.888427734375
60288,0.014801025390625,0.143035888671875,0.8845977783203125
60289,0.064422607421875,0.1748046875,0.9093780517578124
60290,0.125579833984375,0.2152557373046875,0.939910888671875
60291,0.186248779296875,0.2635650634765625,0.984832763671875
60292,0.25616455078125,0.3193359375,1.023422241210938
60293,0.33026123046875,0.373992919921875,1.05194091796875
60294,0.3955841064453125,0.4168701171875,1.06805419921875
60295,0.447296142578125,0.4588623046875,1.061676025390625
60296,0.4849395751953125,0.4719696044921875,1.038848876953125
60297,0.5008544921875,0.4656219482421875,0.9955291748046876
60298,0.5171966552734375,0.418670654296875,0.9620819091796876
60299,0.51678466796875,0.3709564208984375,0.9326171875
60300,0.488983154296875,0.3766021728515625,0.89385986328125
60301,0.45611572265625,0.387420654296875,0.848052978515625
60302,0.4303741455078125,0.38043212890625,0.7849884033203125
60303,0.4250030517578125,0.3577880859375,0.738861083984375
60304,0.4308929443359375,0.325897216796875,0.7183837890625
60305,0.4630279541015625,0.29864501953125,0.7440643310546875
60306,0.5244903564453125,0.2641754150390625,0.797515869140625
60307,0.5905303955078125,0.23748779296875,0.8253326416015625
60308,0.650177001953125,0.2284088134765625,0.8414459228515625
60309,0.6910400390625,0.2289886474609375,0.831085205078125
60310,0.6889190673828125,0.2407073974609375,0.823028564453125
60311,0.68060302734375,0.2470245361328125,0.8059234619140625
60312,0.65362548828125,0.2728118896484375,0.7437896728515625
60313,0.6100006103515625,0.3388671875,0.7138824462890625
60314,0.5749664306640625,0.407501220703125,0.6811065673828125
60315,0.5441131591796875,0.4324188232421875,0.6325531005859375
60316,0.5017242431640625,0.4471435546875,0.6095123291015625
60317,0.4776458740234375,0.4363250732421875,0.6224365234375
60318,0.4694366455078125,0.39849853515625,0.6323699951171875
60319,0.463714599609375,0.3730316162109375,0.6407928466796875
60320,0.477935791015625,0.3464508056640625,0.6441650390625
60321,0.5049285888671875,0.3306427001953125,0.6345062255859375
60322,0.5302886962890625,0.3324432373046875,0.6256866455078125
60323,0.56219482421875,0.3507232666015625,0.627349853515625
60324,0.5983428955078125,0.371002197265625,0.6490631103515625
60325,0.6222381591796875,0.381866455078125,0.6848907470703125
60326,0.636688232421875,0.4014739990234375,0.725494384765625
60327,0.64447021484375,0.4232025146484375,0.768585205078125
60328,0.6196746826171875,0.428436279296875,0.828155517578125
60329,0.58966064453125,0.4232330322265625,0.8612518310546875
60330,0.5680694580078125,0.40057373046875,0.879364013671875
60331,0.5708160400390625,0.3544158935546875,0.8895721435546875
60332,0.5663909912109375,0.2900390625,0.89532470703125
60333,0.5503997802734375,0.2208099365234375,0.888671875
60334,0.50482177734375,0.182830810546875,0.8809661865234375
60335,0.4564056396484375,0.1298370361328125,0.8383636474609375
60336,0.4111785888671875,0.1066131591796875,0.8046722412109375
60337,0.357269287109375,0.113494873046875,0.7929229736328125
60338,0.304962158203125,0.1268768310546875,0.810638427734375
60339,0.2613525390625,0.1246185302734375,0.8473052978515625
60340,0.2181396484375,0.0997467041015625,0.87945556640625
60341,0.1787261962890625,0.0703277587890625,0.9175262451171876
60342,0.1404571533203125,0.0337677001953125,0.95794677734375
60343,0.121826171875,-0.0225067138671875,0.981842041015625
60344,0.1143646240234375,-0.0684051513671875,0.9904937744140624
60345,0.10247802734375,-0.067657470703125,1.002593994140625
60346,0.105987548828125,-0.0552825927734375,1.026748657226562
60347,0.138336181640625,-0.028961181640625,1.045440673828125
60348,0.18896484375,0.0217437744140625,1.067138671875
60349,0.237274169921875,0.08172607421875,1.089141845703125
60350,0.2816619873046875,0.118255615234375,1.102951049804688
60351,0.345001220703125,0.1564483642578125,1.113937377929688
60352,0.399078369140625,0.21673583984375,1.1328125
60353,0.459503173828125,0.251983642578125,1.1485595703125
60354,0.5058135986328125,0.2733001708984375,1.141311645507812
60355,0.551361083984375,0.28607177734375,1.1138916015625
60356,0.58502197265625,0.2613525390625,1.07330322265625
60357,0.5872039794921875,0.2425384521484375,1.017410278320312
60358,0.585906982421875,0.2327728271484375,0.9498291015625
60359,0.579681396484375,0.237579345703125,0.8949127197265625
60360,0.57183837890625,0.24566650390625,0.8491973876953125
60361,0.5499267578125,0.2585296630859375,0.792572021484375
60362,0.519439697265625,0.2939605712890625,0.71832275390625
60363,0.4835205078125,0.320892333984375,0.6526336669921875
60364,0.44610595703125,0.346466064453125,0.5833892822265625
60365,0.3913116455078125,0.3736114501953125,0.5985565185546875
60366,0.349578857421875,0.391815185546875,0.6309661865234375
60367,0.325958251953125,0.4221038818359375,0.7009735107421875
60368,0.3220062255859375,0.4434661865234375,0.7713470458984375
60369,0.32379150390625,0.4527130126953125,0.8150177001953125
60370,0.3254241943359375,0.441680908203125,0.846527099609375
60371,0.31170654296875,0.4489288330078125,0.876251220703125
60372,0.3367156982421875,0.5150146484375,0.7943115234375
60373,0.4195098876953125,0.4806060791015625,0.78192138671875
60374,0.48895263671875,0.4404144287109375,0.767242431640625
60375,0.52783203125,0.4385833740234375,0.7490386962890625
60376,0.5673370361328125,0.4096221923828125,0.758880615234375
60377,0.59320068359375,0.373504638671875,0.74493408203125
60378,0.5877685546875,0.3433074951171875,0.7133636474609375
60379,0.5914459228515625,0.303497314453125,0.6968841552734375
60380,0.6314849853515625,0.270538330078125,0.696319580078125
60381,0.701904296875,0.2693023681640625,0.7163848876953125
60382,0.7807159423828125,0.3079833984375,0.739471435546875
60383,0.87042236328125,0.3691253662109375,0.77557373046875
60384,0.942352294921875,0.4256439208984375,0.755584716796875
60385,0.9789276123046876,0.4652862548828125,0.7226715087890625
60386,0.9930419921875,0.4969635009765625,0.7019500732421875
60387,0.981903076171875,0.527740478515625,0.7013092041015625
60388,0.9352264404296876,0.5500946044921875,0.7021942138671875
60389,0.871337890625,0.5749664306640625,0.656646728515625
60390,0.7908782958984375,0.6039886474609375,0.6204071044921875
60391,0.706085205078125,0.6182098388671875,0.7109375
60392,0.6031036376953125,0.6058197021484375,0.765380859375
60393,0.517333984375,0.587371826171875,0.7875518798828125
60394,0.461700439453125,0.556304931640625,0.840576171875
60395,0.419677734375,0.52978515625,0.885650634765625
60396,0.38409423828125,0.5053863525390625,0.895538330078125
60397,0.3546905517578125,0.48187255859375,0.90179443359375
60398,0.325225830078125,0.4408111572265625,0.894378662109375
60399,0.2969512939453125,0.3987579345703125,0.8760833740234375
60400,0.2767791748046875,0.3543701171875,0.86041259765625
60401,0.2476348876953125,0.3079071044921875,0.8495635986328125
60402,0.211700439453125,0.254608154296875,0.872589111328125
60403,0.17535400390625,0.184356689453125,0.8999481201171875
60404,0.13934326171875,0.1209259033203125,0.9257049560546876
60405,0.0777587890625,0.11236572265625,0.9429168701171876
60406,-0.0037689208984375,0.0959930419921875,0.99322509765625
60407,-0.0610809326171875,0.0833587646484375,1.072067260742188
60408,-0.1034393310546875,0.128631591796875,1.102203369140625
60409,-0.111724853515625,0.155426025390625,1.074127197265625
60410,-0.0801849365234375,0.1395111083984375,1.033584594726562
60411,-0.0456695556640625,0.148345947265625,1.017471313476562
60412,-0.014801025390625,0.1929779052734375,0.991973876953125
60413,0.0117950439453125,0.2534942626953125,0.9927825927734376
60414,0.0647430419921875,0.3120880126953125,1.003326416015625
60415,0.141204833984375,0.341949462890625,1.007339477539062
60416,0.20526123046875,0.3895416259765625,1.044448852539062
60417,0.2665863037109375,0.4281158447265625,1.060348510742188
60418,0.31304931640625,0.4646759033203125,1.045333862304688
60419,0.371917724609375,0.4445953369140625,1.008987426757812
60420,0.4179840087890625,0.3892974853515625,0.9433135986328124
60421,0.4438934326171875,0.36474609375,0.8736572265625
60422,0.457794189453125,0.348602294921875,0.8017730712890625
60423,0.47479248046875,0.3202972412109375,0.753265380859375
60424,0.5157928466796875,0.2847900390625,0.7147979736328125
60425,0.55108642578125,0.247467041015625,0.7400054931640625
60426,0.5758209228515625,0.2047882080078125,0.769500732421875
60427,0.5833282470703125,0.1854705810546875,0.7785797119140625
60428,0.5683746337890625,0.1724395751953125,0.7722625732421875
60429,0.54400634765625,0.171722412109375,0.7849273681640625
60430,0.53094482421875,0.174163818359375,0.7945709228515625
60431,0.5255126953125,0.1871795654296875,0.794189453125
60432,0.5304718017578125,0.2297210693359375,0.8081512451171875
60433,0.53692626953125,0.2684478759765625,0.8147430419921875
60434,0.56353759765625,0.297515869140625,0.820220947265625
60435,0.590545654296875,0.31927490234375,0.814971923828125
60436,0.6001129150390625,0.37298583984375,0.782196044921875
60437,0.5934600830078125,0.45208740234375,0.76361083984375
60438,0.581817626953125,0.4914093017578125,0.767364501953125
60439,0.5411834716796875,0.531158447265625,0.7466888427734375
60440,0.5076141357421875,0.5731658935546875,0.7260589599609375
60441,0.4841766357421875,0.5980072021484375,0.708709716796875
60442,0.4631805419921875,0.6083221435546875,0.6896209716796875
60443,0.443206787109375,0.6046600341796875,0.6887054443359375
60444,0.42779541015625,0.598876953125,0.682647705078125
60445,0.43121337890625,0.5858001708984375,0.681793212890625
60446,0.4481353759765625,0.554840087890625,0.6797637939453125
60447,0.485626220703125,0.529144287109375,0.6822967529296875
60448,0.533782958984375,0.504974365234375,0.66119384765625
60449,0.58050537109375,0.487884521484375,0.6390533447265625
60450,0.6090240478515625,0.47601318359375,0.6251220703125
60451,0.6176300048828125,0.4677276611328125,0.644989013671875
60452,0.617156982421875,0.4656982421875,0.688507080078125
60453,0.6214141845703125,0.4532012939453125,0.743865966796875
60454,0.613037109375,0.4368438720703125,0.7917022705078125
60455,0.5848541259765625,0.3989715576171875,0.8188018798828125
60456,0.5501861572265625,0.32354736328125,0.84552001953125
60457,0.5078277587890625,0.2772369384765625,0.9158782958984376
60458,0.486328125,0.226348876953125,0.9702911376953124
60459,0.4653472900390625,0.147735595703125,0.941497802734375
60460,0.419525146484375,0.082794189453125,0.8762664794921875
60461,0.3493804931640625,0.039154052734375,0.83331298828125
60462,0.2849578857421875,0.0121307373046875,0.8469085693359375
60463,0.2316131591796875,0.0107421875,0.884552001953125
60464,0.176116943359375,0.0286712646484375,0.9058990478515624
60465,0.138336181640625,0.03851318359375,0.940765380859375
60466,0.1012420654296875,0.047515869140625,0.9697723388671876
60467,0.0664215087890625,0.02557373046875,1.003997802734375
60468,0.0224609375,-0.0114288330078125,1.021896362304688
60469,0.00323486328125,-0.0488128662109375,1.019195556640625
60470,0.0135345458984375,-0.05609130859375,1.00775146484375
60471,0.06390380859375,-0.0724945068359375,1.008819580078125
60472,0.119873046875,-0.0553741455078125,1.032745361328125
60473,0.1627655029296875,0.0012054443359375,1.021163940429688
60474,0.2120513916015625,0.0484466552734375,1.042266845703125
60475,0.2774810791015625,0.0850830078125,1.082672119140625
60476,0.3666839599609375,0.1202392578125,1.115325927734375
60477,0.442657470703125,0.17236328125,1.135589599609375
60478,0.48089599609375,0.2414703369140625,1.139205932617188
60479,0.5146331787109375,0.28167724609375,1.12933349609375
60480,0.556640625,0.286163330078125,1.09844970703125
60481,0.5928497314453125,0.2930755615234375,1.061172485351562
60482,0.6213531494140625,0.2695770263671875,1.012405395507812
60483,0.6412200927734375,0.247406005859375,0.9497833251953124
60484,0.645355224609375,0.248321533203125,0.878570556640625
60485,0.6461029052734375,0.2508544921875,0.8068084716796875
60486,0.6211090087890625,0.2473602294921875,0.7633819580078125
60487,0.5736083984375,0.26708984375,0.7161712646484375
60488,0.5150146484375,0.2968902587890625,0.6977386474609375
60489,0.457916259765625,0.3421478271484375,0.703094482421875
60490,0.402008056640625,0.399017333984375,0.701507568359375
60491,0.352935791015625,0.436279296875,0.7081756591796875
60492,0.301300048828125,0.44683837890625,0.7219390869140625
60493,0.27227783203125,0.4551239013671875,0.7451324462890625
60494,0.246795654296875,0.4597625732421875,0.7735595703125
60495,0.240386962890625,0.4576873779296875,0.79974365234375
60496,0.266082763671875,0.4620361328125,0.819305419921875
60497,0.3426666259765625,0.457275390625,0.8419342041015625
60498,0.44305419921875,0.4118499755859375,0.85150146484375
60499,0.5264129638671875,0.38055419921875,0.8258056640625
60500,0.5838470458984375,0.377960205078125,0.791168212890625
60501,0.587249755859375,0.371795654296875,0.7505035400390625
60502,0.6025848388671875,0.353179931640625,0.7428741455078125
60503,0.641021728515625,0.3133697509765625,0.71563720703125
60504,0.6520843505859375,0.2820587158203125,0.6780548095703125
60505,0.6469268798828125,0.2869873046875,0.668701171875
60506,0.6404266357421875,0.313262939453125,0.672393798828125
60507,0.6599578857421875,0.3504486083984375,0.6792449951171875
60508,0.6979522705078125,0.385467529296875,0.6888580322265625
60509,0.738189697265625,0.4046630859375,0.71490478515625
60510,0.778472900390625,0.4000701904296875,0.7275238037109375
60511,0.8213348388671875,0.38299560546875,0.738037109375
60512,0.8460693359375,0.367828369140625,0.7610931396484375
60513,0.827972412109375,0.3629913330078125,0.781219482421875
60514,0.784912109375,0.3666534423828125,0.8086395263671875
60515,0.7173309326171875,0.3810272216796875,0.7880706787109375
60516,0.65704345703125,0.4083404541015625,0.81500244140625
60517,0.5858154296875,0.4325714111328125,0.878692626953125
60518,0.5121307373046875,0.4709014892578125,0.9678802490234376
60519,0.4332733154296875,0.518829345703125,0.9813232421875
60520,0.373626708984375,0.5485687255859375,0.9732513427734376
60521,0.3470916748046875,0.5419921875,1.001602172851562
60522,0.3208465576171875,0.4912567138671875,1.009735107421875
60523,0.2900848388671875,0.4355010986328125,0.989166259765625
60524,0.2518310546875,0.3956451416015625,0.980926513671875
60525,0.22100830078125,0.3725128173828125,0.9951171875
60526,0.18994140625,0.369781494140625,1.004287719726562
60527,0.170745849609375,0.3426055908203125,1.0010986328125
60528,0.14312744140625,0.3094940185546875,0.9842071533203124
60529,0.1004486083984375,0.2811126708984375,0.973052978515625
60530,0.0609130859375,0.2524261474609375,0.971588134765625
60531,0.020294189453125,0.2325439453125,0.951141357421875
60532,-0.004547119140625,0.2130279541015625,0.9418487548828124
60533,-0.0256805419921875,0.201507568359375,0.915618896484375
60534,-0.01129150390625,0.1763916015625,0.9308319091796876
60535,0.0115203857421875,0.1599578857421875,0.9217529296875
60536,0.0274505615234375,0.1636810302734375,0.91180419921875
60537,0.0603790283203125,0.1687164306640625,0.9019622802734376
60538,0.095794677734375,0.197052001953125,0.888336181640625
60539,0.1414642333984375,0.2205963134765625,0.893890380859375
60540,0.1872711181640625,0.2465972900390625,0.9082794189453124
60541,0.24462890625,0.2728729248046875,0.9325408935546876
60542,0.2869720458984375,0.283233642578125,0.9519195556640624
60543,0.319915771484375,0.302703857421875,0.9828033447265624
60544,0.3514862060546875,0.29864501953125,1.014053344726562
60545,0.38177490234375,0.29498291015625,1.037033081054688
60546,0.4146881103515625,0.3015899658203125,1.029769897460938
60547,0.4335174560546875,0.2998504638671875,0.9949798583984376
60548,0.448577880859375,0.30322265625,0.9547576904296876
60549,0.4533538818359375,0.3053741455078125,0.908935546875
60550,0.44964599609375,0.28741455078125,0.87750244140625
60551,0.4387054443359375,0.2752532958984375,0.8471832275390625
60552,0.4322509765625,0.2687225341796875,0.8267059326171875
60553,0.4221954345703125,0.2535247802734375,0.8021087646484375
60554,0.4072723388671875,0.228546142578125,0.786865234375
60555,0.4198760986328125,0.183746337890625,0.7790679931640625
60556,0.444549560546875,0.173248291015625,0.7856597900390625
60557,0.4941558837890625,0.1821136474609375,0.814849853515625
60558,0.540252685546875,0.201385498046875,0.827362060546875
60559,0.5782318115234375,0.232147216796875,0.8236541748046875
60560,0.6068878173828125,0.2785491943359375,0.8076171875
60561,0.606536865234375,0.350067138671875,0.7934112548828125
60562,0.607666015625,0.3978729248046875,0.7770538330078125
60563,0.6270751953125,0.4157867431640625,0.7733154296875
60564,0.6238250732421875,0.4471282958984375,0.7688751220703125
60565,0.5986785888671875,0.494842529296875,0.754119873046875
60566,0.5616912841796875,0.52642822265625,0.73760986328125
60567,0.5251312255859375,0.543792724609375,0.740753173828125
60568,0.498992919921875,0.5491943359375,0.7605133056640625
60569,0.4907989501953125,0.5433197021484375,0.7691192626953125
60570,0.481292724609375,0.5090484619140625,0.75445556640625
60571,0.4843292236328125,0.4723663330078125,0.7259521484375
60572,0.47613525390625,0.432525634765625,0.7034454345703125
60573,0.476104736328125,0.413482666015625,0.691986083984375
60574,0.4802703857421875,0.4068756103515625,0.6926116943359375
60575,0.484771728515625,0.406646728515625,0.702056884765625
60576,0.50299072265625,0.414886474609375,0.744232177734375
60577,0.5167388916015625,0.4097442626953125,0.806549072265625
60578,0.5224151611328125,0.3930816650390625,0.8627166748046875
60579,0.51947021484375,0.375701904296875,0.9137420654296876
60580,0.50372314453125,0.357818603515625,0.9510345458984376
60581,0.4985809326171875,0.3408966064453125,0.9798583984375
60582,0.4975738525390625,0.3012237548828125,0.9908447265625
60583,0.4762115478515625,0.26373291015625,0.9764251708984376
60584,0.4422454833984375,0.2259521484375,0.9399871826171876
60585,0.3858795166015625,0.181549072265625,0.8970794677734375
60586,0.3224945068359375,0.1483306884765625,0.8643341064453125
60587,0.2745513916015625,0.1447601318359375,0.83551025390625
60588,0.25146484375,0.152587890625,0.824127197265625
60589,0.2223358154296875,0.1443939208984375,0.82574462890625
60590,0.1940155029296875,0.1297607421875,0.857666015625
60591,0.1716461181640625,0.1052703857421875,0.8941802978515625
60592,0.1607208251953125,0.074432373046875,0.9442291259765624
60593,0.150238037109375,0.052093505859375,0.980499267578125
60594,0.1391754150390625,0.036468505859375,0.999908447265625
60595,0.1358184814453125,0.021881103515625,1.010513305664062
60596,0.1399688720703125,0.0052032470703125,0.985809326171875
60597,0.1374053955078125,0.005828857421875,0.95947265625
60598,0.1304473876953125,0.0126800537109375,0.94158935546875
60599,0.116943359375,0.03155517578125,0.916717529296875
60600,0.11175537109375,0.051483154296875,0.8842620849609375
60601,0.1229248046875,0.0657196044921875,0.8636322021484375
60602,0.1483001708984375,0.0702667236328125,0.8566436767578125
60603,0.188934326171875,0.063568115234375,0.87176513671875
60604,0.2445526123046875,0.053497314453125,0.8913726806640625
60605,0.298126220703125,0.0591583251953125,0.9099578857421876
60606,0.354522705078125,0.078338623046875,0.9459991455078124
60607,0.4279022216796875,0.0935516357421875,0.9999237060546876
60608,0.516204833984375,0.091888427734375,1.037155151367188
60609,0.60498046875,0.0941925048828125,1.056716918945312
60610,0.6772003173828125,0.0978851318359375,1.039703369140625
60611,0.7233123779296875,0.122039794921875,0.998779296875
60612,0.7471160888671875,0.161163330078125,0.9320831298828124
60613,0.7350921630859375,0.206756591796875,0.86199951171875
60614,0.6960601806640625,0.255157470703125,0.8175506591796875
60615,0.64105224609375,0.295166015625,0.7914581298828125
60616,0.5775909423828125,0.336029052734375,0.79400634765625
60617,0.511962890625,0.3909149169921875,0.8051300048828125
60618,0.4420166015625,0.4343414306640625,0.81072998046875
60619,0.3887786865234375,0.4738006591796875,0.800445556640625
60620,0.3428497314453125,0.5085296630859375,0.779144287109375
60621,0.3123626708984375,0.5291290283203125,0.781097412109375
60622,0.285614013671875,0.5443878173828125,0.8043060302734375
60623,0.2575531005859375,0.5523223876953125,0.8155670166015625
60624,0.235260009765625,0.555511474609375,0.8350830078125
60625,0.235015869140625,0.5534210205078125,0.879913330078125
60626,0.28106689453125,0.5359954833984375,0.9057769775390624
60627,0.347991943359375,0.517486572265625,0.8976287841796875
60628,0.4099578857421875,0.480987548828125,0.882415771484375
60629,0.4349822998046875,0.437591552734375,0.835540771484375
60630,0.429229736328125,0.40185546875,0.7755279541015625
60631,0.436798095703125,0.391082763671875,0.7450714111328125
60632,0.46270751953125,0.3914642333984375,0.7233734130859375
60633,0.4980621337890625,0.3916015625,0.7194976806640625
60634,0.5287017822265625,0.4102630615234375,0.7276611328125
60635,0.5721893310546875,0.4466400146484375,0.73687744140625
60636,0.623382568359375,0.4759063720703125,0.7397613525390625
60637,0.670654296875,0.4960174560546875,0.7444305419921875
60638,0.7065582275390625,0.498504638671875,0.7807769775390625
60639,0.72576904296875,0.5189208984375,0.838470458984375
60640,0.732879638671875,0.5298004150390625,0.879058837890625
60641,0.733184814453125,0.544342041015625,0.894561767578125
60642,0.718841552734375,0.554718017578125,0.883453369140625
60643,0.7103729248046875,0.5540313720703125,0.8536529541015625
60644,0.7177581787109375,0.5482635498046875,0.8386077880859375
60645,0.7395172119140625,0.5093841552734375,0.88330078125
60646,0.706268310546875,0.4823760986328125,0.8681182861328125
60647,0.64556884765625,0.504791259765625,0.7849884033203125
60648,0.564239501953125,0.509033203125,0.79541015625
60649,0.4948883056640625,0.4792938232421875,0.8069000244140625
60650,0.4429779052734375,0.454132080078125,0.83026123046875
60651,0.39239501953125,0.423675537109375,0.8723907470703125
60652,0.350921630859375,0.3993072509765625,0.900360107421875
60653,0.3044891357421875,0.3803863525390625,0.90631103515625
60654,0.270050048828125,0.367645263671875,0.933135986328125
60655,0.2294158935546875,0.3478240966796875,0.975921630859375
60656,0.1923980712890625,0.307098388671875,0.99365234375
60657,0.1455841064453125,0.2889404296875,0.984161376953125
60658,0.0994110107421875,0.272308349609375,0.995269775390625
60659,0.046844482421875,0.2366485595703125,1.018585205078125
60660,-0.017974853515625,0.2080078125,1.041763305664062
60661,-0.0893402099609375,0.19781494140625,1.021163940429688
60662,-0.1508026123046875,0.1952362060546875,0.970428466796875
60663,-0.2056884765625,0.20220947265625,0.94537353515625
60664,-0.226287841796875,0.194488525390625,0.941741943359375
60665,-0.2140960693359375,0.1797637939453125,0.9365997314453124
60666,-0.1806488037109375,0.1780242919921875,0.908843994140625
60667,-0.1273345947265625,0.1979217529296875,0.86273193359375
60668,-0.0608978271484375,0.2171173095703125,0.8414459228515625
60669,0.0258941650390625,0.2131805419921875,0.858123779296875
60670,0.1353607177734375,0.2064666748046875,0.9149017333984376
60671,0.2292633056640625,0.203277587890625,0.9432830810546876
60672,0.2889862060546875,0.22119140625,0.9447021484375
60673,0.339324951171875,0.253662109375,0.9422760009765624
60674,0.37054443359375,0.274810791015625,0.94854736328125
60675,0.41058349609375,0.3010406494140625,0.948944091796875
60676,0.471649169921875,0.3086090087890625,0.9454193115234376
60677,0.5072784423828125,0.2693634033203125,0.9127044677734376
60678,0.5236358642578125,0.2450714111328125,0.8697357177734375
60679,0.5250396728515625,0.255340576171875,0.8377227783203125
60680,0.5252227783203125,0.2422943115234375,0.804107666015625
60681,0.5424957275390625,0.2421722412109375,0.7788543701171875
60682,0.5433807373046875,0.2378082275390625,0.7603607177734375
60683,0.5233154296875,0.2144012451171875,0.755096435546875
60684,0.50860595703125,0.2110443115234375,0.77545166015625
60685,0.5030517578125,0.2233123779296875,0.8215179443359375
60686,0.5076904296875,0.2312774658203125,0.8703155517578125
60687,0.52545166015625,0.235015869140625,0.91644287109375
60688,0.5440673828125,0.25860595703125,0.952362060546875
60689,0.575653076171875,0.282562255859375,0.9733428955078124
60690,0.6055755615234375,0.307891845703125,0.9489898681640624
60691,0.613006591796875,0.364501953125,0.894439697265625
60692,0.6043548583984375,0.4064178466796875,0.8438720703125
60693,0.588836669921875,0.4427032470703125,0.80889892578125
60694,0.5751800537109375,0.469940185546875,0.7878265380859375
60695,0.557769775390625,0.502777099609375,0.7700958251953125
60696,0.5337677001953125,0.5260162353515625,0.7618408203125
60697,0.5165252685546875,0.5215606689453125,0.754241943359375
60698,0.4993896484375,0.4838714599609375,0.73992919921875
60699,0.488800048828125,0.444061279296875,0.7205657958984375
60700,0.4804840087890625,0.40374755859375,0.7123260498046875
60701,0.46673583984375,0.3766937255859375,0.70599365234375
60702,0.4600067138671875,0.3595428466796875,0.6867523193359375
60703,0.4642791748046875,0.3541259765625,0.662628173828125
60704,0.4650421142578125,0.358001708984375,0.6407470703125
60705,0.465911865234375,0.36004638671875,0.6297454833984375
60706,0.477813720703125,0.3612823486328125,0.6372833251953125
60707,0.5058135986328125,0.3576507568359375,0.6911163330078125
60708,0.5286865234375,0.3532867431640625,0.7627716064453125
60709,0.554840087890625,0.355560302734375,0.8234100341796875
60710,0.5593414306640625,0.36029052734375,0.847076416015625
60711,0.5582122802734375,0.3468780517578125,0.8542327880859375
60712,0.5632171630859375,0.322998046875,0.876434326171875
60713,0.562957763671875,0.290740966796875,0.8717498779296875
60714,0.53106689453125,0.271331787109375,0.851837158203125
60715,0.4865570068359375,0.2509765625,0.8373565673828125
60716,0.4467315673828125,0.220001220703125,0.8404541015625
60717,0.3949432373046875,0.204071044921875,0.8387603759765625
60718,0.3540802001953125,0.2065582275390625,0.826416015625
60719,0.333160400390625,0.1934967041015625,0.852783203125
60720,0.2929840087890625,0.18353271484375,0.8863067626953125
60721,0.24334716796875,0.17486572265625,0.9203948974609376
60722,0.2033843994140625,0.1590423583984375,0.9752960205078124
60723,0.16754150390625,0.1318817138671875,1.026199340820312
60724,0.13525390625,0.10198974609375,1.081741333007812
60725,0.1121826171875,0.0639495849609375,1.14239501953125
60726,0.088226318359375,0.0653076171875,1.154067993164062
60727,0.0772247314453125,0.1084747314453125,1.080978393554688
60728,0.0737152099609375,0.0843658447265625,1.06658935546875
60729,0.074432373046875,0.0862884521484375,1.053619384765625
60730,0.072845458984375,0.1128387451171875,0.9889373779296876
60731,0.0628204345703125,0.1358642578125,0.9389801025390624
60732,0.06402587890625,0.127532958984375,0.9094085693359376
60733,0.085845947265625,0.0970306396484375,0.919342041015625
60734,0.1178436279296875,0.089019775390625,0.931854248046875
60735,0.175201416015625,0.085205078125,0.9340057373046876
60736,0.2524871826171875,0.051300048828125,0.920257568359375
60737,0.305419921875,0.070465087890625,0.94781494140625
60738,0.3652801513671875,0.1096343994140625,0.94482421875
60739,0.42779541015625,0.1483612060546875,0.93194580078125
60740,0.4987030029296875,0.1769561767578125,0.908843994140625
60741,0.578887939453125,0.193389892578125,0.909271240234375
60742,0.656280517578125,0.1989288330078125,0.900970458984375
60743,0.7069244384765625,0.1942596435546875,0.864166259765625
60744,0.7197723388671875,0.2038116455078125,0.806793212890625
60745,0.6993255615234375,0.23809814453125,0.727813720703125
60746,0.6605682373046875,0.2825775146484375,0.6537017822265625
60747,0.6201934814453125,0.3295745849609375,0.646820068359375
60748,0.58270263671875,0.362579345703125,0.6881103515625
60749,0.5463104248046875,0.3934173583984375,0.7498931884765625
60750,0.51373291015625,0.4322509765625,0.8099517822265625
60751,0.475677490234375,0.4687347412109375,0.848876953125
60752,0.4496917724609375,0.4968719482421875,0.90185546875
60753,0.423095703125,0.5167083740234375,0.953338623046875
60754,0.4080047607421875,0.54888916015625,0.9914093017578124
60755,0.4032745361328125,0.578460693359375,0.9947662353515624
60756,0.4169769287109375,0.5837249755859375,0.9842376708984376
60757,0.443328857421875,0.581939697265625,0.9524383544921876
60758,0.465179443359375,0.56195068359375,0.9117431640625
60759,0.48095703125,0.5345916748046875,0.87054443359375
60760,0.5205230712890625,0.4755401611328125,0.85638427734375
60761,0.5699005126953125,0.416229248046875,0.84808349609375
60762,0.5936737060546875,0.3973541259765625,0.80126953125
60763,0.59906005859375,0.3884124755859375,0.75433349609375
60764,0.580291748046875,0.3891143798828125,0.733642578125
60765,0.5533599853515625,0.406097412109375,0.743865966796875
60766,0.54071044921875,0.4292449951171875,0.7490081787109375
60767,0.54559326171875,0.4375457763671875,0.756591796875
60768,0.5819549560546875,0.428436279296875,0.76336669921875
60769,0.63848876953125,0.41107177734375,0.7691650390625
60770,0.6676483154296875,0.3899688720703125,0.7251434326171875
60771,0.685882568359375,0.3578338623046875,0.6927032470703125
60772,0.6962127685546875,0.342254638671875,0.6958465576171875
60773,0.70062255859375,0.326202392578125,0.700042724609375
60774,0.699615478515625,0.3303070068359375,0.71588134765625
60775,0.6812591552734375,0.3439483642578125,0.71136474609375
60776,0.6441650390625,0.384979248046875,0.7019195556640625
60777,0.5931854248046875,0.4210662841796875,0.6896820068359375
60778,0.5361175537109375,0.445343017578125,0.6876373291015625
60779,0.4738311767578125,0.4567413330078125,0.72735595703125
60780,0.4023895263671875,0.4560546875,0.7862396240234375
60781,0.35565185546875,0.4581756591796875,0.8502960205078125
60782,0.315155029296875,0.464752197265625,0.9118804931640624
60783,0.2808380126953125,0.455230712890625,0.9432525634765624
60784,0.2649993896484375,0.437896728515625,0.9499359130859376
60785,0.2483367919921875,0.413360595703125,0.9486236572265624
60786,0.2274169921875,0.3914031982421875,0.9257354736328124
60787,0.2125701904296875,0.36700439453125,0.93438720703125
60788,0.1933135986328125,0.3282928466796875,0.964324951171875
60789,0.1615447998046875,0.2738037109375,0.983367919921875
60790,0.11834716796875,0.2360992431640625,1.01947021484375
60791,0.067626953125,0.22479248046875,1.048904418945312
60792,0.0223541259765625,0.2250823974609375,1.05194091796875
60793,-0.0129241943359375,0.209686279296875,1.076751708984375
60794,-0.0294647216796875,0.2076263427734375,1.058334350585938
60795,-0.03094482421875,0.2283172607421875,1.034881591796875
60796,-0.01519775390625,0.2254791259765625,1.010101318359375
60797,0.0341949462890625,0.2244415283203125,0.9901123046875
60798,0.0943756103515625,0.2156219482421875,0.95361328125
60799,0.1486358642578125,0.2508697509765625,0.9479217529296876
60800,0.2114410400390625,0.2636566162109375,0.9901885986328124
60801,0.275115966796875,0.2604217529296875,1.042221069335938
60802,0.319671630859375,0.2759246826171875,1.051010131835938
60803,0.354644775390625,0.291900634765625,1.031585693359375
60804,0.393463134765625,0.284210205078125,1.011154174804688
60805,0.4141387939453125,0.2691802978515625,0.9633026123046876
60806,0.41558837890625,0.3030853271484375,0.901214599609375
60807,0.418304443359375,0.303009033203125,0.8516998291015625
60808,0.4333343505859375,0.255889892578125,0.8212890625
60809,0.4490509033203125,0.2071075439453125,0.79156494140625
60810,0.464935302734375,0.1769256591796875,0.7857513427734375
60811,0.4779205322265625,0.1660308837890625,0.78619384765625
60812,0.478240966796875,0.1571807861328125,0.78692626953125
60813,0.490753173828125,0.1285247802734375,0.7943267822265625
60814,0.49359130859375,0.0853424072265625,0.825653076171875
60815,0.502532958984375,0.055145263671875,0.835723876953125
60816,0.526458740234375,0.0616302490234375,0.8366241455078125
60817,0.5469818115234375,0.09735107421875,0.861724853515625
60818,0.56268310546875,0.1295166015625,0.873260498046875
60819,0.571929931640625,0.1610260009765625,0.8549041748046875
60820,0.5843353271484375,0.219757080078125,0.8280181884765625
60821,0.5890045166015625,0.2969207763671875,0.7719268798828125
60822,0.58892822265625,0.35565185546875,0.72344970703125
60823,0.57373046875,0.401947021484375,0.6936492919921875
60824,0.5588226318359375,0.4429931640625,0.684051513671875
60825,0.54412841796875,0.4770660400390625,0.6711883544921875
60826,0.5232086181640625,0.5068359375,0.662933349609375
60827,0.493499755859375,0.5341644287109375,0.667755126953125
60828,0.463470458984375,0.5465087890625,0.6727142333984375
60829,0.4438018798828125,0.5316314697265625,0.6844482421875
60830,0.4369964599609375,0.5023651123046875,0.6994781494140625
60831,0.442291259765625,0.47601318359375,0.701263427734375
60832,0.468475341796875,0.452423095703125,0.681976318359375
60833,0.510986328125,0.4417266845703125,0.6503448486328125
60834,0.563446044921875,0.4442901611328125,0.600341796875
60835,0.607330322265625,0.4385986328125,0.58203125
60836,0.6384124755859375,0.448822021484375,0.623382568359375
60837,0.660003662109375,0.4720306396484375,0.6654510498046875
60838,0.663848876953125,0.465362548828125,0.7102813720703125
60839,0.6534881591796875,0.4539642333984375,0.7719573974609375
60840,0.6334075927734375,0.4269561767578125,0.8458099365234375
60841,0.638427734375,0.38153076171875,0.8979339599609375
60842,0.6270294189453125,0.3361663818359375,0.9249725341796876
60843,0.5903472900390625,0.2789764404296875,0.90643310546875
60844,0.5462493896484375,0.2223968505859375,0.8724517822265625
60845,0.496612548828125,0.17547607421875,0.859771728515625
60846,0.4359130859375,0.1380157470703125,0.851837158203125
60847,0.37176513671875,0.1059417724609375,0.86419677734375
60848,0.3087615966796875,0.084869384765625,0.8859100341796875
60849,0.2429962158203125,0.0795745849609375,0.9335174560546876
60850,0.188323974609375,0.05865478515625,1.02490234375
60851,0.135833740234375,0.05230712890625,1.088912963867188
60852,0.09747314453125,0.0363311767578125,1.125747680664062
60853,0.0576324462890625,0.01422119140625,1.121551513671875
60854,0.00848388671875,0.0196533203125,1.037521362304688
60855,0.029571533203125,-0.0984039306640625,1.087814331054688
60856,0.014556884765625,-0.1056976318359375,1.085708618164062
60857,-0.0034027099609375,-0.0081787109375,1.028427124023438
60858,-0.0109405517578125,0.021820068359375,0.9849395751953124
60859,0.026214599609375,-0.0004119873046875,0.9394989013671876
60860,0.076446533203125,0.0206756591796875,0.930267333984375
60861,0.1295928955078125,0.0235443115234375,0.90545654296875
60862,0.19305419921875,0.044952392578125,0.919189453125
60863,0.26190185546875,0.031951904296875,0.9735870361328124
60864,0.39410400390625,-0.0177459716796875,0.989166259765625
60865,0.4739990234375,0.019256591796875,0.983734130859375
60866,0.530670166015625,0.0821685791015625,1.014373779296875
60867,0.5694732666015625,0.136749267578125,1.024017333984375
60868,0.59332275390625,0.1845550537109375,1.027542114257812
60869,0.6225738525390625,0.233123779296875,1.015716552734375
60870,0.635162353515625,0.2647247314453125,0.9831695556640624
60871,0.64117431640625,0.2759552001953125,0.9337615966796876
60872,0.631011962890625,0.3012237548828125,0.8638763427734375
60873,0.612152099609375,0.3324127197265625,0.8056793212890625
60874,0.5840606689453125,0.3644866943359375,0.769683837890625
60875,0.5587310791015625,0.3934783935546875,0.7722015380859375
60876,0.5399017333984375,0.4173431396484375,0.7634735107421875
60877,0.51654052734375,0.439697265625,0.761383056640625
60878,0.4732818603515625,0.437591552734375,0.8006439208984375
60879,0.421630859375,0.42034912109375,0.8357391357421875
60880,0.3595733642578125,0.419464111328125,0.8755035400390625
60881,0.279266357421875,0.436737060546875,0.8783111572265625
60882,0.2192230224609375,0.446533203125,0.8681793212890625
60883,0.2024383544921875,0.52398681640625,0.867828369140625
60884,0.241729736328125,0.550445556640625,0.786468505859375
60885,0.3166961669921875,0.5118560791015625,0.8048858642578125
60886,0.388916015625,0.46759033203125,0.820159912109375
60887,0.44427490234375,0.4296112060546875,0.8182220458984375
60888,0.4769134521484375,0.4141693115234375,0.7446746826171875
60889,0.5308380126953125,0.3660125732421875,0.69500732421875
60890,0.5864715576171875,0.2972259521484375,0.6742706298828125
60891,0.605926513671875,0.240997314453125,0.6612548828125
60892,0.61328125,0.227386474609375,0.6602020263671875
60893,0.637451171875,0.252349853515625,0.6700592041015625
60894,0.6854400634765625,0.299652099609375,0.688140869140625
60895,0.752227783203125,0.349517822265625,0.7287750244140625
60896,0.831085205078125,0.368560791015625,0.77471923828125
60897,0.9063568115234376,0.3792266845703125,0.8104705810546875
60898,0.9442291259765624,0.3842315673828125,0.7488555908203125
60899,0.9656524658203124,0.3679656982421875,0.7071685791015625
60900,0.94781494140625,0.369232177734375,0.7239532470703125
60901,0.8924102783203125,0.3817291259765625,0.7205963134765625
60902,0.8383636474609375,0.3914947509765625,0.7339630126953125
60903,0.796630859375,0.4095458984375,0.75433349609375
60904,0.74822998046875,0.4240875244140625,0.771514892578125
60905,0.684814453125,0.4228668212890625,0.781494140625
60906,0.611053466796875,0.4188690185546875,0.789581298828125
60907,0.5290679931640625,0.419219970703125,0.8028564453125
60908,0.458404541015625,0.4130096435546875,0.8412933349609375
60909,0.3967132568359375,0.4083251953125,0.892303466796875
60910,0.349365234375,0.407379150390625,0.93414306640625
60911,0.2983856201171875,0.3948516845703125,0.9493408203125
60912,0.26666259765625,0.3679962158203125,0.96051025390625
60913,0.242828369140625,0.322845458984375,0.9748077392578124
60914,0.2113037109375,0.2925262451171875,1.001998901367188
60915,0.163787841796875,0.29010009765625,1.019912719726562
60916,0.119110107421875,0.2740020751953125,1.031036376953125
60917,0.0760040283203125,0.2158660888671875,1.093353271484375
60918,-0.0265655517578125,0.2769622802734375,1.054916381835938
60919,-0.0636444091796875,0.256378173828125,1.123703002929688
60920,-0.0685272216796875,0.189056396484375,1.06463623046875
60921,-0.09820556640625,0.17791748046875,1.078933715820312
60922,-0.093231201171875,0.1307373046875,1.067062377929688
60923,-0.0946197509765625,0.134307861328125,0.994720458984375
60924,-0.0648651123046875,0.1623077392578125,0.9522857666015624
60925,-0.0176239013671875,0.169342041015625,0.9005584716796875
60926,0.038818359375,0.1931610107421875,0.8769073486328125
60927,0.109832763671875,0.2190093994140625,0.894012451171875
60928,0.1730804443359375,0.2387237548828125,0.93609619140625
60929,0.2389984130859375,0.268096923828125,0.9949798583984376
60930,0.299285888671875,0.3070831298828125,1.042648315429688
60931,0.3607025146484375,0.3433990478515625,1.068206787109375
60932,0.4185028076171875,0.37200927734375,1.053390502929688
60933,0.464324951171875,0.3492279052734375,1.044479370117188
60934,0.4862213134765625,0.29925537109375,1.001846313476562
60935,0.4961090087890625,0.2923431396484375,0.947479248046875
60936,0.49560546875,0.27459716796875,0.905120849609375
60937,0.486907958984375,0.2397308349609375,0.8447723388671875
60938,0.484832763671875,0.2227783203125,0.7813720703125
60939,0.4881744384765625,0.1873931884765625,0.7287139892578125
60940,0.484619140625,0.178375244140625,0.68572998046875
60941,0.482666015625,0.1623992919921875,0.678253173828125
60942,0.5010223388671875,0.1316680908203125,0.72711181640625
60943,0.5177154541015625,0.0958709716796875,0.7853546142578125
60944,0.5485076904296875,0.0625762939453125,0.8363189697265625
60945,0.5777740478515625,0.0767669677734375,0.85626220703125
60946,0.5907745361328125,0.1235198974609375,0.8978118896484375
60947,0.6103363037109375,0.1573333740234375,0.905853271484375
60948,0.6226043701171875,0.2023162841796875,0.87481689453125
60949,0.6177978515625,0.2840728759765625,0.8179779052734375
60950,0.595703125,0.3484344482421875,0.76129150390625
60951,0.58123779296875,0.3771209716796875,0.717803955078125
60952,0.5695953369140625,0.4059906005859375,0.6702880859375
60953,0.553497314453125,0.429901123046875,0.62738037109375
60954,0.52801513671875,0.4463653564453125,0.61041259765625
60955,0.507354736328125,0.459716796875,0.61712646484375
60956,0.4929962158203125,0.4654998779296875,0.629425048828125
60957,0.4844818115234375,0.4658355712890625,0.6545867919921875
60958,0.487945556640625,0.458251953125,0.6763916015625
60959,0.5030975341796875,0.4438629150390625,0.6883392333984375
60960,0.5237579345703125,0.4211578369140625,0.6853485107421875
60961,0.5487518310546875,0.4095916748046875,0.6720733642578125
60962,0.5820770263671875,0.4098358154296875,0.6665191650390625
60963,0.6154327392578125,0.4293060302734375,0.67706298828125
60964,0.633056640625,0.4408721923828125,0.695037841796875
60965,0.6409149169921875,0.4404449462890625,0.7235565185546875
60966,0.632354736328125,0.448272705078125,0.7884674072265625
60967,0.6178131103515625,0.4579315185546875,0.8994293212890625
60968,0.60400390625,0.42437744140625,0.953033447265625
60969,0.59356689453125,0.3420562744140625,0.962982177734375
60970,0.571258544921875,0.265716552734375,0.9432373046875
60971,0.52777099609375,0.2074127197265625,0.915679931640625
60972,0.4759368896484375,0.15966796875,0.9008636474609376
60973,0.423309326171875,0.121185302734375,0.890655517578125
60974,0.3658294677734375,0.099945068359375,0.8910064697265625
60975,0.316009521484375,0.09234619140625,0.89520263671875
60976,0.2701873779296875,0.0843353271484375,0.9102783203125
60977,0.23486328125,0.07183837890625,0.9662322998046876
60978,0.1833038330078125,0.0861968994140625,1.012039184570312
60979,0.1466217041015625,0.0842437744140625,1.04034423828125
60980,0.10125732421875,0.0574188232421875,1.08148193359375
60981,0.094146728515625,-0.022216796875,1.155014038085938
60982,0.0714874267578125,0.01470947265625,1.103988647460938
60983,0.0702362060546875,0.015777587890625,1.031158447265625
60984,0.0573577880859375,0.0010833740234375,1.001983642578125
60985,0.0247650146484375,0.021820068359375,0.9561004638671876
60986,0.027008056640625,-0.0012969970703125,0.8834686279296875
60987,0.041961669921875,0.0452423095703125,0.876434326171875
60988,0.0553741455078125,0.0858917236328125,0.87103271484375
60989,0.0949249267578125,0.09906005859375,0.8676910400390625
60990,0.144561767578125,0.1103057861328125,0.8883209228515625
60991,0.195281982421875,0.12579345703125,0.9016876220703124
60992,0.2381591796875,0.155029296875,0.898773193359375
60993,0.2864227294921875,0.184906005859375,0.893157958984375
60994,0.34942626953125,0.2093505859375,0.8928375244140625
60995,0.443145751953125,0.2254486083984375,0.9249267578125
60996,0.53509521484375,0.244537353515625,0.9610595703125
60997,0.5946197509765625,0.26446533203125,0.9812774658203124
60998,0.6350250244140625,0.2652587890625,0.99267578125
60999,0.6695709228515625,0.264678955078125,0.9837646484375
61000,0.6846160888671875,0.289825439453125,0.96173095703125
61001,0.65673828125,0.3186187744140625,0.921966552734375
61002,0.6065673828125,0.360107421875,0.857513427734375
61003,0.555206298828125,0.396759033203125,0.7839813232421875
61004,0.5140533447265625,0.429473876953125,0.7683563232421875
61005,0.4531402587890625,0.4600982666015625,0.8012237548828125
61006,0.3926544189453125,0.4870452880859375,0.851287841796875
61007,0.3326416015625,0.51629638671875,0.890960693359375
61008,0.2760009765625,0.5449676513671875,0.9086151123046876
61009,0.2511749267578125,0.5760345458984375,0.9142913818359376
61010,0.2546234130859375,0.5980224609375,0.89569091796875
61011,0.28350830078125,0.5942535400390625,0.8608245849609375
61012,0.3466949462890625,0.5559539794921875,0.844573974609375
61013,0.417694091796875,0.47552490234375,0.8471221923828125
61014,0.4639434814453125,0.440704345703125,0.80133056640625
61015,0.48846435546875,0.4296722412109375,0.7391357421875
61016,0.57855224609375,0.3895416259765625,0.7181243896484375
61017,0.6544036865234375,0.3584136962890625,0.6807098388671875
61018,0.6863555908203125,0.3432769775390625,0.6603240966796875
61019,0.678314208984375,0.3430633544921875,0.6494293212890625
61020,0.6684722900390625,0.3482818603515625,0.661895751953125
61021,0.6771392822265625,0.3649444580078125,0.7017974853515625
61022,0.7017059326171875,0.400482177734375,0.7471771240234375
61023,0.739166259765625,0.42999267578125,0.7742767333984375
61024,0.7804412841796875,0.4514617919921875,0.7673492431640625
61025,0.813385009765625,0.4566497802734375,0.766845703125
61026,0.823089599609375,0.456787109375,0.7837677001953125
61027,0.8133544921875,0.429412841796875,0.800262451171875
61028,0.7814788818359375,0.39874267578125,0.7581634521484375
61029,0.742401123046875,0.3718719482421875,0.717071533203125
61030,0.709808349609375,0.3455352783203125,0.72216796875
61031,0.6613006591796875,0.349517822265625,0.7409210205078125
61032,0.596466064453125,0.3681640625,0.748565673828125
61033,0.52734375,0.384918212890625,0.756134033203125
61034,0.461151123046875,0.4017333984375,0.766510009765625
61035,0.4009246826171875,0.415863037109375,0.7961273193359375
61036,0.351806640625,0.4140472412109375,0.8277435302734375
61037,0.31756591796875,0.40997314453125,0.85662841796875
61038,0.27581787109375,0.402252197265625,0.8708648681640625
61039,0.2471466064453125,0.393768310546875,0.903839111328125
61040,0.234130859375,0.370208740234375,0.9466400146484376
61041,0.2136383056640625,0.3531646728515625,0.968109130859375
61042,0.1885833740234375,0.342437744140625,1.023834228515625
61043,0.1459197998046875,0.34222412109375,1.079742431640625
61044,0.0926055908203125,0.3335723876953125,1.080474853515625
61045,0.059417724609375,0.267120361328125,1.055557250976562
61046,0.0063629150390625,0.222991943359375,1.063491821289062
61047,-0.0603790283203125,0.2183074951171875,1.066452026367188
61048,-0.0861053466796875,0.208770751953125,1.067153930664062
61049,-0.09130859375,0.202484130859375,1.044281005859375
61050,-0.095306396484375,0.2005462646484375,0.9953155517578124
61051,-0.07861328125,0.213348388671875,0.9515228271484376
61052,-0.047454833984375,0.2042694091796875,0.922119140625
61053,-0.0005950927734375,0.20025634765625,0.9074859619140624
61054,0.0550079345703125,0.2376251220703125,0.9340972900390624
61055,0.12469482421875,0.264434814453125,0.990753173828125
61056,0.18890380859375,0.2862701416015625,1.039459228515625
61057,0.259490966796875,0.3228302001953125,1.081863403320312
61058,0.3284454345703125,0.3539886474609375,1.095840454101562
61059,0.382781982421875,0.3900299072265625,1.067352294921875
61060,0.43658447265625,0.3859710693359375,1.03631591796875
61061,0.468658447265625,0.357208251953125,1.002655029296875
61062,0.4617156982421875,0.3115997314453125,0.94696044921875
61063,0.4478302001953125,0.3081817626953125,0.9067840576171876
61064,0.430145263671875,0.295074462890625,0.8456573486328125
61065,0.415618896484375,0.2799224853515625,0.7815704345703125
61066,0.413330078125,0.2528839111328125,0.73193359375
61067,0.421539306640625,0.2233123779296875,0.703338623046875
61068,0.43597412109375,0.1929168701171875,0.7035675048828125
61069,0.45574951171875,0.162933349609375,0.7370452880859375
61070,0.480987548828125,0.139434814453125,0.768585205078125
61071,0.510284423828125,0.129608154296875,0.8302459716796875
61072,0.545745849609375,0.132415771484375,0.883758544921875
61073,0.5688018798828125,0.165283203125,0.9097442626953124
61074,0.5983428955078125,0.207183837890625,0.8917388916015625
61075,0.6123809814453125,0.28765869140625,0.8822021484375
61076,0.6160430908203125,0.3775787353515625,0.855560302734375
61077,0.5936431884765625,0.4302215576171875,0.8120880126953125
61078,0.566253662109375,0.44598388671875,0.7767333984375
61079,0.545166015625,0.4776153564453125,0.722503662109375
61080,0.5195465087890625,0.4887542724609375,0.67645263671875
61081,0.490570068359375,0.4752349853515625,0.6398468017578125
61082,0.46539306640625,0.4595794677734375,0.6268463134765625
61083,0.4464874267578125,0.4378662109375,0.636077880859375
61084,0.4409942626953125,0.416961669921875,0.658233642578125
61085,0.4573516845703125,0.400787353515625,0.67852783203125
61086,0.49786376953125,0.3834991455078125,0.685333251953125
61087,0.5477294921875,0.36895751953125,0.677154541015625
61088,0.592254638671875,0.3760833740234375,0.6626739501953125
61089,0.649322509765625,0.3996429443359375,0.6587982177734375
61090,0.6935577392578125,0.4205169677734375,0.6680908203125
61091,0.7164764404296875,0.4178466796875,0.705413818359375
61092,0.7130126953125,0.4163970947265625,0.7725677490234375
61093,0.704071044921875,0.40301513671875,0.834075927734375
61094,0.6706085205078125,0.3720550537109375,0.8612213134765625
61095,0.6298370361328125,0.3381195068359375,0.8615570068359375
61096,0.58782958984375,0.311767578125,0.869964599609375
61097,0.565185546875,0.2657470703125,0.8859710693359375
61098,0.523773193359375,0.219818115234375,0.8747100830078125
61099,0.469390869140625,0.16546630859375,0.8721160888671875
61100,0.427703857421875,0.119964599609375,0.8701934814453125
61101,0.3844146728515625,0.098358154296875,0.8624114990234375
61102,0.34100341796875,0.08636474609375,0.873199462890625
61103,0.297943115234375,0.0823822021484375,0.9186248779296876
61104,0.2505950927734375,0.076751708984375,0.9716033935546876
61105,0.200592041015625,0.0775299072265625,1.014175415039062
61106,0.151611328125,0.0692291259765625,1.045257568359375
61107,0.1096343994140625,0.0459442138671875,1.060287475585938
61108,0.073516845703125,0.010162353515625,1.056884765625
61109,0.039794921875,-0.0308074951171875,1.0616455078125
61110,0.0257415771484375,-0.039886474609375,1.005279541015625
61111,0.0174560546875,-0.0174713134765625,0.92547607421875
61112,-0.0015411376953125,0.0220489501953125,0.8695220947265625
61113,-0.0024871826171875,0.0390777587890625,0.8412017822265625
61114,0.01837158203125,0.0524749755859375,0.8599395751953125
61115,0.05706787109375,0.0745849609375,0.8708038330078125
61116,0.103240966796875,0.0883331298828125,0.885833740234375
61117,0.140289306640625,0.0986480712890625,0.9102783203125
61118,0.2046356201171875,0.1052398681640625,0.9183807373046876
61119,0.278228759765625,0.155914306640625,0.9388427734375
61120,0.3446807861328125,0.2129669189453125,0.9610137939453124
61121,0.41021728515625,0.25482177734375,0.990936279296875
61122,0.470123291015625,0.2793426513671875,1.003250122070312
61123,0.5238189697265625,0.291107177734375,1.01751708984375
61124,0.5559844970703125,0.291534423828125,1.02587890625
61125,0.594024658203125,0.300048828125,1.025558471679688
61126,0.6107940673828125,0.3227386474609375,1.012313842773438
61127,0.6062774658203125,0.3498382568359375,0.9871063232421876
61128,0.5732879638671875,0.3809967041015625,0.919708251953125
61129,0.5272216796875,0.431915283203125,0.84613037109375
61130,0.4637298583984375,0.4849395751953125,0.773406982421875
61131,0.39715576171875,0.527191162109375,0.718414306640625
61132,0.3456268310546875,0.5441131591796875,0.73541259765625
61133,0.2982635498046875,0.557708740234375,0.784393310546875
61134,0.2427215576171875,0.5687713623046875,0.8182220458984375
61135,0.1965484619140625,0.5843048095703125,0.8422088623046875
61136,0.17120361328125,0.5992279052734375,0.8523712158203125
61137,0.1649322509765625,0.6059417724609375,0.840667724609375
61138,0.207275390625,0.5934295654296875,0.8250579833984375
61139,0.2870635986328125,0.5377349853515625,0.811248779296875
61140,0.3826141357421875,0.4363555908203125,0.8283843994140625
61141,0.4398193359375,0.420318603515625,0.769927978515625
61142,0.463836669921875,0.4138641357421875,0.702789306640625
61143,0.534332275390625,0.3560943603515625,0.6925506591796875
61144,0.6319580078125,0.2930145263671875,0.672943115234375
61145,0.666259765625,0.2503814697265625,0.6574249267578125
61146,0.6909332275390625,0.242889404296875,0.66925048828125
61147,0.738006591796875,0.2685546875,0.676422119140625
61148,0.7990570068359375,0.317291259765625,0.6894989013671875
61149,0.8834075927734375,0.3517913818359375,0.7411346435546875
61150,0.96478271484375,0.39324951171875,0.7929534912109375
61151,1.012893676757812,0.4434814453125,0.80181884765625
61152,1.0225830078125,0.4878082275390625,0.7903900146484375
61153,1.007583618164062,0.52667236328125,0.8206787109375
61154,0.966552734375,0.5476226806640625,0.87176513671875
61155,0.873626708984375,0.5706787109375,0.786529541015625
61156,0.790435791015625,0.552947998046875,0.759979248046875
61157,0.6907806396484375,0.5316162109375,0.7373046875
61158,0.6021728515625,0.5239410400390625,0.7408294677734375
61159,0.534088134765625,0.5020751953125,0.78082275390625
61160,0.48004150390625,0.48284912109375,0.8129119873046875
61161,0.4197235107421875,0.4663238525390625,0.8279571533203125
61162,0.3540191650390625,0.4493865966796875,0.8268890380859375
61163,0.314056396484375,0.436614990234375,0.8470916748046875
61164,0.295074462890625,0.4197998046875,0.8815460205078125
61165,0.2623443603515625,0.3982696533203125,0.9075927734375
61166,0.2331390380859375,0.365814208984375,0.9347991943359376
61167,0.2069549560546875,0.301666259765625,0.94915771484375
61168,0.1586761474609375,0.3478240966796875,0.8629302978515625
61169,0.0950469970703125,0.3214569091796875,0.9958648681640624
61170,0.04241943359375,0.298004150390625,1.076004028320312
61171,-0.005767822265625,0.2600555419921875,1.09466552734375
61172,-0.025634765625,0.1556854248046875,1.079299926757812
61173,-0.09710693359375,0.167144775390625,1.073806762695312
61174,-0.146820068359375,0.18524169921875,1.080825805664062
61175,-0.1507415771484375,0.158172607421875,1.096694946289062
61176,-0.1448974609375,0.1574859619140625,1.0614013671875
61177,-0.1428375244140625,0.17169189453125,0.9926300048828124
61178,-0.1257476806640625,0.1681671142578125,0.943023681640625
61179,-0.1176605224609375,0.2081298828125,0.9106597900390624
61180,-0.07159423828125,0.2322540283203125,0.910125732421875
61181,-0.023345947265625,0.27337646484375,0.9392852783203124
61182,0.0416717529296875,0.3022308349609375,0.9888916015625
61183,0.1164703369140625,0.32952880859375,1.040328979492188
61184,0.18206787109375,0.3841094970703125,1.05810546875
61185,0.247467041015625,0.4600982666015625,1.051055908203125
61186,0.3090972900390625,0.51214599609375,1.026718139648438
61187,0.37249755859375,0.4971160888671875,1.0213623046875
61188,0.4244842529296875,0.4343719482421875,0.9784088134765624
61189,0.45928955078125,0.3936309814453125,0.92547607421875
61190,0.48150634765625,0.363555908203125,0.8795013427734375
61191,0.476898193359375,0.349945068359375,0.8218536376953125
61192,0.4696807861328125,0.35504150390625,0.7684478759765625
61193,0.4703521728515625,0.3504180908203125,0.728485107421875
61194,0.4563446044921875,0.3087615966796875,0.698974609375
61195,0.4456939697265625,0.2654571533203125,0.6848297119140625
61196,0.4530181884765625,0.2331085205078125,0.696258544921875
61197,0.4721527099609375,0.217010498046875,0.7318115234375
61198,0.4987335205078125,0.20263671875,0.78125
61199,0.529754638671875,0.2099151611328125,0.833343505859375
61200,0.568939208984375,0.2374420166015625,0.881805419921875
61201,0.6288604736328125,0.2723236083984375,0.8970794677734375
61202,0.6741790771484375,0.323394775390625,0.8825836181640625
61203,0.6815338134765625,0.37445068359375,0.83758544921875
61204,0.657989501953125,0.4265289306640625,0.7739410400390625
61205,0.63336181640625,0.472564697265625,0.7140045166015625
61206,0.591064453125,0.4996490478515625,0.6603546142578125
61207,0.5442962646484375,0.5261383056640625,0.594085693359375
61208,0.5153656005859375,0.529510498046875,0.56781005859375
61209,0.4810333251953125,0.5101776123046875,0.5740966796875
61210,0.4483642578125,0.492584228515625,0.61114501953125
61211,0.437286376953125,0.4811859130859375,0.6578521728515625
61212,0.4628143310546875,0.468658447265625,0.6902313232421875
61213,0.50634765625,0.443817138671875,0.702423095703125
61214,0.5499420166015625,0.43377685546875,0.7039947509765625
61215,0.5927581787109375,0.4464111328125,0.7066802978515625
61216,0.6288299560546875,0.439483642578125,0.7180023193359375
61217,0.6424713134765625,0.4466400146484375,0.7308502197265625
61218,0.635528564453125,0.4528045654296875,0.7696380615234375
61219,0.617584228515625,0.43817138671875,0.838043212890625
61220,0.595733642578125,0.4138031005859375,0.89697265625
61221,0.573699951171875,0.3646392822265625,0.9476165771484376
61222,0.547027587890625,0.3177490234375,0.9878692626953124
61223,0.515472412109375,0.270599365234375,0.99383544921875
61224,0.477203369140625,0.2246856689453125,0.9658355712890624
61225,0.424224853515625,0.1850738525390625,0.9221343994140624
61226,0.3749237060546875,0.156524658203125,0.90020751953125
61227,0.3298187255859375,0.1330108642578125,0.887420654296875
61228,0.293121337890625,0.125091552734375,0.891082763671875
61229,0.2507476806640625,0.127899169921875,0.9039459228515624
61230,0.208526611328125,0.1484527587890625,0.9316558837890624
61231,0.1624755859375,0.1522216796875,0.9571533203125
61232,0.136688232421875,0.0908966064453125,1.039199829101562
61233,0.105499267578125,0.0942840576171875,1.047515869140625
61234,0.105682373046875,0.06732177734375,1.0264892578125
61235,0.0983123779296875,0.015838623046875,1.002731323242188
61236,0.0688629150390625,-0.0159149169921875,0.9629669189453124
61237,0.040069580078125,-0.00579833984375,0.8787078857421875
61238,0.019805908203125,0.0221099853515625,0.84033203125
61239,0.0085296630859375,0.0408935546875,0.828216552734375
61240,0.02728271484375,0.0520477294921875,0.8330230712890625
61241,0.0574798583984375,0.033416748046875,0.8438262939453125
61242,0.118011474609375,0.0421142578125,0.8519134521484375
61243,0.1700592041015625,0.0910186767578125,0.92236328125
61244,0.2437591552734375,0.10150146484375,0.957794189453125
61245,0.3279876708984375,0.1369781494140625,0.974395751953125
61246,0.39288330078125,0.2027587890625,0.9827880859375
61247,0.4300994873046875,0.27960205078125,0.9841156005859376
61248,0.4692535400390625,0.33807373046875,1.00244140625
61249,0.5007476806640625,0.3443450927734375,1.03125
61250,0.5361785888671875,0.3301849365234375,1.045669555664062
61251,0.5703125,0.34869384765625,1.02044677734375
61252,0.5853424072265625,0.374908447265625,0.9756622314453124
61253,0.5637969970703125,0.382781982421875,0.944183349609375
61254,0.53375244140625,0.4087982177734375,0.9240264892578124
61255,0.481964111328125,0.4270477294921875,0.8524017333984375
61256,0.4310302734375,0.4489593505859375,0.7850799560546875
61257,0.39093017578125,0.475860595703125,0.7381439208984375
61258,0.351898193359375,0.50274658203125,0.7196197509765625
61259,0.317962646484375,0.509674072265625,0.753204345703125
61260,0.273895263671875,0.528045654296875,0.78802490234375
61261,0.227752685546875,0.54730224609375,0.817901611328125
61262,0.2039794921875,0.5584259033203125,0.8378448486328125
61263,0.21661376953125,0.5572967529296875,0.820953369140625
61264,0.2530975341796875,0.540771484375,0.82196044921875
61265,0.300537109375,0.519683837890625,0.8350372314453125
61266,0.3678131103515625,0.469696044921875,0.87103271484375
61267,0.4239959716796875,0.4070281982421875,0.898193359375
61268,0.446868896484375,0.3991851806640625,0.85015869140625
61269,0.5416107177734375,0.389739990234375,0.8177032470703125
61270,0.642425537109375,0.3763427734375,0.778350830078125
61271,0.7049102783203125,0.3614959716796875,0.7274017333984375
61272,0.7248077392578125,0.3444671630859375,0.679962158203125
61273,0.7080078125,0.328643798828125,0.66900634765625
61274,0.69549560546875,0.3296051025390625,0.69091796875
61275,0.7077789306640625,0.3563232421875,0.7198486328125
61276,0.743499755859375,0.391082763671875,0.757476806640625
61277,0.796356201171875,0.424652099609375,0.793060302734375
61278,0.8446197509765625,0.446990966796875,0.7997283935546875
61279,0.874114990234375,0.4546356201171875,0.8000030517578125
61280,0.88677978515625,0.43499755859375,0.8251953125
61281,0.8625946044921875,0.416534423828125,0.7972412109375
61282,0.803955078125,0.39776611328125,0.736846923828125
61283,0.727142333984375,0.3801116943359375,0.7086639404296875
61284,0.6521453857421875,0.3831939697265625,0.6751251220703125
61285,0.5963592529296875,0.406402587890625,0.6619415283203125
61286,0.5354461669921875,0.4206390380859375,0.6815338134765625
61287,0.47064208984375,0.4222564697265625,0.72198486328125
61288,0.4036102294921875,0.4267730712890625,0.7671051025390625
61289,0.3398590087890625,0.4329376220703125,0.8089752197265625
61290,0.2882843017578125,0.426849365234375,0.8521575927734375
61291,0.2467193603515625,0.4346466064453125,0.9166412353515624
61292,0.2221527099609375,0.43145751953125,0.9833221435546876
61293,0.1976470947265625,0.4322509765625,1.018936157226562
61294,0.189910888671875,0.409576416015625,1.042373657226562
61295,0.1813812255859375,0.369384765625,1.051361083984375
61296,0.16082763671875,0.3477020263671875,1.07958984375
61297,0.124603271484375,0.3213348388671875,1.084609985351562
61298,0.0667266845703125,0.2784423828125,1.084030151367188
61299,0.0269775390625,0.2133331298828125,1.064910888671875
61300,-0.0144500732421875,0.1399688720703125,1.056167602539062
61301,-0.0601043701171875,0.16485595703125,1.06610107421875
61302,-0.076385498046875,0.1790008544921875,1.033401489257812
61303,-0.0794677734375,0.184112548828125,1.002853393554688
61304,-0.0704803466796875,0.183807373046875,0.952545166015625
61305,-0.0473480224609375,0.1619415283203125,0.90570068359375
61306,-0.028778076171875,0.177947998046875,0.88018798828125
61307,-0.010467529296875,0.226409912109375,0.87957763671875
61308,0.0269775390625,0.2599639892578125,0.895263671875
61309,0.0930938720703125,0.289825439453125,0.9514007568359376
61310,0.157257080078125,0.3162384033203125,0.9896087646484376
61311,0.2257843017578125,0.349945068359375,1.041641235351562
61312,0.2893524169921875,0.38848876953125,1.069869995117188
61313,0.3532257080078125,0.4336395263671875,1.062042236328125
61314,0.4193878173828125,0.4452362060546875,1.042617797851562
61315,0.4806671142578125,0.421722412109375,1.013198852539062
61316,0.5113067626953125,0.3858184814453125,0.959716796875
61317,0.51458740234375,0.3632965087890625,0.910186767578125
61318,0.4906005859375,0.364990234375,0.865234375
61319,0.4623870849609375,0.3569183349609375,0.814910888671875
61320,0.4225921630859375,0.3370208740234375,0.7678680419921875
61321,0.38995361328125,0.2866058349609375,0.7205047607421875
61322,0.3682708740234375,0.2431640625,0.6887359619140625
61323,0.3727264404296875,0.2115020751953125,0.6963043212890625
61324,0.40618896484375,0.179168701171875,0.73004150390625
61325,0.45880126953125,0.1913604736328125,0.7816925048828125
61326,0.5113067626953125,0.2220306396484375,0.8244476318359375
61327,0.54827880859375,0.27374267578125,0.8544464111328125
61328,0.572845458984375,0.3224639892578125,0.8568878173828125
61329,0.590423583984375,0.3541259765625,0.8421630859375
61330,0.598541259765625,0.40386962890625,0.814361572265625
61331,0.5992584228515625,0.4537353515625,0.759033203125
61332,0.5736083984375,0.4853973388671875,0.7068023681640625
61333,0.533233642578125,0.5069122314453125,0.6415863037109375
61334,0.496246337890625,0.526947021484375,0.5814971923828125
61335,0.4814605712890625,0.5224609375,0.5629119873046875
61336,0.4780731201171875,0.5109710693359375,0.571929931640625
61337,0.479949951171875,0.5049896240234375,0.6035919189453125
61338,0.496795654296875,0.498016357421875,0.6453857421875
61339,0.538421630859375,0.4937286376953125,0.667083740234375
61340,0.5866241455078125,0.4965667724609375,0.66387939453125
61341,0.6407318115234375,0.507598876953125,0.649017333984375
61342,0.6927032470703125,0.5124969482421875,0.6409149169921875
61343,0.7226104736328125,0.5167694091796875,0.6694488525390625
61344,0.7294158935546875,0.4976959228515625,0.69244384765625
61345,0.7100372314453125,0.5052947998046875,0.7359619140625
61346,0.6755218505859375,0.4788970947265625,0.8167724609375
61347,0.6458740234375,0.463470458984375,0.9085540771484376
61348,0.6179656982421875,0.4217987060546875,0.961334228515625
61349,0.58782958984375,0.3583221435546875,0.9709930419921876
61350,0.548736572265625,0.3068389892578125,0.939544677734375
61351,0.501617431640625,0.2603607177734375,0.8913726806640625
61352,0.444061279296875,0.227020263671875,0.8404998779296875
61353,0.3922576904296875,0.194580078125,0.826263427734375
61354,0.3355865478515625,0.1740875244140625,0.8263702392578125
61355,0.294677734375,0.158966064453125,0.844146728515625
61356,0.251190185546875,0.153839111328125,0.862274169921875
61357,0.2108001708984375,0.1524505615234375,0.9118804931640624
61358,0.163665771484375,0.1534576416015625,0.970489501953125
61359,0.1234130859375,0.142791748046875,1.00531005859375
61360,0.0932159423828125,0.103729248046875,1.05657958984375
61361,0.061920166015625,0.0883636474609375,1.068115234375
61362,0.046142578125,0.071929931640625,1.038726806640625
61363,0.039764404296875,0.0523834228515625,1.016128540039062
61364,0.0344696044921875,0.0395355224609375,0.9888763427734376
61365,0.02471923828125,0.029632568359375,0.9417724609375
61366,0.0218658447265625,0.020111083984375,0.917755126953125
61367,0.03656005859375,0.0086517333984375,0.89349365234375
61368,0.045654296875,0.0255584716796875,0.85675048828125
61369,0.065155029296875,0.0303192138671875,0.87353515625
61370,0.0852813720703125,0.03656005859375,0.879547119140625
61371,0.11968994140625,0.053131103515625,0.869537353515625
61372,0.16900634765625,0.086029052734375,0.8767547607421875
61373,0.249176025390625,0.105010986328125,0.9044036865234376
61374,0.3240203857421875,0.1361541748046875,0.9297943115234376
61375,0.4068603515625,0.19403076171875,0.9444580078125
61376,0.4962310791015625,0.249542236328125,0.95928955078125
61377,0.57025146484375,0.2852630615234375,0.979888916015625
61378,0.6346893310546875,0.2989654541015625,1.009963989257812
61379,0.6826629638671875,0.3028564453125,1.048202514648438
61380,0.6943359375,0.3190765380859375,1.044281005859375
61381,0.668670654296875,0.3450927734375,0.988616943359375
61382,0.610931396484375,0.366546630859375,0.9065399169921876
61383,0.5462799072265625,0.395294189453125,0.821258544921875
61384,0.466400146484375,0.4480438232421875,0.7742767333984375
61385,0.3836669921875,0.5112762451171875,0.77679443359375
61386,0.3020782470703125,0.5509033203125,0.814361572265625
61387,0.2276763916015625,0.5720672607421875,0.86761474609375
61388,0.167083740234375,0.6009521484375,0.903900146484375
61389,0.13958740234375,0.6269683837890625,0.9184112548828124
61390,0.1547088623046875,0.6378326416015625,0.917572021484375
61391,0.2142181396484375,0.6349029541015625,0.919281005859375
61392,0.309295654296875,0.60498046875,0.9177703857421876
61393,0.423675537109375,0.535491943359375,0.931884765625
61394,0.502349853515625,0.5123748779296875,0.8831787109375
61395,0.5461883544921875,0.50445556640625,0.7999725341796875
61396,0.5872955322265625,0.4444427490234375,0.7548675537109375
61397,0.702728271484375,0.3773040771484375,0.7118682861328125
61398,0.7640533447265625,0.34783935546875,0.6489105224609375
61399,0.754547119140625,0.338043212890625,0.6169891357421875
61400,0.743255615234375,0.3503570556640625,0.62908935546875
61401,0.759613037109375,0.3805084228515625,0.6704254150390625
61402,0.791656494140625,0.41973876953125,0.7064056396484375
61403,0.8507537841796875,0.458770751953125,0.7399444580078125
61404,0.8971099853515625,0.485931396484375,0.7458038330078125
61405,0.9203033447265624,0.4914398193359375,0.72686767578125
61406,0.9146270751953124,0.48486328125,0.712371826171875
61407,0.8907318115234375,0.475494384765625,0.7498321533203125
61408,0.853729248046875,0.45916748046875,0.8367767333984375
61409,0.763031005859375,0.4571380615234375,0.7767333984375
61410,0.6847076416015625,0.44500732421875,0.7331695556640625
61411,0.614898681640625,0.447021484375,0.741363525390625
61412,0.5275115966796875,0.458465576171875,0.7430877685546875
61413,0.454681396484375,0.446258544921875,0.760406494140625
61414,0.3885650634765625,0.4437255859375,0.7815399169921875
61415,0.334197998046875,0.45391845703125,0.80694580078125
61416,0.2864990234375,0.449493408203125,0.82421875
61417,0.2553863525390625,0.442169189453125,0.84283447265625
61418,0.232452392578125,0.418212890625,0.8570709228515625
61419,0.21221923828125,0.37103271484375,0.8792877197265625
61420,0.198211669921875,0.3303070068359375,0.8954925537109375
61421,0.178985595703125,0.2998046875,0.937835693359375
61422,0.1483917236328125,0.2843475341796875,0.9995574951171876
61423,0.110687255859375,0.2716827392578125,1.03558349609375
61424,0.074371337890625,0.2154998779296875,1.059585571289062
61425,0.026397705078125,0.1781768798828125,1.077392578125
61426,-0.030120849609375,0.1853790283203125,1.136688232421875
61427,-0.0793609619140625,0.1804351806640625,1.116806030273438
61428,-0.118377685546875,0.1675567626953125,1.066513061523438
61429,-0.1295928955078125,0.1461944580078125,1.009246826171875
61430,-0.118804931640625,0.1124725341796875,0.9330291748046876
61431,-0.1066741943359375,0.1135101318359375,0.868560791015625
61432,-0.0812225341796875,0.11419677734375,0.8294830322265625
61433,-0.0316009521484375,0.139617919921875,0.8274993896484375
61434,0.02197265625,0.169891357421875,0.865997314453125
61435,0.0746612548828125,0.21441650390625,0.937591552734375
61436,0.14422607421875,0.26556396484375,1.029067993164062
61437,0.233551025390625,0.336456298828125,1.078460693359375
61438,0.3215484619140625,0.40484619140625,1.103134155273438
61439,0.3993988037109375,0.44000244140625,1.096237182617188
61440,0.46783447265625,0.445556640625,1.055740356445312
61441,0.5040130615234375,0.4506683349609375,1.00140380859375
61442,0.494598388671875,0.4268798828125,0.93011474609375
61443,0.4755706787109375,0.38482666015625,0.882537841796875
61444,0.447998046875,0.3873443603515625,0.8408660888671875
61445,0.432220458984375,0.3972015380859375,0.8066864013671875
61446,0.4316558837890625,0.4009246826171875,0.7757415771484375
61447,0.4300384521484375,0.3737030029296875,0.758392333984375
61448,0.432647705078125,0.3319549560546875,0.7490234375
61449,0.4395294189453125,0.297760009765625,0.76123046875
61450,0.454833984375,0.2575225830078125,0.788543701171875
61451,0.4902496337890625,0.2298431396484375,0.8190155029296875
61452,0.53765869140625,0.21807861328125,0.858245849609375
61453,0.588226318359375,0.240447998046875,0.877960205078125
61454,0.6241455078125,0.2731170654296875,0.877777099609375
61455,0.64349365234375,0.300872802734375,0.856231689453125
61456,0.6565399169921875,0.3415374755859375,0.8097686767578125
61457,0.6580810546875,0.404205322265625,0.7503662109375
61458,0.653839111328125,0.4329071044921875,0.6883697509765625
61459,0.638519287109375,0.4656829833984375,0.63372802734375
61460,0.596710205078125,0.4990234375,0.59918212890625
61461,0.5566864013671875,0.5089111328125,0.5734405517578125
61462,0.5220794677734375,0.504608154296875,0.5699310302734375
61463,0.4983062744140625,0.493682861328125,0.59051513671875
61464,0.4881439208984375,0.476287841796875,0.6088409423828125
61465,0.48773193359375,0.460784912109375,0.619476318359375
61466,0.5054779052734375,0.453582763671875,0.6308135986328125
61467,0.5381317138671875,0.461273193359375,0.636810302734375
61468,0.588348388671875,0.47052001953125,0.647186279296875
61469,0.6324615478515625,0.4833984375,0.66357421875
61470,0.6606597900390625,0.49249267578125,0.69830322265625
61471,0.6813507080078125,0.4855804443359375,0.7310943603515625
61472,0.6783447265625,0.475189208984375,0.7742156982421875
61473,0.651458740234375,0.4671478271484375,0.8423614501953125
61474,0.6249847412109375,0.423980712890625,0.9167327880859376
61475,0.599578857421875,0.371490478515625,0.954498291015625
61476,0.5642547607421875,0.331298828125,0.9369354248046876
61477,0.53485107421875,0.2692718505859375,0.8957977294921875
61478,0.4943084716796875,0.2197418212890625,0.8498687744140625
61479,0.4455718994140625,0.1884765625,0.81011962890625
61480,0.402618408203125,0.164794921875,0.7992401123046875
61481,0.367401123046875,0.1433563232421875,0.8031158447265625
61482,0.327484130859375,0.128997802734375,0.8176727294921875
61483,0.2803802490234375,0.1057891845703125,0.8385467529296875
61484,0.26092529296875,0.0524444580078125,0.9305267333984376
61485,0.20477294921875,0.0432891845703125,0.9963226318359376
61486,0.1654510498046875,0.0690765380859375,1.03973388671875
61487,0.131378173828125,0.0537109375,1.047821044921875
61488,0.1071929931640625,-0.012603759765625,1.05535888671875
61489,0.0829925537109375,-0.0561981201171875,1.06390380859375
61490,0.05059814453125,-0.061676025390625,1.026290893554688
61491,0.03997802734375,-0.0575103759765625,0.97808837890625
61492,0.0366668701171875,-0.0307464599609375,0.9150543212890624
61493,0.0297393798828125,0.022216796875,0.8587646484375
61494,0.0399932861328125,0.02447509765625,0.8464813232421875
61495,0.072540283203125,0.0233001708984375,0.88653564453125
61496,0.1194000244140625,0.0462799072265625,0.91656494140625
61497,0.1671142578125,0.0706939697265625,0.9407958984375
61498,0.2363128662109375,0.0896759033203125,0.9638671875
61499,0.3264312744140625,0.120880126953125,0.9779052734375
61500,0.3881988525390625,0.1812896728515625,0.98773193359375
61501,0.4325103759765625,0.23382568359375,1.001754760742188
61502,0.4881744384765625,0.2620086669921875,1.0313720703125
61503,0.54736328125,0.275726318359375,1.056396484375
61504,0.59295654296875,0.286163330078125,1.059051513671875
61505,0.6332550048828125,0.2945556640625,1.021194458007812
61506,0.6535797119140625,0.2978057861328125,0.9727630615234376
61507,0.64117431640625,0.313690185546875,0.9355621337890624
61508,0.6113739013671875,0.343597412109375,0.90576171875
61509,0.5594024658203125,0.361541748046875,0.879119873046875
61510,0.49066162109375,0.4075927734375,0.8689422607421875
61511,0.433441162109375,0.4843902587890625,0.81182861328125
61512,0.3751983642578125,0.5157928466796875,0.747833251953125
61513,0.3030853271484375,0.5417633056640625,0.736053466796875
61514,0.2347869873046875,0.5592193603515625,0.750732421875
61515,0.177154541015625,0.5794219970703125,0.75836181640625
61516,0.143585205078125,0.600982666015625,0.7560272216796875
61517,0.1601409912109375,0.59332275390625,0.758880615234375
61518,0.2121124267578125,0.577606201171875,0.76898193359375
61519,0.2908172607421875,0.5382537841796875,0.789520263671875
61520,0.3819732666015625,0.4706268310546875,0.8194122314453125
61521,0.4586944580078125,0.431060791015625,0.7904052734375
61522,0.508209228515625,0.42755126953125,0.7325592041015625
61523,0.556732177734375,0.392547607421875,0.6874847412109375
61524,0.6786651611328125,0.3426513671875,0.669189453125
61525,0.7605743408203125,0.31427001953125,0.621826171875
61526,0.7772979736328125,0.31414794921875,0.5877838134765625
61527,0.782623291015625,0.330596923828125,0.603790283203125
61528,0.8082122802734375,0.3564605712890625,0.6614532470703125
61529,0.8446197509765625,0.3883819580078125,0.72601318359375
61530,0.898895263671875,0.4205322265625,0.7667236328125
61531,0.9547882080078124,0.44781494140625,0.7808990478515625
61532,0.9882965087890624,0.466583251953125,0.767333984375
61533,0.9968719482421876,0.47943115234375,0.770660400390625
61534,0.9923248291015624,0.4626007080078125,0.850006103515625
61535,0.8963165283203125,0.4315948486328125,0.7454833984375
61536,0.8134002685546875,0.417449951171875,0.7168121337890625
61537,0.736175537109375,0.437957763671875,0.742523193359375
61538,0.6494598388671875,0.47320556640625,0.715850830078125
61539,0.5789947509765625,0.48895263671875,0.7214508056640625
61540,0.5165863037109375,0.4739837646484375,0.746795654296875
61541,0.4408111572265625,0.452728271484375,0.781494140625
61542,0.364227294921875,0.4391632080078125,0.818389892578125
61543,0.3082122802734375,0.439056396484375,0.844146728515625
61544,0.26239013671875,0.4434967041015625,0.8633575439453125
61545,0.2205047607421875,0.4383697509765625,0.8858642578125
61546,0.1842498779296875,0.4283905029296875,0.940826416015625
61547,0.157623291015625,0.410247802734375,1.002243041992188
61548,0.1478271484375,0.3759307861328125,1.03887939453125
61549,0.128692626953125,0.329620361328125,1.065414428710938
61550,0.1002044677734375,0.2725372314453125,1.096282958984375
61551,0.052703857421875,0.223968505859375,1.111221313476562
61552,-0.0343475341796875,0.2315521240234375,1.130950927734375
61553,-0.104339599609375,0.24810791015625,1.14862060546875
61554,-0.1517181396484375,0.25616455078125,1.134201049804688
61555,-0.168548583984375,0.25946044921875,1.115447998046875
61556,-0.1577911376953125,0.2118988037109375,1.03717041015625
61557,-0.16558837890625,0.214691162109375,0.9693145751953124
61558,-0.168243408203125,0.2645111083984375,0.9234161376953124
61559,-0.143585205078125,0.3069610595703125,0.885589599609375
61560,-0.0874176025390625,0.3400115966796875,0.8841094970703125
61561,-0.0139312744140625,0.3312225341796875,0.8875732421875
61562,0.0490570068359375,0.3602447509765625,0.9406890869140624
61563,0.1178131103515625,0.37939453125,0.999481201171875
61564,0.1959075927734375,0.3870849609375,1.053390502929688
61565,0.271209716796875,0.4022064208984375,1.092422485351562
61566,0.3401031494140625,0.4014892578125,1.10418701171875
61567,0.4084930419921875,0.398956298828125,1.095382690429688
61568,0.45123291015625,0.409271240234375,1.062713623046875
61569,0.48565673828125,0.4001312255859375,1.025802612304688
61570,0.5060272216796875,0.3680267333984375,0.9701995849609376
61571,0.5028839111328125,0.339080810546875,0.904052734375
61572,0.4920654296875,0.340911865234375,0.8529510498046875
61573,0.4860382080078125,0.335968017578125,0.7799835205078125
61574,0.4745025634765625,0.32965087890625,0.7003631591796875
61575,0.4541473388671875,0.2885894775390625,0.64697265625
61576,0.437652587890625,0.2494354248046875,0.626861572265625
61577,0.443572998046875,0.2282562255859375,0.6449127197265625
61578,0.4685821533203125,0.1980438232421875,0.6856842041015625
61579,0.5056915283203125,0.178253173828125,0.73529052734375
61580,0.547454833984375,0.1701507568359375,0.7837677001953125
61581,0.59027099609375,0.193115234375,0.83367919921875
61582,0.6225738525390625,0.2462005615234375,0.8657989501953125
61583,0.645050048828125,0.297271728515625,0.855743408203125
61584,0.6450042724609375,0.3606719970703125,0.81317138671875
61585,0.6247711181640625,0.43572998046875,0.7423248291015625
61586,0.586395263671875,0.496124267578125,0.6821136474609375
61587,0.53729248046875,0.5273895263671875,0.660614013671875
61588,0.4990997314453125,0.5314788818359375,0.6360931396484375
61589,0.48138427734375,0.52142333984375,0.62786865234375
61590,0.488861083984375,0.5067138671875,0.6384124755859375
61591,0.4979400634765625,0.4932861328125,0.6598663330078125
61592,0.5196075439453125,0.4722747802734375,0.685333251953125
61593,0.55999755859375,0.4432525634765625,0.6953582763671875
61594,0.60577392578125,0.434661865234375,0.6860504150390625
61595,0.63580322265625,0.430084228515625,0.6596527099609375
61596,0.6567840576171875,0.4328155517578125,0.640350341796875
61597,0.6607208251953125,0.4373321533203125,0.6456451416015625
61598,0.6377410888671875,0.4621124267578125,0.6620635986328125
61599,0.6250457763671875,0.47113037109375,0.7202911376953125
61600,0.606719970703125,0.4403076171875,0.799407958984375
61601,0.5879669189453125,0.4066314697265625,0.860748291015625
61602,0.5738372802734375,0.373809814453125,0.90423583984375
61603,0.5635223388671875,0.3278045654296875,0.9266357421875
61604,0.54364013671875,0.2793731689453125,0.9179840087890624
61605,0.5137481689453125,0.2197723388671875,0.8900604248046875
61606,0.4787750244140625,0.15509033203125,0.867919921875
61607,0.420867919921875,0.1125946044921875,0.84454345703125
61608,0.37060546875,0.0950469970703125,0.853515625
61609,0.313629150390625,0.087371826171875,0.8699493408203125
61610,0.26513671875,0.0855255126953125,0.8970489501953125
61611,0.22418212890625,0.0910491943359375,0.935333251953125
61612,0.163604736328125,0.1087646484375,0.960479736328125
61613,0.10394287109375,0.1203765869140625,1.005523681640625
61614,0.0549774169921875,0.115966796875,1.040054321289062
61615,0.0230865478515625,0.1103057861328125,1.04132080078125
61616,0.018951416015625,0.0472259521484375,1.072463989257812
61617,0.018035888671875,-0.0226593017578125,1.097015380859375
61618,0.0153350830078125,-0.0570831298828125,1.05340576171875
61619,0.01544189453125,-0.0482635498046875,1.005630493164062
61620,0.021331787109375,-0.02313232421875,0.9604339599609376
61621,0.027008056640625,0.00164794921875,0.9273681640625
61622,0.0512542724609375,0.019500732421875,0.9127349853515624
61623,0.07025146484375,0.0333251953125,0.90289306640625
61624,0.1304473876953125,0.0127716064453125,0.84552001953125
61625,0.2046356201171875,0.044708251953125,0.882080078125
61626,0.2779693603515625,0.066162109375,0.8903656005859375
61627,0.3533172607421875,0.1144561767578125,0.8943634033203125
61628,0.4200286865234375,0.1934356689453125,0.91339111328125
61629,0.483428955078125,0.260345458984375,0.92547607421875
61630,0.5506744384765625,0.3010711669921875,0.9582977294921876
61631,0.601898193359375,0.3028106689453125,1.007583618164062
61632,0.6515655517578125,0.290283203125,1.035232543945312
61633,0.682891845703125,0.2849578857421875,1.031661987304688
61634,0.68341064453125,0.3195648193359375,1.022018432617188
61635,0.646392822265625,0.36688232421875,0.9825439453125
61636,0.59375,0.4082183837890625,0.917022705078125
61637,0.5178680419921875,0.4566497802734375,0.8487396240234375
61638,0.4287261962890625,0.507965087890625,0.795013427734375
61639,0.3521881103515625,0.5462799072265625,0.776519775390625
61640,0.290313720703125,0.5679931640625,0.7965545654296875
61641,0.234344482421875,0.5904388427734375,0.8414459228515625
61642,0.185546875,0.6160736083984375,0.8737640380859375
61643,0.1644744873046875,0.6322479248046875,0.8775787353515625
61644,0.18487548828125,0.629638671875,0.8843536376953125
61645,0.2399139404296875,0.6111602783203125,0.8644866943359375
61646,0.33062744140625,0.5713958740234375,0.8708648681640625
61647,0.426025390625,0.4889678955078125,0.90081787109375
61648,0.4914093017578125,0.4559783935546875,0.8666229248046875
61649,0.51531982421875,0.4591522216796875,0.7747802734375
61650,0.56842041015625,0.4209136962890625,0.7181396484375
61651,0.6709136962890625,0.38116455078125,0.67169189453125
61652,0.7142791748046875,0.3571014404296875,0.6215667724609375
61653,0.714508056640625,0.3386993408203125,0.603973388671875
61654,0.7033233642578125,0.3379974365234375,0.6193695068359375
61655,0.7156982421875,0.36273193359375,0.6574554443359375
61656,0.7421112060546875,0.3988800048828125,0.7083740234375
61657,0.7817535400390625,0.43414306640625,0.7511444091796875
61658,0.824310302734375,0.4672088623046875,0.768524169921875
61659,0.8560638427734375,0.4931488037109375,0.76129150390625
61660,0.858245849609375,0.512847900390625,0.7364501953125
61661,0.841552734375,0.5040283203125,0.7491912841796875
61662,0.801025390625,0.476226806640625,0.7955780029296875
61663,0.733673095703125,0.44793701171875,0.7686004638671875
61664,0.6475677490234375,0.4378814697265625,0.7053985595703125
61665,0.57684326171875,0.424530029296875,0.6927947998046875
61666,0.529022216796875,0.4138641357421875,0.7213592529296875
61667,0.4776153564453125,0.415252685546875,0.7384796142578125
61668,0.430328369140625,0.4140472412109375,0.7625274658203125
61669,0.3877105712890625,0.413909912109375,0.8090362548828125
61670,0.3433837890625,0.431243896484375,0.8636016845703125
61671,0.2948760986328125,0.4371490478515625,0.9037017822265624
61672,0.257537841796875,0.430572509765625,0.9420013427734376
61673,0.23797607421875,0.4116668701171875,0.97528076171875
61674,0.2178955078125,0.370635986328125,0.99407958984375
61675,0.1950225830078125,0.333709716796875,1.021194458007812
61676,0.162811279296875,0.316192626953125,1.05072021484375
61677,0.1258392333984375,0.280670166015625,1.072265625
61678,0.0912017822265625,0.2180938720703125,1.101821899414062
61679,0.0447998046875,0.184234619140625,1.114288330078125
61680,-0.039154052734375,0.2003936767578125,1.1197509765625
61681,-0.0993499755859375,0.2002716064453125,1.103118896484375
61682,-0.128631591796875,0.1881561279296875,1.093276977539062
61683,-0.1563873291015625,0.2633209228515625,1.015182495117188
61684,-0.16412353515625,0.27020263671875,0.92205810546875
61685,-0.1310882568359375,0.22113037109375,0.8961639404296875
61686,-0.098358154296875,0.214447021484375,0.8519134521484375
61687,-0.0763092041015625,0.2433013916015625,0.8662567138671875
61688,-0.01025390625,0.2719268798828125,0.8864288330078125
61689,0.0724334716796875,0.2756195068359375,0.9363555908203124
61690,0.1409912109375,0.29718017578125,0.986114501953125
61691,0.2098541259765625,0.3386993408203125,1.03460693359375
61692,0.2747650146484375,0.3968658447265625,1.064117431640625
61693,0.3383941650390625,0.445709228515625,1.07501220703125
61694,0.4043731689453125,0.4376983642578125,1.066696166992188
61695,0.449798583984375,0.4051666259765625,1.03125
61696,0.46685791015625,0.376678466796875,0.9758453369140624
61697,0.4581756591796875,0.358642578125,0.913604736328125
61698,0.433807373046875,0.362091064453125,0.8637542724609375
61699,0.4104461669921875,0.37042236328125,0.8178253173828125
61700,0.40411376953125,0.382171630859375,0.785369873046875
61701,0.3878021240234375,0.36083984375,0.754730224609375
61702,0.3794403076171875,0.3088836669921875,0.7431488037109375
61703,0.3782958984375,0.2682952880859375,0.7560577392578125
61704,0.3887939453125,0.2283477783203125,0.7826080322265625
61705,0.423736572265625,0.1895599365234375,0.816314697265625
61706,0.4676971435546875,0.1851348876953125,0.8465576171875
61707,0.5113525390625,0.208770751953125,0.86407470703125
61708,0.5640106201171875,0.23077392578125,0.8700714111328125
61709,0.605987548828125,0.2690887451171875,0.844390869140625
61710,0.6267547607421875,0.3251190185546875,0.79296875
61711,0.6201324462890625,0.3929290771484375,0.7311553955078125
61712,0.5981597900390625,0.4466705322265625,0.682769775390625
61713,0.5689544677734375,0.4865570068359375,0.651214599609375
61714,0.530242919921875,0.5157623291015625,0.6054229736328125
61715,0.5124359130859375,0.517333984375,0.5725860595703125
61716,0.5125579833984375,0.4952239990234375,0.561767578125
61717,0.5168609619140625,0.4666290283203125,0.5657958984375
61718,0.522979736328125,0.4369659423828125,0.5851898193359375
61719,0.5457916259765625,0.4048004150390625,0.6124420166015625
61720,0.58343505859375,0.3813323974609375,0.6322021484375
61721,0.6319427490234375,0.3782958984375,0.6328582763671875
61722,0.6772918701171875,0.3961944580078125,0.628631591796875
61723,0.7311859130859375,0.4314117431640625,0.6204681396484375
61724,0.750640869140625,0.4621124267578125,0.636993408203125
61725,0.74896240234375,0.465576171875,0.7102508544921875
61726,0.7350921630859375,0.464813232421875,0.790008544921875
61727,0.6968841552734375,0.4428863525390625,0.8690185546875
61728,0.6586761474609375,0.409149169921875,0.929290771484375
61729,0.628448486328125,0.3647918701171875,0.960052490234375
61730,0.5859832763671875,0.3013153076171875,0.958892822265625
61731,0.53216552734375,0.245513916015625,0.926361083984375
61732,0.4869842529296875,0.1986541748046875,0.8976898193359375
61733,0.44207763671875,0.159027099609375,0.895660400390625
61734,0.395904541015625,0.13250732421875,0.9026947021484376
61735,0.3541107177734375,0.1213836669921875,0.8980255126953125
61736,0.31231689453125,0.1125335693359375,0.9027557373046876
61737,0.27069091796875,0.1052703857421875,0.9357452392578124
61738,0.2248077392578125,0.0982208251953125,0.9943695068359376
61739,0.17822265625,0.0963897705078125,1.040496826171875
61740,0.1278533935546875,0.11328125,1.065277099609375
61741,0.095123291015625,0.1202392578125,1.064620971679688
61742,0.0781097412109375,0.1148834228515625,1.057830810546875
61743,0.0679168701171875,0.104522705078125,1.035385131835938
61744,0.0570526123046875,0.07562255859375,1.005081176757812
61745,0.0518951416015625,0.0213470458984375,1.011245727539062
61746,0.03765869140625,0.0082550048828125,0.9682769775390624
61747,0.0362091064453125,0.0343475341796875,0.894989013671875
61748,0.0396270751953125,0.0574493408203125,0.851043701171875
61749,0.0435333251953125,0.0582733154296875,0.8571624755859375
61750,0.0598602294921875,0.0450592041015625,0.8810577392578125
61751,0.085968017578125,0.037506103515625,0.9080047607421876
61752,0.1170654296875,0.04156494140625,0.9280242919921876
61753,0.1629638671875,0.064910888671875,0.9361724853515624
61754,0.2200927734375,0.1007843017578125,0.9462738037109376
61755,0.323577880859375,0.1191253662109375,0.932861328125
61756,0.4254150390625,0.187255859375,0.942413330078125
61757,0.4916839599609375,0.265594482421875,0.934783935546875
61758,0.5434722900390625,0.308624267578125,0.9485015869140624
61759,0.578643798828125,0.3170013427734375,0.95831298828125
61760,0.615142822265625,0.3242340087890625,0.9765472412109376
61761,0.63580322265625,0.33685302734375,0.9770965576171876
61762,0.6162261962890625,0.358184814453125,0.9415435791015624
61763,0.567474365234375,0.3974151611328125,0.873809814453125
61764,0.509063720703125,0.4449615478515625,0.80975341796875
61765,0.4565582275390625,0.489013671875,0.746612548828125
61766,0.40093994140625,0.5222625732421875,0.709930419921875
61767,0.3542633056640625,0.5447998046875,0.7105560302734375
61768,0.32354736328125,0.55889892578125,0.72314453125
61769,0.3004302978515625,0.5664215087890625,0.755279541015625
61770,0.2721405029296875,0.5731658935546875,0.7780303955078125
61771,0.253143310546875,0.573211669921875,0.799774169921875
61772,0.2564239501953125,0.5738525390625,0.7920684814453125
61773,0.2944488525390625,0.5687255859375,0.8015899658203125
61774,0.356109619140625,0.54119873046875,0.8209075927734375
61775,0.4410400390625,0.475006103515625,0.859375
61776,0.507659912109375,0.434783935546875,0.8280792236328125
61777,0.5355377197265625,0.4261322021484375,0.7298583984375
61778,0.60870361328125,0.3885498046875,0.662445068359375
61779,0.6632080078125,0.3551025390625,0.6223297119140625
61780,0.6898345947265625,0.3221435546875,0.6180877685546875
61781,0.70294189453125,0.30078125,0.62786865234375
61782,0.7171478271484375,0.312225341796875,0.6529083251953125
61783,0.7517242431640625,0.3577728271484375,0.69586181640625
61784,0.8137054443359375,0.4008331298828125,0.75177001953125
61785,0.889923095703125,0.43115234375,0.8131256103515625
61786,0.9421844482421876,0.469818115234375,0.842559814453125
61787,0.96771240234375,0.496795654296875,0.86895751953125
61788,0.9748077392578124,0.4994354248046875,0.9326324462890624
61789,0.9143829345703124,0.50341796875,0.898284912109375
61790,0.801055908203125,0.503631591796875,0.8321380615234375
61791,0.6856231689453125,0.49761962890625,0.8356475830078125
61792,0.5930328369140625,0.4998931884765625,0.8165283203125
61793,0.5294342041015625,0.49908447265625,0.794647216796875
61794,0.477142333984375,0.495330810546875,0.8063201904296875
61795,0.42681884765625,0.4896697998046875,0.829986572265625
61796,0.372711181640625,0.47052001953125,0.840789794921875
61797,0.322052001953125,0.4525146484375,0.8390960693359375
61798,0.2920989990234375,0.439056396484375,0.8464813232421875
61799,0.262603759765625,0.4248199462890625,0.873626708984375
61800,0.242034912109375,0.4025726318359375,0.9014434814453124
61801,0.225128173828125,0.3821563720703125,0.930694580078125
61802,0.206573486328125,0.3622589111328125,0.9836273193359376
61803,0.1905670166015625,0.3207550048828125,1.006698608398438
61804,0.169647216796875,0.282623291015625,1.011154174804688
61805,0.137359619140625,0.265472412109375,1.006378173828125
61806,0.0955810546875,0.2487945556640625,0.9957427978515624
61807,0.061737060546875,0.183074951171875,1.000808715820312
61808,0.0092926025390625,0.1278076171875,0.998260498046875
61809,-0.053924560546875,0.1524810791015625,0.98492431640625
61810,-0.106414794921875,0.1705780029296875,0.977508544921875
61811,-0.1367950439453125,0.17047119140625,0.967437744140625
61812,-0.143035888671875,0.147491455078125,0.9361572265625
61813,-0.10955810546875,0.1319427490234375,0.8921051025390625
61814,-0.1124114990234375,0.2155303955078125,0.8612060546875
61815,-0.0908660888671875,0.242523193359375,0.8510894775390625
61816,-0.037384033203125,0.258453369140625,0.90234375
61817,0.0316619873046875,0.2671966552734375,0.9635467529296876
61818,0.0958251953125,0.31463623046875,1.039993286132812
61819,0.172119140625,0.3792572021484375,1.09423828125
61820,0.2627410888671875,0.4386749267578125,1.111770629882812
61821,0.355743408203125,0.4850311279296875,1.093780517578125
61822,0.442474365234375,0.4739532470703125,1.056777954101562
61823,0.491424560546875,0.4239654541015625,1.007949829101562
61824,0.5064849853515625,0.37396240234375,0.9668121337890624
61825,0.498077392578125,0.3336334228515625,0.9172515869140624
61826,0.476287841796875,0.3267669677734375,0.8591156005859375
61827,0.457275390625,0.330841064453125,0.7985076904296875
61828,0.447296142578125,0.3439788818359375,0.7454376220703125
61829,0.440185546875,0.325531005859375,0.695526123046875
61830,0.4420928955078125,0.2927093505859375,0.6800537109375
61831,0.451141357421875,0.262115478515625,0.6990966796875
61832,0.46826171875,0.2370147705078125,0.750946044921875
61833,0.49462890625,0.2078399658203125,0.8037109375
61834,0.52374267578125,0.200439453125,0.8612060546875
61835,0.55096435546875,0.2100372314453125,0.9069061279296876
61836,0.57452392578125,0.2279510498046875,0.926666259765625
61837,0.5941619873046875,0.2648773193359375,0.9171142578125
61838,0.61151123046875,0.311279296875,0.8831634521484375
61839,0.61334228515625,0.3873291015625,0.82928466796875
61840,0.6066436767578125,0.4466552734375,0.76092529296875
61841,0.5907745361328125,0.4859161376953125,0.708648681640625
61842,0.5698699951171875,0.513275146484375,0.6692352294921875
61843,0.5546417236328125,0.512725830078125,0.629119873046875
61844,0.5491485595703125,0.49554443359375,0.603546142578125
61845,0.5470123291015625,0.461212158203125,0.59490966796875
61846,0.543487548828125,0.42095947265625,0.6160888671875
61847,0.550811767578125,0.38287353515625,0.6502227783203125
61848,0.5770111083984375,0.358795166015625,0.671051025390625
61849,0.59564208984375,0.353363037109375,0.665771484375
61850,0.6213226318359375,0.3836822509765625,0.6515655517578125
61851,0.653961181640625,0.4421539306640625,0.628570556640625
61852,0.66943359375,0.4732513427734375,0.6321563720703125
61853,0.659942626953125,0.485931396484375,0.690277099609375
61854,0.6495513916015625,0.4861907958984375,0.7702789306640625
61855,0.64300537109375,0.46942138671875,0.8537139892578125
61856,0.624420166015625,0.4449920654296875,0.913726806640625
61857,0.5946044921875,0.3871917724609375,0.95281982421875
61858,0.5709075927734375,0.330322265625,0.97015380859375
61859,0.5301513671875,0.2746429443359375,0.956878662109375
61860,0.4831695556640625,0.2252349853515625,0.9213104248046876
61861,0.410400390625,0.1866607666015625,0.8758392333984375
61862,0.3527069091796875,0.15704345703125,0.8502197265625
61863,0.3006591796875,0.127960205078125,0.835052490234375
61864,0.2662200927734375,0.1063385009765625,0.854827880859375
61865,0.2328338623046875,0.0832061767578125,0.9014739990234376
61866,0.1939849853515625,0.0570068359375,0.968475341796875
61867,0.1411895751953125,0.0598297119140625,1.009002685546875
61868,0.1032562255859375,0.0706329345703125,1.029220581054688
61869,0.0673065185546875,0.0588531494140625,1.020477294921875
61870,0.0511627197265625,0.0332489013671875,1.017593383789062
61871,0.045806884765625,-0.0270538330078125,1.068145751953125
61872,0.021148681640625,-0.0281219482421875,1.045425415039062
61873,0.0024566650390625,-0.0146484375,0.98760986328125
61874,-0.0045928955078125,0.006439208984375,0.95654296875
61875,0.0070648193359375,0.035614013671875,0.9338836669921876
61876,0.0524444580078125,0.0418853759765625,0.93914794921875
61877,0.1134185791015625,0.047149658203125,0.954986572265625
61878,0.2056427001953125,0.0047149658203125,0.94232177734375
61879,0.2969818115234375,0.0539093017578125,0.9977569580078124
61880,0.3941192626953125,0.1125946044921875,1.02435302734375
61881,0.4551849365234375,0.1707000732421875,1.026504516601562
61882,0.5041656494140625,0.2310333251953125,1.039047241210938
61883,0.5345306396484375,0.274749755859375,1.045364379882812
61884,0.553863525390625,0.290313720703125,1.028732299804688
61885,0.5636749267578125,0.2857666015625,1.001907348632812
61886,0.558074951171875,0.2645721435546875,0.9741363525390624
61887,0.563995361328125,0.2643890380859375,0.9061431884765624
61888,0.5599212646484375,0.2884521484375,0.8437652587890625
61889,0.534454345703125,0.32659912109375,0.7816619873046875
61890,0.5149688720703125,0.345428466796875,0.733978271484375
61891,0.4780120849609375,0.3734893798828125,0.69476318359375
61892,0.4416351318359375,0.414093017578125,0.668212890625
61893,0.39703369140625,0.437774658203125,0.6599273681640625
61894,0.3556671142578125,0.46148681640625,0.699798583984375
61895,0.3192138671875,0.4808197021484375,0.739898681640625
61896,0.283599853515625,0.492919921875,0.7538909912109375
61897,0.245269775390625,0.50823974609375,0.7532501220703125
61898,0.22882080078125,0.5347137451171875,0.7474365234375
61899,0.227874755859375,0.546844482421875,0.7374267578125
61900,0.250274658203125,0.54046630859375,0.77032470703125
61901,0.302703857421875,0.51617431640625,0.8127899169921875
61902,0.3823699951171875,0.4551849365234375,0.855682373046875
61903,0.439361572265625,0.4156646728515625,0.83148193359375
61904,0.471221923828125,0.42230224609375,0.7627105712890625
61905,0.5533447265625,0.3900604248046875,0.71380615234375
61906,0.6248626708984375,0.34869384765625,0.6744232177734375
61907,0.66583251953125,0.31353759765625,0.6621551513671875
61908,0.6831817626953125,0.298004150390625,0.672576904296875
61909,0.7141571044921875,0.3132781982421875,0.7015228271484375
61910,0.7584075927734375,0.3495025634765625,0.7451629638671875
61911,0.8129425048828125,0.3877716064453125,0.789794921875
61912,0.8819122314453125,0.4295806884765625,0.83306884765625
61913,0.935089111328125,0.4866180419921875,0.8296661376953125
61914,0.970611572265625,0.5198974609375,0.84881591796875
61915,0.9694061279296876,0.5444793701171875,0.8470001220703125
61916,0.9228973388671876,0.53271484375,0.7822265625
61917,0.84393310546875,0.502899169921875,0.754852294921875
61918,0.74700927734375,0.517547607421875,0.7513427734375
61919,0.6681060791015625,0.5363006591796875,0.75067138671875
61920,0.5992584228515625,0.537689208984375,0.7427978515625
61921,0.5367584228515625,0.526824951171875,0.76837158203125
61922,0.474456787109375,0.51849365234375,0.8107757568359375
61923,0.4293365478515625,0.50262451171875,0.8479766845703125
61924,0.378448486328125,0.4813385009765625,0.8586578369140625
61925,0.3397064208984375,0.461456298828125,0.8701019287109375
61926,0.316650390625,0.4314117431640625,0.874847412109375
61927,0.28814697265625,0.3959808349609375,0.8885040283203125
61928,0.2467498779296875,0.3569488525390625,0.89996337890625
61929,0.2128143310546875,0.31597900390625,0.9360809326171876
61930,0.170684814453125,0.290252685546875,0.95672607421875
61931,0.115081787109375,0.2811737060546875,0.977294921875
61932,0.06915283203125,0.2668914794921875,0.989227294921875
61933,0.0181732177734375,0.2532806396484375,1.020004272460938
61934,-0.031982421875,0.2191162109375,1.067733764648438
61935,-0.0493927001953125,0.126922607421875,1.104660034179688
61936,-0.0919647216796875,0.0948333740234375,1.142822265625
61937,-0.1131591796875,0.137481689453125,1.149810791015625
61938,-0.1327056884765625,0.179901123046875,1.121383666992188
61939,-0.1293792724609375,0.176605224609375,1.089752197265625
61940,-0.089263916015625,0.1741180419921875,1.039535522460938
61941,-0.04083251953125,0.2757720947265625,0.9792022705078124
61942,-0.0059814453125,0.397186279296875,0.9094696044921876
61943,0.064910888671875,0.4290618896484375,0.90216064453125
61944,0.1356964111328125,0.4498748779296875,0.94091796875
61945,0.1926422119140625,0.4704132080078125,0.986114501953125
61946,0.240234375,0.5012664794921875,1.022232055664062
61947,0.2950286865234375,0.5074920654296875,1.027862548828125
61948,0.354827880859375,0.464996337890625,1.018966674804688
61949,0.410186767578125,0.416473388671875,0.9965667724609376
61950,0.4513092041015625,0.37249755859375,0.945953369140625
61951,0.486663818359375,0.346038818359375,0.8782196044921875
61952,0.507171630859375,0.31787109375,0.8055572509765625
61953,0.5113525390625,0.3171844482421875,0.7433929443359375
61954,0.5135345458984375,0.3022918701171875,0.69403076171875
61955,0.5204925537109375,0.2962799072265625,0.6707305908203125
61956,0.5300445556640625,0.2863922119140625,0.6728363037109375
61957,0.5318756103515625,0.2785797119140625,0.684356689453125
61958,0.5310821533203125,0.2615966796875,0.708526611328125
61959,0.519622802734375,0.24591064453125,0.7373809814453125
61960,0.511749267578125,0.2277679443359375,0.7646942138671875
61961,0.523406982421875,0.2308197021484375,0.8067626953125
61962,0.5412139892578125,0.2337493896484375,0.84210205078125
61963,0.56646728515625,0.24530029296875,0.8714141845703125
61964,0.59320068359375,0.300689697265625,0.8776397705078125
61965,0.6187286376953125,0.3361358642578125,0.831268310546875
61966,0.632598876953125,0.3698883056640625,0.7723846435546875
61967,0.629608154296875,0.4319000244140625,0.7158050537109375
61968,0.6029052734375,0.4791107177734375,0.6790618896484375
61969,0.5604400634765625,0.4913787841796875,0.685028076171875
61970,0.51458740234375,0.48687744140625,0.6889801025390625
61971,0.475921630859375,0.4669036865234375,0.6806488037109375
61972,0.446441650390625,0.4407196044921875,0.6652984619140625
61973,0.4302520751953125,0.42803955078125,0.6591796875
61974,0.4257049560546875,0.4195404052734375,0.66864013671875
61975,0.4349822998046875,0.4132080078125,0.683074951171875
61976,0.4584197998046875,0.407958984375,0.6850128173828125
61977,0.499237060546875,0.3875274658203125,0.6750640869140625
61978,0.5451202392578125,0.4006805419921875,0.6659393310546875
61979,0.5949859619140625,0.456329345703125,0.653289794921875
61980,0.64093017578125,0.4846649169921875,0.66339111328125
61981,0.6625823974609375,0.491546630859375,0.695587158203125
61982,0.6732177734375,0.4834747314453125,0.750946044921875
61983,0.661163330078125,0.4605712890625,0.8046722412109375
61984,0.6551971435546875,0.4308624267578125,0.8645782470703125
61985,0.628143310546875,0.3937225341796875,0.8989715576171875
61986,0.601104736328125,0.3453521728515625,0.9205322265625
61987,0.565277099609375,0.290557861328125,0.9168548583984376
61988,0.525970458984375,0.2411041259765625,0.8948516845703125
61989,0.4766845703125,0.1935272216796875,0.8546600341796875
61990,0.430450439453125,0.1576690673828125,0.833953857421875
61991,0.3766937255859375,0.1301727294921875,0.8236083984375
61992,0.3236083984375,0.1109466552734375,0.8309173583984375
61993,0.28472900390625,0.095001220703125,0.8783721923828125
61994,0.236083984375,0.0880584716796875,0.9371185302734376
