time_idx,accelerometerAccelerationX(G),accelerometerAccelerationY(G),accelerometerAccelerationZ(G)
20000,0.007843017578125,-0.998260498046875,-0.0141143798828125
20001,0.011383056640625,-0.99810791015625,-0.001708984375
20002,0.0116119384765625,-1.008453369140625,-0.010589599609375
20003,0.0116424560546875,-1.017303466796875,-0.024658203125
20004,0.0130615234375,-1.017974853515625,-0.0427398681640625
20005,0.0149688720703125,-1.02264404296875,-0.0596160888671875
20006,0.0167694091796875,-1.033157348632812,-0.07452392578125
20007,0.0138092041015625,-1.045211791992188,-0.102081298828125
20008,0.0138092041015625,-1.045211791992188,-0.102081298828125
20009,0.0069122314453125,-1.051376342773438,-0.11102294921875
20010,-0.0035247802734375,-1.052352905273438,-0.1082611083984375
20011,-0.011260986328125,-1.041610717773438,-0.099822998046875
20012,-0.011260986328125,-1.041610717773438,-0.099822998046875
20013,-0.0207061767578125,-1.017181396484375,-0.0848236083984375
20014,-0.0213623046875,-1.008880615234375,-0.09197998046875
20015,-0.01995849609375,-1.002792358398438,-0.0967559814453125
20016,-0.0130157470703125,-1.001510620117188,-0.1008453369140625
20017,-0.0094451904296875,-0.999603271484375,-0.0947113037109375
20018,-0.010101318359375,-0.9947357177734376,-0.0877838134765625
20019,-0.008758544921875,-0.9909210205078124,-0.08203125
20020,-0.0060882568359375,-0.9854278564453124,-0.0826568603515625
20021,-0.003387451171875,-0.97869873046875,-0.087890625
20022,0.0021820068359375,-0.9798126220703124,-0.1037139892578125
20023,0.0086212158203125,-0.987579345703125,-0.1265106201171875
20024,0.006622314453125,-0.997589111328125,-0.1536407470703125
20025,-0.003936767578125,-1.005294799804688,-0.1733245849609375
20026,-0.019195556640625,-1.01495361328125,-0.1808319091796875
20027,-0.0450439453125,-1.025650024414062,-0.182861328125
20028,-0.0705413818359375,-1.036956787109375,-0.1856536865234375
20029,-0.0872955322265625,-1.03985595703125,-0.1908416748046875
20030,-0.098602294921875,-1.04205322265625,-0.197723388671875
20031,-0.094818115234375,-1.0413818359375,-0.2169342041015625
20032,-0.081085205078125,-1.038848876953125,-0.2300872802734375
20033,-0.0583648681640625,-1.026229858398438,-0.2324676513671875
20034,-0.027984619140625,-1.011566162109375,-0.2011871337890625
20035,0.0042724609375,-0.9921417236328124,-0.159454345703125
20036,0.0393218994140625,-0.961822509765625,-0.137725830078125
20037,0.0619964599609375,-0.932769775390625,-0.1233978271484375
20038,0.069061279296875,-0.90875244140625,-0.1091461181640625
20039,0.0757293701171875,-0.8968353271484375,-0.1190948486328125
20040,0.0780487060546875,-0.90692138671875,-0.113800048828125
20041,0.0838470458984375,-0.9224395751953124,-0.102203369140625
20042,0.0920257568359375,-0.940399169921875,-0.09832763671875
20043,0.095245361328125,-0.9585418701171876,-0.0929718017578125
20044,0.095245361328125,-0.9585418701171876,-0.0929718017578125
20045,0.1037750244140625,-0.9970703125,-0.0879364013671875
20046,0.101348876953125,-1.0047607421875,-0.096710205078125
20047,0.0936737060546875,-1.023239135742188,-0.105560302734375
20048,0.088134765625,-1.034011840820312,-0.1162872314453125
20049,0.084625244140625,-1.034637451171875,-0.12396240234375
20050,0.09014892578125,-1.02447509765625,-0.1241607666015625
20051,0.12286376953125,-0.9947967529296876,-0.1176910400390625
20052,0.12286376953125,-0.9947967529296876,-0.1176910400390625
20053,0.1429290771484375,-0.9890289306640624,-0.12176513671875
20054,0.161712646484375,-0.98431396484375,-0.116943359375
20055,0.184539794921875,-0.995025634765625,-0.12005615234375
20056,0.184539794921875,-0.995025634765625,-0.12005615234375
20057,0.20758056640625,-1.000839233398438,-0.132049560546875
20058,0.1932525634765625,-0.9988861083984376,-0.1220245361328125
20059,0.1397857666015625,-1.001617431640625,-0.0963592529296875
20060,0.1397857666015625,-1.001617431640625,-0.0963592529296875
20061,0.10906982421875,-0.9999847412109376,-0.0772552490234375
20062,0.0881195068359375,-1.000076293945312,-0.0592193603515625
20063,0.0662689208984375,-1.0068359375,-0.0514678955078125
20064,0.0557861328125,-1.009719848632812,-0.048370361328125
20065,0.0570526123046875,-1.020278930664062,-0.061431884765625
20066,0.058074951171875,-1.030410766601562,-0.0701141357421875
20067,0.06390380859375,-1.032394409179688,-0.075592041015625
20068,0.0619354248046875,-1.03265380859375,-0.0731964111328125
20069,0.0474395751953125,-1.042892456054688,-0.0670318603515625
20070,0.0313720703125,-1.061569213867188,-0.05474853515625
20071,0.0080108642578125,-1.083724975585938,-0.0381927490234375
20072,-0.0254058837890625,-1.109848022460938,-0.0231475830078125
20073,-0.053009033203125,-1.132431030273438,-0.008636474609375
20074,-0.072845458984375,-1.142257690429688,0.006256103515625
20075,-0.0739288330078125,-1.130905151367188,0.0047454833984375
20076,-0.0739288330078125,-1.130905151367188,0.0047454833984375
20077,-0.0152435302734375,-1.06768798828125,-0.0406494140625
20078,-0.0182342529296875,-1.065200805664062,-0.064422607421875
20079,0.002197265625,-1.032791137695312,-0.051513671875
20080,0.009033203125,-1.015762329101562,-0.043731689453125
20081,0.009033203125,-1.015762329101562,-0.043731689453125
20082,0.009033203125,-1.015762329101562,-0.043731689453125
20083,0.01641845703125,-1.009140014648438,-0.0391387939453125
20084,0.021697998046875,-0.9981842041015624,-0.033843994140625
20085,0.02490234375,-0.988311767578125,-0.030242919921875
20086,0.0347137451171875,-0.98687744140625,-0.0309906005859375
20087,0.04840087890625,-0.9858551025390624,-0.0293426513671875
20088,0.056243896484375,-0.9960174560546876,-0.0161285400390625
20089,0.0695343017578125,-1.000625610351562,-0.0232391357421875
20090,0.0882415771484375,-0.9897308349609376,-0.0326385498046875
20091,0.0956878662109375,-0.9821014404296876,-0.01953125
20092,0.108184814453125,-0.9786834716796876,-0.021514892578125
20093,0.12060546875,-0.978515625,-0.0171051025390625
20094,0.1342010498046875,-0.9735565185546876,-0.016082763671875
20095,0.14593505859375,-0.9775390625,-0.01416015625
20096,0.1600494384765625,-0.9815521240234376,-0.0155792236328125
20097,0.1699676513671875,-0.98785400390625,-0.0201263427734375
20098,0.1785125732421875,-0.989105224609375,-0.01861572265625
20099,0.1782989501953125,-0.9920806884765624,-0.01702880859375
20100,0.1782989501953125,-0.9920806884765624,-0.01702880859375
20101,0.175811767578125,-0.9885101318359376,-0.0127410888671875
20102,0.1725006103515625,-0.981903076171875,-0.015106201171875
20103,0.168548583984375,-0.9747772216796876,-0.019622802734375
20104,0.173583984375,-0.96575927734375,-0.0177001953125
20105,0.1775970458984375,-0.956298828125,-0.0178375244140625
20106,0.183380126953125,-0.93524169921875,-0.0052642822265625
20107,0.227752685546875,-0.896759033203125,-0.0999908447265625
20108,0.227752685546875,-0.896759033203125,-0.0999908447265625
20109,0.2095489501953125,-0.9099884033203124,-0.0898590087890625
20110,0.195159912109375,-0.993011474609375,0.0158233642578125
20111,0.1957550048828125,-0.980987548828125,0.010345458984375
20112,0.1957550048828125,-0.980987548828125,0.010345458984375
20113,0.2129974365234375,-0.983306884765625,0.10089111328125
20114,0.21624755859375,-0.9891204833984376,0.050048828125
20115,0.220672607421875,-0.999542236328125,0.03558349609375
20116,0.220672607421875,-0.999542236328125,0.03558349609375
20117,0.220947265625,-0.966064453125,-0.01226806640625
20118,0.210205078125,-0.9705047607421876,-0.030426025390625
20119,0.1942138671875,-0.9903564453125,-0.0393218994140625
20120,0.1645660400390625,-1.004104614257812,-0.025909423828125
20121,0.1381683349609375,-1.024978637695312,-0.0009765625
20122,0.1123199462890625,-1.044097900390625,-0.0233154296875
20123,0.09381103515625,-1.07281494140625,-0.093994140625
20124,0.0785980224609375,-1.091598510742188,-0.1486053466796875
20125,0.0627899169921875,-1.077835083007812,-0.1768951416015625
20126,0.066986083984375,-1.043624877929688,-0.1614227294921875
20127,0.0926971435546875,-1.01904296875,-0.1165618896484375
20128,0.0926971435546875,-1.01904296875,-0.1165618896484375
20129,0.0866546630859375,-1.001419067382812,-0.0462188720703125
20130,0.066375732421875,-1.00732421875,-0.0048370361328125
20131,0.1061248779296875,-1.0679931640625,0.05419921875
20132,0.1061248779296875,-1.0679931640625,0.05419921875
20133,0.117401123046875,-1.039718627929688,0.05706787109375
20134,0.0888519287109375,-1.002517700195312,0.0188751220703125
20135,0.039794921875,-0.9539642333984376,-0.044647216796875
20136,-0.0025177001953125,-0.9672393798828124,-0.0954437255859375
20137,-0.021820068359375,-1.001754760742188,-0.093017578125
20138,-0.0213165283203125,-1.002105712890625,-0.0802154541015625
20139,-0.0136566162109375,-0.9997100830078124,-0.067779541015625
20140,-0.021392822265625,-1.007827758789062,-0.0568084716796875
20141,-0.0229644775390625,-1.018112182617188,-0.095703125
20142,-0.047210693359375,-1.014480590820312,-0.1084747314453125
20143,-0.0806427001953125,-1.0037841796875,-0.1531982421875
20144,-0.0806427001953125,-1.0037841796875,-0.1531982421875
20145,-0.094329833984375,-0.9659576416015624,-0.2198333740234375
20146,-0.100982666015625,-0.9614410400390624,-0.2240447998046875
20147,-0.07452392578125,-0.9687957763671876,-0.2294921875
20148,-0.07452392578125,-0.9687957763671876,-0.2294921875
20149,-0.071929931640625,-0.999237060546875,-0.238677978515625
20150,-0.0719757080078125,-1.030242919921875,-0.2311859130859375
20151,0.047454833984375,-1.1229248046875,-0.25018310546875
20152,0.047454833984375,-1.1229248046875,-0.25018310546875
20153,0.1066131591796875,-1.145553588867188,-0.1936187744140625
20154,0.0905609130859375,-1.137619018554688,-0.1552886962890625
20155,0.06622314453125,-1.118545532226562,-0.2093963623046875
20156,0.049896240234375,-1.078994750976562,-0.2456817626953125
20157,0.0186767578125,-1.037582397460938,-0.2266387939453125
20158,-0.05712890625,-0.9906158447265624,-0.217041015625
20159,-0.0929718017578125,-0.9800872802734376,-0.249267578125
20160,-0.112823486328125,-0.983367919921875,-0.2286529541015625
20161,-0.153411865234375,-0.977630615234375,-0.12957763671875
20162,-0.169525146484375,-0.951385498046875,-0.140533447265625
20163,-0.143707275390625,-0.8948211669921875,-0.166778564453125
20164,-0.143707275390625,-0.8948211669921875,-0.166778564453125
20165,-0.122467041015625,-0.88214111328125,-0.1628265380859375
20166,-0.1433258056640625,-0.87451171875,-0.146759033203125
20167,-0.1594085693359375,-0.91033935546875,-0.13946533203125
20168,-0.1594085693359375,-0.91033935546875,-0.13946533203125
20169,-0.13818359375,-0.9465484619140624,-0.1450958251953125
20170,-0.13641357421875,-0.9783477783203124,-0.137298583984375
20171,-0.1344451904296875,-1.004562377929688,-0.1282958984375
20172,-0.1243438720703125,-1.017959594726562,-0.118438720703125
20173,-0.1209716796875,-1.030166625976562,-0.1179962158203125
20174,-0.1242828369140625,-1.0379638671875,-0.1222686767578125
20175,-0.14056396484375,-1.036788940429688,-0.111328125
20176,-0.14056396484375,-1.036788940429688,-0.111328125
20177,-0.147003173828125,-1.028030395507812,-0.1054840087890625
20178,-0.1559600830078125,-1.010269165039062,-0.0960693359375
20179,-0.171630859375,-0.985687255859375,-0.1010894775390625
20180,-0.171630859375,-0.985687255859375,-0.1010894775390625
20181,-0.171630859375,-0.985687255859375,-0.1010894775390625
20182,-0.166168212890625,-0.9946441650390624,-0.0787200927734375
20183,-0.153778076171875,-0.99896240234375,-0.0482940673828125
20184,-0.1546478271484375,-1.000381469726562,-0.020263671875
20185,-0.1517791748046875,-1.001052856445312,-0.0052337646484375
20186,-0.140167236328125,-0.998443603515625,-0.015960693359375
20187,-0.1280364990234375,-0.987640380859375,-0.01116943359375
20188,-0.1102142333984375,-0.9971160888671876,-0.0021514892578125
20189,-0.1023101806640625,-1.005889892578125,-0.01751708984375
20190,-0.1075897216796875,-0.9977874755859376,-0.022125244140625
20191,-0.1128692626953125,-0.9896087646484376,-0.0169219970703125
20192,-0.114776611328125,-0.9902191162109376,-0.0091705322265625
20193,-0.1097564697265625,-0.9829559326171876,-0.004791259765625
20194,-0.1114654541015625,-0.9804840087890624,-0.0005950927734375
20195,-0.1076202392578125,-0.973541259765625,0.00537109375
20196,-0.093292236328125,-0.9703369140625,0.001800537109375
20197,-0.0948028564453125,-0.97503662109375,-0.0089569091796875
20198,-0.0984649658203125,-0.981292724609375,-0.006317138671875
20199,-0.1085052490234375,-0.9748687744140624,-0.021759033203125
20200,-0.1085052490234375,-0.9748687744140624,-0.021759033203125
20201,-0.1006317138671875,-0.9752655029296876,-0.0360107421875
20202,-0.0861358642578125,-0.9932708740234376,-0.0287017822265625
20203,-0.040069580078125,-1.022354125976562,-0.0018768310546875
20204,-0.040069580078125,-1.022354125976562,-0.0018768310546875
20205,-0.0330963134765625,-1.003509521484375,0.019622802734375
20206,-0.0409088134765625,-0.9914093017578124,0.024658203125
20207,-0.042877197265625,-1.000076293945312,0.0374603271484375
20208,-0.0357208251953125,-1.021011352539062,0.05291748046875
20209,-0.028167724609375,-1.035781860351562,0.057159423828125
20210,-0.0240020751953125,-1.0355224609375,0.060699462890625
20211,-0.02752685546875,-1.040145874023438,0.061004638671875
20212,-0.0298309326171875,-1.03375244140625,0.0565032958984375
20213,-0.0457611083984375,-1.02685546875,0.049957275390625
20214,-0.0626373291015625,-1.025588989257812,0.041839599609375
20215,-0.08099365234375,-1.031219482421875,0.0204315185546875
20216,-0.08099365234375,-1.031219482421875,0.0204315185546875
20217,-0.106414794921875,-1.0408935546875,-0.006317138671875
20218,-0.141571044921875,-1.047088623046875,-0.036468505859375
20219,-0.1807098388671875,-1.054702758789062,-0.058563232421875
20220,-0.186981201171875,-1.069992065429688,-0.0919952392578125
20221,-0.17724609375,-1.079147338867188,-0.1188201904296875
20222,-0.1584320068359375,-1.0909423828125,-0.12615966796875
20223,-0.124786376953125,-1.101852416992188,-0.072174072265625
20224,-0.124786376953125,-1.101852416992188,-0.072174072265625
20225,-0.12591552734375,-1.077072143554688,-0.037933349609375
20226,-0.1297149658203125,-1.053741455078125,-0.0245361328125
20227,-0.0712738037109375,-1.028976440429688,-0.0095367431640625
20228,-0.0712738037109375,-1.028976440429688,-0.0095367431640625
20229,-0.02447509765625,-1.027511596679688,0.0216064453125
20230,0.006195068359375,-1.032669067382812,0.04962158203125
20231,0.018829345703125,-1.038162231445312,0.054351806640625
20232,0.0121612548828125,-1.045700073242188,0.032806396484375
20233,-0.0066680908203125,-1.047576904296875,0.004608154296875
20234,-0.027069091796875,-1.05328369140625,-0.04412841796875
20235,-0.0438232421875,-1.053741455078125,-0.0980072021484375
20236,-0.0438232421875,-1.053741455078125,-0.0980072021484375
20237,-0.0257110595703125,-1.066757202148438,-0.1750030517578125
20238,0.0089874267578125,-1.068344116210938,-0.201568603515625
20239,0.055908203125,-1.058029174804688,-0.22344970703125
20240,0.103424072265625,-1.030075073242188,-0.244842529296875
20241,0.118896484375,-0.99365234375,-0.2525482177734375
20242,0.1290283203125,-0.942108154296875,-0.2689361572265625
20243,0.1393890380859375,-0.8618927001953125,-0.27001953125
20244,0.1393890380859375,-0.8618927001953125,-0.27001953125
20245,0.15374755859375,-0.8380279541015625,-0.2506256103515625
20246,0.1664886474609375,-0.8327178955078125,-0.2181549072265625
20247,0.17132568359375,-0.8583526611328125,-0.148590087890625
20248,0.17132568359375,-0.8583526611328125,-0.148590087890625
20249,0.1457977294921875,-0.8833160400390625,-0.102264404296875
20250,0.1089019775390625,-0.927093505859375,-0.0727386474609375
20251,0.0651092529296875,-0.957244873046875,-0.0633392333984375
20252,0.014984130859375,-0.9959869384765624,-0.03729248046875
20253,-0.01824951171875,-1.0076904296875,-0.070220947265625
20254,-0.0109405517578125,-1.035110473632812,-0.08441162109375
20255,-0.0180206298828125,-1.026199340820312,-0.091827392578125
20256,-0.038818359375,-1.039657592773438,-0.0890045166015625
20257,-0.04400634765625,-1.079269409179688,-0.1470794677734375
20258,-0.0334014892578125,-1.107177734375,-0.1453704833984375
20259,-0.046661376953125,-1.071090698242188,-0.1285858154296875
20260,-0.0377044677734375,-1.052581787109375,-0.1043243408203125
20261,-0.0039215087890625,-1.051742553710938,-0.1063385009765625
20262,0.029266357421875,-1.02685546875,-0.0850067138671875
20263,0.0983734130859375,-0.9821929931640624,-0.0150299072265625
20264,0.0983734130859375,-0.9821929931640624,-0.0150299072265625
20265,0.1072845458984375,-0.963134765625,-0.03265380859375
20266,0.0986785888671875,-0.9441986083984376,-0.0512847900390625
20267,0.06658935546875,-0.9062652587890624,-0.05682373046875
20268,0.06658935546875,-0.9062652587890624,-0.05682373046875
20269,0.0592193603515625,-0.9188079833984376,-0.0537567138671875
20270,0.0513763427734375,-0.937286376953125,-0.03814697265625
20271,0.0441131591796875,-0.9549407958984376,-0.0394134521484375
20272,0.033935546875,-0.9737091064453124,-0.034149169921875
20273,0.01666259765625,-0.987701416015625,-0.0271148681640625
20274,0.00897216796875,-0.996795654296875,-0.0194091796875
20275,0.0077667236328125,-0.9886322021484376,0.0001220703125
20276,0.0077667236328125,-0.9886322021484376,0.0001220703125
20277,0.0017852783203125,-0.9821319580078124,-0.0009918212890625
20278,0.002685546875,-0.9794158935546876,-0.001129150390625
20279,0.002685546875,-0.979583740234375,-0.0187225341796875
20280,0.002685546875,-0.979583740234375,-0.0187225341796875
20281,-0.002777099609375,-0.9782257080078124,-0.0310211181640625
20282,-0.013641357421875,-0.9727783203125,-0.0342559814453125
20283,-0.0104217529296875,-0.9734039306640624,-0.027374267578125
20284,-0.01177978515625,-0.9738311767578124,-0.0196990966796875
20285,-0.0117034912109375,-0.9745941162109376,-0.006256103515625
20286,-0.0067901611328125,-0.974517822265625,0.0013885498046875
20287,0.00274658203125,-0.98675537109375,-0.004486083984375
20288,0.00274658203125,-0.98675537109375,-0.004486083984375
20289,0.0082550048828125,-0.9878082275390624,-0.0054168701171875
20290,0.0116424560546875,-0.9923858642578124,0.00286865234375
20291,0.009918212890625,-0.9971923828125,0.000823974609375
20292,-0.0022125244140625,-1.000579833984375,0.0083465576171875
20293,-0.0098876953125,-1.00213623046875,0.017852783203125
20294,-0.0175323486328125,-1.002182006835938,0.028778076171875
20295,-0.0215301513671875,-1.001937866210938,0.0368804931640625
20296,-0.0232086181640625,-1.003128051757812,0.04730224609375
20297,-0.0213165283203125,-1.013595581054688,0.0544281005859375
20298,-0.0190887451171875,-1.024032592773438,0.058685302734375
20299,-0.014617919921875,-1.036773681640625,0.05810546875
20300,-0.0143890380859375,-1.041580200195312,0.062469482421875
20301,-0.0076904296875,-1.044082641601562,0.0616302490234375
20302,0.00421142578125,-1.041000366210938,0.058807373046875
20303,0.01092529296875,-1.030593872070312,0.0558929443359375
20304,0.0115203857421875,-1.026168823242188,0.0403900146484375
20305,-0.002044677734375,-1.028533935546875,0.0324249267578125
20306,-0.0175933837890625,-1.035720825195312,0.039581298828125
20307,-0.0194091796875,-1.04864501953125,0.057830810546875
20308,-0.0288238525390625,-1.06304931640625,0.0881500244140625
20309,-0.020172119140625,-1.069366455078125,0.1053314208984375
20310,-0.013214111328125,-1.0677490234375,0.115081787109375
20311,-0.011444091796875,-1.059051513671875,0.1240234375
20312,-0.003570556640625,-1.046920776367188,0.10968017578125
20313,-0.0091094970703125,-1.037445068359375,0.1186370849609375
20314,-0.0211029052734375,-1.0108642578125,0.138641357421875
20315,-0.033172607421875,-0.9977874755859376,0.1453399658203125
20316,-0.033172607421875,-0.9977874755859376,0.1453399658203125
20317,-0.0322113037109375,-1.016799926757812,0.1420135498046875
20318,-0.0236968994140625,-1.0535888671875,0.12567138671875
20319,-0.0061798095703125,-1.108230590820312,0.064544677734375
20320,0.0264129638671875,-1.1474609375,-0.0175018310546875
20321,0.0704803466796875,-1.17059326171875,-0.090576171875
20322,0.123382568359375,-1.17169189453125,-0.1296844482421875
20323,0.1713714599609375,-1.169021606445312,-0.148223876953125
20324,0.204925537109375,-1.167816162109375,-0.1691131591796875
20325,0.2317352294921875,-1.189682006835938,-0.2136993408203125
20326,0.22894287109375,-1.203033447265625,-0.24420166015625
20327,0.1454010009765625,-1.162124633789062,-0.212249755859375
20328,0.1454010009765625,-1.162124633789062,-0.212249755859375
20329,0.05999755859375,-1.131805419921875,-0.17462158203125
20330,-0.038543701171875,-1.078338623046875,-0.0977325439453125
20331,-0.12744140625,-1.020004272460938,-0.0537109375
20332,-0.1810455322265625,-0.9439697265625,-0.05633544921875
20333,-0.1988983154296875,-0.85009765625,-0.1246490478515625
20334,-0.19512939453125,-0.766998291015625,-0.2277679443359375
20335,-0.189453125,-0.729705810546875,-0.3205718994140625
20336,-0.1796875,-0.720672607421875,-0.3656463623046875
20337,-0.17242431640625,-0.7353515625,-0.378021240234375
20338,-0.159332275390625,-0.777496337890625,-0.355438232421875
20339,-0.0836334228515625,-0.871734619140625,-0.3030242919921875
20340,-0.0836334228515625,-0.871734619140625,-0.3030242919921875
20341,-0.033721923828125,-0.9050750732421876,-0.307281494140625
20342,0.0001220703125,-0.94970703125,-0.31207275390625
20343,0.014007568359375,-0.9997406005859376,-0.3129425048828125
20344,0.0196075439453125,-1.038070678710938,-0.301116943359375
20345,0.022247314453125,-1.07647705078125,-0.278045654296875
20346,0.0258636474609375,-1.102188110351562,-0.2480926513671875
20347,0.0316009521484375,-1.122360229492188,-0.223876953125
20348,0.0410919189453125,-1.137359619140625,-0.210205078125
20349,0.0538177490234375,-1.138214111328125,-0.1888885498046875
20350,0.0619964599609375,-1.128890991210938,-0.1702880859375
20351,0.0552215576171875,-1.116119384765625,-0.1529541015625
20352,0.0475006103515625,-1.086624145507812,-0.1515350341796875
20353,0.0182342529296875,-1.054000854492188,-0.152008056640625
20354,-0.0190582275390625,-1.010955810546875,-0.1476593017578125
20355,-0.1082000732421875,-0.934478759765625,-0.151611328125
20356,-0.1082000732421875,-0.934478759765625,-0.151611328125
20357,-0.1474761962890625,-0.8908843994140625,-0.174957275390625
20358,-0.19140625,-0.877838134765625,-0.1830902099609375
20359,-0.212005615234375,-0.8708648681640625,-0.1345062255859375
20360,-0.210845947265625,-0.861297607421875,-0.1281585693359375
20361,-0.21978759765625,-0.86614990234375,-0.198394775390625
20362,-0.2283782958984375,-0.9268035888671876,-0.1520233154296875
20363,-0.2028350830078125,-0.9130706787109376,-0.0879974365234375
20364,-0.1783294677734375,-0.92138671875,-0.1090087890625
20365,-0.155853271484375,-0.9487457275390624,-0.0851287841796875
20366,-0.137939453125,-0.9434814453125,-0.065032958984375
20367,-0.1319122314453125,-0.971649169921875,-0.076812744140625
20368,-0.11602783203125,-0.9766387939453124,-0.0723419189453125
20369,-0.0995635986328125,-0.9781341552734376,-0.0722198486328125
20370,-0.0882720947265625,-0.97833251953125,-0.073577880859375
20371,-0.076904296875,-0.9737548828125,-0.086334228515625
20372,-0.0639190673828125,-0.9771728515625,-0.0784454345703125
20373,-0.052978515625,-0.9703216552734376,-0.0838623046875
20374,-0.0489959716796875,-0.9800567626953124,-0.086395263671875
20375,-0.042999267578125,-0.9764251708984376,-0.0678558349609375
20376,-0.0394439697265625,-0.9756927490234376,-0.0754547119140625
20377,-0.0378875732421875,-0.981292724609375,-0.0597991943359375
20378,-0.0326080322265625,-0.9882049560546876,-0.0323028564453125
20379,-0.026580810546875,-1.003463745117188,-0.02679443359375
20380,-0.026580810546875,-1.003463745117188,-0.02679443359375
20381,-0.02587890625,-1.018356323242188,-0.0152435302734375
20382,-0.0341644287109375,-1.02685546875,0.0142059326171875
20383,-0.034210205078125,-1.023422241210938,0.007781982421875
20384,-0.0338592529296875,-1.026611328125,0.017547607421875
20385,-0.02752685546875,-1.019622802734375,0.0100860595703125
20386,-0.026214599609375,-1.016937255859375,0.0016021728515625
20387,-0.0311126708984375,-1.014373779296875,-0.0175628662109375
20388,-0.034210205078125,-1.005752563476562,-0.0328521728515625
20389,-0.0376739501953125,-0.993621826171875,-0.0333709716796875
20390,-0.046417236328125,-0.98333740234375,-0.040863037109375
20391,-0.0440521240234375,-0.96990966796875,-0.0545654296875
20392,-0.0443267822265625,-0.9595184326171876,-0.0374755859375
20393,-0.0559234619140625,-0.95501708984375,-0.022216796875
20394,-0.060577392578125,-0.9487457275390624,0.0083770751953125
20395,-0.076446533203125,-0.951171875,0.0377044677734375
20396,-0.0990447998046875,-0.9609375,0.0630035400390625
20397,-0.11602783203125,-0.973846435546875,0.0793914794921875
20398,-0.13287353515625,-0.9863433837890624,0.0785675048828125
20399,-0.1450347900390625,-1.003631591796875,0.0725250244140625
20400,-0.155029296875,-1.0157470703125,0.0538787841796875
20401,-0.167694091796875,-1.039993286132812,0.0247650146484375
20402,-0.1800384521484375,-1.066421508789062,-0.0193939208984375
20403,-0.19598388671875,-1.09320068359375,-0.08160400390625
20404,-0.223114013671875,-1.12554931640625,-0.1485137939453125
20405,-0.232086181640625,-1.140472412109375,-0.1901092529296875
20406,-0.20849609375,-1.139389038085938,-0.2134857177734375
20407,-0.1663360595703125,-1.12872314453125,-0.134765625
20408,-0.0935211181640625,-1.129074096679688,-0.0347900390625
20409,-0.0250091552734375,-1.13958740234375,0.0325927734375
20410,0.0241546630859375,-1.141754150390625,0.033477783203125
20411,0.055816650390625,-1.1558837890625,-0.002471923828125
20412,0.080413818359375,-1.159011840820312,-0.0675048828125
20413,0.0934906005859375,-1.137557983398438,-0.1432952880859375
20414,0.090484619140625,-1.108963012695312,-0.2294769287109375
20415,0.0663299560546875,-1.064376831054688,-0.30291748046875
20416,0.03778076171875,-0.9981536865234376,-0.3361053466796875
20417,0.0030059814453125,-0.9420928955078124,-0.317108154296875
20418,-0.027496337890625,-0.8928070068359375,-0.278839111328125
20419,-0.0211334228515625,-0.842041015625,-0.253875732421875
20420,0.0075225830078125,-0.810028076171875,-0.226348876953125
20421,0.03814697265625,-0.810638427734375,-0.2166290283203125
20422,0.0611114501953125,-0.8231201171875,-0.2105712890625
20423,0.0793914794921875,-0.8577423095703125,-0.18463134765625
20424,0.0869598388671875,-0.90203857421875,-0.146514892578125
20425,0.0840301513671875,-0.940826416015625,-0.11224365234375
20426,0.0694427490234375,-0.974151611328125,-0.0933074951171875
20427,0.0482940673828125,-0.9991302490234376,-0.1079864501953125
20428,0.0298919677734375,-1.005569458007812,-0.14068603515625
20429,0.0030364990234375,-0.9881591796875,-0.1548919677734375
20430,-0.0050201416015625,-1.028854370117188,-0.1280364990234375
20431,-0.01483154296875,-1.062454223632812,-0.08111572265625
20432,-0.030731201171875,-1.104095458984375,-0.0753631591796875
20433,-0.048583984375,-1.139373779296875,-0.088836669921875
20434,-0.0483856201171875,-1.143936157226562,-0.1341094970703125
20435,-0.0453033447265625,-1.138885498046875,-0.121490478515625
20436,-0.046417236328125,-1.115188598632812,-0.0857086181640625
20437,-0.03741455078125,-1.0758056640625,-0.0953826904296875
20438,-0.0232391357421875,-1.03887939453125,-0.1014862060546875
20439,-0.0005950927734375,-1.01092529296875,-0.0797271728515625
20440,0.0117034912109375,-0.9895782470703124,-0.05267333984375
20441,0.00762939453125,-0.970184326171875,-0.0468292236328125
20442,0.003448486328125,-0.9500885009765624,-0.0760040283203125
20443,-0.03070068359375,-0.909881591796875,-0.1141510009765625
20444,-0.03070068359375,-0.909881591796875,-0.1141510009765625
20445,-0.046630859375,-0.8969268798828125,-0.11090087890625
20446,-0.04315185546875,-0.921722412109375,-0.066314697265625
20447,-0.04315185546875,-0.921722412109375,-0.066314697265625
20448,-0.033294677734375,-0.9364013671875,-0.0416259765625
20449,-0.0282440185546875,-0.9524078369140624,-0.0359649658203125
20450,-0.0294647216796875,-0.9647216796875,-0.0423431396484375
20451,-0.0220947265625,-0.9835357666015624,-0.0535430908203125
20452,-0.0220947265625,-0.9835357666015624,-0.0535430908203125
20453,-0.0205230712890625,-0.996002197265625,-0.0543365478515625
20454,-0.0232391357421875,-1.00506591796875,-0.0512847900390625
20455,-0.02740478515625,-1.0177001953125,-0.041778564453125
20456,-0.038818359375,-1.026199340820312,-0.0298614501953125
20457,-0.048370361328125,-1.0350341796875,-0.02423095703125
20458,-0.059814453125,-1.0416259765625,-0.0098419189453125
20459,-0.067718505859375,-1.040496826171875,-0.001983642578125
20460,-0.0757904052734375,-1.03271484375,0.006256103515625
20461,-0.08123779296875,-1.018814086914062,0.0100555419921875
20462,-0.0845489501953125,-1.003189086914062,0.0137481689453125
20463,-0.091400146484375,-0.9918060302734376,0.0108795166015625
20464,-0.0926513671875,-0.988861083984375,-0.000335693359375
20465,-0.089324951171875,-0.9818115234375,-0.0075836181640625
20466,-0.077239990234375,-0.9788360595703124,-0.0243988037109375
20467,-0.0578155517578125,-0.9786376953125,-0.03521728515625
20468,-0.03082275390625,-0.984588623046875,-0.0364227294921875
20469,0.0018768310546875,-0.9849090576171876,-0.0332183837890625
20470,0.0339813232421875,-0.9887237548828124,-0.0348052978515625
20471,0.0616912841796875,-0.99127197265625,-0.0279541015625
20472,0.0871734619140625,-0.9984130859375,-0.0141143798828125
20473,0.1073455810546875,-1.008529663085938,-0.00433349609375
20474,0.0947113037109375,-1.021133422851562,-0.00341796875
20475,0.0947113037109375,-1.021133422851562,-0.00341796875
20476,0.0676116943359375,-1.026321411132812,-0.0071258544921875
20477,0.034881591796875,-1.03790283203125,-0.017791748046875
20478,0.0030975341796875,-1.057769775390625,-0.038482666015625
20479,-0.022613525390625,-1.071502685546875,-0.076385498046875
20480,-0.022613525390625,-1.071502685546875,-0.076385498046875
20481,-0.04248046875,-1.065277099609375,-0.110870361328125
20482,-0.0620269775390625,-1.037353515625,-0.1049652099609375
20483,-0.0594940185546875,-1.05816650390625,-0.100860595703125
20484,-0.0397796630859375,-1.07757568359375,-0.1205902099609375
20485,-0.023529052734375,-1.077499389648438,-0.1360321044921875
20486,-0.0171661376953125,-1.059768676757812,-0.1468505859375
20487,-0.03546142578125,-1.04498291015625,-0.1329193115234375
20488,-0.03546142578125,-1.04498291015625,-0.1329193115234375
20489,-0.0523529052734375,-1.030548095703125,-0.1142120361328125
20490,-0.0674591064453125,-1.023834228515625,-0.103240966796875
20491,-0.079925537109375,-1.008285522460938,-0.1033782958984375
20492,-0.090667724609375,-0.9856414794921876,-0.1037445068359375
20493,-0.0946197509765625,-0.9620361328125,-0.111663818359375
20494,-0.093017578125,-0.946868896484375,-0.1211395263671875
20495,-0.0897216796875,-0.9063262939453124,-0.14044189453125
20496,-0.0897216796875,-0.9063262939453124,-0.14044189453125
20497,-0.0884552001953125,-0.9024200439453124,-0.15386962890625
20498,-0.0882720947265625,-0.900665283203125,-0.1681976318359375
20499,-0.0887603759765625,-0.8974609375,-0.1781005859375
20500,-0.0897674560546875,-0.908721923828125,-0.1856231689453125
20501,-0.09454345703125,-0.9239654541015624,-0.1912078857421875
20502,-0.0858001708984375,-0.9424285888671876,-0.1825714111328125
20503,-0.0631103515625,-0.9578094482421876,-0.1753692626953125
20504,-0.0452117919921875,-0.9620361328125,-0.1671600341796875
20505,-0.0419158935546875,-0.9600830078125,-0.1609954833984375
20506,-0.048370361328125,-0.9614715576171876,-0.1555633544921875
20507,-0.0584259033203125,-0.966796875,-0.1477203369140625
20508,-0.0727386474609375,-0.9760894775390624,-0.142303466796875
20509,-0.089691162109375,-0.9800567626953124,-0.133697509765625
20510,-0.1074066162109375,-0.9815826416015624,-0.128814697265625
20511,-0.1418914794921875,-0.97918701171875,-0.13092041015625
20512,-0.1418914794921875,-0.97918701171875,-0.13092041015625
20513,-0.1529998779296875,-0.981536865234375,-0.1323394775390625
20514,-0.1575775146484375,-0.987762451171875,-0.136260986328125
20515,-0.1626129150390625,-0.994842529296875,-0.144622802734375
20516,-0.1678466796875,-1.003555297851562,-0.150543212890625
20517,-0.1731109619140625,-1.012680053710938,-0.1466522216796875
20518,-0.1765594482421875,-1.020156860351562,-0.14141845703125
20519,-0.17828369140625,-1.025222778320312,-0.1418609619140625
20520,-0.1749420166015625,-1.023162841796875,-0.1389312744140625
20521,-0.17608642578125,-1.022750854492188,-0.135772705078125
20522,-0.1749420166015625,-1.015609741210938,-0.13629150390625
20523,-0.17755126953125,-1.021377563476562,-0.1323699951171875
20524,-0.17755126953125,-1.021377563476562,-0.1323699951171875
20525,-0.1746368408203125,-1.018798828125,-0.132843017578125
20526,-0.1680450439453125,-1.009262084960938,-0.1343841552734375
20527,-0.1630706787109375,-0.9995880126953124,-0.140411376953125
20528,-0.161346435546875,-0.998626708984375,-0.1439208984375
20529,-0.162353515625,-1.005111694335938,-0.1503448486328125
20530,-0.16021728515625,-1.00653076171875,-0.15966796875
20531,-0.1564178466796875,-1.006500244140625,-0.17047119140625
20532,-0.1549072265625,-1.000350952148438,-0.17486572265625
20533,-0.1612396240234375,-0.990509033203125,-0.174652099609375
20534,-0.172515869140625,-0.979736328125,-0.1699066162109375
20535,-0.183990478515625,-0.96978759765625,-0.1699981689453125
20536,-0.19232177734375,-0.9634246826171876,-0.177154541015625
20537,-0.1910400390625,-0.9590301513671876,-0.18603515625
20538,-0.1809844970703125,-0.9538421630859376,-0.1990814208984375
20539,-0.1690673828125,-0.949615478515625,-0.2015380859375
20540,-0.1645355224609375,-0.9487762451171876,-0.194366455078125
20541,-0.1646575927734375,-0.9564361572265624,-0.1812896728515625
20542,-0.1645355224609375,-0.967803955078125,-0.164337158203125
20543,-0.1614837646484375,-0.98101806640625,-0.137237548828125
20544,-0.1555633544921875,-0.9945831298828124,-0.11798095703125
20545,-0.1538238525390625,-1.005599975585938,-0.1044158935546875
20546,-0.156829833984375,-1.017349243164062,-0.094879150390625
20547,-0.1605224609375,-1.024917602539062,-0.0974884033203125
20548,-0.1579437255859375,-1.023834228515625,-0.0998992919921875
20549,-0.15338134765625,-1.018814086914062,-0.1038970947265625
20550,-0.15380859375,-1.016799926757812,-0.096405029296875
20551,-0.15765380859375,-1.00830078125,-0.092987060546875
20552,-0.1615753173828125,-1.001571655273438,-0.082366943359375
20553,-0.1683197021484375,-0.992156982421875,-0.0801849365234375
20554,-0.1721343994140625,-0.9912567138671876,-0.0920257568359375
20555,-0.173553466796875,-0.98968505859375,-0.1013031005859375
20556,-0.1717376708984375,-1.001708984375,-0.1109466552734375
20557,-0.1697235107421875,-1.015243530273438,-0.1079559326171875
20558,-0.1687469482421875,-1.02471923828125,-0.1082916259765625
20559,-0.1538848876953125,-1.039627075195312,-0.08282470703125
20560,-0.1108245849609375,-1.049041748046875,-0.0579833984375
20561,-0.0659942626953125,-1.070144653320312,-0.02862548828125
20562,-0.0725860595703125,-1.105789184570312,-0.0023345947265625
20563,-0.0725860595703125,-1.105789184570312,-0.0023345947265625
20564,-0.081573486328125,-1.115524291992188,-0.0429534912109375
20565,-0.0924072265625,-1.115158081054688,-0.1075439453125
20566,-0.091217041015625,-1.065475463867188,-0.1573944091796875
20567,-0.077056884765625,-0.9842071533203124,-0.1489715576171875
20568,-0.0627593994140625,-0.92755126953125,-0.1390838623046875
20569,-0.0582275390625,-0.8877410888671875,-0.120635986328125
20570,-0.064544677734375,-0.8698272705078125,-0.096343994140625
20571,-0.0691986083984375,-0.8816070556640625,-0.080322265625
20572,-0.0753936767578125,-0.9039764404296876,-0.069244384765625
20573,-0.078460693359375,-0.9192962646484376,-0.062347412109375
20574,-0.0714111328125,-0.920379638671875,-0.0760955810546875
20575,-0.0673980712890625,-0.936767578125,-0.1046905517578125
20576,-0.072967529296875,-0.9570770263671876,-0.1322174072265625
20577,-0.0849151611328125,-0.980682373046875,-0.1317138671875
20578,-0.096923828125,-1.01287841796875,-0.1309051513671875
20579,-0.1163330078125,-1.032089233398438,-0.122650146484375
20580,-0.1163330078125,-1.032089233398438,-0.122650146484375
20581,-0.1625518798828125,-0.999114990234375,-0.11407470703125
20582,-0.173736572265625,-0.96868896484375,-0.0989837646484375
20583,-0.1711883544921875,-0.9512481689453124,-0.0877685546875
20584,-0.1609954833984375,-0.9507293701171876,-0.0745849609375
20585,-0.1359100341796875,-0.9614715576171876,-0.0597076416015625
20586,-0.108123779296875,-0.9615325927734376,-0.0426025390625
20587,-0.0750274658203125,-0.9614410400390624,-0.031280517578125
20588,-0.0432891845703125,-0.9630279541015624,-0.01751708984375
20589,-0.015869140625,-0.973602294921875,-0.0073699951171875
20590,-0.007293701171875,-0.9914703369140624,-0.002166748046875
20591,-0.007293701171875,-0.9914703369140624,-0.002166748046875
20592,-0.0183258056640625,-0.99884033203125,-0.00164794921875
20593,-0.0301055908203125,-1.002029418945312,-0.0014495849609375
20594,-0.0589447021484375,-1.0087890625,-0.01397705078125
20595,-0.0589447021484375,-1.0087890625,-0.01397705078125
20596,-0.07159423828125,-1.008941650390625,-0.027587890625
20597,-0.0794830322265625,-1.009689331054688,-0.0337677001953125
20598,-0.085052490234375,-1.00982666015625,-0.031280517578125
20599,-0.0787200927734375,-1.003097534179688,-0.0400543212890625
20600,-0.07135009765625,-0.9981689453125,-0.04302978515625
20601,-0.0727081298828125,-0.99542236328125,-0.0456695556640625
20602,-0.077606201171875,-0.9955596923828124,-0.0540618896484375
20603,-0.07952880859375,-0.9990081787109376,-0.0550384521484375
20604,-0.07965087890625,-1.002883911132812,-0.05804443359375
20605,-0.077850341796875,-1.008102416992188,-0.06103515625
20606,-0.0687713623046875,-1.0113525390625,-0.060089111328125
20607,-0.0590362548828125,-1.017181396484375,-0.063385009765625
20608,-0.049285888671875,-1.02099609375,-0.062408447265625
20609,-0.042144775390625,-1.022705078125,-0.06011962890625
20610,-0.0395965576171875,-1.019439697265625,-0.0565338134765625
20611,-0.03875732421875,-1.016983032226562,-0.045745849609375
20612,-0.0439453125,-1.015274047851562,-0.03411865234375
20613,-0.04931640625,-1.018417358398438,-0.027557373046875
20614,-0.054534912109375,-1.017654418945312,-0.020111083984375
20615,-0.058074951171875,-1.018356323242188,-0.0154876708984375
20616,-0.0603179931640625,-1.01171875,-0.017242431640625
20617,-0.0589599609375,-1.00640869140625,-0.02325439453125
20618,-0.057861328125,-1.00164794921875,-0.034454345703125
20619,-0.05401611328125,-0.998931884765625,-0.0413818359375
20620,-0.0471649169921875,-0.9969635009765624,-0.0423431396484375
20621,-0.0385589599609375,-0.9998779296875,-0.0435638427734375
20622,-0.03240966796875,-1.004562377929688,-0.04437255859375
20623,-0.031707763671875,-1.006607055664062,-0.0499420166015625
20624,-0.031402587890625,-1.004547119140625,-0.053131103515625
20625,-0.03643798828125,-1.009384155273438,-0.0545501708984375
20626,-0.040924072265625,-1.0142822265625,-0.05145263671875
20627,-0.04437255859375,-1.01287841796875,-0.0507354736328125
20628,-0.0464630126953125,-1.009490966796875,-0.0505828857421875
20629,-0.0489044189453125,-1.004562377929688,-0.0496063232421875
20630,-0.0517730712890625,-0.9999847412109376,-0.047210693359375
20631,-0.052032470703125,-0.9971160888671876,-0.0443115234375
20632,-0.0535736083984375,-0.997894287109375,-0.0412139892578125
20633,-0.056884765625,-0.998809814453125,-0.04229736328125
20634,-0.0599212646484375,-0.997406005859375,-0.043487548828125
20635,-0.0597991943359375,-0.99810791015625,-0.045257568359375
20636,-0.06048583984375,-0.9998626708984376,-0.0463104248046875
20637,-0.0617523193359375,-1.00018310546875,-0.0514678955078125
20638,-0.06182861328125,-0.9996490478515624,-0.05438232421875
20639,-0.06207275390625,-0.9990386962890624,-0.05743408203125
20640,-0.0618438720703125,-0.9976348876953124,-0.06121826171875
20641,-0.0626068115234375,-0.9965362548828124,-0.06195068359375
20642,-0.0641326904296875,-0.99578857421875,-0.06085205078125
20643,-0.0667266845703125,-0.99542236328125,-0.059539794921875
20644,-0.0696868896484375,-0.9950714111328124,-0.0565032958984375
20645,-0.0724334716796875,-0.9971923828125,-0.054473876953125
20646,-0.0737152099609375,-1.00048828125,-0.0527801513671875
20647,-0.07354736328125,-1.0028076171875,-0.0507965087890625
20648,-0.07354736328125,-1.0028076171875,-0.0507965087890625
20649,-0.070648193359375,-1.005615234375,-0.0509033203125
20650,-0.0704803466796875,-1.006790161132812,-0.0517730712890625
20651,-0.071563720703125,-1.008575439453125,-0.05242919921875
20652,-0.070343017578125,-1.00811767578125,-0.0516357421875
20653,-0.0695953369140625,-1.00823974609375,-0.0501708984375
20654,-0.06719970703125,-1.011444091796875,-0.0486907958984375
20655,-0.065673828125,-1.011993408203125,-0.043060302734375
20656,-0.06842041015625,-1.008026123046875,-0.0438232421875
20657,-0.0718536376953125,-1.002853393554688,-0.044219970703125
20658,-0.0771484375,-0.999725341796875,-0.041656494140625
20659,-0.0769195556640625,-1.000152587890625,-0.0402374267578125
20660,-0.0758819580078125,-1.000869750976562,-0.0422210693359375
20661,-0.0756378173828125,-1.000808715820312,-0.042724609375
20662,-0.073944091796875,-1.002151489257812,-0.0465850830078125
20663,-0.073944091796875,-1.002151489257812,-0.0465850830078125
20664,-0.0741729736328125,-1.00384521484375,-0.047576904296875
20665,-0.07537841796875,-1.005569458007812,-0.04718017578125
20666,-0.077850341796875,-1.005126953125,-0.0433197021484375
20667,-0.077850341796875,-1.005126953125,-0.0433197021484375
20668,-0.0782623291015625,-1.00439453125,-0.044281005859375
20669,-0.0772857666015625,-1.00390625,-0.042236328125
20670,-0.0784149169921875,-1.00341796875,-0.039825439453125
20671,-0.0808258056640625,-1.00152587890625,-0.0403594970703125
20672,-0.081512451171875,-1.005722045898438,-0.035888671875
20673,-0.0823974609375,-1.006484985351562,-0.0328826904296875
20674,-0.0829315185546875,-1.005355834960938,-0.033233642578125
20675,-0.08203125,-1.00543212890625,-0.0311279296875
20676,-0.0799407958984375,-1.003631591796875,-0.03204345703125
20677,-0.07958984375,-1.003768920898438,-0.0335235595703125
20678,-0.07843017578125,-1.001739501953125,-0.0348052978515625
20679,-0.0759735107421875,-1.00146484375,-0.0346832275390625
20680,-0.0765838623046875,-0.999420166015625,-0.0339813232421875
20681,-0.0776824951171875,-1.000518798828125,-0.03546142578125
20682,-0.0774383544921875,-0.9972991943359376,-0.0361480712890625
20683,-0.0774383544921875,-0.9972991943359376,-0.0361480712890625
20684,-0.079345703125,-0.9948272705078124,-0.0365142822265625
20685,-0.08209228515625,-0.9943695068359376,-0.0372772216796875
20686,-0.0839385986328125,-0.9964599609375,-0.0361480712890625
20687,-0.0844879150390625,-0.9961700439453124,-0.037322998046875
20688,-0.084075927734375,-0.995452880859375,-0.0397491455078125
20689,-0.084808349609375,-0.995880126953125,-0.0416107177734375
20690,-0.0850830078125,-0.9964141845703124,-0.0426483154296875
20691,-0.086029052734375,-0.997802734375,-0.042999267578125
20692,-0.0858001708984375,-0.9994049072265624,-0.0449981689453125
20693,-0.08404541015625,-0.998199462890625,-0.044952392578125
20694,-0.0845489501953125,-0.9998931884765624,-0.039642333984375
20695,-0.0845489501953125,-0.9998931884765624,-0.039642333984375
20696,-0.0835723876953125,-0.9997711181640624,-0.0384063720703125
20697,-0.0815887451171875,-0.9996185302734376,-0.038238525390625
20698,-0.080902099609375,-0.9984588623046876,-0.0392303466796875
20699,-0.08074951171875,-0.9988250732421876,-0.0404052734375
20700,-0.082122802734375,-0.9989013671875,-0.0399017333984375
20701,-0.083221435546875,-1.000259399414062,-0.0386505126953125
20702,-0.0845184326171875,-0.998260498046875,-0.0379486083984375
20703,-0.0849609375,-0.9973602294921876,-0.0382080078125
20704,-0.083465576171875,-0.9990997314453124,-0.0394134521484375
20705,-0.0817108154296875,-0.9974365234375,-0.0401611328125
20706,-0.08026123046875,-0.997100830078125,-0.04132080078125
20707,-0.0790557861328125,-0.99755859375,-0.0419158935546875
20708,-0.0760040283203125,-0.9990234375,-0.043365478515625
20709,-0.075714111328125,-0.99957275390625,-0.043548583984375
20710,-0.0770263671875,-1.000198364257812,-0.042266845703125
20711,-0.078216552734375,-1.001358032226562,-0.0432281494140625
20712,-0.0784149169921875,-0.999969482421875,-0.043853759765625
20713,-0.0785064697265625,-1.000320434570312,-0.0424957275390625
20714,-0.0789947509765625,-0.9997100830078124,-0.04083251953125
20715,-0.079132080078125,-1.000961303710938,-0.0404052734375
20716,-0.078857421875,-1.002944946289062,-0.0382537841796875
20717,-0.0779571533203125,-1.003372192382812,-0.0368499755859375
20718,-0.078216552734375,-1.00390625,-0.0374908447265625
20719,-0.0775299072265625,-1.001922607421875,-0.0389862060546875
20720,-0.0755462646484375,-0.999725341796875,-0.0408172607421875
20721,-0.073486328125,-1.00177001953125,-0.0409393310546875
20722,-0.0705108642578125,-1.003921508789062,-0.0393829345703125
20723,-0.0682830810546875,-1.004791259765625,-0.03729248046875
20724,-0.0693817138671875,-1.007247924804688,-0.036407470703125
20725,-0.07025146484375,-1.0057373046875,-0.0352630615234375
20726,-0.0729522705078125,-1.001953125,-0.039306640625
20727,-0.0729522705078125,-1.001953125,-0.039306640625
20728,-0.0750885009765625,-1.001968383789062,-0.0407867431640625
20729,-0.0759735107421875,-1.002471923828125,-0.0391082763671875
20730,-0.0761871337890625,-1.001068115234375,-0.0399322509765625
20731,-0.0772552490234375,-0.9998931884765624,-0.041656494140625
20732,-0.079010009765625,-1.00128173828125,-0.04144287109375
20733,-0.0799560546875,-1.001998901367188,-0.04022216796875
20734,-0.0807647705078125,-1.002426147460938,-0.0393218994140625
20735,-0.0803985595703125,-1.00030517578125,-0.0409088134765625
20736,-0.0799713134765625,-0.99932861328125,-0.0400848388671875
20737,-0.0800933837890625,-0.999786376953125,-0.0365753173828125
20738,-0.0805206298828125,-1.003036499023438,-0.0358123779296875
20739,-0.078887939453125,-1.00299072265625,-0.034210205078125
20740,-0.078460693359375,-1.00372314453125,-0.032928466796875
20741,-0.08099365234375,-1.004776000976562,-0.0352783203125
20742,-0.0824432373046875,-1.003860473632812,-0.0371551513671875
20743,-0.08349609375,-1.002899169921875,-0.0403900146484375
20744,-0.0822296142578125,-1.001220703125,-0.0423126220703125
20745,-0.0804443359375,-1.000091552734375,-0.0427398681640625
20746,-0.080810546875,-1.00244140625,-0.0408935546875
20747,-0.0797882080078125,-1.003509521484375,-0.03717041015625
20748,-0.0796356201171875,-1.000228881835938,-0.0365447998046875
20749,-0.0810699462890625,-0.9983367919921876,-0.0391082763671875
20750,-0.08123779296875,-0.9977874755859376,-0.039764404296875
20751,-0.080535888671875,-0.9991455078125,-0.0387420654296875
20752,-0.081390380859375,-0.999847412109375,-0.0375213623046875
20753,-0.0808258056640625,-0.9996337890625,-0.038238525390625
20754,-0.08135986328125,-1.001113891601562,-0.0396270751953125
20755,-0.08148193359375,-1.001205444335938,-0.0411224365234375
20756,-0.081573486328125,-1.000396728515625,-0.042755126953125
20757,-0.08355712890625,-1.001144409179688,-0.0418548583984375
20758,-0.0835418701171875,-1.001449584960938,-0.04156494140625
20759,-0.083892822265625,-1.000961303710938,-0.041961669921875
20760,-0.0840911865234375,-1.000717163085938,-0.042266845703125
20761,-0.0834503173828125,-1.00103759765625,-0.042327880859375
20762,-0.082305908203125,-1.000244140625,-0.041534423828125
20763,-0.08258056640625,-1.000885009765625,-0.0404205322265625
20764,-0.08258056640625,-1.000885009765625,-0.0404205322265625
20765,-0.081756591796875,-1.000259399414062,-0.04193115234375
20766,-0.08160400390625,-0.9989166259765624,-0.04302978515625
20767,-0.081878662109375,-0.999298095703125,-0.0454559326171875
20768,-0.081878662109375,-0.999298095703125,-0.0454559326171875
20769,-0.0810394287109375,-1.00103759765625,-0.045806884765625
20770,-0.0818328857421875,-1.000701904296875,-0.0439910888671875
20771,-0.082000732421875,-1.001205444335938,-0.04241943359375
20772,-0.0828857421875,-1.00079345703125,-0.04290771484375
20773,-0.083465576171875,-1.000106811523438,-0.044036865234375
20774,-0.083221435546875,-1.000869750976562,-0.0444793701171875
20775,-0.083221435546875,-1.000869750976562,-0.0444793701171875
20776,-0.083038330078125,-0.999908447265625,-0.044677734375
20777,-0.082550048828125,-0.9998626708984376,-0.04449462890625
20778,-0.0818634033203125,-0.9990081787109376,-0.045166015625
20779,-0.0807952880859375,-0.9997100830078124,-0.0438385009765625
20780,-0.0793914794921875,-1.001068115234375,-0.0436859130859375
20781,-0.0795135498046875,-1.00164794921875,-0.043060302734375
20782,-0.080413818359375,-1.001022338867188,-0.042755126953125
20783,-0.08050537109375,-1.0008544921875,-0.0432281494140625
20784,-0.0809326171875,-1.001495361328125,-0.044097900390625
20785,-0.0814666748046875,-1.0003662109375,-0.0453338623046875
20786,-0.08392333984375,-1.00018310546875,-0.0465545654296875
20787,-0.08392333984375,-1.00018310546875,-0.0465545654296875
20788,-0.0843963623046875,-1.000534057617188,-0.046295166015625
20789,-0.0839691162109375,-1.000167846679688,-0.04425048828125
20790,-0.084320068359375,-1.0013427734375,-0.044525146484375
20791,-0.083740234375,-1.001129150390625,-0.0455780029296875
20792,-0.084075927734375,-1.001388549804688,-0.04681396484375
20793,-0.0835723876953125,-0.9986724853515624,-0.0491180419921875
20794,-0.0830230712890625,-0.99798583984375,-0.0478363037109375
20795,-0.0830230712890625,-0.99798583984375,-0.0478363037109375
20796,-0.0808563232421875,-1.00115966796875,-0.0438690185546875
20797,-0.0811614990234375,-1.00286865234375,-0.0440521240234375
20798,-0.0841064453125,-1.004348754882812,-0.0446014404296875
20799,-0.082427978515625,-1.00244140625,-0.0448760986328125
20800,-0.082427978515625,-1.00244140625,-0.0448760986328125
20801,-0.0836029052734375,-1.003067016601562,-0.045257568359375
20802,-0.0811004638671875,-1.003036499023438,-0.0448760986328125
20803,-0.0811004638671875,-1.003036499023438,-0.0448760986328125
20804,-0.0825347900390625,-1.001419067382812,-0.0474395751953125
20805,-0.08526611328125,-1.004776000976562,-0.0466156005859375
20806,-0.0877532958984375,-1.009567260742188,-0.0391845703125
20807,-0.0877532958984375,-1.009567260742188,-0.0391845703125
20808,-0.089813232421875,-1.009262084960938,-0.039276123046875
20809,-0.08935546875,-1.007431030273438,-0.043365478515625
20810,-0.086883544921875,-1.00341796875,-0.0465087890625
20811,-0.086883544921875,-1.00341796875,-0.0465087890625
20812,-0.085662841796875,-1.00469970703125,-0.048004150390625
20813,-0.0872344970703125,-1.007369995117188,-0.0420379638671875
20814,-0.0946502685546875,-1.002960205078125,-0.0299224853515625
20815,-0.0946502685546875,-1.002960205078125,-0.0299224853515625
20816,-0.093536376953125,-0.996978759765625,-0.0286712646484375
20817,-0.0882415771484375,-0.993865966796875,-0.0306854248046875
20818,-0.08209228515625,-0.9962158203125,-0.03424072265625
20819,-0.07574462890625,-1.0008544921875,-0.042327880859375
20820,-0.06927490234375,-1.006546020507812,-0.052001953125
20821,-0.0682830810546875,-1.007080078125,-0.0578155517578125
20822,-0.072967529296875,-1.005783081054688,-0.0611724853515625
20823,-0.072967529296875,-1.005783081054688,-0.0611724853515625
20824,-0.077117919921875,-1.004470825195312,-0.057098388671875
20825,-0.08087158203125,-1.000335693359375,-0.0511627197265625
20826,-0.083099365234375,-0.9965972900390624,-0.04443359375
20827,-0.0818328857421875,-0.9961700439453124,-0.0425262451171875
20828,-0.0816192626953125,-0.9958953857421876,-0.041412353515625
20829,-0.0810089111328125,-0.9957733154296876,-0.04193115234375
20830,-0.0808563232421875,-0.9961700439453124,-0.042022705078125
20831,-0.078948974609375,-0.99810791015625,-0.040283203125
20832,-0.07763671875,-0.9983673095703124,-0.0398406982421875
20833,-0.0785064697265625,-0.9998321533203124,-0.0395050048828125
20834,-0.08251953125,-1.001693725585938,-0.040252685546875
20835,-0.08251953125,-1.001693725585938,-0.040252685546875
20836,-0.0834197998046875,-1.001022338867188,-0.03948974609375
20837,-0.0847625732421875,-1.003250122070312,-0.039642333984375
20838,-0.08441162109375,-1.004684448242188,-0.0383453369140625
20839,-0.08441162109375,-1.004684448242188,-0.0383453369140625
20840,-0.08526611328125,-1.003768920898438,-0.03778076171875
20841,-0.0847015380859375,-1.002593994140625,-0.0384979248046875
20842,-0.082855224609375,-1.000946044921875,-0.0377197265625
20843,-0.082855224609375,-1.000946044921875,-0.0377197265625
20844,-0.082366943359375,-1.000274658203125,-0.0395965576171875
20845,-0.0830230712890625,-0.998077392578125,-0.041015625
20846,-0.082489013671875,-0.9979400634765624,-0.0412139892578125
20847,-0.0814971923828125,-0.99786376953125,-0.0405426025390625
20848,-0.0806427001953125,-0.999786376953125,-0.03851318359375
20849,-0.082366943359375,-0.9996185302734376,-0.0382232666015625
20850,-0.0829010009765625,-0.999176025390625,-0.0379791259765625
20851,-0.081451416015625,-1.000045776367188,-0.0373077392578125
20852,-0.0802459716796875,-0.9991607666015624,-0.036895751953125
20853,-0.080291748046875,-0.999176025390625,-0.039154052734375
20854,-0.080322265625,-0.999908447265625,-0.0396881103515625
20855,-0.080047607421875,-1.000091552734375,-0.0391082763671875
20856,-0.080657958984375,-1.0001220703125,-0.038116455078125
20857,-0.0826873779296875,-0.9990386962890624,-0.038330078125
20858,-0.0828704833984375,-0.9989776611328124,-0.0379180908203125
20859,-0.0810546875,-1.000869750976562,-0.039520263671875
20860,-0.0813140869140625,-1.003143310546875,-0.0399627685546875
20861,-0.0818939208984375,-1.004669189453125,-0.041168212890625
20862,-0.0826568603515625,-1.0052490234375,-0.03924560546875
20863,-0.0848541259765625,-1.00628662109375,-0.037994384765625
20864,-0.08697509765625,-1.004653930664062,-0.0361480712890625
20865,-0.0882568359375,-1.001876831054688,-0.0343170166015625
20866,-0.0883331298828125,-0.9992523193359376,-0.030303955078125
20867,-0.089111328125,-0.9966583251953124,-0.026214599609375
20868,-0.0904693603515625,-0.99200439453125,-0.0250396728515625
20869,-0.0914459228515625,-0.9903411865234376,-0.026214599609375
20870,-0.0896759033203125,-0.9903106689453124,-0.0276947021484375
20871,-0.0896759033203125,-0.9903106689453124,-0.0276947021484375
20872,-0.0893402099609375,-0.990264892578125,-0.030731201171875
20873,-0.0898590087890625,-0.990631103515625,-0.034515380859375
20874,-0.08868408203125,-0.9910125732421876,-0.034912109375
20875,-0.088409423828125,-0.995697021484375,-0.0345306396484375
20876,-0.088409423828125,-0.995697021484375,-0.0345306396484375
20877,-0.0889434814453125,-0.9972991943359376,-0.03515625
20878,-0.0894927978515625,-0.99749755859375,-0.0320587158203125
20879,-0.090545654296875,-0.9996337890625,-0.029693603515625
20880,-0.090545654296875,-0.9996337890625,-0.029693603515625
20881,-0.0908966064453125,-0.99945068359375,-0.0301055908203125
20882,-0.091888427734375,-1.000335693359375,-0.02874755859375
20883,-0.092193603515625,-0.9998321533203124,-0.0287628173828125
20884,-0.0925750732421875,-1.000137329101562,-0.027557373046875
20885,-0.0918426513671875,-1.000991821289062,-0.0299835205078125
20886,-0.0898590087890625,-1.002975463867188,-0.031829833984375
20887,-0.0898590087890625,-1.002975463867188,-0.031829833984375
20888,-0.0883941650390625,-1.002365112304688,-0.0333404541015625
20889,-0.0869293212890625,-1.001953125,-0.0326080322265625
20890,-0.0863037109375,-1.004440307617188,-0.031982421875
20891,-0.0863037109375,-1.004440307617188,-0.031982421875
20892,-0.0852203369140625,-1.004928588867188,-0.03125
20893,-0.085784912109375,-1.005218505859375,-0.027984619140625
20894,-0.0862274169921875,-1.007034301757812,-0.0265655517578125
20895,-0.0853729248046875,-1.006973266601562,-0.02825927734375
20896,-0.083984375,-1.00494384765625,-0.0278472900390625
20897,-0.08526611328125,-1.008468627929688,-0.0283050537109375
20898,-0.0847320556640625,-1.005813598632812,-0.0292510986328125
20899,-0.0845184326171875,-1.004867553710938,-0.0284881591796875
20900,-0.0845184326171875,-1.004867553710938,-0.0284881591796875
20901,-0.08392333984375,-1.002517700195312,-0.02960205078125
20902,-0.082550048828125,-1.002105712890625,-0.0301513671875
20903,-0.0828704833984375,-1.001571655273438,-0.0294647216796875
20904,-0.0828704833984375,-1.001571655273438,-0.0294647216796875
20905,-0.08062744140625,-1.00164794921875,-0.030242919921875
20906,-0.083282470703125,-1.001708984375,-0.032257080078125
20907,-0.083282470703125,-1.001708984375,-0.032257080078125
20908,-0.0845184326171875,-1.002243041992188,-0.03228759765625
20909,-0.08538818359375,-1.002151489257812,-0.0315399169921875
20910,-0.083953857421875,-1.004150390625,-0.0311431884765625
20911,-0.083953857421875,-1.004150390625,-0.0311431884765625
20912,-0.0833587646484375,-1.002899169921875,-0.030059814453125
20913,-0.0828704833984375,-1.001373291015625,-0.031585693359375
20914,-0.0824737548828125,-1.003433227539062,-0.031951904296875
20915,-0.0824737548828125,-1.003433227539062,-0.031951904296875
20916,-0.0817718505859375,-1.003067016601562,-0.0307464599609375
20917,-0.0823211669921875,-1.00164794921875,-0.0336761474609375
20918,-0.082916259765625,-1.001205444335938,-0.0326690673828125
20919,-0.082916259765625,-1.001205444335938,-0.0326690673828125
20920,-0.0836944580078125,-1.001296997070312,-0.0308685302734375
20921,-0.0824127197265625,-0.9999542236328124,-0.0294189453125
20922,-0.08209228515625,-1.001022338867188,-0.030364990234375
20923,-0.08209228515625,-1.001022338867188,-0.030364990234375
20924,-0.082305908203125,-1.000808715820312,-0.0303955078125
20925,-0.0812835693359375,-1.002731323242188,-0.030670166015625
20926,-0.081451416015625,-1.004241943359375,-0.031829833984375
20927,-0.081451416015625,-1.004241943359375,-0.031829833984375
20928,-0.08038330078125,-1.004013061523438,-0.0335693359375
20929,-0.0797882080078125,-1.004257202148438,-0.034759521484375
20930,-0.0797271728515625,-1.0037841796875,-0.034515380859375
20931,-0.0797271728515625,-1.0037841796875,-0.034515380859375
20932,-0.0805511474609375,-1.004104614257812,-0.0354766845703125
20933,-0.081329345703125,-1.003265380859375,-0.035552978515625
20934,-0.0805206298828125,-1.001876831054688,-0.034759521484375
20935,-0.0805206298828125,-1.001876831054688,-0.034759521484375
20936,-0.0804595947265625,-1.0020751953125,-0.0331878662109375
20937,-0.0807647705078125,-0.999725341796875,-0.0332794189453125
20938,-0.0807037353515625,-0.99920654296875,-0.0308837890625
20939,-0.0807037353515625,-0.99920654296875,-0.0308837890625
20940,-0.0810394287109375,-0.9997406005859376,-0.030853271484375
20941,-0.08062744140625,-1.00128173828125,-0.0300445556640625
20942,-0.0825347900390625,-0.999481201171875,-0.0340118408203125
20943,-0.0825347900390625,-0.999481201171875,-0.0340118408203125
20944,-0.0831756591796875,-1.000213623046875,-0.0346221923828125
20945,-0.0832061767578125,-1.002090454101562,-0.0330047607421875
20946,-0.0838623046875,-1.001800537109375,-0.03314208984375
20947,-0.0830535888671875,-1.002349853515625,-0.0321197509765625
20948,-0.0823822021484375,-1.001632690429688,-0.03173828125
20949,-0.0832672119140625,-1.001754760742188,-0.0317535400390625
20950,-0.0837249755859375,-1.001602172851562,-0.030303955078125
20951,-0.0837249755859375,-1.001602172851562,-0.030303955078125
20952,-0.083465576171875,-1.00164794921875,-0.0301055908203125
20953,-0.0841827392578125,-1.00103759765625,-0.0304107666015625
20954,-0.0828399658203125,-1.000106811523438,-0.0266571044921875
20955,-0.0828399658203125,-1.000106811523438,-0.0266571044921875
20956,-0.0819549560546875,-1.000717163085938,-0.0272979736328125
20957,-0.08197021484375,-0.99981689453125,-0.0282745361328125
20958,-0.08294677734375,-0.9986419677734376,-0.0280303955078125
20959,-0.08294677734375,-0.9986419677734376,-0.0280303955078125
20960,-0.081512451171875,-0.9999237060546876,-0.0275421142578125
20961,-0.0817718505859375,-1.0018310546875,-0.0277099609375
20962,-0.0830535888671875,-1.003631591796875,-0.0277099609375
20963,-0.0830535888671875,-1.003631591796875,-0.0277099609375
20964,-0.0832977294921875,-1.002731323242188,-0.0292816162109375
20965,-0.084228515625,-1.002365112304688,-0.0293426513671875
20966,-0.0850677490234375,-1.001800537109375,-0.030975341796875
20967,-0.0850677490234375,-1.001800537109375,-0.030975341796875
20968,-0.08428955078125,-1.003097534179688,-0.0303802490234375
20969,-0.0835113525390625,-1.002914428710938,-0.02862548828125
20970,-0.082427978515625,-1.001510620117188,-0.0298309326171875
20971,-0.082427978515625,-1.001510620117188,-0.0298309326171875
20972,-0.0810394287109375,-1.0015869140625,-0.030120849609375
20973,-0.0816497802734375,-1.0032958984375,-0.0290374755859375
20974,-0.0811614990234375,-1.00384521484375,-0.0282440185546875
20975,-0.0811614990234375,-1.00384521484375,-0.0282440185546875
20976,-0.079345703125,-1.003387451171875,-0.0288543701171875
20977,-0.0790557861328125,-1.00299072265625,-0.029144287109375
20978,-0.0798492431640625,-0.9954376220703124,-0.02996826171875
20979,-0.0807647705078125,-0.9970703125,-0.0314483642578125
20980,-0.0807647705078125,-0.9970703125,-0.0314483642578125
20981,-0.0807647705078125,-0.9970703125,-0.0314483642578125
20982,-0.0811614990234375,-0.9990997314453124,-0.0340728759765625
20983,-0.081878662109375,-1.000762939453125,-0.033050537109375
20984,-0.0810394287109375,-1.005447387695312,-0.027435302734375
20985,-0.08184814453125,-1.011322021484375,-0.0210113525390625
20986,-0.072540283203125,-1.019927978515625,-0.0307769775390625
20987,-0.072540283203125,-1.019927978515625,-0.0307769775390625
20988,-0.0583953857421875,-1.020965576171875,-0.042510986328125
20989,-0.044769287109375,-1.018997192382812,-0.0586700439453125
20990,-0.01934814453125,-1.045394897460938,-0.0637054443359375
20991,-0.01934814453125,-1.045394897460938,-0.0637054443359375
20992,-0.00390625,-1.053756713867188,-0.05902099609375
20993,0.0147247314453125,-1.052658081054688,-0.0606842041015625
20994,0.0289154052734375,-1.048675537109375,-0.057525634765625
20995,0.049713134765625,-1.03582763671875,-0.0390167236328125
20996,0.0691986083984375,-1.015090942382812,-0.012786865234375
20997,0.081451416015625,-0.994384765625,-0.0147247314453125
20998,0.074066162109375,-0.9380950927734376,-0.0615386962890625
20999,0.074066162109375,-0.9380950927734376,-0.0615386962890625
21000,0.058441162109375,-0.9073486328125,-0.079803466796875
21001,0.04119873046875,-0.878631591796875,-0.072784423828125
21002,0.02386474609375,-0.8623046875,-0.041534423828125
21003,-0.000885009765625,-0.853240966796875,0.006134033203125
21004,-0.0263824462890625,-0.862152099609375,0.0471649169921875
21005,-0.0494384765625,-0.8778839111328125,0.071136474609375
21006,-0.0580596923828125,-0.900909423828125,0.0717010498046875
21007,-0.0580596923828125,-0.900909423828125,0.0717010498046875
21008,-0.0595703125,-0.93927001953125,-0.0146331787109375
21009,-0.039581298828125,-0.987884521484375,-0.0194244384765625
21010,0.0111846923828125,-1.046005249023438,0.0111236572265625
21011,0.0111846923828125,-1.046005249023438,0.0111236572265625
21012,0.015625,-1.05780029296875,-0.0133819580078125
21013,0.0159149169921875,-1.067977905273438,-0.0030364990234375
21014,0.023223876953125,-1.085220336914062,0.030670166015625
21015,0.023223876953125,-1.085220336914062,0.030670166015625
21016,0.0267486572265625,-1.088058471679688,0.0424652099609375
21017,0.0258941650390625,-1.08453369140625,0.06494140625
21018,0.00799560546875,-1.082839965820312,0.0561065673828125
21019,0.00799560546875,-1.082839965820312,0.0561065673828125
21020,0.0048065185546875,-1.071243286132812,-0.047088623046875
21021,-0.028076171875,-1.063064575195312,-0.156158447265625
21022,0.0503387451171875,-1.026947021484375,0.24090576171875
21023,0.0503387451171875,-1.026947021484375,0.24090576171875
21024,0.054107666015625,-0.985015869140625,0.132659912109375
21025,0.03118896484375,-0.9768218994140624,0.0746612548828125
21026,0.06365966796875,-0.982666015625,0.084564208984375
21027,0.103607177734375,-0.9692840576171876,0.0592041015625
21028,0.1052093505859375,-0.9640045166015624,0.021453857421875
21029,0.1102752685546875,-0.9451141357421876,0.0506134033203125
21030,0.1118927001953125,-0.955047607421875,0.0050201416015625
21031,0.109375,-0.970062255859375,0.035125732421875
21032,0.109375,-0.970062255859375,0.035125732421875
21033,0.1094970703125,-0.96661376953125,0.0578765869140625
21034,0.1137847900390625,-0.9827728271484376,0.06549072265625
21035,0.1212615966796875,-1.001495361328125,0.08544921875
21036,0.12835693359375,-1.004241943359375,0.0930023193359375
21037,0.1305084228515625,-1.002197265625,0.0879058837890625
21038,0.1289825439453125,-1.009567260742188,0.0859832763671875
21039,0.1289825439453125,-1.009567260742188,0.0859832763671875
21040,0.1205291748046875,-1.017654418945312,0.0655364990234375
21041,0.11529541015625,-1.021560668945312,0.0567169189453125
21042,0.120819091796875,-1.025741577148438,0.06854248046875
21043,0.120819091796875,-1.025741577148438,0.06854248046875
21044,0.13165283203125,-1.034164428710938,0.066314697265625
21045,0.1380462646484375,-1.046142578125,0.06121826171875
21046,0.12371826171875,-1.085586547851562,0.046112060546875
21047,0.12371826171875,-1.085586547851562,0.046112060546875
21048,0.109344482421875,-1.112106323242188,0.025421142578125
21049,0.0845184326171875,-1.126113891601562,-0.0053253173828125
21050,0.0257568359375,-1.096282958984375,-0.053466796875
21051,0.0257568359375,-1.096282958984375,-0.053466796875
21052,0.0088348388671875,-1.06396484375,-0.0675811767578125
21053,-0.0214691162109375,-1.008438110351562,-0.0650787353515625
21054,-0.0433349609375,-0.9591217041015624,-0.0681304931640625
21055,-0.0433349609375,-0.9591217041015624,-0.0681304931640625
21056,-0.0538177490234375,-0.9510498046875,-0.073150634765625
21057,-0.0564727783203125,-0.9447021484375,-0.091156005859375
21058,-0.0075225830078125,-0.9325408935546876,-0.107879638671875
21059,-0.0075225830078125,-0.9325408935546876,-0.107879638671875
21060,0.015655517578125,-0.9400787353515624,-0.11553955078125
21061,0.047393798828125,-0.9411468505859376,-0.132598876953125
21062,0.0773162841796875,-0.9722747802734376,-0.18450927734375
21063,0.0773162841796875,-0.9722747802734376,-0.18450927734375
21064,0.0663909912109375,-0.9960479736328124,-0.185211181640625
21065,0.0484161376953125,-1.014068603515625,-0.1702423095703125
21066,0.022705078125,-1.020492553710938,-0.1548919677734375
21067,-0.0141448974609375,-1.01959228515625,-0.1383056640625
21068,-0.0540924072265625,-1.022994995117188,-0.1416015625
21069,-0.0881805419921875,-1.024566650390625,-0.1696624755859375
21070,-0.1152191162109375,-1.013671875,-0.199737548828125
21071,-0.1152191162109375,-1.013671875,-0.199737548828125
21072,-0.10498046875,-1.009048461914062,-0.20343017578125
21073,-0.0861358642578125,-1.005706787109375,-0.21429443359375
21074,-0.0490264892578125,-1.007827758789062,-0.215667724609375
21075,-0.0490264892578125,-1.007827758789062,-0.215667724609375
21076,-0.0387115478515625,-1.01812744140625,-0.2008056640625
21077,-0.0399017333984375,-1.031631469726562,-0.183013916015625
21078,-0.0696563720703125,-1.0472412109375,-0.1798095703125
21079,-0.0696563720703125,-1.0472412109375,-0.1798095703125
21080,-0.104248046875,-1.06341552734375,-0.1878204345703125
21081,-0.1361846923828125,-1.066909790039062,-0.17449951171875
21082,-0.16448974609375,-1.042694091796875,-0.1703338623046875
21083,-0.186737060546875,-1.007049560546875,-0.15789794921875
21084,-0.2026214599609375,-0.9735260009765624,-0.1483154296875
21085,-0.2127227783203125,-0.9525299072265624,-0.144927978515625
21086,-0.2151947021484375,-0.934844970703125,-0.139678955078125
21087,-0.2151947021484375,-0.934844970703125,-0.139678955078125
21088,-0.1928558349609375,-0.92535400390625,-0.1248626708984375
21089,-0.1824188232421875,-0.9268798828125,-0.11077880859375
21090,-0.1550750732421875,-0.9273834228515624,-0.1077880859375
21091,-0.1550750732421875,-0.9273834228515624,-0.1077880859375
21092,-0.1341552734375,-0.9272613525390624,-0.1143646240234375
21093,-0.1098785400390625,-0.9409027099609376,-0.11297607421875
21094,-0.0964813232421875,-0.948028564453125,-0.1102142333984375
21095,-0.080230712890625,-0.959320068359375,-0.1058197021484375
21096,-0.06878662109375,-0.9664306640625,-0.0966949462890625
21097,-0.05718994140625,-0.9766082763671876,-0.095855712890625
21098,-0.0482635498046875,-0.9846343994140624,-0.102569580078125
21099,-0.0482635498046875,-0.9846343994140624,-0.102569580078125
21100,-0.050994873046875,-0.994964599609375,-0.0697174072265625
21101,-0.0428619384765625,-0.9916534423828124,-0.0694732666015625
21102,-0.0450286865234375,-0.974334716796875,-0.153900146484375
21103,-0.0450286865234375,-0.974334716796875,-0.153900146484375
21104,-0.049774169921875,-0.983917236328125,-0.0532989501953125
21105,-0.0269927978515625,-0.955230712890625,0.0108184814453125
21106,-0.0184783935546875,-0.9691925048828124,0.003997802734375
21107,-0.03265380859375,-0.97088623046875,-0.007568359375
21108,-0.0450286865234375,-0.9777069091796876,-0.01629638671875
21109,-0.0401763916015625,-0.992218017578125,-0.00714111328125
21110,-0.0388641357421875,-0.9984588623046876,-0.0089874267578125
21111,-0.0478973388671875,-1.007537841796875,-0.026275634765625
21112,-0.0554962158203125,-1.016372680664062,-0.0299835205078125
21113,-0.0619964599609375,-1.015167236328125,-0.04302978515625
21114,-0.072052001953125,-1.015960693359375,-0.0279693603515625
21115,-0.072052001953125,-1.015960693359375,-0.0279693603515625
21116,-0.0825347900390625,-1.011306762695312,-0.012847900390625
21117,-0.0894927978515625,-1.012069702148438,-0.0032501220703125
21118,-0.08477783203125,-1.022369384765625,0.0014495849609375
21119,-0.08477783203125,-1.022369384765625,0.0014495849609375
21120,-0.074432373046875,-1.029617309570312,0.0014190673828125
21121,-0.066619873046875,-1.037109375,0.0121917724609375
21122,-0.0762786865234375,-1.034774780273438,-0.0239105224609375
21123,-0.0762786865234375,-1.034774780273438,-0.0239105224609375
21124,-0.0763702392578125,-1.027801513671875,-0.038482666015625
21125,-0.0792694091796875,-1.028610229492188,-0.056396484375
21126,-0.0909423828125,-1.051284790039062,-0.0651397705078125
21127,-0.1019744873046875,-1.07489013671875,-0.06353759765625
21128,-0.1243438720703125,-1.101898193359375,-0.06494140625
21129,-0.140716552734375,-1.121841430664062,-0.099578857421875
21130,-0.180572509765625,-1.152374267578125,-0.197418212890625
21131,-0.180572509765625,-1.152374267578125,-0.197418212890625
21132,-0.199737548828125,-1.156890869140625,-0.1832122802734375
21133,-0.2139129638671875,-1.174530029296875,-0.1211395263671875
21134,-0.168975830078125,-1.221115112304688,-0.0991668701171875
21135,-0.168975830078125,-1.221115112304688,-0.0991668701171875
21136,-0.136505126953125,-1.22967529296875,-0.1165771484375
21137,-0.1006927490234375,-1.2344970703125,-0.1252288818359375
21138,-0.0535888671875,-1.23834228515625,-0.146087646484375
21139,0.01470947265625,-1.232070922851562,-0.1843109130859375
21140,0.0845184326171875,-1.19970703125,-0.237579345703125
21141,0.1431884765625,-1.132705688476562,-0.3119049072265625
21142,0.176483154296875,-1.031524658203125,-0.3774871826171875
21143,0.176483154296875,-1.031524658203125,-0.3774871826171875
21144,0.1501922607421875,-0.873687744140625,-0.3743896484375
21145,0.137969970703125,-0.84136962890625,-0.3460845947265625
21146,0.1888275146484375,-0.8163909912109375,-0.2519683837890625
21147,0.1888275146484375,-0.8163909912109375,-0.2519683837890625
21148,0.211151123046875,-0.845703125,-0.21978759765625
21149,0.146270751953125,-0.9251556396484376,-0.1505889892578125
21150,0.055816650390625,-0.9820098876953124,-0.147369384765625
21151,0.0159912109375,-0.9640655517578124,-0.1649627685546875
21152,0.0202789306640625,-0.9397735595703124,-0.1645965576171875
21153,0.042205810546875,-0.936370849609375,-0.139068603515625
21154,0.0223388671875,-1.003082275390625,-0.1732177734375
21155,0.0223388671875,-1.003082275390625,-0.1732177734375
21156,0.01141357421875,-1.04632568359375,-0.1783905029296875
21157,0.0037994384765625,-1.081069946289062,-0.1897430419921875
21158,-0.004241943359375,-1.079559326171875,-0.1859588623046875
21159,-0.009429931640625,-1.062789916992188,-0.1645965576171875
21160,-0.012298583984375,-1.028549194335938,-0.1326751708984375
21161,-0.00054931640625,-0.9756317138671876,-0.0786895751953125
21162,0.06256103515625,-0.92218017578125,-0.0183563232421875
21163,0.06256103515625,-0.92218017578125,-0.0183563232421875
21164,0.100738525390625,-0.894500732421875,-0.0443572998046875
21165,0.1098175048828125,-0.875152587890625,-0.0675048828125
21166,0.095306396484375,-0.860198974609375,-0.095184326171875
21167,0.0677337646484375,-0.829071044921875,-0.10528564453125
21168,0.01898193359375,-0.827484130859375,-0.1149749755859375
21169,-0.026824951171875,-0.8436737060546875,-0.1136016845703125
21170,-0.05535888671875,-0.86993408203125,-0.094635009765625
21171,-0.063690185546875,-0.8910675048828125,-0.0726318359375
21172,-0.0570526123046875,-0.9074554443359376,-0.0463104248046875
21173,-0.0551605224609375,-0.927093505859375,-0.016326904296875
21174,-0.0196990966796875,-0.9403839111328124,0.0007476806640625
21175,-0.0196990966796875,-0.9403839111328124,0.0007476806640625
21176,-0.0038909912109375,-0.93505859375,0.0017242431640625
21177,0.0037994384765625,-0.91168212890625,-0.0051422119140625
21178,0.003814697265625,-0.90911865234375,-0.0174407958984375
21179,-0.000762939453125,-0.9144134521484376,-0.0230712890625
21180,-0.000762939453125,-0.9144134521484376,-0.0230712890625
21181,-0.01318359375,-0.922637939453125,0.00469970703125
21182,-0.013214111328125,-0.9266357421875,0.0191192626953125
21183,-0.015838623046875,-0.9368438720703124,0.027984619140625
21184,-0.0177001953125,-0.9556732177734376,0.0325164794921875
21185,-0.0150146484375,-0.9757232666015624,0.042633056640625
21186,-0.01025390625,-0.9903411865234376,0.061614990234375
21187,-0.01025390625,-0.9903411865234376,0.061614990234375
21188,-0.0036468505859375,-1.022933959960938,0.077117919921875
21189,-0.000244140625,-1.038650512695312,0.072265625
21190,0.0095367431640625,-1.051910400390625,0.0518951416015625
21191,0.018218994140625,-1.063613891601562,0.0247344970703125
21192,0.0205535888671875,-1.074661254882812,0.0010528564453125
21193,0.0143280029296875,-1.089202880859375,-0.00726318359375
21194,0.0049285888671875,-1.092391967773438,-0.0106048583984375
21195,-0.0032196044921875,-1.091140747070312,0.0126953125
21196,-0.0037384033203125,-1.098724365234375,0.0478363037109375
21197,-0.00347900390625,-1.10638427734375,0.0849456787109375
21198,0.000762939453125,-1.121414184570312,0.1148529052734375
21199,0.000762939453125,-1.121414184570312,0.1148529052734375
21200,0.014617919921875,-1.125228881835938,0.1710357666015625
21201,0.014007568359375,-1.126129150390625,0.189666748046875
21202,0.0106353759765625,-1.134323120117188,0.1972198486328125
21203,0.01300048828125,-1.168838500976562,0.150115966796875
21204,0.0231475830078125,-1.218276977539062,0.0420379638671875
21205,0.04217529296875,-1.235031127929688,-0.093505859375
21206,0.0830078125,-1.222366333007812,-0.15435791015625
21207,0.1406097412109375,-1.2130126953125,-0.1375732421875
21208,0.18780517578125,-1.244491577148438,-0.13507080078125
21209,0.1912841796875,-1.25445556640625,-0.1961212158203125
21210,0.16278076171875,-1.260986328125,-0.2798919677734375
21211,0.116485595703125,-1.263031005859375,-0.3172607421875
21212,0.0229644775390625,-1.21112060546875,-0.275421142578125
21213,-0.095123291015625,-1.11505126953125,-0.194091796875
21214,-0.224517822265625,-0.8965606689453125,-0.136871337890625
21215,-0.224517822265625,-0.8965606689453125,-0.136871337890625
21216,-0.259002685546875,-0.8238983154296875,-0.177001953125
21217,-0.2822113037109375,-0.7721099853515625,-0.2613067626953125
21218,-0.302978515625,-0.726470947265625,-0.3634490966796875
21219,-0.2795257568359375,-0.699798583984375,-0.4754180908203125
21220,-0.2666473388671875,-0.6906585693359375,-0.5547332763671875
21221,-0.2763824462890625,-0.7259063720703125,-0.5681610107421875
21222,-0.229766845703125,-0.825164794921875,-0.5186767578125
21223,-0.1402435302734375,-0.9055938720703124,-0.39031982421875
21224,-0.0627899169921875,-0.9678497314453124,-0.303985595703125
21225,-0.016815185546875,-1.054336547851562,-0.2546539306640625
21226,0.01171875,-1.173538208007812,-0.151580810546875
21227,0.01171875,-1.173538208007812,-0.151580810546875
21228,0.03167724609375,-1.160400390625,-0.141876220703125
21229,0.056488037109375,-1.11236572265625,-0.1573486328125
21230,0.0868072509765625,-1.05633544921875,-0.1783447265625
21231,0.0868072509765625,-1.05633544921875,-0.1783447265625
21232,0.0982513427734375,-0.9477386474609376,-0.1392364501953125
21233,0.0695037841796875,-0.9278717041015624,-0.111602783203125
21234,-0.0636444091796875,-0.920013427734375,-0.088287353515625
21235,-0.0636444091796875,-0.920013427734375,-0.088287353515625
21236,-0.126708984375,-0.914886474609375,-0.11865234375
21237,-0.1521453857421875,-0.907745361328125,-0.13787841796875
21238,-0.1735992431640625,-0.8647003173828125,-0.132598876953125
21239,-0.16595458984375,-0.813690185546875,-0.12896728515625
21240,-0.1243743896484375,-0.7921142578125,-0.133453369140625
21241,-0.09527587890625,-0.812408447265625,-0.1369476318359375
21242,-0.0787506103515625,-0.83984375,-0.1334381103515625
21243,-0.0787506103515625,-0.83984375,-0.1334381103515625
21244,-0.0839080810546875,-0.896636962890625,-0.1234283447265625
21245,-0.0936126708984375,-0.9064483642578124,-0.1335906982421875
21246,-0.1133270263671875,-0.9180450439453124,-0.121368408203125
21247,-0.1133270263671875,-0.9180450439453124,-0.121368408203125
21248,-0.1116943359375,-0.9235076904296876,-0.0932159423828125
21249,-0.098724365234375,-0.9263153076171876,-0.0754547119140625
21250,-0.0865478515625,-0.9317626953125,-0.061676025390625
21251,-0.07989501953125,-0.9426116943359376,-0.0518951416015625
21252,-0.071624755859375,-0.9612579345703124,-0.030731201171875
21253,-0.0634002685546875,-0.9680023193359376,-0.0102081298828125
21254,-0.0622711181640625,-0.9774322509765624,0.0090484619140625
21255,-0.0614776611328125,-0.990081787109375,0.0228424072265625
21256,-0.0646514892578125,-1.00555419921875,0.0405426025390625
21257,-0.0743408203125,-1.025222778320312,0.0382843017578125
21258,-0.08587646484375,-1.030776977539062,-0.0028533935546875
21259,-0.09375,-1.027130126953125,-0.0516510009765625
21260,-0.0934600830078125,-1.013412475585938,-0.1008453369140625
21261,-0.08453369140625,-0.993499755859375,-0.1361236572265625
21262,-0.027923583984375,-0.993316650390625,-0.14447021484375
21263,-0.027923583984375,-0.993316650390625,-0.14447021484375
21264,-0.003570556640625,-1.003524780273438,-0.126861572265625
21265,0.013092041015625,-1.019790649414062,-0.0904083251953125
21266,-0.0140380859375,-1.045364379882812,-0.0199127197265625
21267,-0.0140380859375,-1.045364379882812,-0.0199127197265625
21268,-0.0374755859375,-1.061187744140625,0.051177978515625
21269,-0.076263427734375,-1.072265625,0.086822509765625
21270,-0.17108154296875,-1.08709716796875,0.0189208984375
21271,-0.17108154296875,-1.08709716796875,0.0189208984375
21272,-0.2191314697265625,-1.121078491210938,-0.028289794921875
21273,-0.2657012939453125,-1.138656616210938,-0.104736328125
21274,-0.2819366455078125,-1.148147583007812,-0.149169921875
21275,-0.26513671875,-1.160964965820312,-0.157806396484375
21276,-0.2526397705078125,-1.1798095703125,-0.145294189453125
21277,-0.2427215576171875,-1.210952758789062,-0.1099853515625
21278,-0.2427215576171875,-1.210952758789062,-0.1099853515625
21279,-0.2225494384765625,-1.227508544921875,-0.08099365234375
21280,-0.2225494384765625,-1.227508544921875,-0.08099365234375
21281,-0.0931854248046875,-1.12774658203125,-0.2064971923828125
21282,-0.0385284423828125,-1.077072143554688,-0.2832489013671875
21283,0.018890380859375,-1.028091430664062,-0.3545989990234375
21284,0.078765869140625,-0.969573974609375,-0.3908843994140625
21285,0.1395111083984375,-0.8951263427734375,-0.3992156982421875
21286,0.1895599365234375,-0.7893218994140625,-0.3223724365234375
21287,0.1895599365234375,-0.7893218994140625,-0.3223724365234375
21288,0.1877899169921875,-0.7749176025390625,-0.2987213134765625
21289,0.174407958984375,-0.7983856201171875,-0.294158935546875
21290,0.188690185546875,-0.850555419921875,-0.2524261474609375
21291,0.1886138916015625,-0.9178314208984376,-0.229705810546875
21292,0.13861083984375,-0.98333740234375,-0.2020263671875
21293,0.0409698486328125,-1.02044677734375,-0.1266632080078125
21294,-0.016387939453125,-1.031600952148438,-0.1055145263671875
21295,-0.0504150390625,-1.044219970703125,-0.125885009765625
21296,-0.0852813720703125,-1.0416259765625,-0.1687164306640625
21297,-0.0670623779296875,-1.085708618164062,-0.161651611328125
21298,-0.01068115234375,-1.134414672851562,-0.1694793701171875
21299,-0.01068115234375,-1.134414672851562,-0.1694793701171875
21300,-0.0048980712890625,-1.111251831054688,-0.2024688720703125
21301,-0.0109405517578125,-1.0872802734375,-0.227935791015625
21302,-0.0574798583984375,-1.006744384765625,-0.1885528564453125
21303,-0.0574798583984375,-1.006744384765625,-0.1885528564453125
21304,-0.0629119873046875,-0.978271484375,-0.1694183349609375
21305,-0.050628662109375,-0.95416259765625,-0.150177001953125
21306,-0.047393798828125,-0.9470977783203124,-0.134979248046875
21307,-0.0328216552734375,-0.9290008544921876,-0.132293701171875
21308,-0.01739501953125,-0.9049530029296876,-0.1124114990234375
21309,0.002532958984375,-0.888427734375,-0.1133270263671875
21310,0.02362060546875,-0.8714141845703125,-0.128173828125
21311,0.0200042724609375,-0.8733367919921875,-0.14593505859375
21312,-0.0164794921875,-0.8854827880859375,-0.1647796630859375
21313,-0.0549163818359375,-0.9158782958984376,-0.1650238037109375
21314,-0.0673675537109375,-0.9510040283203124,-0.1268768310546875
21315,-0.06005859375,-0.9830474853515624,-0.075714111328125
21316,-0.0469512939453125,-1.011825561523438,-0.055816650390625
21317,-0.023223876953125,-1.017974853515625,-0.065643310546875
21318,-0.0138092041015625,-1.0169677734375,-0.1082000732421875
21319,-0.0138092041015625,-1.0169677734375,-0.1082000732421875
21320,0.0234527587890625,-0.978271484375,-0.130645751953125
21321,0.02850341796875,-0.9798736572265624,-0.120269775390625
21322,0.02545166015625,-0.9892578125,-0.113861083984375
21323,0.013458251953125,-0.997039794921875,-0.105438232421875
21324,-0.0003204345703125,-1.011245727539062,-0.0931549072265625
21325,-0.0163116455078125,-1.028564453125,-0.078826904296875
21326,-0.036224365234375,-1.031082153320312,-0.0592498779296875
21327,-0.052886962890625,-1.023880004882812,-0.041015625
21328,-0.0704803466796875,-1.017135620117188,-0.0304718017578125
21329,-0.0714263916015625,-1.011154174804688,-0.0175323486328125
21330,-0.06610107421875,-1.0008544921875,-0.02276611328125
21331,-0.054931640625,-1.000396728515625,-0.0474395751953125
21332,-0.038177490234375,-1.005859375,-0.0715789794921875
21333,-0.00738525390625,-1.012451171875,-0.095001220703125
21334,0.0361328125,-1.020370483398438,-0.1114501953125
21335,0.084991455078125,-1.029373168945312,-0.12481689453125
21336,0.1266326904296875,-1.030502319335938,-0.131591796875
21337,0.1548919677734375,-1.031967163085938,-0.12652587890625
21338,0.1721038818359375,-1.028671264648438,-0.1174468994140625
21339,0.1799163818359375,-1.020736694335938,-0.118377685546875
21340,0.182037353515625,-1.020294189453125,-0.0991058349609375
21341,0.1876220703125,-1.009414672851562,-0.087890625
21342,0.155426025390625,-0.961578369140625,-0.0966339111328125
21343,0.155426025390625,-0.961578369140625,-0.0966339111328125
21344,0.1263275146484375,-0.9569549560546876,-0.099273681640625
21345,0.0728912353515625,-0.962738037109375,-0.1444854736328125
21346,0.0121002197265625,-0.974151611328125,-0.193359375
21347,-0.0166015625,-0.9965362548828124,-0.2466583251953125
21348,-0.0471954345703125,-1.039352416992188,-0.2672882080078125
21349,-0.0962371826171875,-1.10443115234375,-0.2507476806640625
21350,-0.099578857421875,-1.11761474609375,-0.2203521728515625
21351,-0.0886383056640625,-1.097442626953125,-0.1561126708984375
21352,-0.0935821533203125,-1.052703857421875,-0.10089111328125
21353,-0.0919647216796875,-1.042724609375,-0.0509490966796875
21354,-0.0931396484375,-1.02655029296875,-0.025421142578125
21355,-0.0931396484375,-1.02655029296875,-0.025421142578125
21356,-0.10888671875,-0.9801788330078124,-0.059356689453125
21357,-0.1237640380859375,-0.9561767578125,-0.0985565185546875
21358,-0.139617919921875,-0.9383392333984376,-0.1381072998046875
21359,-0.15606689453125,-0.92401123046875,-0.1680145263671875
21360,-0.1622314453125,-0.917755126953125,-0.179351806640625
21361,-0.153533935546875,-0.9139404296875,-0.1788177490234375
21362,-0.12664794921875,-0.9105224609375,-0.205963134765625
21363,-0.12664794921875,-0.9105224609375,-0.205963134765625
21364,-0.1131134033203125,-0.9096221923828124,-0.2307586669921875
21365,-0.09844970703125,-0.9205322265625,-0.2537689208984375
21366,-0.048431396484375,-0.9688568115234376,-0.213104248046875
21367,-0.048431396484375,-0.9688568115234376,-0.213104248046875
21368,-0.035491943359375,-0.995819091796875,-0.158599853515625
21369,-0.048492431640625,-1.00177001953125,-0.1232757568359375
21370,-0.0716400146484375,-1.001174926757812,-0.1093597412109375
21371,-0.0997467041015625,-1.001449584960938,-0.1031341552734375
21372,-0.1222991943359375,-0.990936279296875,-0.0909881591796875
21373,-0.1472015380859375,-0.9830474853515624,-0.105133056640625
21374,-0.1638031005859375,-0.986114501953125,-0.082672119140625
21375,-0.1638031005859375,-0.986114501953125,-0.082672119140625
21376,-0.168243408203125,-0.984954833984375,-0.100921630859375
21377,-0.1663055419921875,-0.983978271484375,-0.116424560546875
21378,-0.1557159423828125,-0.9819488525390624,-0.128692626953125
21379,-0.1557159423828125,-0.9819488525390624,-0.128692626953125
21380,-0.1557159423828125,-0.9819488525390624,-0.128692626953125
21381,-0.1223907470703125,-0.96112060546875,-0.1109466552734375
21382,-0.1221923828125,-0.959014892578125,-0.1156463623046875
21383,-0.124725341796875,-0.9590911865234376,-0.1246490478515625
21384,-0.1287689208984375,-0.95440673828125,-0.1287841796875
21385,-0.1312408447265625,-0.9534912109375,-0.13189697265625
21386,-0.1343841552734375,-0.95782470703125,-0.1255035400390625
21387,-0.1357269287109375,-0.971771240234375,-0.12164306640625
21388,-0.1265869140625,-0.99163818359375,-0.1265106201171875
21389,-0.126708984375,-1.00341796875,-0.11822509765625
21390,-0.1455535888671875,-1.025588989257812,-0.109161376953125
21391,-0.1455535888671875,-1.025588989257812,-0.109161376953125
21392,-0.16259765625,-1.0311279296875,-0.1029052734375
21393,-0.174041748046875,-1.038558959960938,-0.089019775390625
21394,-0.180206298828125,-1.039199829101562,-0.08062744140625
21395,-0.1807098388671875,-1.040481567382812,-0.0810089111328125
21396,-0.177276611328125,-1.040481567382812,-0.0871429443359375
21397,-0.1651611328125,-1.042755126953125,-0.0948486328125
21398,-0.1500244140625,-1.039886474609375,-0.09161376953125
21399,-0.12969970703125,-1.034011840820312,-0.0907745361328125
21400,-0.11041259765625,-1.022750854492188,-0.0921630859375
21401,-0.096710205078125,-1.012802124023438,-0.0933990478515625
21402,-0.088775634765625,-1.000839233398438,-0.0935821533203125
21403,-0.0854949951171875,-0.990020751953125,-0.0968017578125
21404,-0.08685302734375,-0.9806976318359376,-0.1024169921875
21405,-0.0902252197265625,-0.9771575927734376,-0.1054840087890625
21406,-0.09735107421875,-0.97137451171875,-0.108734130859375
21407,-0.09735107421875,-0.97137451171875,-0.108734130859375
21408,-0.1010894775390625,-0.9701995849609376,-0.10260009765625
21409,-0.1007843017578125,-0.977264404296875,-0.1025390625
21410,-0.0999298095703125,-0.98248291015625,-0.103302001953125
21411,-0.1011810302734375,-0.9885711669921876,-0.1058502197265625
21412,-0.101318359375,-0.9946441650390624,-0.111541748046875
21413,-0.1009063720703125,-1.000823974609375,-0.1158294677734375
21414,-0.0859375,-1.009689331054688,-0.116607666015625
21415,-0.0859375,-1.009689331054688,-0.116607666015625
21416,-0.0787200927734375,-1.011276245117188,-0.11077880859375
21417,-0.0702667236328125,-1.016128540039062,-0.104156494140625
21418,-0.0608673095703125,-1.02178955078125,-0.0993804931640625
21419,-0.0572052001953125,-1.018783569335938,-0.1065521240234375
21420,-0.0598602294921875,-1.01837158203125,-0.099639892578125
21421,-0.059967041015625,-1.018478393554688,-0.0986328125
21422,-0.0599822998046875,-1.015914916992188,-0.0921173095703125
21423,-0.0596160888671875,-1.014266967773438,-0.0867156982421875
21424,-0.062530517578125,-1.015182495117188,-0.0887298583984375
21425,-0.064971923828125,-1.008132934570312,-0.0919647216796875
21426,-0.0623626708984375,-0.9958953857421876,-0.092132568359375
21427,-0.05364990234375,-0.9893951416015624,-0.0906219482421875
21428,-0.0428924560546875,-0.9911041259765624,-0.0899810791015625
21429,-0.026336669921875,-0.992279052734375,-0.087677001953125
21430,-0.014862060546875,-0.989898681640625,-0.0816802978515625
21431,-0.0039825439453125,-0.98968505859375,-0.0733489990234375
21432,-0.0001068115234375,-0.9887542724609376,-0.0692901611328125
21433,0.001861572265625,-0.9893646240234376,-0.06842041015625
21434,6.103515625e-05,-0.9960479736328124,-0.0743560791015625
21435,6.103515625e-05,-0.9960479736328124,-0.0743560791015625
21436,0.000518798828125,-1.002761840820312,-0.0718994140625
21437,-0.0003509521484375,-1.0015869140625,-0.0664215087890625
21438,-0.000274658203125,-1.00732421875,-0.0633544921875
21439,-0.002288818359375,-1.010208129882812,-0.0694580078125
21440,0.001495361328125,-1.013458251953125,-0.0698089599609375
21441,0.0060882568359375,-1.010482788085938,-0.0772705078125
21442,0.00592041015625,-1.0068359375,-0.0781707763671875
21443,0.00634765625,-1.0069580078125,-0.07568359375
21444,0.0088653564453125,-1.004653930664062,-0.07208251953125
21445,0.0099334716796875,-1.006134033203125,-0.0701904296875
21446,0.0130462646484375,-1.008102416992188,-0.07379150390625
21447,0.0173187255859375,-1.008224487304688,-0.0825347900390625
21448,0.024627685546875,-1.008544921875,-0.0902557373046875
21449,0.031341552734375,-1.006561279296875,-0.088836669921875
21450,0.042877197265625,-1.012283325195312,-0.0751190185546875
21451,0.042877197265625,-1.012283325195312,-0.0751190185546875
21452,0.0482940673828125,-1.0052490234375,-0.07550048828125
21453,0.044769287109375,-1.00311279296875,-0.06024169921875
21454,0.04376220703125,-1.0042724609375,-0.067901611328125
21455,0.03497314453125,-1.001876831054688,-0.0677490234375
21456,0.0294036865234375,-0.9964447021484376,-0.0679779052734375
21457,0.0246124267578125,-0.9867095947265624,-0.0650177001953125
21458,0.01849365234375,-0.9861907958984376,-0.05859375
21459,0.014190673828125,-0.985198974609375,-0.0583648681640625
21460,0.0063323974609375,-0.98516845703125,-0.0644073486328125
21461,-0.00115966796875,-0.9785308837890624,-0.07037353515625
21462,-0.0132904052734375,-0.971221923828125,-0.0724639892578125
21463,-0.0276336669921875,-0.96875,-0.078338623046875
21464,-0.039031982421875,-0.970947265625,-0.0937652587890625
21465,-0.0480499267578125,-0.9676513671875,-0.1134490966796875
21466,-0.0584716796875,-0.967742919921875,-0.130401611328125
21467,-0.0659332275390625,-0.9660797119140624,-0.1391754150390625
21468,-0.076141357421875,-0.963287353515625,-0.162384033203125
21469,-0.085662841796875,-0.9555206298828124,-0.160614013671875
21470,-0.0922088623046875,-0.95867919921875,-0.161468505859375
21471,-0.10986328125,-0.9573516845703124,-0.1610260009765625
21472,-0.122222900390625,-0.949615478515625,-0.1480560302734375
21473,-0.1331024169921875,-0.9490814208984376,-0.1334381103515625
21474,-0.1588287353515625,-0.943267822265625,-0.1093902587890625
21475,-0.1588287353515625,-0.943267822265625,-0.1093902587890625
21476,-0.1369476318359375,-0.9512176513671876,-0.1267547607421875
21477,-0.1169281005859375,-0.9571990966796876,-0.1304779052734375
21478,-0.106842041015625,-0.977691650390625,-0.1144866943359375
21479,-0.106842041015625,-0.977691650390625,-0.1144866943359375
21480,-0.106842041015625,-0.977691650390625,-0.1144866943359375
21481,-0.131866455078125,-0.993621826171875,-0.0925750732421875
21482,-0.14031982421875,-1.017440795898438,-0.075439453125
21483,-0.1277008056640625,-1.027145385742188,-0.0724029541015625
21484,-0.1044158935546875,-1.042938232421875,-0.05560302734375
21485,-0.0848846435546875,-1.044448852539062,-0.059906005859375
21486,-0.078521728515625,-1.036209106445312,-0.048309326171875
21487,-0.0820465087890625,-1.026718139648438,-0.0359649658203125
21488,-0.097412109375,-1.0050048828125,-0.0460357666015625
21489,-0.1143646240234375,-0.9793548583984376,-0.056304931640625
21490,-0.1229248046875,-0.960113525390625,-0.0679779052734375
21491,-0.1222991943359375,-0.9523773193359376,-0.081451416015625
21492,-0.1150054931640625,-0.941070556640625,-0.0931854248046875
21493,-0.1036529541015625,-0.9246368408203124,-0.0946807861328125
21494,-0.0899658203125,-0.9141998291015624,-0.096649169921875
21495,-0.0730438232421875,-0.91015625,-0.092681884765625
21496,-0.067138671875,-0.91741943359375,-0.0910491943359375
21497,-0.0700836181640625,-0.9230804443359376,-0.0796661376953125
21498,-0.0724639892578125,-0.92376708984375,-0.0604248046875
21499,-0.076446533203125,-0.9258575439453124,-0.0534210205078125
21500,-0.08319091796875,-0.92694091796875,-0.048583984375
21501,-0.09039306640625,-0.92938232421875,-0.04656982421875
21502,-0.097412109375,-0.93414306640625,-0.0363616943359375
21503,-0.100616455078125,-0.946380615234375,-0.0249481201171875
21504,-0.1038970947265625,-0.9563751220703124,-0.0254364013671875
21505,-0.109588623046875,-0.9628753662109376,-0.0134735107421875
21506,-0.1043701171875,-0.955902099609375,0.0134124755859375
21507,-0.104461669921875,-0.93695068359375,0.00555419921875
21508,-0.107147216796875,-0.913970947265625,0.002685546875
21509,-0.1047515869140625,-0.908416748046875,-0.00244140625
21510,-0.0960693359375,-0.9105072021484376,0.0007171630859375
21511,-0.089813232421875,-0.921356201171875,-0.00091552734375
21512,-0.0914459228515625,-0.9495086669921876,0.0013275146484375
21513,-0.097412109375,-0.9775390625,0.002044677734375
21514,-0.099273681640625,-0.9956817626953124,-0.003662109375
21515,-0.1021728515625,-1.01275634765625,-0.021575927734375
21516,-0.1048736572265625,-1.019546508789062,-0.0610504150390625
21517,-0.0938568115234375,-1.038742065429688,-0.090118408203125
21518,-0.075775146484375,-1.06170654296875,-0.1092529296875
21519,-0.0506439208984375,-1.077301025390625,-0.098114013671875
21520,-0.02203369140625,-1.11065673828125,-0.0613250732421875
21521,0.0037384033203125,-1.146102905273438,-0.003997802734375
21522,0.0312652587890625,-1.18634033203125,0.0723419189453125
21523,0.0643157958984375,-1.223968505859375,0.148162841796875
21524,0.0887298583984375,-1.259033203125,0.1802825927734375
21525,0.0897064208984375,-1.332992553710938,0.1963348388671875
21526,0.0107269287109375,-1.405487060546875,0.093475341796875
21527,-0.11865234375,-1.4012451171875,-0.175750732421875
21528,-0.2905426025390625,-1.356689453125,-0.49578857421875
21529,-0.3649749755859375,-1.324386596679688,-0.766387939453125
21530,-0.3717041015625,-1.316604614257812,-0.7512969970703125
21531,-0.368072509765625,-1.316009521484375,-0.498382568359375
21532,-0.281524658203125,-1.28118896484375,-0.4469757080078125
21533,-0.12249755859375,-1.212356567382812,-0.491943359375
21534,-0.00634765625,-1.0986328125,-0.545654296875
21535,-0.00634765625,-1.0986328125,-0.545654296875
21536,0.054473876953125,-0.921417236328125,-0.5722198486328125
21537,0.070098876953125,-0.87017822265625,-0.5887603759765625
21538,0.052886962890625,-0.920379638671875,-0.58087158203125
21539,0.052886962890625,-0.920379638671875,-0.58087158203125
21540,-0.0094757080078125,-0.9528045654296876,-0.5334320068359375
21541,-0.065155029296875,-0.9482879638671876,-0.4928741455078125
21542,-0.0815582275390625,-0.9420623779296876,-0.4691162109375
21543,-0.07611083984375,-0.9323577880859376,-0.418365478515625
21544,-0.0809326171875,-0.937713623046875,-0.3531036376953125
21545,-0.0975799560546875,-0.950836181640625,-0.31243896484375
21546,-0.125396728515625,-0.9758758544921876,-0.330780029296875
21547,-0.125396728515625,-0.9758758544921876,-0.330780029296875
21548,-0.10479736328125,-0.980712890625,-0.3465423583984375
21549,-0.0542144775390625,-0.9838409423828124,-0.34454345703125
21550,0.0020294189453125,-0.9878692626953124,-0.3401031494140625
21551,0.0437164306640625,-0.9944610595703124,-0.3128204345703125
21552,0.0790557861328125,-0.999603271484375,-0.2949676513671875
21553,0.1002197265625,-0.986663818359375,-0.285919189453125
21554,0.0980987548828125,-0.9685516357421876,-0.2943572998046875
21555,0.076416015625,-0.9365997314453124,-0.2834625244140625
21556,0.0469512939453125,-0.909637451171875,-0.2955322265625
21557,0.01934814453125,-0.8928680419921875,-0.315399169921875
21558,-0.01226806640625,-0.8804779052734375,-0.32275390625
21559,-0.0464019775390625,-0.8723297119140625,-0.3205413818359375
21560,-0.0701446533203125,-0.8672943115234375,-0.3217620849609375
21561,-0.0798187255859375,-0.8666534423828125,-0.3346405029296875
21562,-0.0853118896484375,-0.884918212890625,-0.334686279296875
21563,-0.08294677734375,-0.9126739501953124,-0.3235626220703125
21564,-0.078399658203125,-0.931915283203125,-0.3136749267578125
21565,-0.076751708984375,-0.947174072265625,-0.290374755859375
21566,-0.0707855224609375,-0.9462738037109376,-0.2775115966796875
21567,-0.060028076171875,-0.9284820556640624,-0.280303955078125
21568,-0.0460662841796875,-0.9117584228515624,-0.2917633056640625
21569,-0.0500640869140625,-0.888702392578125,-0.2919158935546875
21570,-0.0731353759765625,-0.86669921875,-0.294525146484375
21571,-0.0902252197265625,-0.8684844970703125,-0.2932281494140625
21572,-0.1072235107421875,-0.881866455078125,-0.2675323486328125
21573,-0.1187896728515625,-0.91143798828125,-0.259033203125
21574,-0.12408447265625,-0.9197235107421876,-0.23370361328125
21575,-0.123443603515625,-0.9150543212890624,-0.1847991943359375
21576,-0.1360321044921875,-0.899200439453125,-0.136688232421875
21577,-0.1588134765625,-0.8681640625,-0.124420166015625
21578,-0.2191619873046875,-0.823638916015625,-0.1673736572265625
21579,-0.2191619873046875,-0.823638916015625,-0.1673736572265625
21580,-0.2266845703125,-0.8167724609375,-0.2464141845703125
21581,-0.2189483642578125,-0.82244873046875,-0.327178955078125
21582,-0.2079925537109375,-0.84930419921875,-0.4365386962890625
21583,-0.1887969970703125,-0.8715057373046875,-0.560943603515625
21584,-0.146728515625,-0.8937530517578125,-0.6827850341796875
21585,-0.085968017578125,-0.90985107421875,-0.735504150390625
21586,0.0099029541015625,-0.942352294921875,-0.6989593505859375
21587,0.105316162109375,-0.983917236328125,-0.62469482421875
21588,0.135284423828125,-0.9752655029296876,-0.4981231689453125
21589,0.149871826171875,-0.958343505859375,-0.5340118408203125
21590,0.0789337158203125,-0.9143218994140624,-0.31549072265625
21591,-0.0829925537109375,-0.898529052734375,-0.6938323974609375
21592,0.218719482421875,-1.026504516601562,-1.220382690429688
21593,0.08746337890625,-0.9216156005859376,-0.52325439453125
21594,0.0807952880859375,-1.02032470703125,-0.205474853515625
21595,0.0807952880859375,-1.02032470703125,-0.205474853515625
21596,-0.048797607421875,-1.022384643554688,-0.1136474609375
21597,-0.1513671875,-1.022232055664062,-0.1890411376953125
21598,-0.1941070556640625,-1.002166748046875,-0.260284423828125
21599,-0.1825103759765625,-0.95391845703125,-0.28314208984375
21600,-0.1599273681640625,-0.9379425048828124,-0.2545166015625
21601,-0.1584625244140625,-0.9278717041015624,-0.185455322265625
21602,-0.1630859375,-0.88250732421875,-0.151611328125
21603,-0.199066162109375,-0.8532562255859375,-0.181182861328125
21604,-0.218505859375,-0.8594207763671875,-0.211334228515625
21605,-0.2275848388671875,-0.86346435546875,-0.2443389892578125
21606,-0.2501678466796875,-0.86419677734375,-0.2745819091796875
21607,-0.2689666748046875,-0.8758392333984375,-0.3258056640625
21608,-0.256683349609375,-0.889007568359375,-0.3888702392578125
21609,-0.2269287109375,-0.9064483642578124,-0.4134674072265625
21610,-0.19525146484375,-0.9239044189453124,-0.4147186279296875
21611,-0.168212890625,-0.94061279296875,-0.406707763671875
21612,-0.1513519287109375,-0.95416259765625,-0.39495849609375
21613,-0.143524169921875,-0.9740142822265624,-0.36761474609375
21614,-0.135589599609375,-1.011993408203125,-0.335052490234375
21615,-0.119293212890625,-1.039581298828125,-0.284393310546875
21616,-0.0899200439453125,-1.047897338867188,-0.2264251708984375
21617,-0.060272216796875,-1.047622680664062,-0.1741790771484375
21618,-0.038177490234375,-1.044143676757812,-0.155731201171875
21619,-0.0638275146484375,-1.027450561523438,-0.182464599609375
21620,-0.1017303466796875,-1.002243041992188,-0.2367095947265625
21621,-0.11566162109375,-0.9513092041015624,-0.3143157958984375
21622,-0.11566162109375,-0.9513092041015624,-0.3143157958984375
21623,-0.108795166015625,-0.9371795654296876,-0.3340911865234375
21624,-0.09393310546875,-0.93133544921875,-0.3258819580078125
21625,-0.0711212158203125,-0.943939208984375,-0.30853271484375
21626,-0.0587310791015625,-0.947357177734375,-0.3112640380859375
21627,-0.0647125244140625,-0.9352874755859376,-0.3555450439453125
21628,-0.0783233642578125,-0.9169769287109376,-0.3866424560546875
21629,-0.0795745849609375,-0.8970489501953125,-0.3977508544921875
21630,-0.0532073974609375,-0.8358306884765625,-0.502105712890625
21631,0.000396728515625,-0.950958251953125,-0.3482208251953125
21632,-0.0308685302734375,-0.899627685546875,-0.275360107421875
21633,-0.0347137451171875,-0.929718017578125,-0.4007415771484375
21634,-0.0137939453125,-0.9588623046875,-0.31878662109375
21635,0.009307861328125,-0.9510498046875,-0.299652099609375
21636,-0.0030517578125,-0.9403076171875,-0.2655487060546875
21637,-0.021331787109375,-0.913299560546875,-0.1836395263671875
21638,-0.0114288330078125,-0.912750244140625,-0.2320098876953125
21639,0.014404296875,-0.8965606689453125,-0.2958221435546875
21640,0.007598876953125,-0.8831634521484375,-0.309967041015625
21641,-0.0186920166015625,-0.8654022216796875,-0.33343505859375
21642,-0.02587890625,-0.8656463623046875,-0.329742431640625
21643,0.0054779052734375,-0.89373779296875,-0.2926025390625
21644,0.0510406494140625,-0.9080657958984376,-0.264495849609375
21645,0.0811614990234375,-0.91400146484375,-0.2549285888671875
21646,0.1082000732421875,-0.9093475341796876,-0.2644195556640625
21647,0.099761962890625,-0.9093475341796876,-0.2951202392578125
21648,0.03240966796875,-0.9192352294921876,-0.3105621337890625
21649,-0.020111083984375,-0.9367828369140624,-0.375701904296875
21650,-0.0305938720703125,-0.9322509765625,-0.4802093505859375
21651,-0.0216522216796875,-0.9173431396484376,-0.5601959228515625
21652,0.0167083740234375,-0.8999481201171875,-0.5602264404296875
21653,0.203643798828125,-0.9490203857421876,-0.43292236328125
21654,0.203643798828125,-0.9490203857421876,-0.43292236328125
21655,0.2841644287109375,-0.9731597900390624,-0.3680419921875
21656,0.32257080078125,-0.9853515625,-0.31048583984375
21657,0.2960052490234375,-0.95806884765625,-0.233154296875
21658,0.2456817626953125,-0.923980712890625,-0.154815673828125
21659,0.2038116455078125,-0.944488525390625,-0.1340789794921875
21660,0.1392822265625,-0.9445648193359376,-0.1593780517578125
21661,0.0796356201171875,-0.9557952880859376,-0.169830322265625
21662,0.0649261474609375,-1.008697509765625,-0.1825103759765625
21663,0.0541534423828125,-1.021102905273438,-0.20245361328125
21664,0.038726806640625,-1.0146484375,-0.2158660888671875
21665,0.04254150390625,-1.015304565429688,-0.2351226806640625
21666,0.0657806396484375,-1.021499633789062,-0.2507781982421875
21667,0.09783935546875,-1.031051635742188,-0.2639007568359375
21668,0.1278076171875,-1.036773681640625,-0.26507568359375
21669,0.1535491943359375,-1.048721313476562,-0.248260498046875
21670,0.177093505859375,-1.068313598632812,-0.21978759765625
21671,0.1959686279296875,-1.086410522460938,-0.188934326171875
21672,0.1884002685546875,-1.102828979492188,-0.1516876220703125
21673,0.1740875244140625,-1.123382568359375,-0.1398468017578125
21674,0.1510772705078125,-1.13641357421875,-0.172210693359375
21675,0.1085968017578125,-1.056182861328125,-0.288787841796875
21676,0.0811004638671875,-1.161285400390625,-0.3597564697265625
21677,0.084808349609375,-1.2158203125,-0.0782470703125
21678,0.1462249755859375,-1.028961181640625,-0.079803466796875
21679,0.1462249755859375,-1.028961181640625,-0.079803466796875
21680,0.1462249755859375,-1.028961181640625,-0.079803466796875
21681,0.195648193359375,-1.00335693359375,-0.086212158203125
21682,0.2156219482421875,-0.96002197265625,-0.1332550048828125
21683,0.216827392578125,-0.9145965576171876,-0.210235595703125
21684,0.2279205322265625,-0.909393310546875,-0.241790771484375
21685,0.2273406982421875,-0.8975677490234375,-0.24725341796875
21686,0.208282470703125,-0.8460540771484375,-0.292877197265625
21687,0.179595947265625,-0.821319580078125,-0.3055877685546875
21688,0.163818359375,-0.8197479248046875,-0.295928955078125
21689,0.1656646728515625,-0.8358612060546875,-0.2720947265625
21690,0.1818389892578125,-0.8652191162109375,-0.2383575439453125
21691,0.1993865966796875,-0.89581298828125,-0.204254150390625
21692,0.21539306640625,-0.9243621826171876,-0.16900634765625
21693,0.233367919921875,-0.951995849609375,-0.139801025390625
21694,0.233367919921875,-0.951995849609375,-0.139801025390625
21695,0.24267578125,-0.95465087890625,-0.1474456787109375
21696,0.2557220458984375,-0.9569244384765624,-0.15887451171875
21697,0.265838623046875,-0.94476318359375,-0.1752777099609375
21698,0.2817840576171875,-0.951324462890625,-0.2029876708984375
21699,0.296539306640625,-0.9906463623046876,-0.190826416015625
21700,0.251953125,-1.006240844726562,-0.14532470703125
21701,0.1941986083984375,-1.038742065429688,-0.1097412109375
21702,0.2327728271484375,-0.9632720947265624,-0.1978607177734375
21703,0.2897491455078125,-0.9010009765625,-0.150543212890625
21704,0.283447265625,-0.9525146484375,-0.16448974609375
21705,0.28253173828125,-0.9798126220703124,-0.154571533203125
21706,0.2796478271484375,-0.95904541015625,-0.1539306640625
21707,0.28411865234375,-0.9873199462890624,-0.1771087646484375
21708,0.2791900634765625,-1.007904052734375,-0.021484375
21709,0.2823944091796875,-1.010147094726562,-0.05853271484375
21710,0.294219970703125,-1.012863159179688,-0.140289306640625
21711,0.298583984375,-0.989288330078125,-0.1241455078125
21712,0.30487060546875,-1.005462646484375,-0.0876312255859375
21713,0.346038818359375,-1.061203002929688,-0.0797576904296875
21714,0.3448028564453125,-1.101974487304688,-0.0431671142578125
21715,0.2906951904296875,-1.079010009765625,-0.0046844482421875
21716,0.296966552734375,-1.11083984375,-0.063995361328125
21717,0.3229217529296875,-1.10296630859375,-0.119140625
21718,0.3361663818359375,-1.135879516601562,-0.1815643310546875
21719,0.326995849609375,-1.174087524414062,-0.2588043212890625
21720,0.31878662109375,-1.1923828125,-0.3268280029296875
21721,0.3075714111328125,-1.173492431640625,-0.2918701171875
21722,0.2928619384765625,-1.093185424804688,-0.2288970947265625
21723,0.2960662841796875,-1.04803466796875,-0.2017669677734375
21724,0.2806854248046875,-1.015365600585938,-0.201995849609375
21725,0.2511444091796875,-0.9762115478515624,-0.1529388427734375
21726,0.2165679931640625,-0.9710693359375,-0.114013671875
21727,0.18017578125,-1.007369995117188,-0.107757568359375
21728,0.13909912109375,-1.045364379882812,-0.1440582275390625
21729,0.1024169921875,-1.037216186523438,-0.205322265625
21730,0.1169891357421875,-0.992706298828125,-0.333404541015625
21731,0.1169891357421875,-0.992706298828125,-0.333404541015625
21732,0.1182098388671875,-0.987762451171875,-0.373046875
21733,0.0955963134765625,-0.95733642578125,-0.4316253662109375
21734,0.035980224609375,-0.9083099365234376,-0.4895477294921875
21735,-0.046112060546875,-0.8233795166015625,-0.58660888671875
21736,-0.10919189453125,-0.7660980224609375,-0.6152801513671875
21737,-0.1802978515625,-0.6965789794921875,-0.635772705078125
21738,-0.2071380615234375,-0.6474609375,-0.6176605224609375
21739,-0.1745758056640625,-0.668975830078125,-0.552093505859375
21740,-0.0541534423828125,-0.7445068359375,-0.3895111083984375
21741,0.0504913330078125,-0.7814788818359375,-0.2950592041015625
21742,0.047607421875,-0.8071746826171875,-0.288421630859375
21743,0.047607421875,-0.8071746826171875,-0.288421630859375
21744,0.030487060546875,-0.7942657470703125,-0.2964630126953125
21745,-0.0378265380859375,-0.7320098876953125,-0.2271881103515625
21746,-0.0378265380859375,-0.7320098876953125,-0.2271881103515625
21747,-0.064605712890625,-0.766448974609375,-0.1518096923828125
21748,0.021820068359375,-0.9373016357421876,-0.0786895751953125
21749,0.0241546630859375,-1.206253051757812,-0.1231231689453125
21750,-0.031341552734375,-1.432357788085938,-0.2632598876953125
21751,-0.127410888671875,-1.5269775390625,-0.2993011474609375
21752,-0.2537689208984375,-1.43426513671875,-0.172637939453125
21753,-0.21258544921875,-0.928955078125,0.15948486328125
21754,-0.21258544921875,-0.928955078125,0.15948486328125
21755,-0.1530303955078125,-0.858489990234375,0.1749114990234375
21756,-0.1104888916015625,-0.875946044921875,0.012664794921875
21757,-0.0879058837890625,-0.89068603515625,-0.137298583984375
21758,-0.07806396484375,-0.880859375,-0.20452880859375
21759,-0.0481719970703125,-0.8877716064453125,-0.2156982421875
21760,-0.026092529296875,-0.9073944091796876,-0.184326171875
21761,-0.0884246826171875,-0.90838623046875,-0.041351318359375
21762,-0.0884246826171875,-0.90838623046875,-0.041351318359375
21763,-0.126373291015625,-0.883270263671875,-0.1266632080078125
21764,-0.1040191650390625,-0.8487396240234375,-0.2216644287109375
21765,-0.104522705078125,-0.8959808349609375,-0.107421875
21766,-0.09332275390625,-0.9935150146484376,-0.0306396484375
21767,-0.02471923828125,-0.9572601318359376,-0.0416412353515625
21768,0.013214111328125,-0.9000244140625,0.035736083984375
21769,0.0071258544921875,-0.9645843505859376,0.08123779296875
21770,0.0090179443359375,-1.070541381835938,0.1009979248046875
21771,0.00439453125,-1.135406494140625,0.1297760009765625
21772,-0.010589599609375,-1.151168823242188,0.064697265625
21773,-0.101043701171875,-1.02728271484375,-0.065460205078125
21774,-0.101043701171875,-1.02728271484375,-0.065460205078125
21775,-0.1244659423828125,-1.011444091796875,-0.07794189453125
21776,-0.127593994140625,-1.01177978515625,-0.07818603515625
21777,-0.108062744140625,-1.054473876953125,-0.057830810546875
21778,-0.0825958251953125,-1.063720703125,-0.0342254638671875
21779,-0.0542449951171875,-1.100387573242188,-0.0089263916015625
21780,0.05926513671875,-1.1717529296875,-0.0608673095703125
21781,0.18206787109375,-1.254165649414062,-0.0959625244140625
21782,0.17706298828125,-1.281051635742188,-0.10296630859375
21783,0.1171875,-1.307891845703125,-0.0825653076171875
21784,0.067657470703125,-1.327972412109375,-0.119873046875
21785,0.0133056640625,-1.321746826171875,-0.178436279296875
21786,-0.0504150390625,-1.259002685546875,-0.3683929443359375
21787,-0.0504150390625,-1.259002685546875,-0.3683929443359375
21788,0.010162353515625,-1.304580688476562,-0.39068603515625
21789,0.0502777099609375,-1.2718505859375,-0.2607421875
21790,0.1057891845703125,-1.26007080078125,-0.066497802734375
21791,0.214141845703125,-1.275955200195312,-0.0009765625
21792,0.2757110595703125,-1.236663818359375,-0.06036376953125
21793,0.2386016845703125,-1.131561279296875,-0.2227630615234375
21794,0.17169189453125,-1.007659912109375,-0.3744354248046875
21795,0.1455841064453125,-0.8957061767578125,-0.471099853515625
21796,0.175048828125,-0.8228607177734375,-0.5225677490234375
21797,0.2163238525390625,-0.7642822265625,-0.4953765869140625
21798,0.24932861328125,-0.7125091552734375,-0.389617919921875
21799,0.2901153564453125,-0.683685302734375,-0.29925537109375
21800,0.334564208984375,-0.6764984130859375,-0.2411041259765625
21801,0.4357757568359375,-0.8234100341796875,-0.2072296142578125
21802,0.4357757568359375,-0.8234100341796875,-0.2072296142578125
21803,0.4252166748046875,-0.9394378662109376,-0.1475830078125
21804,0.3380126953125,-1.014495849609375,-0.0283203125
21805,0.2422332763671875,-1.035430908203125,0.0636749267578125
21806,0.178131103515625,-1.039199829101562,0.0945281982421875
21807,0.14166259765625,-1.050399780273438,0.062530517578125
21808,0.1220245361328125,-1.064361572265625,-0.013153076171875
21809,0.1081085205078125,-1.062484741210938,-0.07415771484375
21810,0.0991363525390625,-1.031143188476562,-0.12939453125
21811,0.104461669921875,-0.994171142578125,-0.1441650390625
21812,0.097137451171875,-0.958770751953125,-0.14117431640625
21813,0.0889129638671875,-0.9073944091796876,-0.1516265869140625
21814,0.0837554931640625,-0.8441162109375,-0.1984710693359375
21815,0.0768280029296875,-0.810577392578125,-0.24200439453125
21816,0.08026123046875,-0.7808380126953125,-0.12774658203125
21817,0.09619140625,-0.756256103515625,-0.104888916015625
21818,0.1047821044921875,-0.7463531494140625,-0.1191864013671875
21819,0.1137847900390625,-0.7340545654296875,-0.1482391357421875
21820,0.120880126953125,-0.7295684814453125,-0.0731658935546875
21821,0.126190185546875,-0.716064453125,0.0033111572265625
21822,0.1022796630859375,-0.72674560546875,-0.0286102294921875
21823,0.1022796630859375,-0.72674560546875,-0.0286102294921875
21824,0.0797271728515625,-0.75506591796875,-0.05517578125
21825,0.0436553955078125,-0.78375244140625,-0.0398406982421875
21826,0.01397705078125,-0.83148193359375,-0.0353546142578125
21827,-0.0120086669921875,-0.8858489990234375,0.0090179443359375
21828,-0.017059326171875,-0.9225006103515624,0.099090576171875
21829,0.0051727294921875,-0.9536285400390624,0.1639251708984375
21830,0.05194091796875,-0.9625091552734376,0.1795806884765625
21831,0.1055755615234375,-0.9575958251953124,0.1516876220703125
21832,0.144500732421875,-0.9677581787109376,0.091156005859375
21833,0.1469879150390625,-1.000320434570312,0.053009033203125
21834,0.1251678466796875,-1.042800903320312,0.0078125
21835,0.0966796875,-1.080062866210938,-0.00567626953125
21836,0.0735931396484375,-1.107437133789062,0.0151519775390625
21837,0.04925537109375,-1.140487670898438,0.0591278076171875
21838,0.0085296630859375,-1.187820434570312,0.10247802734375
21839,0.0191192626953125,-1.241943359375,0.0982208251953125
21840,0.054779052734375,-1.2769775390625,0.1375579833984375
21841,0.0750274658203125,-1.32037353515625,0.1541290283203125
21842,0.0941009521484375,-1.33929443359375,0.193695068359375
21843,0.107635498046875,-1.341262817382812,0.2499542236328125
21844,0.1067657470703125,-1.339248657226562,0.289398193359375
21845,0.1526336669921875,-1.337356567382812,0.14190673828125
21846,0.1526336669921875,-1.337356567382812,0.14190673828125
21847,0.271881103515625,-1.352828979492188,-0.10394287109375
21848,0.3977813720703125,-1.395523071289062,-0.3626556396484375
21849,0.4731903076171875,-1.441482543945312,-0.458953857421875
21850,0.5122222900390625,-1.434463500976562,-0.451080322265625
21851,0.5279693603515625,-1.32342529296875,-0.5083465576171875
21852,0.4814300537109375,-1.158004760742188,-0.6632537841796875
21853,0.1891632080078125,-0.86798095703125,-0.708251953125
21854,0.1891632080078125,-0.86798095703125,-0.708251953125
21855,-0.0288543701171875,-0.7958831787109375,-0.5333099365234375
21856,-0.1553192138671875,-0.7235565185546875,-0.4662933349609375
21857,-0.229583740234375,-0.673187255859375,-0.445526123046875
21858,-0.2774505615234375,-0.6679534912109375,-0.4174346923828125
21859,-0.2818450927734375,-0.72613525390625,-0.39007568359375
21860,-0.23529052734375,-0.795501708984375,-0.3733367919921875
21861,-0.1739044189453125,-0.863494873046875,-0.2858123779296875
21862,-0.1188201904296875,-0.948974609375,-0.1793060302734375
21863,-0.03533935546875,-1.023300170898438,-0.1025238037109375
21864,0.05078125,-1.051101684570312,-0.0563507080078125
21865,0.1117706298828125,-1.044815063476562,-0.0148162841796875
21866,0.15863037109375,-1.0390625,-0.0166473388671875
21867,0.2049713134765625,-1.028060913085938,-0.0711212158203125
21868,0.243377685546875,-0.9899139404296876,-0.1223297119140625
21869,0.2533111572265625,-0.9393310546875,-0.123748779296875
21870,0.2075042724609375,-0.8719329833984375,-0.127349853515625
21871,0.2075042724609375,-0.8719329833984375,-0.127349853515625
21872,0.1663360595703125,-0.8522186279296875,-0.113677978515625
21873,0.0643768310546875,-0.7960968017578125,-0.0847015380859375
21874,0.0643768310546875,-0.7960968017578125,-0.0847015380859375
21875,-0.007843017578125,-0.7737884521484375,-0.047454833984375
21876,-0.0783233642578125,-0.769378662109375,-0.021240234375
21877,-0.1436004638671875,-0.77081298828125,-0.0010223388671875
21878,-0.1923065185546875,-0.753448486328125,0.017669677734375
21879,-0.1923065185546875,-0.753448486328125,0.017669677734375
21880,-0.1976470947265625,-0.7363128662109375,0.0167236328125
21881,-0.155975341796875,-0.7690887451171875,-0.0090179443359375
21882,-0.1114959716796875,-0.8185272216796875,-0.0276031494140625
21883,-0.0826873779296875,-0.8127593994140625,-0.041717529296875
21884,-0.0848846435546875,-0.793731689453125,-0.2300262451171875
21885,-0.048065185546875,-1.013427734375,0.0240020751953125
21886,0.007965087890625,-0.985382080078125,-0.024932861328125
21887,0.007965087890625,-0.985382080078125,-0.024932861328125
21888,-0.0214996337890625,-0.89276123046875,0.081512451171875
21889,-0.06146240234375,-0.8818817138671875,0.0318756103515625
21890,-0.0692291259765625,-0.934356689453125,-0.078094482421875
21891,-0.0347442626953125,-0.9390106201171876,0.0986328125
21892,-0.031036376953125,-0.9952392578125,0.024261474609375
21893,-0.0507659912109375,-1.072158813476562,0.066558837890625
21894,-0.018646240234375,-1.128448486328125,-0.0863037109375
21895,-0.018646240234375,-1.128448486328125,-0.0863037109375
21896,-0.00421142578125,-1.132278442382812,-0.062255859375
21897,-0.0036163330078125,-1.166015625,-0.0312042236328125
21898,0.019195556640625,-1.239959716796875,-0.0066680908203125
21899,0.044219970703125,-1.283432006835938,0.0896148681640625
21900,0.0680084228515625,-1.340988159179688,0.1862945556640625
21901,0.0876312255859375,-1.399520874023438,0.2519683837890625
21902,0.089752197265625,-1.43731689453125,0.2648162841796875
21903,0.05499267578125,-1.455307006835938,0.2112884521484375
21904,-0.0323944091796875,-1.46075439453125,0.0821075439453125
21905,-0.1335601806640625,-1.463729858398438,-0.14752197265625
21906,-0.191009521484375,-1.436813354492188,-0.3833160400390625
21907,-0.21453857421875,-1.369338989257812,-0.4920654296875
21908,-0.211395263671875,-1.296463012695312,-0.446868896484375
21909,-0.071441650390625,-1.12640380859375,-0.442779541015625
21910,-0.071441650390625,-1.12640380859375,-0.442779541015625
21911,0.0052337646484375,-1.006088256835938,-0.4478607177734375
21912,0.10382080078125,-0.868865966796875,-0.45452880859375
21913,0.192718505859375,-0.7692108154296875,-0.432861328125
21914,0.247802734375,-0.7222442626953125,-0.3187408447265625
21915,0.29833984375,-0.7583465576171875,-0.295379638671875
21916,0.344024658203125,-0.83648681640625,-0.3155975341796875
21917,0.4000396728515625,-1.007965087890625,-0.29974365234375
21918,0.4000396728515625,-1.007965087890625,-0.29974365234375
21919,0.356719970703125,-1.085968017578125,-0.2737274169921875
21920,0.276641845703125,-1.147598266601562,-0.25634765625
21921,0.1469573974609375,-1.158004760742188,-0.19647216796875
21922,0.1469573974609375,-1.158004760742188,-0.19647216796875
21923,0.0704193115234375,-1.119766235351562,-0.120361328125
21924,-0.0010986328125,-1.07855224609375,-0.0819091796875
