time_idx,accelerometerAccelerationX(G),accelerometerAccelerationY(G),accelerometerAccelerationZ(G)
140000,-0.1610107421875,1.37066650390625,0.289306640625
140001,-0.167388916015625,1.469375610351562,0.3314056396484375
140002,-0.1750640869140625,1.549301147460938,0.339813232421875
140003,-0.1945343017578125,1.606170654296875,0.35601806640625
140004,-0.2019500732421875,1.609039306640625,0.3916168212890625
140005,-0.17510986328125,1.5323486328125,0.42376708984375
140006,-0.1087799072265625,1.422470092773438,0.414794921875
140007,-0.0364227294921875,1.331832885742188,0.3874969482421875
140008,0.0215606689453125,1.267608642578125,0.353851318359375
140009,0.059356689453125,1.222518920898438,0.3123779296875
140010,0.085357666015625,1.186798095703125,0.26806640625
140011,0.109893798828125,1.162765502929688,0.233551025390625
140012,0.167327880859375,1.12286376953125,0.18780517578125
140013,0.167327880859375,1.12286376953125,0.18780517578125
140014,0.21533203125,1.118179321289062,0.15081787109375
140015,0.261383056640625,1.118133544921875,0.11962890625
140016,0.2846221923828125,1.1036376953125,0.095703125
140017,0.2963714599609375,1.06439208984375,0.072265625
140018,0.3102569580078125,1.023208618164062,0.041534423828125
140019,0.324920654296875,0.979400634765625,0.003570556640625
140020,0.3423004150390625,0.9507904052734376,-0.0207061767578125
140021,0.3632659912109375,0.9278717041015624,-0.031005859375
140022,0.384490966796875,0.91845703125,-0.025787353515625
140023,0.4067230224609375,0.9042205810546876,0.002593994140625
140024,0.42523193359375,0.8739166259765625,0.0321197509765625
140025,0.42523193359375,0.8739166259765625,0.0321197509765625
140026,0.434417724609375,0.8494415283203125,0.0622406005859375
140027,0.37054443359375,0.8777313232421875,0.010986328125
140028,0.37054443359375,0.8777313232421875,0.010986328125
140029,0.3217620849609375,0.8842010498046875,-0.040771484375
140030,0.268218994140625,0.8861236572265625,-0.09820556640625
140031,0.2247161865234375,0.8770751953125,-0.1497802734375
140032,0.1796875,0.851776123046875,-0.1863250732421875
140033,0.1502685546875,0.79351806640625,-0.1929473876953125
140034,0.1336669921875,0.7342376708984375,-0.191802978515625
140035,0.0746002197265625,0.634765625,-0.1856689453125
140036,0.0746002197265625,0.634765625,-0.1856689453125
140037,0.0501861572265625,0.6105499267578125,-0.1937255859375
140038,-0.0007476806640625,0.591217041015625,-0.2048187255859375
140039,-0.047454833984375,0.5886688232421875,-0.196075439453125
140040,-0.08209228515625,0.6309051513671875,-0.210052490234375
140041,-0.1079559326171875,0.6846771240234375,-0.25048828125
140042,-0.1079559326171875,0.6846771240234375,-0.25048828125
140043,-0.099334716796875,0.8180999755859375,-0.3592376708984375
140044,-0.038543701171875,0.8913421630859375,-0.4117431640625
140045,0.0638885498046875,0.9316253662109376,-0.4364166259765625
140046,0.14276123046875,0.9290618896484376,-0.4518890380859375
140047,0.19073486328125,0.9272613525390624,-0.4609375
140048,0.2326202392578125,1.025680541992188,-0.400634765625
140049,0.2886199951171875,1.12677001953125,-0.32916259765625
140050,0.2679290771484375,1.125228881835938,-0.29376220703125
140051,0.183929443359375,1.154342651367188,-0.1618194580078125
140052,0.1239013671875,1.226150512695312,0.0692901611328125
140053,0.1057281494140625,1.2457275390625,0.1742095947265625
140054,0.0928497314453125,1.200241088867188,0.1089935302734375
140055,0.064117431640625,0.983856201171875,-0.02606201171875
140056,0.064117431640625,0.983856201171875,-0.02606201171875
140057,0.064117431640625,0.983856201171875,-0.02606201171875
140058,0.0365447998046875,0.9576568603515624,-0.0069122314453125
140059,-0.0700225830078125,1.082199096679688,0.241790771484375
140060,-0.090728759765625,1.118927001953125,0.3857421875
140061,-0.11077880859375,1.120803833007812,0.4300384521484375
140062,-0.1318511962890625,1.134323120117188,0.4390411376953125
140063,-0.056549072265625,1.22174072265625,0.4182891845703125
140064,-0.056549072265625,1.22174072265625,0.4182891845703125
140065,0.016998291015625,1.274398803710938,0.3761138916015625
140066,0.099517822265625,1.321792602539062,0.3568572998046875
140067,0.182159423828125,1.365875244140625,0.342315673828125
140068,0.2373199462890625,1.378524780273438,0.330078125
140069,0.270111083984375,1.376632690429688,0.3232421875
140070,0.281829833984375,1.33782958984375,0.2643585205078125
140071,0.2723541259765625,1.264801025390625,0.186370849609375
140072,0.2542877197265625,1.186141967773438,0.1263885498046875
140073,0.223052978515625,1.124496459960938,0.0774993896484375
140074,0.223052978515625,1.124496459960938,0.0774993896484375
140075,0.128692626953125,1.084930419921875,-0.0768890380859375
140076,0.128692626953125,1.084930419921875,-0.0768890380859375
140077,0.12457275390625,1.0821533203125,-0.137237548828125
140078,0.1178131103515625,1.072952270507812,-0.165679931640625
140079,0.0678863525390625,1.021286010742188,-0.146759033203125
140080,0.0678863525390625,1.021286010742188,-0.146759033203125
140081,0.01458740234375,0.9751129150390624,-0.1239166259765625
140082,-0.0569610595703125,0.9387664794921876,-0.0858917236328125
140083,-0.13702392578125,0.920074462890625,-0.0378875732421875
140084,-0.206146240234375,0.9276580810546876,-0.0035400390625
140085,-0.234832763671875,0.967559814453125,0.0016937255859375
140086,-0.19195556640625,1.005584716796875,-0.02606201171875
140087,-0.1038055419921875,1.0166015625,-0.0810699462890625
140088,-0.003143310546875,0.986968994140625,-0.1227264404296875
140089,0.072845458984375,0.9385986328125,-0.1365509033203125
140090,0.123260498046875,0.87982177734375,-0.1240234375
140091,0.1613006591796875,0.7667083740234375,-0.1162261962890625
140092,0.1613006591796875,0.7667083740234375,-0.1162261962890625
140093,0.1787261962890625,0.737335205078125,-0.14129638671875
140094,0.197357177734375,0.722686767578125,-0.173095703125
140095,0.227569580078125,0.673553466796875,-0.225921630859375
140096,0.227569580078125,0.673553466796875,-0.225921630859375
140097,0.243194580078125,0.6384124755859375,-0.2468719482421875
140098,0.259735107421875,0.60272216796875,-0.2581787109375
140099,0.2797088623046875,0.5617828369140625,-0.2679901123046875
140100,0.2797088623046875,0.5617828369140625,-0.2679901123046875
140101,0.2865753173828125,0.5567169189453125,-0.268310546875
140102,0.29803466796875,0.5991058349609375,-0.28350830078125
140103,0.309722900390625,0.6776275634765625,-0.30828857421875
140104,0.31884765625,0.7296905517578125,-0.3318939208984375
140105,0.31884765625,0.7296905517578125,-0.3318939208984375
140106,0.3301544189453125,0.7860260009765625,-0.3290252685546875
140107,0.247314453125,0.961761474609375,-0.2615814208984375
140108,0.247314453125,0.961761474609375,-0.2615814208984375
140109,0.247314453125,0.961761474609375,-0.2615814208984375
140110,0.193389892578125,1.054275512695312,-0.2255706787109375
140111,-0.0653228759765625,1.173492431640625,0.2122039794921875
140112,-0.0653228759765625,1.173492431640625,0.2122039794921875
140113,-0.0653228759765625,1.173492431640625,0.2122039794921875
140114,-0.0873260498046875,1.100494384765625,0.3528289794921875
140115,0.004180908203125,1.056610107421875,-0.0058746337890625
140116,-0.0007781982421875,1.093994140625,-0.0341949462890625
140117,-0.0007781982421875,1.093994140625,-0.0341949462890625
140118,-0.0046234130859375,1.150482177734375,0.0219573974609375
140119,-0.1063232421875,1.2957763671875,0.5557403564453125
140120,-0.1063232421875,1.2957763671875,0.5557403564453125
140121,-0.1253814697265625,1.367416381835938,0.571502685546875
140122,-0.1413421630859375,1.433364868164062,0.4947967529296875
140123,-0.1343841552734375,1.474014282226562,0.418304443359375
140124,-0.119873046875,1.50079345703125,0.3974761962890625
140125,-0.105133056640625,1.479400634765625,0.411895751953125
140126,-0.0904693603515625,1.4140625,0.396148681640625
140127,-0.0671844482421875,1.345993041992188,0.353057861328125
140128,-0.0496978759765625,1.276641845703125,0.3005218505859375
140129,-0.0496978759765625,1.276641845703125,0.3005218505859375
140130,-0.0316009521484375,1.214080810546875,0.2252655029296875
140131,0.0164031982421875,1.089859008789062,0.1170806884765625
140132,0.037322998046875,1.035003662109375,0.100738525390625
140133,0.06561279296875,0.995819091796875,0.086517333984375
140134,0.1110687255859375,1.008804321289062,0.0622711181640625
140135,0.2201385498046875,1.086654663085938,0.0025787353515625
140136,0.2201385498046875,1.086654663085938,0.0025787353515625
140137,0.2201385498046875,1.086654663085938,0.0025787353515625
140138,0.2622222900390625,1.091629028320312,-0.0409088134765625
140139,0.3586578369140625,1.057693481445312,-0.1228179931640625
140140,0.39044189453125,1.0322265625,-0.14178466796875
140141,0.4197845458984375,1.000625610351562,-0.13702392578125
140142,0.4428253173828125,0.9759674072265624,-0.0959320068359375
140143,0.4414825439453125,0.963104248046875,-0.0307159423828125
140144,0.3968353271484375,0.95697021484375,0.000762939453125
140145,0.3152313232421875,0.94757080078125,-0.0385894775390625
140146,0.2342529296875,0.950714111328125,-0.0995635986328125
140147,0.164642333984375,0.9386444091796876,-0.1616973876953125
140148,0.11309814453125,0.8940887451171875,-0.21832275390625
140149,0.11309814453125,0.8940887451171875,-0.21832275390625
140150,0.0770416259765625,0.842681884765625,-0.2682342529296875
140151,0.032623291015625,0.608428955078125,-0.296112060546875
140152,0.032623291015625,0.608428955078125,-0.296112060546875
140153,0.032623291015625,0.608428955078125,-0.296112060546875
140154,0.017364501953125,0.538970947265625,-0.2809906005859375
140155,-0.064361572265625,0.4866485595703125,-0.2283477783203125
140156,-0.064361572265625,0.4866485595703125,-0.2283477783203125
140157,-0.064361572265625,0.4866485595703125,-0.2283477783203125
140158,-0.08843994140625,0.531341552734375,-0.244720458984375
140159,-0.0312957763671875,0.7943572998046875,-0.3177642822265625
140160,0.0443267822265625,0.887786865234375,-0.3586883544921875
140161,0.0443267822265625,0.887786865234375,-0.3586883544921875
140162,0.1108245849609375,0.9405517578125,-0.3972320556640625
140163,0.2193756103515625,1.031646728515625,-0.478240966796875
140164,0.266204833984375,1.105911254882812,-0.49615478515625
140165,0.266204833984375,1.105911254882812,-0.49615478515625
140166,0.2947845458984375,1.182113647460938,-0.428314208984375
140167,0.2262420654296875,1.28033447265625,-0.12213134765625
140168,0.1683349609375,1.269912719726562,0.02191162109375
140169,0.135986328125,1.214447021484375,0.1093597412109375
140170,0.1477508544921875,1.117294311523438,0.086273193359375
140171,0.178802490234375,1.040908813476562,0.020111083984375
140172,0.1830596923828125,1.00201416015625,0.0081024169921875
140173,0.161346435546875,0.9895782470703124,0.0967559814453125
140174,0.1189727783203125,0.9825286865234376,0.2353057861328125
140175,0.013671875,0.997467041015625,0.44146728515625
140176,0.013671875,0.997467041015625,0.44146728515625
140177,-0.02630615234375,1.037261962890625,0.465850830078125
140178,-0.0587158203125,1.085235595703125,0.45562744140625
140179,-0.0743560791015625,1.146148681640625,0.4350433349609375
140180,-0.0631256103515625,1.225006103515625,0.416229248046875
140181,-0.0242919921875,1.289108276367188,0.3876800537109375
140182,0.0367584228515625,1.324722290039062,0.3515777587890625
140183,0.106689453125,1.340072631835938,0.298675537109375
140184,0.106689453125,1.340072631835938,0.298675537109375
140185,0.1043701171875,1.304611206054688,0.262969970703125
140186,0.0867156982421875,1.267471313476562,0.2260284423828125
140187,0.0402984619140625,1.18414306640625,0.0862579345703125
140188,0.0402984619140625,1.18414306640625,0.0862579345703125
140189,0.0402984619140625,1.18414306640625,0.0862579345703125
140190,0.0180206298828125,1.137481689453125,0.0230712890625
140191,-0.0305938720703125,1.005844116210938,-0.138916015625
140192,-0.0305938720703125,1.005844116210938,-0.138916015625
140193,-0.0516815185546875,0.991485595703125,-0.1511688232421875
140194,-0.08441162109375,1.003814697265625,-0.1515960693359375
140195,-0.1185760498046875,1.025894165039062,-0.1600341796875
140196,-0.1390228271484375,1.0457763671875,-0.173431396484375
140197,-0.161041259765625,1.04522705078125,-0.200469970703125
140198,-0.1733551025390625,1.044509887695312,-0.2338714599609375
140199,-0.1766357421875,1.046463012695312,-0.262664794921875
140200,-0.161590576171875,1.044479370117188,-0.2631072998046875
140201,-0.12005615234375,1.0572509765625,-0.242462158203125
140202,-0.0579986572265625,1.068405151367188,-0.245086669921875
140203,0.119140625,0.9850006103515624,-0.2690887451171875
140204,0.119140625,0.9850006103515624,-0.2690887451171875
140205,0.119140625,0.9850006103515624,-0.2690887451171875
140206,0.2765045166015625,0.845977783203125,-0.23583984375
140207,0.317779541015625,0.671844482421875,-0.217742919921875
140208,0.317779541015625,0.671844482421875,-0.217742919921875
140209,0.319549560546875,0.6107330322265625,-0.2027740478515625
140210,0.32794189453125,0.57666015625,-0.1828460693359375
140211,0.367034912109375,0.5066375732421875,-0.163482666015625
140212,0.367034912109375,0.5066375732421875,-0.163482666015625
140213,0.367034912109375,0.5066375732421875,-0.163482666015625
140214,0.3939971923828125,0.4846343994140625,-0.1581268310546875
140215,0.4113922119140625,0.56292724609375,-0.0920562744140625
140216,0.4113922119140625,0.56292724609375,-0.0920562744140625
140217,0.4113922119140625,0.56292724609375,-0.0920562744140625
140218,0.3748626708984375,0.614044189453125,-0.07403564453125
140219,0.2881317138671875,0.744415283203125,-0.1090240478515625
140220,0.2627410888671875,0.8289031982421875,-0.1639556884765625
140221,0.2627410888671875,0.8289031982421875,-0.1639556884765625
140222,0.24310302734375,0.92218017578125,-0.2194671630859375
140223,0.0789031982421875,1.191146850585938,-0.25115966796875
140224,0.0789031982421875,1.191146850585938,-0.25115966796875
140225,0.0196533203125,1.24932861328125,-0.1519317626953125
140226,-0.0140838623046875,1.269515991210938,-0.035369873046875
140227,-0.0275421142578125,1.267196655273438,0.02081298828125
140228,-0.0247039794921875,1.244598388671875,0.0452423095703125
140229,-0.0247039794921875,1.244598388671875,0.0452423095703125
140230,0.000244140625,1.20660400390625,0.04449462890625
140231,0.0103912353515625,1.140914916992188,0.14007568359375
140232,0.0103912353515625,1.140914916992188,0.14007568359375
140233,-0.0092620849609375,1.178115844726562,0.2497100830078125
140234,-0.02099609375,1.209747314453125,0.3345794677734375
140235,-0.0106658935546875,1.28350830078125,0.4238433837890625
140236,-0.0106658935546875,1.28350830078125,0.4238433837890625
140237,-0.0106658935546875,1.28350830078125,0.4238433837890625
140238,-0.0399932861328125,1.300155639648438,0.4269866943359375
140239,-0.042510986328125,1.304107666015625,0.3724517822265625
140240,-0.000213623046875,1.293975830078125,0.325042724609375
140241,0.0461883544921875,1.2711181640625,0.28936767578125
140242,0.0677642822265625,1.250274658203125,0.25494384765625
140243,0.0879058837890625,1.226364135742188,0.19879150390625
140244,0.1103668212890625,1.190643310546875,0.1274566650390625
140245,0.1282196044921875,1.170578002929688,0.0636444091796875
140246,0.162689208984375,1.167373657226562,0.0048675537109375
140247,0.2091064453125,1.151596069335938,-0.0033721923828125
140248,0.2091064453125,1.151596069335938,-0.0033721923828125
140249,0.216522216796875,1.160507202148438,0.0139923095703125
140250,0.216522216796875,1.160507202148438,0.0139923095703125
140251,0.292327880859375,1.103836059570312,-0.0174560546875
140252,0.292327880859375,1.103836059570312,-0.0174560546875
140253,0.292327880859375,1.103836059570312,-0.0174560546875
140254,0.3240203857421875,1.054031372070312,-0.0633087158203125
140255,0.3770751953125,0.9489288330078124,-0.08349609375
140256,0.3770751953125,0.9489288330078124,-0.08349609375
140257,0.3878631591796875,0.9320220947265624,-0.06219482421875
140258,0.3878631591796875,0.9320220947265624,-0.06219482421875
140259,0.341339111328125,0.9210662841796876,-0.011749267578125
140260,0.341339111328125,0.9210662841796876,-0.011749267578125
140261,0.341339111328125,0.9210662841796876,-0.011749267578125
140262,0.29986572265625,0.9111175537109376,-0.03717041015625
140263,0.1715087890625,0.832489013671875,-0.19366455078125
140264,0.1715087890625,0.832489013671875,-0.19366455078125
140265,0.1269378662109375,0.7766876220703125,-0.2342987060546875
140266,0.085296630859375,0.7188568115234375,-0.2440185546875
140267,0.0324554443359375,0.6438446044921875,-0.2115325927734375
140268,0.0324554443359375,0.6438446044921875,-0.2115325927734375
140269,0.020843505859375,0.6178741455078125,-0.1984710693359375
140270,0.014373779296875,0.592315673828125,-0.1908721923828125
140271,-0.0086517333984375,0.582183837890625,-0.1769561767578125
140272,-0.0086517333984375,0.582183837890625,-0.1769561767578125
140273,-0.0086517333984375,0.582183837890625,-0.1769561767578125
140274,-0.0069427490234375,0.6100616455078125,-0.181884765625
140275,0.0698089599609375,0.8032989501953125,-0.2408294677734375
140276,0.0698089599609375,0.8032989501953125,-0.2408294677734375
140277,0.0698089599609375,0.8032989501953125,-0.2408294677734375
140278,0.09259033203125,0.8540802001953125,-0.265533447265625
140279,0.190155029296875,1.000228881835938,-0.3404541015625
140280,0.190155029296875,1.000228881835938,-0.3404541015625
140281,0.2159423828125,1.065719604492188,-0.3536529541015625
140282,0.2159423828125,1.065719604492188,-0.3536529541015625
140283,0.19342041015625,1.220443725585938,-0.132659912109375
140284,0.19342041015625,1.220443725585938,-0.132659912109375
140285,0.19342041015625,1.220443725585938,-0.132659912109375
140286,0.1380767822265625,1.207489013671875,0.0217742919921875
140287,0.0677947998046875,1.06378173828125,0.012176513671875
140288,0.0677947998046875,1.06378173828125,0.012176513671875
140289,0.0646514892578125,1.057708740234375,-0.019744873046875
140290,0.0670013427734375,1.060394287109375,0.0326995849609375
140291,0.0774688720703125,1.040695190429688,0.26763916015625
140292,0.0774688720703125,1.040695190429688,0.26763916015625
140293,0.07025146484375,1.030548095703125,0.38836669921875
140294,0.07025146484375,1.030548095703125,0.38836669921875
140295,0.0362548828125,1.104217529296875,0.5366363525390625
140296,0.0362548828125,1.104217529296875,0.5366363525390625
140297,0.021759033203125,1.166412353515625,0.52545166015625
140298,0.021759033203125,1.166412353515625,0.52545166015625
140299,0.0074615478515625,1.282546997070312,0.4791412353515625
140300,0.02020263671875,1.305068969726562,0.4760589599609375
140301,0.02020263671875,1.305068969726562,0.4760589599609375
140302,0.040008544921875,1.292648315429688,0.474395751953125
140303,0.0951690673828125,1.191314697265625,0.2602081298828125
140304,0.0951690673828125,1.191314697265625,0.2602081298828125
140305,0.0951690673828125,1.191314697265625,0.2602081298828125
140306,0.08978271484375,1.15924072265625,0.1985931396484375
140307,0.020263671875,1.145355224609375,0.0057830810546875
140308,0.020263671875,1.145355224609375,0.0057830810546875
140309,0.020263671875,1.145355224609375,0.0057830810546875
140310,-0.0125274658203125,1.164657592773438,-0.0511016845703125
140311,-0.0071868896484375,1.046722412109375,-0.126800537109375
140312,-0.0071868896484375,1.046722412109375,-0.126800537109375
140313,-0.0071868896484375,1.046722412109375,-0.126800537109375
140314,-0.00994873046875,0.9714508056640624,-0.1337432861328125
140315,-0.054107666015625,0.8547210693359375,-0.215087890625
140316,-0.054107666015625,0.8547210693359375,-0.215087890625
140317,-0.054107666015625,0.8547210693359375,-0.215087890625
140318,-0.102325439453125,0.876373291015625,-0.23565673828125
140319,-0.16241455078125,1.107147216796875,-0.13775634765625
140320,-0.16241455078125,1.107147216796875,-0.13775634765625
140321,-0.066619873046875,1.139266967773438,-0.1151885986328125
140322,0.0189208984375,1.121414184570312,-0.1226654052734375
140323,0.1169891357421875,1.01202392578125,-0.12451171875
140324,0.1169891357421875,1.01202392578125,-0.12451171875
140325,0.1169891357421875,1.01202392578125,-0.12451171875
140326,0.1419830322265625,0.9089508056640624,-0.1371002197265625
140327,0.156890869140625,0.7274627685546875,-0.164154052734375
140328,0.156890869140625,0.7274627685546875,-0.164154052734375
140329,0.156890869140625,0.7274627685546875,-0.164154052734375
140330,0.1669464111328125,0.703582763671875,-0.17669677734375
140331,0.2192535400390625,0.5930938720703125,-0.161163330078125
140332,0.2192535400390625,0.5930938720703125,-0.161163330078125
140333,0.233428955078125,0.555328369140625,-0.1207733154296875
140334,0.2409820556640625,0.5335540771484375,-0.0891876220703125
140335,0.2630615234375,0.542938232421875,-0.061614990234375
140336,0.2630615234375,0.542938232421875,-0.061614990234375
140337,0.2630615234375,0.542938232421875,-0.061614990234375
140338,0.2761993408203125,0.580169677734375,-0.05810546875
140339,0.25213623046875,0.7923126220703125,-0.00836181640625
140340,0.25213623046875,0.7923126220703125,-0.00836181640625
140341,0.25213623046875,0.7923126220703125,-0.00836181640625
140342,0.19366455078125,0.886474609375,0.01690673828125
140343,0.038543701171875,1.07757568359375,0.0268096923828125
140344,0.038543701171875,1.07757568359375,0.0268096923828125
140345,0.023956298828125,1.115859985351562,-0.0896759033203125
140346,0.049896240234375,1.170394897460938,-0.1447906494140625
140347,0.0822601318359375,1.317092895507812,-0.0013580322265625
140348,0.0822601318359375,1.317092895507812,-0.0013580322265625
140349,0.0822601318359375,1.317092895507812,-0.0013580322265625
140350,0.080078125,1.327804565429688,0.1505889892578125
140351,0.0032958984375,1.302886962890625,0.3725433349609375
140352,0.0032958984375,1.302886962890625,0.3725433349609375
140353,0.0032958984375,1.302886962890625,0.3725433349609375
140354,-0.025848388671875,1.304580688476562,0.3959503173828125
140355,-0.143585205078125,1.272323608398438,0.57135009765625
140356,-0.143585205078125,1.272323608398438,0.57135009765625
140357,-0.1356201171875,1.248931884765625,0.569427490234375
140358,-0.1356201171875,1.248931884765625,0.569427490234375
140359,0.0095672607421875,1.217422485351562,0.4559173583984375
140360,0.0095672607421875,1.217422485351562,0.4559173583984375
140361,0.0095672607421875,1.217422485351562,0.4559173583984375
140362,0.046356201171875,1.200393676757812,0.3994598388671875
140363,0.1763763427734375,1.263275146484375,0.1511383056640625
140364,0.1763763427734375,1.263275146484375,0.1511383056640625
140365,0.1993560791015625,1.274093627929688,0.0856170654296875
140366,0.1949462890625,1.270477294921875,0.0334625244140625
140367,0.1905059814453125,1.162307739257812,-0.0293731689453125
140368,0.1905059814453125,1.162307739257812,-0.0293731689453125
140369,0.1965179443359375,1.10809326171875,-0.05914306640625
140370,0.1923980712890625,1.079055786132812,-0.08612060546875
140371,0.2064971923828125,1.030410766601562,-0.079620361328125
140372,0.2064971923828125,1.030410766601562,-0.079620361328125
140373,0.2064971923828125,1.030410766601562,-0.079620361328125
140374,0.2172698974609375,1.010726928710938,-0.0607147216796875
140375,0.2789459228515625,0.9588470458984376,0.0260162353515625
140376,0.2789459228515625,0.9588470458984376,0.0260162353515625
140377,0.2789459228515625,0.9588470458984376,0.0260162353515625
140378,0.29437255859375,0.91705322265625,0.0880584716796875
140379,0.26641845703125,0.89251708984375,0.047698974609375
140380,0.26641845703125,0.89251708984375,0.047698974609375
140381,0.26641845703125,0.89251708984375,0.047698974609375
140382,0.2345123291015625,0.8727264404296875,-0.0059814453125
140383,0.1501922607421875,0.7387847900390625,-0.160400390625
140384,0.1501922607421875,0.7387847900390625,-0.160400390625
140385,0.1501922607421875,0.7387847900390625,-0.160400390625
140386,0.0904541015625,0.6490936279296875,-0.2051239013671875
140387,0.0363311767578125,0.581207275390625,-0.180511474609375
140388,0.0363311767578125,0.581207275390625,-0.180511474609375
140389,0.0363311767578125,0.581207275390625,-0.180511474609375
140390,0.0112152099609375,0.573638916015625,-0.160491943359375
140391,-0.088958740234375,0.618896484375,-0.080108642578125
140392,-0.088958740234375,0.618896484375,-0.080108642578125
140393,-0.0959625244140625,0.62921142578125,-0.05804443359375
140394,-0.0959625244140625,0.62921142578125,-0.05804443359375
140395,-0.0171051025390625,0.74969482421875,-0.0697479248046875
140396,-0.0171051025390625,0.74969482421875,-0.0697479248046875
140397,0.0387115478515625,0.808013916015625,-0.0960235595703125
140398,0.0387115478515625,0.808013916015625,-0.0960235595703125
140399,0.199066162109375,1.014846801757812,-0.190032958984375
140400,0.199066162109375,1.014846801757812,-0.190032958984375
140401,0.199066162109375,1.014846801757812,-0.190032958984375
140402,0.26483154296875,1.189453125,-0.153900146484375
140403,0.2179718017578125,1.279647827148438,0.0274200439453125
140404,0.2179718017578125,1.279647827148438,0.0274200439453125
140405,0.2179718017578125,1.279647827148438,0.0274200439453125
140406,0.164642333984375,1.207717895507812,-0.0838623046875
140407,0.083343505859375,1.157760620117188,-0.080108642578125
140408,0.083343505859375,1.157760620117188,-0.080108642578125
140409,0.083343505859375,1.157760620117188,-0.080108642578125
140410,-0.028076171875,1.051132202148438,0.172882080078125
140411,-0.07281494140625,1.055130004882812,0.3429718017578125
140412,-0.07281494140625,1.055130004882812,0.3429718017578125
140413,-0.0821685791015625,1.108139038085938,0.4357147216796875
140414,-0.0875701904296875,1.182952880859375,0.532135009765625
140415,-0.0858306884765625,1.247100830078125,0.593170166015625
140416,-0.078948974609375,1.303421020507812,0.6004486083984375
140417,-0.0532379150390625,1.324111938476562,0.570281982421875
140418,-0.0279998779296875,1.305404663085938,0.5417633056640625
140419,-0.0137481689453125,1.261947631835938,0.5706634521484375
140420,-0.01226806640625,1.22381591796875,0.5921173095703125
140421,-0.000396728515625,1.194961547851562,0.5406494140625
140422,0.0198516845703125,1.164031982421875,0.4525909423828125
140423,0.0580291748046875,1.150283813476562,0.270538330078125
140424,0.0580291748046875,1.150283813476562,0.270538330078125
140425,0.069244384765625,1.15509033203125,0.1656036376953125
140426,0.0759429931640625,1.160614013671875,0.074920654296875
140427,0.096527099609375,1.13360595703125,-0.0710601806640625
140428,0.096527099609375,1.13360595703125,-0.0710601806640625
140429,0.096527099609375,1.13360595703125,-0.0710601806640625
140430,0.1155853271484375,1.09893798828125,-0.123382568359375
140431,0.0837860107421875,0.981201171875,-0.181060791015625
140432,0.0837860107421875,0.981201171875,-0.181060791015625
140433,0.0127716064453125,0.939971923828125,-0.202423095703125
140434,-0.03253173828125,0.90985107421875,-0.203857421875
140435,-0.1212158203125,0.9286041259765624,-0.242645263671875
140436,-0.1212158203125,0.9286041259765624,-0.242645263671875
140437,-0.1638336181640625,0.94586181640625,-0.247467041015625
140438,-0.2174224853515625,0.9593048095703124,-0.22125244140625
140439,-0.2338104248046875,0.9748687744140624,-0.0784149169921875
140440,-0.2338104248046875,0.9748687744140624,-0.0784149169921875
140441,-0.2338104248046875,0.9748687744140624,-0.0784149169921875
140442,-0.168426513671875,0.9550628662109376,-0.0064849853515625
140443,0.0477752685546875,0.871673583984375,0.0100555419921875
140444,0.1186370849609375,0.8456268310546875,-0.024200439453125
140445,0.1186370849609375,0.8456268310546875,-0.024200439453125
140446,0.127685546875,0.819366455078125,-0.0566253662109375
140447,0.1748046875,0.7488250732421875,-0.181732177734375
140448,0.1748046875,0.7488250732421875,-0.181732177734375
140449,0.1998138427734375,0.70599365234375,-0.1865692138671875
140450,0.2213592529296875,0.6481170654296875,-0.1776580810546875
140451,0.2557525634765625,0.5873260498046875,-0.111236572265625
140452,0.2557525634765625,0.5873260498046875,-0.111236572265625
140453,0.267059326171875,0.58062744140625,-0.081146240234375
140454,0.267059326171875,0.58062744140625,-0.081146240234375
140455,0.2922210693359375,0.6664886474609375,-0.018829345703125
140456,0.2922210693359375,0.6664886474609375,-0.018829345703125
140457,0.299346923828125,0.724853515625,-0.01190185546875
140458,0.3052825927734375,0.7925872802734375,-0.00897216796875
140459,0.2758941650390625,0.97296142578125,0.03277587890625
140460,0.2758941650390625,0.97296142578125,0.03277587890625
140461,0.2362213134765625,1.0504150390625,0.094482421875
140462,0.189666748046875,1.101821899414062,0.10516357421875
140463,0.1053924560546875,1.151535034179688,-0.0492095947265625
140464,0.1053924560546875,1.151535034179688,-0.0492095947265625
140465,0.080596923828125,1.188385009765625,-0.0858612060546875
140466,0.0694122314453125,1.22637939453125,-0.03924560546875
140467,0.0414581298828125,1.28167724609375,0.256103515625
140468,0.0414581298828125,1.28167724609375,0.256103515625
140469,0.0115814208984375,1.2762451171875,0.3578033447265625
140470,-0.0135345458984375,1.291152954101562,0.43304443359375
140471,-0.0703125,1.398727416992188,0.5635223388671875
140472,-0.0703125,1.398727416992188,0.5635223388671875
140473,-0.0703125,1.398727416992188,0.5635223388671875
140474,-0.1273956298828125,1.43963623046875,0.604583740234375
140475,-0.117584228515625,1.387435913085938,0.491912841796875
140476,-0.117584228515625,1.387435913085938,0.491912841796875
140477,-0.107391357421875,1.337066650390625,0.4533843994140625
140478,-0.113250732421875,1.289947509765625,0.4106597900390625
140479,-0.0980682373046875,1.156829833984375,0.2820281982421875
140480,-0.0980682373046875,1.156829833984375,0.2820281982421875
140481,-0.0980682373046875,1.156829833984375,0.2820281982421875
140482,-0.061981201171875,1.113571166992188,0.211761474609375
140483,0.0990753173828125,1.148651123046875,0.14312744140625
140484,0.0990753173828125,1.148651123046875,0.14312744140625
140485,0.139007568359375,1.154800415039062,0.1114044189453125
140486,0.139007568359375,1.154800415039062,0.1114044189453125
140487,0.2277374267578125,1.104110717773438,-0.049652099609375
140488,0.2277374267578125,1.104110717773438,-0.049652099609375
140489,0.2400970458984375,1.051849365234375,-0.0887908935546875
140490,0.2400970458984375,1.051849365234375,-0.0887908935546875
140491,0.2544403076171875,0.89129638671875,-0.089111328125
140492,0.2544403076171875,0.89129638671875,-0.089111328125
140493,0.2770843505859375,0.8448333740234375,-0.052581787109375
140494,0.2770843505859375,0.8448333740234375,-0.052581787109375
140495,0.3534393310546875,0.799285888671875,0.0984039306640625
140496,0.3534393310546875,0.799285888671875,0.0984039306640625
140497,0.35125732421875,0.7993927001953125,0.1266326904296875
140498,0.33642578125,0.8107452392578125,0.0994873046875
140499,0.22381591796875,0.8375701904296875,-0.050750732421875
140500,0.22381591796875,0.8375701904296875,-0.050750732421875
140501,0.1735687255859375,0.8053436279296875,-0.11260986328125
140502,0.1735687255859375,0.8053436279296875,-0.11260986328125
140503,0.0956268310546875,0.6609954833984375,-0.226348876953125
140504,0.0956268310546875,0.6609954833984375,-0.226348876953125
140505,0.061309814453125,0.6156768798828125,-0.2164306640625
140506,0.0262908935546875,0.5782012939453125,-0.1873321533203125
140507,-0.0589447021484375,0.577606201171875,-0.1555938720703125
140508,-0.0589447021484375,0.577606201171875,-0.1555938720703125
140509,-0.090179443359375,0.640869140625,-0.125946044921875
140510,-0.090179443359375,0.640869140625,-0.125946044921875
140511,-0.1266326904296875,0.866363525390625,-0.1188201904296875
140512,-0.1266326904296875,0.866363525390625,-0.1188201904296875
140513,-0.1266326904296875,0.866363525390625,-0.1188201904296875
140514,-0.1015777587890625,0.91876220703125,-0.1495208740234375
140515,0.0735321044921875,0.993499755859375,-0.2996673583984375
140516,0.0735321044921875,0.993499755859375,-0.2996673583984375
140517,0.1450347900390625,1.036727905273438,-0.3606414794921875
140518,0.2107086181640625,1.085662841796875,-0.4107818603515625
140519,0.3155975341796875,1.187423706054688,-0.3641510009765625
140520,0.3155975341796875,1.187423706054688,-0.3641510009765625
140521,0.3421478271484375,1.242767333984375,-0.251220703125
140522,0.3184967041015625,1.291580200195312,-0.0744171142578125
140523,0.24560546875,1.243698120117188,0.16778564453125
140524,0.24560546875,1.243698120117188,0.16778564453125
140525,0.233642578125,1.16925048828125,0.067169189453125
140526,0.233642578125,1.16925048828125,0.067169189453125
140527,0.1012115478515625,1.02081298828125,0.1910247802734375
140528,0.1012115478515625,1.02081298828125,0.1910247802734375
140529,0.0294342041015625,1.001373291015625,0.3250732421875
140530,-0.0425872802734375,1.008026123046875,0.4289398193359375
140531,-0.1324615478515625,1.150222778320312,0.6250457763671875
140532,-0.1324615478515625,1.150222778320312,0.6250457763671875
140533,-0.1414794921875,1.223587036132812,0.683807373046875
140534,-0.1273040771484375,1.268936157226562,0.6770782470703125
140535,-0.0440216064453125,1.238327026367188,0.6088409423828125
140536,-0.0440216064453125,1.238327026367188,0.6088409423828125
140537,-0.0440216064453125,1.238327026367188,0.6088409423828125
140538,-0.0055389404296875,1.178573608398438,0.6422882080078125
140539,-0.0270233154296875,1.11529541015625,0.536773681640625
140540,-0.0270233154296875,1.11529541015625,0.536773681640625
140541,-0.0270233154296875,1.11529541015625,0.536773681640625
140542,-0.018585205078125,1.125335693359375,0.420745849609375
140543,-0.01910400390625,1.157577514648438,0.1918487548828125
140544,-0.019683837890625,1.163406372070312,0.0903778076171875
140545,-0.0255889892578125,1.16943359375,-0.0010528564453125
140546,-0.0346832275390625,1.170700073242188,-0.0755615234375
140547,-0.019561767578125,1.093994140625,-0.1778564453125
140548,-0.019561767578125,1.093994140625,-0.1778564453125
140549,0.0113983154296875,1.048049926757812,-0.20391845703125
140550,0.031707763671875,0.9981536865234376,-0.2255706787109375
140551,0.034393310546875,0.9509735107421876,-0.2588958740234375
140552,0.02362060546875,0.949249267578125,-0.2915802001953125
140553,-0.003204345703125,0.9735870361328124,-0.31005859375
140554,-0.0630950927734375,1.004852294921875,-0.323516845703125
140555,-0.20196533203125,1.004318237304688,-0.2767486572265625
140556,-0.20196533203125,1.004318237304688,-0.2767486572265625
140557,-0.2490081787109375,0.96917724609375,-0.1979217529296875
140558,-0.2490081787109375,0.96917724609375,-0.1979217529296875
140559,-0.0785064697265625,0.823944091796875,0.0103912353515625
140560,-0.0785064697265625,0.823944091796875,0.0103912353515625
140561,-0.0785064697265625,0.823944091796875,0.0103912353515625
140562,0.052734375,0.7977142333984375,-0.0475311279296875
140563,0.1845703125,0.7266082763671875,-0.139617919921875
140564,0.1926116943359375,0.697296142578125,-0.1573944091796875
140565,0.200775146484375,0.694305419921875,-0.163726806640625
140566,0.2068634033203125,0.70599365234375,-0.18890380859375
140567,0.2211761474609375,0.701263427734375,-0.2082977294921875
140568,0.2211761474609375,0.701263427734375,-0.2082977294921875
140569,0.22900390625,0.684539794921875,-0.2069549560546875
140570,0.23004150390625,0.6622467041015625,-0.2029571533203125
140571,0.2327117919921875,0.646209716796875,-0.173004150390625
140572,0.2322845458984375,0.640899658203125,-0.13165283203125
140573,0.2440643310546875,0.639007568359375,-0.111663818359375
140574,0.2440643310546875,0.639007568359375,-0.111663818359375
140575,0.28179931640625,0.720123291015625,-0.1653594970703125
140576,0.28179931640625,0.720123291015625,-0.1653594970703125
140577,0.28179931640625,0.720123291015625,-0.1653594970703125
140578,0.2724151611328125,0.885955810546875,-0.1943206787109375
140579,0.25054931640625,1.019943237304688,-0.2027130126953125
140580,0.1998138427734375,1.158111572265625,-0.1847686767578125
140581,0.1357421875,1.288192749023438,-0.1458740234375
140582,0.1084136962890625,1.383224487304688,-0.0752105712890625
140583,0.0546417236328125,1.36572265625,-0.045318603515625
140584,0.0546417236328125,1.36572265625,-0.045318603515625
140585,0.059173583984375,1.31591796875,0.0483551025390625
140586,0.061309814453125,1.246749877929688,0.1026611328125
140587,0.0347442626953125,1.212677001953125,0.221832275390625
140588,0.0347442626953125,1.212677001953125,0.221832275390625
140589,0.0347442626953125,1.212677001953125,0.221832275390625
140590,0.0188140869140625,1.248947143554688,0.30047607421875
140591,-0.1186065673828125,1.302139282226562,0.464141845703125
140592,-0.1186065673828125,1.302139282226562,0.464141845703125
140593,-0.13262939453125,1.28466796875,0.49700927734375
140594,-0.145538330078125,1.249664306640625,0.485809326171875
140595,-0.0996856689453125,1.212295532226562,0.471099853515625
140596,-0.0207977294921875,1.205963134765625,0.4445953369140625
140597,-0.0207977294921875,1.205963134765625,0.4445953369140625
140598,0.049285888671875,1.198760986328125,0.4183807373046875
140599,0.13018798828125,1.195602416992188,0.3004608154296875
140600,0.1587066650390625,1.168792724609375,0.21221923828125
140601,0.1587066650390625,1.168792724609375,0.21221923828125
140602,0.238433837890625,1.131759643554688,0.1034698486328125
140603,0.253326416015625,1.10205078125,0.0958709716796875
140604,0.253326416015625,1.10205078125,0.0958709716796875
140605,0.2617340087890625,1.101150512695312,0.100616455078125
140606,0.2649078369140625,1.084808349609375,0.0830230712890625
140607,0.2901153564453125,1.020309448242188,0.0298004150390625
140608,0.2901153564453125,1.020309448242188,0.0298004150390625
140609,0.2974395751953125,0.9696044921875,0.00762939453125
140610,0.323394775390625,0.918792724609375,-0.00616455078125
140611,0.35125732421875,0.8721160888671875,0.0036773681640625
140612,0.35125732421875,0.8721160888671875,0.0036773681640625
140613,0.376708984375,0.864471435546875,0.0394134521484375
140614,0.3929443359375,0.87060546875,0.0604095458984375
140615,0.4014892578125,0.8825225830078125,0.0728759765625
140616,0.4000244140625,0.889556884765625,0.0733795166015625
140617,0.4000244140625,0.889556884765625,0.0733795166015625
140618,0.3693084716796875,0.8820953369140625,0.0612945556640625
140619,0.27728271484375,0.8930206298828125,-0.0045928955078125
140620,0.27728271484375,0.8930206298828125,-0.0045928955078125
140621,0.2091217041015625,0.8920440673828125,-0.068145751953125
140622,0.1479949951171875,0.86505126953125,-0.14971923828125
140623,0.068389892578125,0.7614288330078125,-0.2817840576171875
140624,0.068389892578125,0.7614288330078125,-0.2817840576171875
140625,0.0420684814453125,0.6915130615234375,-0.2866973876953125
140626,0.0194244384765625,0.62481689453125,-0.2652587890625
140627,-0.0121612548828125,0.523590087890625,-0.192047119140625
140628,-0.0121612548828125,0.523590087890625,-0.192047119140625
140629,-0.0238494873046875,0.50738525390625,-0.166717529296875
140630,-0.0313262939453125,0.5284881591796875,-0.1527099609375
140631,0.0002288818359375,0.755889892578125,-0.216339111328125
140632,0.0002288818359375,0.755889892578125,-0.216339111328125
140633,0.034393310546875,0.8424530029296875,-0.292510986328125
140634,0.0753936767578125,0.9017486572265624,-0.3668365478515625
140635,0.17108154296875,0.9849395751953124,-0.473480224609375
140636,0.17108154296875,0.9849395751953124,-0.473480224609375
140637,0.219940185546875,1.038162231445312,-0.48724365234375
140638,0.2631683349609375,1.107192993164062,-0.464691162109375
140639,0.3011322021484375,1.169342041015625,-0.4101409912109375
140640,0.3383941650390625,1.2413330078125,-0.294189453125
140641,0.341583251953125,1.248123168945312,-0.2071990966796875
140642,0.28399658203125,1.2066650390625,-0.056121826171875
140643,0.1706085205078125,1.127639770507812,0.13336181640625
140644,0.1706085205078125,1.127639770507812,0.13336181640625
140645,0.157470703125,1.088836669921875,0.06689453125
140646,0.157470703125,1.088836669921875,0.06689453125
140647,0.114349365234375,1.104583740234375,0.1408538818359375
140648,0.114349365234375,1.104583740234375,0.1408538818359375
140649,0.0669708251953125,1.17181396484375,0.28997802734375
140650,0.0113677978515625,1.236557006835938,0.4373931884765625
140651,-0.0810546875,1.313735961914062,0.561279296875
140652,-0.0810546875,1.313735961914062,0.561279296875
140653,-0.0966339111328125,1.347061157226562,0.541839599609375
140654,-0.083953857421875,1.3663330078125,0.5057830810546875
140655,-0.0362396240234375,1.337921142578125,0.5256500244140625
140656,-0.0362396240234375,1.337921142578125,0.5256500244140625
140657,0.0061798095703125,1.303985595703125,0.53289794921875
140658,0.0242462158203125,1.26593017578125,0.4933319091796875
140659,0.03924560546875,1.1571044921875,0.315399169921875
140660,0.03924560546875,1.1571044921875,0.315399169921875
140661,0.03924560546875,1.1571044921875,0.315399169921875
140662,0.0321197509765625,1.092422485351562,0.2008514404296875
140663,-0.002838134765625,1.007568359375,-0.007843017578125
140664,-0.002838134765625,1.007568359375,-0.007843017578125
140665,-0.025177001953125,1.004348754882812,-0.047943115234375
140666,-0.025177001953125,1.004348754882812,-0.047943115234375
140667,-0.003204345703125,1.050277709960938,-0.1372222900390625
140668,-0.003204345703125,1.050277709960938,-0.1372222900390625
140669,-0.00091552734375,1.049270629882812,-0.2035064697265625
140670,0.006317138671875,1.040618896484375,-0.232818603515625
140671,-0.0293426513671875,0.99798583984375,-0.1949920654296875
140672,-0.0293426513671875,0.99798583984375,-0.1949920654296875
140673,-0.0293426513671875,0.99798583984375,-0.1949920654296875
140674,-0.0800018310546875,0.9673004150390624,-0.168701171875
140675,-0.1070098876953125,0.9375,-0.1580810546875
140676,-0.1070098876953125,0.9375,-0.1580810546875
140677,-0.0766754150390625,0.941741943359375,-0.1390838623046875
140678,-0.0244903564453125,0.96307373046875,-0.122406005859375
140679,0.134307861328125,0.9821319580078124,-0.1476593017578125
140680,0.134307861328125,0.9821319580078124,-0.1476593017578125
140681,0.1799163818359375,0.9498138427734376,-0.153289794921875
140682,0.186126708984375,0.8907012939453125,-0.14459228515625
140683,0.1825103759765625,0.766143798828125,-0.1240386962890625
140684,0.1825103759765625,0.766143798828125,-0.1240386962890625
140685,0.204620361328125,0.7181854248046875,-0.1330718994140625
140686,0.2073211669921875,0.67083740234375,-0.146728515625
140687,0.1791839599609375,0.548095703125,-0.16302490234375
140688,0.1791839599609375,0.548095703125,-0.16302490234375
140689,0.16290283203125,0.503173828125,-0.1603240966796875
140690,0.1532745361328125,0.47882080078125,-0.151275634765625
140691,0.1781005859375,0.5344085693359375,-0.1108245849609375
140692,0.1781005859375,0.5344085693359375,-0.1108245849609375
140693,0.196044921875,0.5750732421875,-0.1068878173828125
140694,0.209503173828125,0.6194610595703125,-0.118316650390625
140695,0.213226318359375,0.780853271484375,-0.170867919921875
140696,0.213226318359375,0.780853271484375,-0.170867919921875
140697,0.213226318359375,0.780853271484375,-0.170867919921875
140698,0.19720458984375,0.9006500244140625,-0.1949310302734375
140699,0.0364227294921875,1.260086059570312,-0.0609130859375
140700,0.0364227294921875,1.260086059570312,-0.0609130859375
140701,0.03045654296875,1.26605224609375,-0.0070953369140625
140702,0.0627593994140625,1.240020751953125,0.044769287109375
140703,0.01104736328125,1.173492431640625,0.0612335205078125
140704,0.01104736328125,1.173492431640625,0.0612335205078125
140705,0.0034332275390625,1.157928466796875,0.147216796875
140706,1.52587890625e-05,1.186050415039062,0.218963623046875
140707,0.049896240234375,1.327774047851562,0.3876190185546875
140708,0.049896240234375,1.327774047851562,0.3876190185546875
140709,0.0226287841796875,1.444747924804688,0.4517669677734375
140710,0.0226287841796875,1.444747924804688,0.4517669677734375
140711,-0.0259246826171875,1.478057861328125,0.4937591552734375
140712,-0.0259246826171875,1.478057861328125,0.4937591552734375
140713,-0.0408935546875,1.391647338867188,0.48419189453125
140714,-0.0457611083984375,1.324859619140625,0.455474853515625
140715,-0.0379180908203125,1.244918823242188,0.3313446044921875
140716,-0.0379180908203125,1.244918823242188,0.3313446044921875
140717,-0.02825927734375,1.194808959960938,0.2461700439453125
140718,-4.57763671875e-05,1.159225463867188,0.19720458984375
140719,0.0824127197265625,1.136245727539062,0.156463623046875
140720,0.0824127197265625,1.136245727539062,0.156463623046875
140721,0.12042236328125,1.139175415039062,0.1372528076171875
140722,0.1495513916015625,1.123672485351562,0.112762451171875
140723,0.1943817138671875,1.058074951171875,0.0820770263671875
140724,0.1943817138671875,1.058074951171875,0.0820770263671875
140725,0.21331787109375,1.0233154296875,0.0662689208984375
140726,0.232757568359375,0.996612548828125,0.05303955078125
140727,0.277496337890625,0.9658660888671876,0.0401458740234375
140728,0.277496337890625,0.9658660888671876,0.0401458740234375
140729,0.3131561279296875,0.9407501220703124,0.0598602294921875
140730,0.340972900390625,0.9041748046875,0.08001708984375
140731,0.35614013671875,0.819061279296875,0.1399688720703125
140732,0.35614013671875,0.819061279296875,0.1399688720703125
140733,0.3480682373046875,0.7918701171875,0.14263916015625
140734,0.32122802734375,0.797027587890625,0.1005859375
140735,0.2738189697265625,0.816802978515625,-0.0204010009765625
140736,0.2738189697265625,0.816802978515625,-0.0204010009765625
140737,0.274261474609375,0.823699951171875,-0.06884765625
140738,0.2567596435546875,0.8171539306640625,-0.1118011474609375
140739,0.1303863525390625,0.7664947509765625,-0.180908203125
140740,0.1303863525390625,0.7664947509765625,-0.180908203125
140741,0.0526580810546875,0.7321929931640625,-0.182220458984375
140742,-0.0030670166015625,0.67950439453125,-0.1866455078125
140743,-0.02740478515625,0.633331298828125,-0.1919403076171875
140744,-0.0489654541015625,0.5990142822265625,-0.1927947998046875
140745,-0.058929443359375,0.57586669921875,-0.182098388671875
140746,-0.0596923828125,0.5776824951171875,-0.1821136474609375
140747,-0.0574951171875,0.617340087890625,-0.195892333984375
140748,-0.03778076171875,0.7023162841796875,-0.2207489013671875
140749,0.0097503662109375,0.851287841796875,-0.276641845703125
140750,0.0656280517578125,0.982635498046875,-0.367431640625
140751,0.192718505859375,1.0631103515625,-0.50042724609375
140752,0.192718505859375,1.0631103515625,-0.50042724609375
140753,0.2314910888671875,1.061141967773438,-0.523193359375
140754,0.244415283203125,1.03369140625,-0.499298095703125
140755,0.25,1.008682250976562,-0.463623046875
140756,0.2492828369140625,1.014389038085938,-0.4001617431640625
140757,0.2393798828125,1.036834716796875,-0.301483154296875
140758,0.2273406982421875,1.065475463867188,-0.1656494140625
140759,0.1435089111328125,1.048492431640625,0.17694091796875
140760,0.1435089111328125,1.048492431640625,0.17694091796875
140761,0.1435089111328125,1.048492431640625,0.17694091796875
140762,0.0933380126953125,0.9895172119140624,0.15777587890625
140763,0.06768798828125,0.9589691162109376,0.1390838623046875
140764,0.0735931396484375,0.98345947265625,0.2037506103515625
140765,0.0735931396484375,0.98345947265625,0.2037506103515625
140766,0.0634613037109375,1.036697387695312,0.305694580078125
140767,0.0421600341796875,1.319564819335938,0.6991729736328125
140768,0.0421600341796875,1.319564819335938,0.6991729736328125
140769,0.055084228515625,1.368362426757812,0.663543701171875
140770,0.0894317626953125,1.407470703125,0.58929443359375
140771,0.1627349853515625,1.428359985351562,0.5008087158203125
140772,0.1627349853515625,1.428359985351562,0.5008087158203125
140773,0.1832122802734375,1.381668090820312,0.48907470703125
140774,0.194549560546875,1.33880615234375,0.455047607421875
140775,0.1779327392578125,1.2503662109375,0.2193145751953125
140776,0.1779327392578125,1.2503662109375,0.2193145751953125
140777,0.1484375,1.226287841796875,0.1066436767578125
140778,0.0990447998046875,1.210067749023438,0.0441436767578125
140779,0.0616912841796875,1.2208251953125,-0.00360107421875
140780,0.0424957275390625,1.27056884765625,-0.0747222900390625
140781,0.0424957275390625,1.27056884765625,-0.0747222900390625
140782,0.042449951171875,1.306808471679688,-0.1393280029296875
140783,0.0534210205078125,1.194091796875,-0.2584991455078125
140784,0.0501556396484375,1.032730102539062,-0.2321624755859375
140785,0.070159912109375,0.9266510009765624,-0.2303619384765625
140786,0.0336151123046875,0.804656982421875,-0.2717742919921875
140787,-0.1162109375,0.7824859619140625,-0.328338623046875
140788,-0.1162109375,0.7824859619140625,-0.328338623046875
140789,-0.19219970703125,0.84246826171875,-0.2848358154296875
140790,-0.194305419921875,0.9213409423828124,-0.204315185546875
140791,-0.1248321533203125,1.027999877929688,-0.1396942138671875
140792,-0.0110015869140625,1.105514526367188,-0.061553955078125
140793,0.0853424072265625,1.122177124023438,-0.0087432861328125
140794,0.168212890625,1.068252563476562,0.0045623779296875
140795,0.221282958984375,0.8885345458984375,-0.03643798828125
140796,0.221282958984375,0.8885345458984375,-0.03643798828125
140797,0.221282958984375,0.8885345458984375,-0.03643798828125
140798,0.2223358154296875,0.689453125,-0.101959228515625
140799,0.2523040771484375,0.5532379150390625,-0.130157470703125
140800,0.2523040771484375,0.5532379150390625,-0.130157470703125
140801,0.259246826171875,0.4945068359375,-0.136627197265625
140802,0.2687530517578125,0.4496612548828125,-0.13946533203125
140803,0.3111724853515625,0.4205169677734375,-0.1312713623046875
140804,0.3111724853515625,0.4205169677734375,-0.1312713623046875
140805,0.3451385498046875,0.466705322265625,-0.12841796875
140806,0.383270263671875,0.5496826171875,-0.1297760009765625
140807,0.4131927490234375,0.6607513427734375,-0.1455535888671875
140808,0.4131927490234375,0.6607513427734375,-0.1455535888671875
140809,0.411224365234375,0.733734130859375,-0.14324951171875
140810,0.4013824462890625,0.8272857666015625,-0.1593170166015625
140811,0.352447509765625,1.055572509765625,-0.2362060546875
140812,0.352447509765625,1.055572509765625,-0.2362060546875
140813,0.2934722900390625,1.167800903320312,-0.2389373779296875
140814,0.21734619140625,1.222854614257812,-0.21368408203125
140815,0.0689697265625,1.1944580078125,0.0439910888671875
140816,0.0689697265625,1.1944580078125,0.0439910888671875
140817,0.0283966064453125,1.18212890625,0.1499786376953125
140818,0.00494384765625,1.195297241210938,0.20721435546875
140819,-0.0095977783203125,1.260269165039062,0.265838623046875
140820,-0.0095977783203125,1.260269165039062,0.265838623046875
140821,-0.02435302734375,1.317535400390625,0.300811767578125
140822,-0.058349609375,1.364898681640625,0.3518218994140625
140823,-0.13873291015625,1.457351684570312,0.4598236083984375
140824,-0.13873291015625,1.457351684570312,0.4598236083984375
140825,-0.1400604248046875,1.454818725585938,0.4654693603515625
140826,-0.101898193359375,1.406051635742188,0.4456329345703125
140827,0.022705078125,1.26708984375,0.412322998046875
140828,0.022705078125,1.26708984375,0.412322998046875
140829,0.0792236328125,1.239486694335938,0.361053466796875
140830,0.119842529296875,1.225326538085938,0.3137664794921875
140831,0.161834716796875,1.172210693359375,0.22283935546875
140832,0.161834716796875,1.172210693359375,0.22283935546875
140833,0.161834716796875,1.172210693359375,0.22283935546875
140834,0.1817779541015625,1.151657104492188,0.204010009765625
140835,0.3116302490234375,1.121414184570312,0.0937652587890625
140836,0.3116302490234375,1.121414184570312,0.0937652587890625
140837,0.3574981689453125,1.116561889648438,0.0497894287109375
140838,0.380096435546875,1.09796142578125,0.0101470947265625
140839,0.400909423828125,1.072418212890625,-0.01947021484375
140840,0.422119140625,1.0462646484375,-0.0379486083984375
140841,0.430755615234375,1.014007568359375,-0.0463409423828125
140842,0.4365997314453125,0.975830078125,-0.039306640625
140843,0.4409942626953125,0.9337005615234376,-0.019500732421875
140844,0.455657958984375,0.9003143310546875,-0.003387451171875
140845,0.4693756103515625,0.8819122314453125,0.0222015380859375
140846,0.4582977294921875,0.8546905517578125,0.0411834716796875
140847,0.3654022216796875,0.812469482421875,0.02008056640625
140848,0.3654022216796875,0.812469482421875,0.02008056640625
140849,0.297943115234375,0.8045501708984375,-0.00775146484375
140850,0.2314453125,0.796630859375,-0.041351318359375
140851,0.1348724365234375,0.7509918212890625,-0.101531982421875
140852,0.1348724365234375,0.7509918212890625,-0.101531982421875
140853,0.097930908203125,0.7223968505859375,-0.126251220703125
140854,0.0510711669921875,0.6829833984375,-0.14453125
140855,-0.0274505615234375,0.611328125,-0.125701904296875
140856,-0.0274505615234375,0.611328125,-0.125701904296875
140857,-0.057403564453125,0.5733184814453125,-0.1148834228515625
140858,-0.08203125,0.53680419921875,-0.1051025390625
140859,-0.10162353515625,0.5208587646484375,-0.10504150390625
140860,-0.1169281005859375,0.5326995849609375,-0.1146087646484375
140861,-0.1169281005859375,0.5326995849609375,-0.1146087646484375
140862,-0.12579345703125,0.5760345458984375,-0.135406494140625
140863,-0.0145111083984375,0.86444091796875,-0.27130126953125
140864,-0.0145111083984375,0.86444091796875,-0.27130126953125
140865,0.0717926025390625,0.9055938720703124,-0.3242645263671875
140866,0.1460418701171875,0.93719482421875,-0.3919677734375
140867,0.282073974609375,1.016647338867188,-0.4104766845703125
140868,0.282073974609375,1.016647338867188,-0.4104766845703125
140869,0.334747314453125,1.072906494140625,-0.343414306640625
140870,0.3991241455078125,1.112945556640625,-0.255615234375
140871,0.4117279052734375,1.13336181640625,-0.1207122802734375
140872,0.4117279052734375,1.13336181640625,-0.1207122802734375
140873,0.3021392822265625,1.134109497070312,-0.0602264404296875
140874,0.194580078125,1.135406494140625,0.0687408447265625
140875,0.0660400390625,1.09423828125,0.2071380615234375
140876,0.0660400390625,1.09423828125,0.2071380615234375
140877,0.0428924560546875,1.089859008789062,0.2390899658203125
140878,0.030059814453125,1.098861694335938,0.26519775390625
140879,-0.0230712890625,1.146194458007812,0.40789794921875
140880,-0.0230712890625,1.146194458007812,0.40789794921875
140881,-0.048309326171875,1.1971435546875,0.5512847900390625
140882,-0.04754638671875,1.236465454101562,0.6591949462890625
140883,0.0245513916015625,1.23394775390625,0.5894317626953125
140884,0.0245513916015625,1.23394775390625,0.5894317626953125
140885,0.0752410888671875,1.218551635742188,0.557281494140625
140886,0.0752410888671875,1.218551635742188,0.557281494140625
140887,0.1286468505859375,1.222274780273438,0.4841156005859375
140888,0.1286468505859375,1.222274780273438,0.4841156005859375
140889,0.1345672607421875,1.225616455078125,0.3764190673828125
140890,0.126007080078125,1.203659057617188,0.2606964111328125
140891,0.0588531494140625,1.190963745117188,0.1045684814453125
140892,0.0588531494140625,1.190963745117188,0.1045684814453125
140893,0.0185699462890625,1.225936889648438,0.01910400390625
140894,-0.022216796875,1.268264770507812,-0.074859619140625
140895,-0.0431976318359375,1.322921752929688,-0.16436767578125
140896,-0.0368499755859375,1.335006713867188,-0.21282958984375
140897,-0.01068115234375,1.305511474609375,-0.2290802001953125
140898,0.005096435546875,1.241775512695312,-0.24334716796875
140899,-0.009857177734375,1.04156494140625,-0.2522430419921875
140900,-0.009857177734375,1.04156494140625,-0.2522430419921875
140901,-0.081268310546875,0.938568115234375,-0.220306396484375
140902,-0.1708526611328125,0.947265625,-0.2100067138671875
140903,-0.2666168212890625,0.98529052734375,-0.2116241455078125
140904,-0.2666168212890625,0.98529052734375,-0.2116241455078125
140905,-0.2792816162109375,1.010971069335938,-0.2225341796875
140906,-0.269134521484375,1.023834228515625,-0.2340850830078125
140907,-0.0828704833984375,1.032379150390625,-0.07843017578125
140908,-0.0828704833984375,1.032379150390625,-0.07843017578125
140909,0.0093536376953125,0.9583587646484376,-0.0627593994140625
140910,0.0802154541015625,0.8868865966796875,-0.085784912109375
140911,0.1514434814453125,0.77691650390625,-0.0973968505859375
140912,0.1514434814453125,0.77691650390625,-0.0973968505859375
140913,0.1514434814453125,0.77691650390625,-0.0973968505859375
140914,0.1594390869140625,0.705780029296875,-0.1196441650390625
140915,0.19110107421875,0.5026397705078125,-0.1626739501953125
140916,0.19110107421875,0.5026397705078125,-0.1626739501953125
140917,0.2226715087890625,0.4544525146484375,-0.155120849609375
140918,0.262481689453125,0.436126708984375,-0.14923095703125
140919,0.3097686767578125,0.44915771484375,-0.1593170166015625
140920,0.372161865234375,0.496307373046875,-0.18634033203125
140921,0.43621826171875,0.5753173828125,-0.2169036865234375
140922,0.4888153076171875,0.6300201416015625,-0.2520904541015625
140923,0.521270751953125,0.690643310546875,-0.2915191650390625
140924,0.5262908935546875,0.7511749267578125,-0.3404083251953125
140925,0.496826171875,0.8153839111328125,-0.385162353515625
140926,0.4430694580078125,0.9083709716796876,-0.38446044921875
140927,0.253173828125,1.172576904296875,-0.2594757080078125
140928,0.253173828125,1.172576904296875,-0.2594757080078125
140929,0.11907958984375,1.267730712890625,-0.1940460205078125
140930,-0.0033111572265625,1.289169311523438,-0.1040496826171875
140931,-0.2027587890625,1.232711791992188,0.3609161376953125
140932,-0.2027587890625,1.232711791992188,0.3609161376953125
140933,-0.1691131591796875,1.124114990234375,0.5396728515625
140934,-0.1195526123046875,1.077865600585938,0.36181640625
140935,-0.04058837890625,1.14398193359375,0.2179412841796875
140936,-0.04058837890625,1.14398193359375,0.2179412841796875
140937,-0.0391998291015625,1.242568969726562,0.349700927734375
140938,-0.0753021240234375,1.341156005859375,0.5373382568359375
140939,-0.10028076171875,1.405426025390625,0.6534423828125
140940,-0.09063720703125,1.434280395507812,0.6328582763671875
140941,-0.0641326904296875,1.418060302734375,0.571258544921875
140942,-0.00604248046875,1.39056396484375,0.568023681640625
140943,0.083343505859375,1.301605224609375,0.5862579345703125
140944,0.083343505859375,1.301605224609375,0.5862579345703125
140945,0.083343505859375,1.301605224609375,0.5862579345703125
140946,0.10162353515625,1.298049926757812,0.515350341796875
140947,0.067901611328125,1.237747192382812,0.2260894775390625
140948,0.067901611328125,1.237747192382812,0.2260894775390625
140949,0.0768585205078125,1.224777221679688,0.135833740234375
140950,0.1007537841796875,1.241302490234375,0.0640869140625
140951,0.11273193359375,1.249053955078125,-0.029266357421875
140952,0.1082305908203125,1.259368896484375,-0.0985107421875
140953,0.1229095458984375,1.23822021484375,-0.1137542724609375
140954,0.1533660888671875,1.163070678710938,-0.107421875
140955,0.1919097900390625,1.016510009765625,-0.1274566650390625
140956,0.1919097900390625,1.016510009765625,-0.1274566650390625
140957,0.213897705078125,0.9621734619140624,-0.125762939453125
140958,0.2577056884765625,0.9207763671875,-0.1118927001953125
140959,0.318359375,0.9044189453125,-0.0761871337890625
140960,0.318359375,0.9044189453125,-0.0761871337890625
140961,0.318359375,0.9044189453125,-0.0761871337890625
140962,0.343994140625,0.9285888671875,-0.0611572265625
140963,0.2923583984375,0.8928680419921875,-0.0698394775390625
140964,0.2923583984375,0.8928680419921875,-0.0698394775390625
140965,0.2923583984375,0.8928680419921875,-0.0698394775390625
140966,0.249847412109375,0.8533782958984375,-0.0647735595703125
140967,0.1974334716796875,0.7361907958984375,-0.061309814453125
140968,0.17132568359375,0.6674041748046875,-0.0704193115234375
140969,0.132232666015625,0.590179443359375,-0.07562255859375
140970,0.0824127197265625,0.52911376953125,-0.0802154541015625
140971,-0.0194549560546875,0.4755859375,-0.1167755126953125
140972,-0.0194549560546875,0.4755859375,-0.1167755126953125
140973,-0.05877685546875,0.4761962890625,-0.14410400390625
140974,-0.0830230712890625,0.505584716796875,-0.1821441650390625
140975,-0.076629638671875,0.7024688720703125,-0.260040283203125
140976,-0.076629638671875,0.7024688720703125,-0.260040283203125
140977,-0.034149169921875,0.79754638671875,-0.2808685302734375
140978,0.0264434814453125,0.8654937744140625,-0.280914306640625
140979,0.1380462646484375,0.9833831787109376,-0.2928466796875
140980,0.1380462646484375,0.9833831787109376,-0.2928466796875
140981,0.1934661865234375,1.055435180664062,-0.324127197265625
140982,0.2467041015625,1.105438232421875,-0.342315673828125
140983,0.2931365966796875,1.127639770507812,-0.2369537353515625
140984,0.2931365966796875,1.127639770507812,-0.2369537353515625
140985,0.288909912109375,1.11566162109375,-0.1812286376953125
140986,0.26556396484375,1.101715087890625,-0.121856689453125
140987,0.2210540771484375,1.102310180664062,-0.0565338134765625
140988,0.1746978759765625,1.109146118164062,0.0258026123046875
140989,0.11859130859375,1.123779296875,0.1108856201171875
140990,0.0811767578125,1.128143310546875,0.1830291748046875
140991,0.03961181640625,1.118499755859375,0.2742462158203125
140992,0.03961181640625,1.118499755859375,0.2742462158203125
140993,0.0184783935546875,1.1300048828125,0.3434600830078125
140994,-0.015228271484375,1.1497802734375,0.4660491943359375
140995,-0.046875,1.180923461914062,0.57867431640625
140996,-0.0721282958984375,1.205093383789062,0.6394195556640625
140997,-0.066070556640625,1.210311889648438,0.639251708984375
140998,-0.033782958984375,1.195785522460938,0.597930908203125
140999,0.08203125,1.173812866210938,0.5413665771484375
141000,0.08203125,1.173812866210938,0.5413665771484375
141001,0.1061553955078125,1.162307739257812,0.523101806640625
141002,0.1195220947265625,1.14208984375,0.457550048828125
141003,0.148834228515625,1.106201171875,0.2674713134765625
141004,0.148834228515625,1.106201171875,0.2674713134765625
141005,0.16064453125,1.114151000976562,0.1869049072265625
141006,0.1519317626953125,1.136978149414062,0.1172943115234375
141007,0.13140869140625,1.173614501953125,0.0236663818359375
141008,0.116607666015625,1.219802856445312,-0.0894775390625
141009,0.10150146484375,1.279983520507812,-0.1912841796875
141010,0.10406494140625,1.330474853515625,-0.2515716552734375
141011,0.115264892578125,1.243499755859375,-0.25982666015625
141012,0.115264892578125,1.243499755859375,-0.25982666015625
141013,0.13568115234375,1.12298583984375,-0.2889404296875
141014,0.095733642578125,0.9756317138671876,-0.296600341796875
141015,-0.0973663330078125,0.841522216796875,-0.369598388671875
141016,-0.0973663330078125,0.841522216796875,-0.369598388671875
141017,-0.227935791015625,0.8463897705078125,-0.362060546875
141018,-0.30877685546875,0.87335205078125,-0.2953948974609375
141019,-0.34075927734375,0.918853759765625,-0.1904144287109375
141020,-0.30950927734375,0.9785614013671876,-0.0162353515625
141021,-0.2319488525390625,1.00921630859375,0.1400604248046875
141022,-0.156829833984375,1.006240844726562,0.187164306640625
141023,0.0033721923828125,0.9485015869140624,0.00933837890625
141024,0.0033721923828125,0.9485015869140624,0.00933837890625
141025,0.0818939208984375,0.92108154296875,-0.0537261962890625
141026,0.11199951171875,0.87042236328125,-0.0805206298828125
141027,0.1381988525390625,0.8109893798828125,-0.09832763671875
141028,0.1736602783203125,0.766204833984375,-0.11431884765625
141029,0.2184906005859375,0.716522216796875,-0.1326904296875
141030,0.2655792236328125,0.673797607421875,-0.1419219970703125
141031,0.3320770263671875,0.570953369140625,-0.1584320068359375
141032,0.3320770263671875,0.570953369140625,-0.1584320068359375
141033,0.354644775390625,0.5277252197265625,-0.1409149169921875
141034,0.368194580078125,0.5059967041015625,-0.1184844970703125
141035,0.379913330078125,0.5775299072265625,-0.058258056640625
141036,0.379913330078125,0.5775299072265625,-0.058258056640625
141037,0.37286376953125,0.6256256103515625,-0.04241943359375
141038,0.3673095703125,0.6822662353515625,-0.0576629638671875
141039,0.3758697509765625,0.7620849609375,-0.0615234375
141040,0.374298095703125,0.860992431640625,-0.071502685546875
141041,0.35723876953125,0.9775390625,-0.1010284423828125
141042,0.3080596923828125,1.112380981445312,-0.1386871337890625
141043,0.228912353515625,1.242660522460938,-0.118896484375
141044,0.1640625,1.303604125976562,-0.0482635498046875
141045,0.13232421875,1.2744140625,0.036895751953125
141046,0.095306396484375,1.209182739257812,0.0998992919921875
141047,0.062835693359375,1.167449951171875,0.145721435546875
141048,0.0491485595703125,1.142593383789062,0.20770263671875
141049,0.0341033935546875,1.122116088867188,0.2801513671875
141050,-0.000732421875,1.130615234375,0.3599853515625
141051,-0.0381622314453125,1.166519165039062,0.4330902099609375
141052,-0.0626220703125,1.215774536132812,0.476654052734375
141053,-0.0626220703125,1.215774536132812,0.476654052734375
141054,-0.0799560546875,1.2659912109375,0.47076416015625
141055,-0.080078125,1.315902709960938,0.4008941650390625
141056,-0.080078125,1.315902709960938,0.4008941650390625
141057,-0.04052734375,1.287368774414062,0.401824951171875
141058,0.002227783203125,1.259384155273438,0.3670501708984375
141059,0.09124755859375,1.181533813476562,0.231903076171875
141060,0.09124755859375,1.181533813476562,0.231903076171875
141061,0.09124755859375,1.181533813476562,0.231903076171875
141062,0.138946533203125,1.15313720703125,0.1681671142578125
141063,0.202239990234375,1.168609619140625,0.078338623046875
141064,0.202239990234375,1.168609619140625,0.078338623046875
141065,0.2092132568359375,1.17681884765625,0.0228118896484375
141066,0.1997528076171875,1.15692138671875,-0.0429534912109375
141067,0.1307830810546875,1.069595336914062,-0.1173553466796875
141068,0.1307830810546875,1.069595336914062,-0.1173553466796875
141069,0.1342926025390625,1.043212890625,-0.1066131591796875
141070,0.184844970703125,1.044235229492188,-0.0945892333984375
141071,0.3183135986328125,1.040191650390625,-0.08892822265625
141072,0.3183135986328125,1.040191650390625,-0.08892822265625
141073,0.368927001953125,1.016555786132812,-0.0547943115234375
141074,0.399627685546875,0.9700927734375,0.0009613037109375
141075,0.4120025634765625,0.9231414794921876,0.0614776611328125
141076,0.391357421875,0.875,0.0974884033203125
141077,0.3522186279296875,0.828521728515625,0.0937347412109375
141078,0.3101806640625,0.7925567626953125,0.0572357177734375
141079,0.2687835693359375,0.7681884765625,0.0025787353515625
141080,0.22332763671875,0.7363739013671875,-0.0608367919921875
141081,0.1795654296875,0.7115325927734375,-0.1163482666015625
141082,0.141632080078125,0.703643798828125,-0.1573028564453125
141083,0.1061248779296875,0.69561767578125,-0.1867523193359375
141084,0.0750732421875,0.680450439453125,-0.2020111083984375
141085,0.0473175048828125,0.65673828125,-0.2122650146484375
141086,0.0233154296875,0.6216888427734375,-0.2118682861328125
141087,-0.01348876953125,0.572052001953125,-0.2109527587890625
141088,-0.01348876953125,0.572052001953125,-0.2109527587890625
141089,-0.0257415771484375,0.564208984375,-0.2237091064453125
141090,-0.0257415771484375,0.564208984375,-0.2237091064453125
141091,-0.02044677734375,0.7163848876953125,-0.2855682373046875
141092,0.0110321044921875,0.82366943359375,-0.334136962890625
141093,0.0601959228515625,0.8991241455078125,-0.3634185791015625
141094,0.112884521484375,0.9581451416015624,-0.36627197265625
141095,0.1589202880859375,1.015289306640625,-0.3722076416015625
141096,0.2062225341796875,1.08551025390625,-0.385772705078125
141097,0.24322509765625,1.15631103515625,-0.3822174072265625
141098,0.2617034912109375,1.212982177734375,-0.314727783203125
141099,0.2559356689453125,1.225143432617188,-0.22283935546875
141100,0.223724365234375,1.224014282226562,-0.1141815185546875
141101,0.181365966796875,1.2034912109375,0.0177764892578125
141102,0.1238555908203125,1.199493408203125,0.110443115234375
141103,0.077423095703125,1.210479736328125,0.1594085693359375
141104,0.077423095703125,1.210479736328125,0.1594085693359375
141105,0.0715179443359375,1.212020874023438,0.1729888916015625
141106,0.04730224609375,1.233062744140625,0.2266998291015625
141107,-0.0318756103515625,1.2769775390625,0.4912567138671875
141108,-0.0318756103515625,1.2769775390625,0.4912567138671875
141109,-0.07415771484375,1.279541015625,0.5618743896484375
141110,-0.0954742431640625,1.278152465820312,0.58831787109375
141111,-0.0874786376953125,1.2158203125,0.5923309326171875
141112,-0.0874786376953125,1.2158203125,0.5923309326171875
141113,-0.06549072265625,1.17059326171875,0.60565185546875
141114,-0.0317840576171875,1.139739990234375,0.6153717041015625
141115,-0.0200347900390625,1.112686157226562,0.6073760986328125
141116,-0.0169219970703125,1.087753295898438,0.5823211669921875
141117,-0.0228729248046875,1.073944091796875,0.52960205078125
141118,-0.0287322998046875,1.055679321289062,0.4461822509765625
141119,-0.0039520263671875,1.078887939453125,0.226593017578125
141120,-0.0039520263671875,1.078887939453125,0.226593017578125
141121,-0.0039520263671875,1.078887939453125,0.226593017578125
141122,-0.009979248046875,1.124740600585938,0.1158447265625
141123,-0.0459747314453125,1.232650756835938,-0.0651702880859375
141124,-0.0540924072265625,1.235488891601562,-0.083526611328125
141125,-0.0616912841796875,1.20721435546875,-0.0885162353515625
141126,-0.0538330078125,1.158645629882812,-0.1084747314453125
141127,0.00201416015625,1.055999755859375,-0.186676025390625
141128,0.00201416015625,1.055999755859375,-0.186676025390625
141129,-0.004150390625,1.0069580078125,-0.2319488525390625
141130,-0.0441131591796875,0.975799560546875,-0.262420654296875
141131,-0.0953216552734375,0.9708404541015624,-0.282684326171875
141132,-0.15777587890625,0.949462890625,-0.2987213134765625
141133,-0.2249298095703125,0.9724273681640624,-0.309112548828125
141134,-0.2368927001953125,1.032852172851562,-0.2606201171875
141135,-0.130126953125,1.105682373046875,-0.1530303955078125
141136,-0.130126953125,1.105682373046875,-0.1530303955078125
141137,-0.100677490234375,1.078338623046875,-0.1451568603515625
141138,-0.0625762939453125,1.0272216796875,-0.1212158203125
141139,0.019927978515625,0.8521728515625,-0.1540985107421875
141140,0.019927978515625,0.8521728515625,-0.1540985107421875
141141,0.019927978515625,0.8521728515625,-0.1540985107421875
141142,0.0746307373046875,0.7679290771484375,-0.1753692626953125
141143,0.1408843994140625,0.5869293212890625,-0.194366455078125
141144,0.1646575927734375,0.5154876708984375,-0.1851043701171875
141145,0.1767425537109375,0.4591064453125,-0.1763916015625
141146,0.19207763671875,0.4393310546875,-0.1511993408203125
141147,0.2539825439453125,0.536102294921875,-0.1061248779296875
141148,0.2539825439453125,0.536102294921875,-0.1061248779296875
141149,0.262664794921875,0.5842742919921875,-0.09210205078125
141150,0.27703857421875,0.644775390625,-0.076995849609375
141151,0.285125732421875,0.7209930419921875,-0.0628509521484375
141152,0.297149658203125,0.8145904541015625,-0.0394439697265625
141153,0.304962158203125,0.9204559326171876,-0.026153564453125
141154,0.2751007080078125,0.9985504150390624,-0.0250396728515625
141155,0.1837310791015625,1.107757568359375,-0.032012939453125
141156,0.1837310791015625,1.107757568359375,-0.032012939453125
141157,0.098175048828125,1.148818969726562,0.008453369140625
141158,0.009124755859375,1.165145874023438,0.05010986328125
141159,-0.0916290283203125,1.148590087890625,0.099761962890625
141160,-0.0916290283203125,1.148590087890625,0.099761962890625
141161,-0.0916290283203125,1.148590087890625,0.099761962890625
141162,-0.119781494140625,1.145889282226562,0.145172119140625
141163,-0.1939544677734375,1.21990966796875,0.5598602294921875
141164,-0.1939544677734375,1.21990966796875,0.5598602294921875
141165,-0.21759033203125,1.2708740234375,0.6327667236328125
141166,-0.22705078125,1.319229125976562,0.6447906494140625
141167,-0.21441650390625,1.358444213867188,0.619293212890625
141168,-0.1860504150390625,1.364349365234375,0.5838775634765625
141169,-0.1328277587890625,1.343170166015625,0.5560455322265625
141170,-0.0940093994140625,1.31170654296875,0.5557098388671875
141171,-0.0816497802734375,1.280059814453125,0.54083251953125
141172,-0.0688323974609375,1.272476196289062,0.48583984375
141173,-0.052001953125,1.266372680664062,0.39794921875
141174,-0.0281524658203125,1.23785400390625,0.2899322509765625
141175,0.046478271484375,1.148849487304688,0.1182861328125
141176,0.046478271484375,1.148849487304688,0.1182861328125
141177,0.088409423828125,1.115692138671875,0.0872039794921875
141178,0.1229705810546875,1.097183227539062,0.0843658447265625
141179,0.1610260009765625,1.090042114257812,0.0737152099609375
141180,0.2110748291015625,1.087295532226562,0.0368804931640625
141181,0.2706756591796875,1.071929931640625,-0.02069091796875
141182,0.3293609619140625,1.052490234375,-0.0675506591796875
141183,0.3784637451171875,1.036773681640625,-0.1025848388671875
141184,0.42108154296875,1.013595581054688,-0.10345458984375
141185,0.435546875,1.005401611328125,-0.0993804931640625
141186,0.4330902099609375,1.015472412109375,-0.093475341796875
141187,0.4217376708984375,1.042770385742188,-0.0927276611328125
141188,0.3972625732421875,1.084426879882812,-0.1082763671875
141189,0.365081787109375,1.105026245117188,-0.142333984375
141190,0.3144073486328125,1.099716186523438,-0.1890869140625
141191,0.20428466796875,0.9756622314453124,-0.282135009765625
141192,0.20428466796875,0.9756622314453124,-0.282135009765625
141193,0.16845703125,0.88226318359375,-0.31024169921875
141194,0.1280975341796875,0.7723541259765625,-0.3159942626953125
141195,0.0703887939453125,0.5439910888671875,-0.255340576171875
141196,0.0703887939453125,0.5439910888671875,-0.255340576171875
141197,0.0508270263671875,0.4662628173828125,-0.2228851318359375
141198,0.0094146728515625,0.4169769287109375,-0.177490234375
141199,-0.0359649658203125,0.386322021484375,-0.1268310546875
141200,-0.0359649658203125,0.386322021484375,-0.1268310546875
141201,-0.0752410888671875,0.38323974609375,-0.1069488525390625
141202,-0.1240386962890625,0.4944305419921875,-0.148712158203125
141203,-0.1102752685546875,0.6326751708984375,-0.2021331787109375
141204,-0.073822021484375,0.7406768798828125,-0.314697265625
141205,-0.001220703125,0.8233184814453125,-0.4018402099609375
141206,0.0817108154296875,0.89874267578125,-0.4304046630859375
141207,0.171722412109375,1.0609130859375,-0.416168212890625
141208,0.171722412109375,1.0609130859375,-0.416168212890625
141209,0.200347900390625,1.140701293945312,-0.3822174072265625
141210,0.22406005859375,1.205703735351562,-0.3099517822265625
141211,0.2947540283203125,1.250442504882812,-0.0519866943359375
141212,0.2947540283203125,1.250442504882812,-0.0519866943359375
141213,0.297271728515625,1.19427490234375,0.018402099609375
141214,0.2314453125,1.140106201171875,0.0385894775390625
141215,0.090667724609375,1.105728149414062,0.1316070556640625
141216,0.090667724609375,1.105728149414062,0.1316070556640625
141217,0.0564727783203125,1.094100952148438,0.196441650390625
141218,0.0213165283203125,1.07769775390625,0.2742156982421875
141219,-0.012451171875,1.0560302734375,0.389373779296875
141220,-0.052734375,1.05029296875,0.5127105712890625
141221,-0.0939483642578125,1.061386108398438,0.601348876953125
141222,-0.0939483642578125,1.061386108398438,0.601348876953125
141223,-0.1387786865234375,1.124343872070312,0.5731658935546875
141224,-0.135162353515625,1.165435791015625,0.4959716796875
141225,-0.093719482421875,1.225021362304688,0.4246826171875
141226,-0.03619384765625,1.28533935546875,0.37603759765625
141227,0.0745697021484375,1.317962646484375,0.3265380859375
141228,0.0745697021484375,1.317962646484375,0.3265380859375
141229,0.1102447509765625,1.310470581054688,0.26263427734375
141230,0.1246185302734375,1.295379638671875,0.2010040283203125
141231,0.125823974609375,1.263595581054688,0.082977294921875
141232,0.125823974609375,1.263595581054688,0.082977294921875
141233,0.125823974609375,1.263595581054688,0.082977294921875
141234,0.13446044921875,1.239013671875,0.0288238525390625
141235,0.09698486328125,1.169036865234375,-0.159698486328125
141236,0.09698486328125,1.169036865234375,-0.159698486328125
141237,0.066650390625,1.127029418945312,-0.2100372314453125
141238,0.0278167724609375,1.090545654296875,-0.2403717041015625
141239,-0.0576324462890625,1.0340576171875,-0.2050018310546875
141240,-0.0576324462890625,1.0340576171875,-0.2050018310546875
141241,-0.099334716796875,0.999969482421875,-0.206756591796875
141242,-0.146484375,0.9521484375,-0.2237701416015625
141243,-0.219818115234375,0.93438720703125,-0.235870361328125
141244,-0.219818115234375,0.93438720703125,-0.235870361328125
141245,-0.2693634033203125,0.962860107421875,-0.2139434814453125
141246,-0.191192626953125,1.099380493164062,-0.21026611328125
141247,-0.0013275146484375,1.119659423828125,-0.262359619140625
141248,-0.0013275146484375,1.119659423828125,-0.262359619140625
141249,0.058135986328125,1.072769165039062,-0.2692108154296875
141250,0.1046295166015625,0.999969482421875,-0.26513671875
141251,0.1589202880859375,0.8062896728515625,-0.2136383056640625
141252,0.1589202880859375,0.8062896728515625,-0.2136383056640625
141253,0.17938232421875,0.7198486328125,-0.2201995849609375
141254,0.2100677490234375,0.647430419921875,-0.23699951171875
141255,0.244354248046875,0.5830078125,-0.2526702880859375
141256,0.26861572265625,0.5135498046875,-0.2642364501953125
141257,0.2951202392578125,0.451812744140625,-0.261199951171875
141258,0.324737548828125,0.4112396240234375,-0.2476806640625
141259,0.3849029541015625,0.461151123046875,-0.182647705078125
141260,0.3849029541015625,0.461151123046875,-0.182647705078125
141261,0.3908843994140625,0.5029754638671875,-0.1465606689453125
141262,0.38519287109375,0.55718994140625,-0.09649658203125
141263,0.376434326171875,0.64227294921875,-0.0092315673828125
141264,0.376434326171875,0.64227294921875,-0.0092315673828125
141265,0.3582763671875,0.76129150390625,0.1349334716796875
141266,0.22027587890625,0.98529052734375,0.1789093017578125
141267,0.18206787109375,1.00701904296875,0.12451171875
141268,0.1743927001953125,0.9401702880859376,0.07464599609375
141269,0.136566162109375,0.89923095703125,0.0257110595703125
141270,0.0766448974609375,0.946014404296875,0.0634765625
141271,0.0087432861328125,1.103912353515625,0.2508697509765625
141272,0.0087432861328125,1.103912353515625,0.2508697509765625
141273,-0.010986328125,1.16412353515625,0.304718017578125
141274,-0.0368194580078125,1.22723388671875,0.33148193359375
141275,-0.0649871826171875,1.31854248046875,0.3404541015625
141276,-0.084747314453125,1.431915283203125,0.3585052490234375
141277,-0.102996826171875,1.539505004882812,0.3903045654296875
141278,-0.1114654541015625,1.591156005859375,0.39556884765625
141279,-0.09521484375,1.581222534179688,0.366546630859375
141280,-0.05780029296875,1.52130126953125,0.3771209716796875
141281,-0.0123748779296875,1.43157958984375,0.4518890380859375
141282,0.037872314453125,1.343093872070312,0.427032470703125
141283,0.1002044677734375,1.145309448242188,0.20904541015625
141284,0.1002044677734375,1.145309448242188,0.20904541015625
141285,0.1326141357421875,1.077102661132812,0.1677398681640625
141286,0.1437530517578125,1.044631958007812,0.1772308349609375
141287,0.157318115234375,1.022964477539062,0.1605072021484375
141288,0.1781463623046875,0.999481201171875,0.1194915771484375
141289,0.21435546875,0.975128173828125,0.0734405517578125
141290,0.2076873779296875,0.96051025390625,0.0560302734375
141291,0.1863555908203125,0.95037841796875,0.0671844482421875
141292,0.168365478515625,0.9343414306640624,0.0742340087890625
141293,0.1561126708984375,0.9263153076171876,0.071868896484375
141294,0.1591033935546875,0.9795379638671876,0.0294342041015625
141295,0.1591033935546875,0.9795379638671876,0.0294342041015625
141296,0.1580963134765625,1.027374267578125,0.0168609619140625
141297,0.165374755859375,1.09185791015625,0.030975341796875
141298,0.1821441650390625,1.144622802734375,0.0373382568359375
141299,0.201934814453125,1.186538696289062,-0.002471923828125
141300,0.218994140625,1.216995239257812,-0.0828857421875
141301,0.24176025390625,1.229446411132812,-0.1605072021484375
141302,0.2667999267578125,1.218017578125,-0.2150726318359375
141303,0.2873382568359375,1.19091796875,-0.255218505859375
141304,0.306549072265625,1.133056640625,-0.3011474609375
141305,0.3160858154296875,1.034622192382812,-0.3455047607421875
141306,0.3223419189453125,0.908477783203125,-0.36590576171875
141307,0.32421875,0.7978515625,-0.3438873291015625
141308,0.3208465576171875,0.7257843017578125,-0.296051025390625
141309,0.315887451171875,0.6793060302734375,-0.26275634765625
141310,0.2979278564453125,0.651519775390625,-0.2626953125
141311,0.2099151611328125,0.6376800537109375,-0.28350830078125
141312,0.2099151611328125,0.6376800537109375,-0.28350830078125
141313,0.155670166015625,0.6256561279296875,-0.2653961181640625
141314,0.112701416015625,0.6024627685546875,-0.23114013671875
141315,0.072540283203125,0.5702362060546875,-0.208770751953125
141316,0.018035888671875,0.5435333251953125,-0.187469482421875
141317,-0.031494140625,0.5343170166015625,-0.139129638671875
141318,-0.0674896240234375,0.542694091796875,-0.0834503173828125
141319,-0.0642547607421875,0.571136474609375,-0.0517120361328125
141320,-0.0219268798828125,0.6331634521484375,-0.081939697265625
141321,0.0401153564453125,0.7305755615234375,-0.1338348388671875
141322,0.0747833251953125,0.825653076171875,-0.17218017578125
141323,0.095001220703125,0.9205322265625,-0.19183349609375
141324,0.125823974609375,1.0167236328125,-0.2100677490234375
141325,0.1749725341796875,1.1500244140625,-0.170867919921875
141326,0.18023681640625,1.218597412109375,-0.205535888671875
141327,0.20037841796875,1.16668701171875,-0.2107086181640625
141328,0.20037841796875,1.16668701171875,-0.2107086181640625
141329,0.1829833984375,1.136886596679688,-0.1572113037109375
141330,0.1305084228515625,1.0806884765625,-0.0569915771484375
141331,0.033050537109375,1.013290405273438,0.143310546875
141332,0.033050537109375,1.013290405273438,0.143310546875
141333,0.0219879150390625,0.9947052001953124,0.17926025390625
141334,0.02813720703125,1.052261352539062,0.189422607421875
141335,0.047515869140625,1.158798217773438,0.251708984375
141336,0.066070556640625,1.25872802734375,0.3401641845703125
141337,0.0904693603515625,1.3238525390625,0.363616943359375
141338,0.1318511962890625,1.340988159179688,0.2824249267578125
141339,0.16845703125,1.372817993164062,0.272979736328125
141340,0.1630706787109375,1.412185668945312,0.3513031005859375
141341,0.1349029541015625,1.426101684570312,0.345001220703125
141342,0.112823486328125,1.383987426757812,0.18603515625
141343,0.088958740234375,1.333694458007812,0.062896728515625
141344,0.0403594970703125,1.314895629882812,0.09698486328125
141345,-0.0173492431640625,1.300216674804688,0.1420135498046875
141346,-0.0401763916015625,1.262649536132812,0.0911102294921875
141347,-0.0426025390625,1.123184204101562,-0.0587615966796875
141348,-0.0426025390625,1.123184204101562,-0.0587615966796875
141349,-0.03875732421875,1.054519653320312,-0.0747528076171875
141350,-0.0448455810546875,0.988433837890625,-0.0625
141351,-0.0510101318359375,0.9386138916015624,-0.0417022705078125
141352,-0.0290374755859375,0.922882080078125,-0.0194244384765625
141353,-0.0581817626953125,0.91082763671875,-0.0443115234375
141354,-0.070465087890625,0.951324462890625,-0.076507568359375
141355,-0.068145751953125,0.992828369140625,-0.1201324462890625
141356,-0.069610595703125,1.0413818359375,-0.151336669921875
141357,-0.058380126953125,1.106826782226562,-0.203033447265625
141358,-0.0391387939453125,1.146621704101562,-0.242218017578125
141359,-0.00775146484375,1.170425415039062,-0.2655792236328125
141360,0.0131072998046875,1.151199340820312,-0.2850799560546875
141361,0.0131072998046875,1.151199340820312,-0.2850799560546875
141362,0.031768798828125,1.096603393554688,-0.30645751953125
141363,0.077667236328125,0.955230712890625,-0.309661865234375
141364,0.109527587890625,0.8822479248046875,-0.287872314453125
141365,0.146636962890625,0.82025146484375,-0.2699737548828125
141366,0.1909637451171875,0.7637176513671875,-0.257598876953125
141367,0.2407073974609375,0.704132080078125,-0.257843017578125
141368,0.282012939453125,0.6357574462890625,-0.25506591796875
141369,0.3062591552734375,0.5662689208984375,-0.2418060302734375
141370,0.3246307373046875,0.5021209716796875,-0.2152099609375
141371,0.3555450439453125,0.4146881103515625,-0.136444091796875
141372,0.3555450439453125,0.4146881103515625,-0.136444091796875
141373,0.37738037109375,0.4016265869140625,-0.0857391357421875
141374,0.403564453125,0.4275054931640625,-0.0278167724609375
141375,0.43023681640625,0.5574798583984375,0.0491943359375
141376,0.43023681640625,0.5574798583984375,0.0491943359375
141377,0.4102783203125,0.650299072265625,0.00750732421875
141378,0.40496826171875,0.7587127685546875,-0.065948486328125
141379,0.3888397216796875,0.8916015625,-0.1712799072265625
141380,0.383636474609375,1.099395751953125,-0.2651214599609375
141381,0.3407440185546875,1.23114013671875,-0.329742431640625
141382,0.2487640380859375,1.254531860351562,-0.2902984619140625
141383,0.1730194091796875,1.240570068359375,-0.1208343505859375
141384,0.10443115234375,1.097381591796875,-0.0369873046875
141385,0.0691680908203125,0.9944000244140624,0.02325439453125
141386,0.0842437744140625,0.93914794921875,0.0709991455078125
141387,0.1011962890625,0.996856689453125,0.0875091552734375
141388,0.1177825927734375,1.130279541015625,0.1745758056640625
141389,0.096710205078125,1.2447509765625,0.32086181640625
141390,0.0210723876953125,1.307052612304688,0.4649200439453125
141391,-0.05023193359375,1.300216674804688,0.529754638671875
141392,-0.0942840576171875,1.281234741210938,0.4957122802734375
141393,-0.1086273193359375,1.265396118164062,0.4623260498046875
141394,-0.070526123046875,1.226959228515625,0.478973388671875
141395,-0.070526123046875,1.226959228515625,0.478973388671875
141396,-0.0270538330078125,1.2327880859375,0.4787445068359375
141397,0.0304107666015625,1.249237060546875,0.4430694580078125
141398,0.0876922607421875,1.280990600585938,0.3716583251953125
141399,0.1439971923828125,1.319992065429688,0.2837677001953125
141400,0.1881256103515625,1.338363647460938,0.2150726318359375
141401,0.2281951904296875,1.337310791015625,0.1650848388671875
141402,0.27947998046875,1.303817749023438,0.13018798828125
141403,0.3425445556640625,1.260894775390625,0.10455322265625
141404,0.366729736328125,1.24334716796875,0.0757598876953125
141405,0.33575439453125,1.242813110351562,0.03570556640625
141406,0.2930145263671875,1.216796875,0.0062103271484375
141407,0.2297515869140625,1.188522338867188,-0.015350341796875
141408,0.1731719970703125,1.140914916992188,-0.0274200439453125
141409,0.1547088623046875,1.076614379882812,-0.0291900634765625
141410,0.1827239990234375,0.9969940185546876,-0.0190277099609375
141411,0.3298797607421875,0.909423828125,0.0135650634765625
141412,0.3298797607421875,0.909423828125,0.0135650634765625
141413,0.4030303955078125,0.866912841796875,0.0464935302734375
141414,0.4372406005859375,0.81512451171875,0.07574462890625
141415,0.3900604248046875,0.749420166015625,0.08929443359375
141416,0.3900604248046875,0.749420166015625,0.08929443359375
141417,0.3286285400390625,0.7434844970703125,0.04083251953125
141418,0.2086181640625,0.7240753173828125,-0.09063720703125
141419,0.2086181640625,0.7240753173828125,-0.09063720703125
141420,0.2086181640625,0.7240753173828125,-0.09063720703125
141421,0.1627197265625,0.7034454345703125,-0.1226959228515625
141422,0.0224761962890625,0.5924530029296875,-0.1385040283203125
141423,0.0224761962890625,0.5924530029296875,-0.1385040283203125
141424,-0.008941650390625,0.5692291259765625,-0.1268463134765625
141425,-0.038848876953125,0.562744140625,-0.120330810546875
141426,-0.0716552734375,0.5790252685546875,-0.1392059326171875
141427,-0.0894012451171875,0.59881591796875,-0.1735076904296875
141428,-0.0894012451171875,0.59881591796875,-0.1735076904296875
141429,-0.09661865234375,0.635528564453125,-0.221588134765625
141430,-0.0457305908203125,0.876953125,-0.352142333984375
141431,0.1184539794921875,1.073333740234375,-0.5356597900390625
141432,0.1184539794921875,1.073333740234375,-0.5356597900390625
141433,0.19927978515625,1.093521118164062,-0.592437744140625
141434,0.2686767578125,1.093505859375,-0.5611114501953125
141435,0.2686767578125,1.093505859375,-0.5611114501953125
141436,0.27581787109375,1.129119873046875,-0.4644927978515625
141437,0.28521728515625,1.192337036132812,-0.30615234375
141438,0.3137969970703125,1.251922607421875,-0.1114959716796875
141439,0.267059326171875,1.20843505859375,0.2069854736328125
141440,0.267059326171875,1.20843505859375,0.2069854736328125
141441,0.1932220458984375,1.1280517578125,0.2788848876953125
141442,0.1624603271484375,1.048004150390625,0.2272186279296875
141443,0.140350341796875,0.9951629638671876,0.1399383544921875
141444,0.140350341796875,0.9951629638671876,0.1399383544921875
141445,0.0893096923828125,0.984375,0.145294189453125
141446,-0.069549560546875,1.009735107421875,0.3784942626953125
141447,-0.1387481689453125,1.037933349609375,0.489532470703125
141448,-0.179473876953125,1.088729858398438,0.5235137939453125
141449,-0.1895904541015625,1.157913208007812,0.509918212890625
141450,-0.1742095947265625,1.230850219726562,0.501678466796875
141451,-0.142364501953125,1.293869018554688,0.4941253662109375
141452,-0.0853424072265625,1.341537475585938,0.49334716796875
141453,-0.01153564453125,1.367019653320312,0.4701385498046875
141454,0.0522918701171875,1.363876342773438,0.43524169921875
141455,0.1160430908203125,1.256668090820312,0.3524169921875
141456,0.1160430908203125,1.256668090820312,0.3524169921875
141457,0.11688232421875,1.193252563476562,0.2866973876953125
141458,0.1096038818359375,1.133285522460938,0.21630859375
141459,0.1014862060546875,1.095932006835938,0.1553192138671875
141460,0.0872650146484375,1.092361450195312,0.0585479736328125
141461,0.0872650146484375,1.092361450195312,0.0585479736328125
141462,0.088623046875,1.102584838867188,-0.0427398681640625
141463,0.04718017578125,1.060592651367188,-0.1313323974609375
141464,0.04718017578125,1.060592651367188,-0.1313323974609375
141465,0.00128173828125,1.0474853515625,-0.14117431640625
141466,-0.0516510009765625,1.046707153320312,-0.173309326171875
141467,-0.1039276123046875,1.045913696289062,-0.2137603759765625
141468,-0.1343994140625,1.049102783203125,-0.219512939453125
141469,-0.1343994140625,1.049102783203125,-0.219512939453125
141470,-0.16424560546875,1.012405395507812,-0.1710205078125
141471,-0.1590576171875,0.9810791015625,-0.1577301025390625
141472,-0.13671875,0.94732666015625,-0.1410980224609375
141473,-0.0671234130859375,0.9261932373046876,-0.1049041748046875
141474,0.0095672607421875,0.9092254638671876,-0.0986785888671875
141475,0.0890045166015625,0.873321533203125,-0.0962371826171875
141476,0.1270904541015625,0.8359375,-0.10235595703125
141477,0.14031982421875,0.7852783203125,-0.123260498046875
141478,0.1447296142578125,0.7283935546875,-0.15289306640625
141479,0.153106689453125,0.6604766845703125,-0.1802978515625
141480,0.162139892578125,0.6006317138671875,-0.2007598876953125
141481,0.162139892578125,0.6006317138671875,-0.2007598876953125
141482,0.2193145751953125,0.4343109130859375,-0.211181640625
141483,0.2193145751953125,0.4343109130859375,-0.211181640625
141484,0.2498626708984375,0.4132537841796875,-0.21405029296875
141485,0.2897796630859375,0.410858154296875,-0.2148284912109375
141486,0.334503173828125,0.461151123046875,-0.222442626953125
141487,0.3744354248046875,0.567840576171875,-0.2179412841796875
141488,0.3793487548828125,0.650909423828125,-0.2105865478515625
141489,0.36236572265625,0.723602294921875,-0.1838836669921875
141490,0.331878662109375,0.817962646484375,-0.1633148193359375
141491,0.2919158935546875,0.91729736328125,-0.1689300537109375
141492,0.2494659423828125,1.027252197265625,-0.1717681884765625
141493,0.1837615966796875,1.137664794921875,-0.2092437744140625
141494,-0.0308837890625,1.306564331054688,-0.0136871337890625
141495,-0.0308837890625,1.306564331054688,-0.0136871337890625
141496,-0.02581787109375,1.243408203125,0.2548675537109375
141497,-0.02679443359375,1.16546630859375,0.3832244873046875
141498,-0.033050537109375,1.123138427734375,0.3209381103515625
141499,-0.038543701171875,1.142837524414062,0.23974609375
141500,-0.018890380859375,1.186294555664062,0.2705841064453125
141501,-0.0115966796875,1.235855102539062,0.353790283203125
141502,-0.0240325927734375,1.29217529296875,0.442230224609375
141503,-0.0360260009765625,1.352203369140625,0.4782562255859375
141504,-0.044525146484375,1.408050537109375,0.4359893798828125
141505,-0.0409698486328125,1.4521484375,0.3649749755859375
141506,-0.0038299560546875,1.479736328125,0.3163909912109375
141507,0.0573883056640625,1.48077392578125,0.2997894287109375
141508,0.11627197265625,1.430938720703125,0.2765960693359375
141509,0.154296875,1.370697021484375,0.2244720458984375
141510,0.190521240234375,1.31597900390625,0.16656494140625
141511,0.2136993408203125,1.214508056640625,0.0766143798828125
141512,0.2136993408203125,1.214508056640625,0.0766143798828125
141513,0.197113037109375,1.1600341796875,0.0749969482421875
141514,0.1650390625,1.106918334960938,0.0724639892578125
141515,0.1650390625,1.106918334960938,0.0724639892578125
141516,0.143829345703125,1.099365234375,0.07147216796875
141517,0.1259613037109375,1.108917236328125,0.0728302001953125
141518,0.12109375,1.12554931640625,0.0816802978515625
141519,0.129974365234375,1.128036499023438,0.0970001220703125
141520,0.151519775390625,1.123504638671875,0.1025238037109375
141521,0.1841888427734375,1.1009521484375,0.10595703125
141522,0.2196197509765625,1.067489624023438,0.1114654541015625
141523,0.2535400390625,1.026229858398438,0.1216583251953125
141524,0.2852630615234375,0.974853515625,0.1309661865234375
141525,0.30706787109375,0.9200439453125,0.1306304931640625
141526,0.3034515380859375,0.8722381591796875,0.123321533203125
141527,0.2841796875,0.8326263427734375,0.0990142822265625
141528,0.2517852783203125,0.823974609375,0.0560302734375
141529,0.2517852783203125,0.823974609375,0.0560302734375
141530,0.1401214599609375,0.8888397216796875,-0.08074951171875
141531,0.08843994140625,0.9114227294921876,-0.1493072509765625
141532,0.04644775390625,0.9288330078125,-0.22064208984375
141533,0.02032470703125,0.9111328125,-0.2803955078125
141534,0.008544921875,0.85107421875,-0.3035736083984375
141535,-0.0145263671875,0.7743377685546875,-0.30419921875
141536,-0.0305328369140625,0.6826324462890625,-0.2738800048828125
141537,-0.0486297607421875,0.6090240478515625,-0.2365875244140625
141538,-0.0688629150390625,0.5501861572265625,-0.2021636962890625
141539,-0.0836029052734375,0.51361083984375,-0.18597412109375
141540,-0.0960845947265625,0.5145721435546875,-0.1980133056640625
141541,-0.093963623046875,0.5495147705078125,-0.2328643798828125
141542,-0.057037353515625,0.6457366943359375,-0.3063507080078125
141543,0.011932373046875,0.796112060546875,-0.4274749755859375
141544,0.1202545166015625,0.8870849609375,-0.4971771240234375
141545,0.1202545166015625,0.8870849609375,-0.4971771240234375
141546,0.36322021484375,0.9531402587890624,-0.5829010009765625
141547,0.36322021484375,0.9531402587890624,-0.5829010009765625
141548,0.408111572265625,0.9853973388671876,-0.5868377685546875
141549,0.425506591796875,1.051467895507812,-0.51068115234375
141550,0.4123382568359375,1.119796752929688,-0.3212127685546875
141551,0.3784942626953125,1.19732666015625,0.0416717529296875
141552,0.2884368896484375,1.161956787109375,0.3592376708984375
141553,0.1385498046875,1.03094482421875,0.4413909912109375
141554,0.0826416015625,0.9331512451171876,0.3619537353515625
141555,0.093231201171875,0.868804931640625,0.2312164306640625
141556,0.110504150390625,0.8589324951171875,0.12591552734375
141557,0.109344482421875,0.911834716796875,0.1461944580078125
141558,0.0703887939453125,0.9866485595703124,0.2964630126953125
141559,-0.017364501953125,1.052459716796875,0.52789306640625
141560,-0.088348388671875,1.120803833007812,0.7236480712890625
141561,-0.088348388671875,1.120803833007812,0.7236480712890625
141562,-0.126190185546875,1.200469970703125,0.7641143798828125
141563,-0.1141510009765625,1.340652465820312,0.7210693359375
141564,-0.073516845703125,1.384323120117188,0.715667724609375
141565,0.0079803466796875,1.412033081054688,0.712493896484375
141566,0.107025146484375,1.393890380859375,0.6698455810546875
141567,0.160736083984375,1.348983764648438,0.5893096923828125
141568,0.16253662109375,1.279205322265625,0.5121307373046875
141569,0.1368865966796875,1.231277465820312,0.4501953125
141570,0.0896453857421875,1.182281494140625,0.3661651611328125
141571,0.0468292236328125,1.14239501953125,0.2621612548828125
141572,0.0072479248046875,1.143112182617188,0.149566650390625
141573,-0.020233154296875,1.149261474609375,0.033721923828125
141574,-0.022979736328125,1.163955688476562,-0.0513916015625
141575,-0.017181396484375,1.167648315429688,-0.110992431640625
141576,-0.01544189453125,1.153091430664062,-0.1617279052734375
141577,0.0317535400390625,1.169769287109375,-0.2108001708984375
141578,-0.0387115478515625,1.096542358398438,-0.3400726318359375
141579,-0.0387115478515625,1.096542358398438,-0.3400726318359375
141580,-0.09832763671875,1.067794799804688,-0.34881591796875
141581,-0.1608734130859375,1.065582275390625,-0.3031463623046875
141582,-0.2400665283203125,1.114181518554688,-0.183135986328125
141583,-0.2400665283203125,1.114181518554688,-0.183135986328125
141584,-0.2018890380859375,1.121414184570312,-0.1187591552734375
141585,-0.1266021728515625,1.100631713867188,-0.0750274658203125
141586,-0.021484375,1.041732788085938,-0.0571746826171875
141587,0.1296234130859375,0.962646484375,-0.0720367431640625
141588,0.2476654052734375,0.8686981201171875,-0.0940093994140625
141589,0.2797698974609375,0.7543182373046875,-0.10406494140625
141590,0.279449462890625,0.5888214111328125,-0.1205902099609375
141591,0.279449462890625,0.5888214111328125,-0.1205902099609375
141592,0.2758636474609375,0.547576904296875,-0.1512298583984375
141593,0.2803497314453125,0.532684326171875,-0.18939208984375
141594,0.334869384765625,0.5404510498046875,-0.2192535400390625
141595,0.334869384765625,0.5404510498046875,-0.2192535400390625
141596,0.3601531982421875,0.547210693359375,-0.2075958251953125
141597,0.3616180419921875,0.551971435546875,-0.1872711181640625
141598,0.3062591552734375,0.5551910400390625,-0.1278228759765625
141599,0.3062591552734375,0.5551910400390625,-0.1278228759765625
141600,0.2733917236328125,0.57183837890625,-0.10845947265625
141601,0.246063232421875,0.6030120849609375,-0.1019134521484375
141602,0.2241973876953125,0.6503753662109375,-0.0987091064453125
141603,0.200958251953125,0.713775634765625,-0.0956268310546875
141604,0.1723175048828125,0.7919158935546875,-0.09130859375
141605,0.126129150390625,0.882843017578125,-0.0888671875
141606,0.0637054443359375,0.9665069580078124,-0.08843994140625
141607,0.0201568603515625,1.009765625,-0.0540924072265625
141608,-0.0167236328125,1.04644775390625,-0.0390777587890625
141609,-0.0471038818359375,1.087890625,-0.0601959228515625
141610,-0.0580291748046875,1.132492065429688,-0.059661865234375
141611,-0.0082550048828125,1.267227172851562,0.1517486572265625
141612,-0.0082550048828125,1.267227172851562,0.1517486572265625
141613,0.0182037353515625,1.313888549804688,0.2986907958984375
141614,0.029296875,1.3521728515625,0.3691558837890625
141615,0.024444580078125,1.408401489257812,0.406036376953125
141616,-0.001678466796875,1.47039794921875,0.44586181640625
141617,-0.03680419921875,1.520233154296875,0.5085601806640625
141618,-0.100372314453125,1.536285400390625,0.5574493408203125
141619,-0.1588287353515625,1.509445190429688,0.5753173828125
141620,-0.1821746826171875,1.446060180664062,0.53717041015625
141621,-0.162261962890625,1.38775634765625,0.502227783203125
141622,-0.1020965576171875,1.334197998046875,0.49041748046875
141623,-0.028900146484375,1.288726806640625,0.4638671875
141624,-0.028900146484375,1.288726806640625,0.4638671875
141625,0.036346435546875,1.265426635742188,0.393646240234375
141626,0.1343841552734375,1.211410522460938,0.23291015625
141627,0.169708251953125,1.168258666992188,0.157135009765625
141628,0.2058563232421875,1.1409912109375,0.114959716796875
141629,0.2415924072265625,1.12286376953125,0.1067962646484375
141630,0.2577667236328125,1.124282836914062,0.099029541015625
141631,0.2490234375,1.112838745117188,0.0396881103515625
141632,0.2490234375,1.112838745117188,0.0396881103515625
141633,0.2486724853515625,1.079071044921875,0.00262451171875
141634,0.25933837890625,1.042037963867188,-0.039703369140625
141635,0.264739990234375,1.017822265625,-0.0845184326171875
141636,0.2693939208984375,1.004257202148438,-0.1062774658203125
141637,0.2861175537109375,0.99139404296875,-0.0970306396484375
141638,0.2985992431640625,0.985198974609375,-0.057281494140625
141639,0.3182525634765625,0.9553070068359376,0.0116729736328125
141640,0.3265533447265625,0.916717529296875,0.09228515625
141641,0.3265533447265625,0.916717529296875,0.09228515625
141642,0.31048583984375,0.8529052734375,0.159698486328125
141643,0.2756195068359375,0.829254150390625,0.1339874267578125
141644,0.2756195068359375,0.829254150390625,0.1339874267578125
141645,0.234588623046875,0.822509765625,0.084716796875
141646,0.1332855224609375,0.8328704833984375,-0.03240966796875
141647,0.09967041015625,0.814056396484375,-0.0950927734375
141648,0.0758819580078125,0.7910919189453125,-0.13751220703125
141649,0.05853271484375,0.7629852294921875,-0.166900634765625
141650,0.052581787109375,0.7251434326171875,-0.1855010986328125
141651,0.0498199462890625,0.6325531005859375,-0.1587371826171875
141652,0.0498199462890625,0.6325531005859375,-0.1587371826171875
141653,0.044708251953125,0.596954345703125,-0.1318511962890625
141654,0.021820068359375,0.5391693115234375,-0.107757568359375
141655,0.021820068359375,0.5391693115234375,-0.107757568359375
141656,0.010986328125,0.5253143310546875,-0.123626708984375
141657,-0.0010223388671875,0.5330047607421875,-0.1693267822265625
141658,-0.009735107421875,0.5690460205078125,-0.2343597412109375
141659,0.0330810546875,0.7676849365234375,-0.37677001953125
141660,0.0330810546875,0.7676849365234375,-0.37677001953125
141661,0.0330810546875,0.7676849365234375,-0.37677001953125
141662,0.147857666015625,0.8803253173828125,-0.3841094970703125
141663,0.1954498291015625,0.9298553466796876,-0.3781890869140625
141664,0.2342071533203125,0.9990997314453124,-0.3672637939453125
141665,0.2715301513671875,1.079833984375,-0.3504486083984375
141666,0.325347900390625,1.272552490234375,-0.108306884765625
141667,0.325347900390625,1.272552490234375,-0.108306884765625
141668,0.3390045166015625,1.314407348632812,0.0687255859375
141669,0.280792236328125,1.245040893554688,0.1332855224609375
141670,0.18780517578125,1.138092041015625,0.1048431396484375
141671,0.1214141845703125,1.0916748046875,0.1069488525390625
141672,0.089111328125,1.057571411132812,0.14447021484375
141673,0.0540313720703125,1.063247680664062,0.2031707763671875
141674,0.0084686279296875,1.10772705078125,0.3013153076171875
141675,-0.04058837890625,1.1798095703125,0.46649169921875
141676,-0.0836334228515625,1.272613525390625,0.6406707763671875
141677,-0.1172943115234375,1.36114501953125,0.7425994873046875
141678,-0.1231689453125,1.442977905273438,0.7676544189453125
141679,-0.0919952392578125,1.500961303710938,0.7357635498046875
141680,-0.02191162109375,1.4930419921875,0.6688232421875
141681,0.0579986572265625,1.431350708007812,0.6504669189453125
141682,0.0749969482421875,1.350448608398438,0.6929779052734375
141683,-0.0126953125,1.169586181640625,0.6084136962890625
141684,-0.0126953125,1.169586181640625,0.6084136962890625
141685,-0.0708465576171875,1.105453491210938,0.52252197265625
141686,-0.120452880859375,1.054718017578125,0.43182373046875
141687,-0.148956298828125,1.02703857421875,0.3168792724609375
141688,-0.157928466796875,1.036224365234375,0.2053070068359375
141689,-0.151580810546875,1.085296630859375,0.1165618896484375
141690,-0.1425933837890625,1.156051635742188,0.02496337890625
141691,-0.12530517578125,1.248138427734375,-0.0641632080078125
141692,-0.1084136962890625,1.302047729492188,-0.137237548828125
141693,-0.095916748046875,1.266342163085938,-0.2158660888671875
141694,-0.0733795166015625,1.060546875,-0.263519287109375
141695,-0.0733795166015625,1.060546875,-0.263519287109375
141696,-0.0879974365234375,0.966064453125,-0.2779541015625
141697,-0.12518310546875,0.90240478515625,-0.2921905517578125
141698,-0.1866302490234375,0.871826171875,-0.315093994140625
141699,-0.224639892578125,0.8726654052734375,-0.3138580322265625
141700,-0.224639892578125,0.8726654052734375,-0.3138580322265625
141701,-0.2089385986328125,0.885986328125,-0.255828857421875
141702,0.1044921875,0.934356689453125,-0.092071533203125
141703,0.1044921875,0.934356689453125,-0.092071533203125
141704,0.1044921875,0.934356689453125,-0.092071533203125
141705,0.1820068359375,0.90753173828125,-0.0579833984375
141706,0.1988677978515625,0.770172119140625,-0.0744171142578125
141707,0.2095489501953125,0.7023468017578125,-0.127166748046875
141708,0.2289276123046875,0.6417083740234375,-0.1723480224609375
141709,0.247833251953125,0.586517333984375,-0.202972412109375
141710,0.2691497802734375,0.547698974609375,-0.216827392578125
141711,0.30145263671875,0.474884033203125,-0.217041015625
141712,0.30145263671875,0.474884033203125,-0.217041015625
141713,0.309967041015625,0.471435546875,-0.2102508544921875
141714,0.31378173828125,0.4970550537109375,-0.211151123046875
141715,0.3156890869140625,0.574371337890625,-0.2208099365234375
141716,0.30938720703125,0.648651123046875,-0.21820068359375
141717,0.287017822265625,0.69891357421875,-0.2076873779296875
141718,0.2587432861328125,0.7559051513671875,-0.196746826171875
141719,0.2340545654296875,0.832061767578125,-0.1868133544921875
141720,0.2009124755859375,0.9254608154296876,-0.20166015625
141721,0.1518402099609375,1.01824951171875,-0.2272186279296875
141722,-0.0072479248046875,1.233352661132812,-0.2262725830078125
141723,-0.0072479248046875,1.233352661132812,-0.2262725830078125
141724,-0.0072479248046875,1.233352661132812,-0.2262725830078125
141725,-0.0716705322265625,1.286529541015625,-0.150299072265625
141726,-0.0368499755859375,1.150390625,0.143157958984375
141727,-0.0437469482421875,1.120407104492188,0.2167205810546875
141728,-0.0481414794921875,1.12969970703125,0.241363525390625
141729,-0.034332275390625,1.145828247070312,0.2346343994140625
141730,-0.0282440185546875,1.171157836914062,0.2304534912109375
141731,-0.0350494384765625,1.214813232421875,0.29278564453125
141732,-0.0350494384765625,1.214813232421875,0.29278564453125
141733,-0.0538482666015625,1.272689819335938,0.3936614990234375
141734,-0.118255615234375,1.426040649414062,0.5498199462890625
141735,-0.118255615234375,1.426040649414062,0.5498199462890625
141736,-0.112640380859375,1.413742065429688,0.4992523193359375
141737,-0.112640380859375,1.413742065429688,0.4992523193359375
141738,-0.088165283203125,1.309707641601562,0.46575927734375
141739,-0.0509033203125,1.263519287109375,0.33544921875
141740,-0.0509033203125,1.263519287109375,0.33544921875
141741,-0.0329742431640625,1.254150390625,0.2515869140625
141742,-0.009033203125,1.243118286132812,0.16607666015625
141743,0.02252197265625,1.2259521484375,0.084930419921875
141744,0.0545196533203125,1.19873046875,0.039642333984375
141745,0.0545196533203125,1.19873046875,0.039642333984375
141746,0.0952606201171875,1.15740966796875,-0.00128173828125
141747,0.11016845703125,1.135772705078125,-0.01446533203125
141748,0.1239166259765625,1.104690551757812,-0.04083251953125
141749,0.1412506103515625,1.072891235351562,-0.064910888671875
141750,0.173431396484375,1.030776977539062,-0.090850830078125
141751,0.225433349609375,1.0028076171875,-0.1116943359375
141752,0.225433349609375,1.0028076171875,-0.1116943359375
141753,0.284698486328125,0.9702606201171876,-0.10626220703125
141754,0.34710693359375,0.9322052001953124,0.00390625
141755,0.3736724853515625,0.9225311279296876,0.0721893310546875
141756,0.3757476806640625,0.91485595703125,0.1028594970703125
141757,0.339874267578125,0.9085845947265624,0.0938873291015625
141758,0.284088134765625,0.904205322265625,0.04931640625
141759,0.2249908447265625,0.898040771484375,-0.0058746337890625
141760,0.1751556396484375,0.8707427978515625,-0.058258056640625
141761,0.1261749267578125,0.8206329345703125,-0.099395751953125
141762,0.0867919921875,0.7765960693359375,-0.1271209716796875
141763,0.0578155517578125,0.747772216796875,-0.146240234375
141764,0.040985107421875,0.712310791015625,-0.1533203125
141765,0.03009033203125,0.6735076904296875,-0.162872314453125
141766,0.015045166015625,0.6295623779296875,-0.1710357666015625
141767,-0.01007080078125,0.5899505615234375,-0.1703643798828125
141768,-0.0466461181640625,0.574951171875,-0.1611785888671875
141769,-0.084381103515625,0.5723419189453125,-0.164031982421875
141770,-0.1152801513671875,0.579620361328125,-0.1832275390625
141771,-0.1369171142578125,0.6093902587890625,-0.2159423828125
141772,-0.1451263427734375,0.665130615234375,-0.2699432373046875
141773,-0.10406494140625,0.8029937744140625,-0.330474853515625
141774,-0.0260162353515625,0.962860107421875,-0.410003662109375
141775,0.05645751953125,1.040008544921875,-0.4564056396484375
141776,0.1321868896484375,1.052764892578125,-0.4341583251953125
141777,0.18145751953125,1.04583740234375,-0.3980712890625
141778,0.22833251953125,1.065994262695312,-0.37701416015625
141779,0.2757720947265625,1.114730834960938,-0.3506622314453125
141780,0.304046630859375,1.180267333984375,-0.268035888671875
141781,0.304046630859375,1.180267333984375,-0.268035888671875
141782,0.2439117431640625,1.27783203125,0.0744781494140625
141783,0.160736083984375,1.229446411132812,0.1582183837890625
141784,0.1161346435546875,1.141372680664062,0.1491546630859375
141785,0.079254150390625,1.072280883789062,0.129791259765625
141786,-0.0012664794921875,1.004791259765625,0.1555938720703125
141787,-0.0012664794921875,1.004791259765625,0.1555938720703125
141788,-0.0463714599609375,0.9814300537109376,0.229644775390625
141789,-0.094879150390625,0.978118896484375,0.3141021728515625
141790,-0.1382904052734375,0.9979095458984376,0.406341552734375
141791,-0.1699066162109375,1.046966552734375,0.4877166748046875
141792,-0.19384765625,1.103485107421875,0.539703369140625
141793,-0.20379638671875,1.155441284179688,0.5576019287109375
141794,-0.161529541015625,1.283767700195312,0.5199737548828125
141795,-0.161529541015625,1.283767700195312,0.5199737548828125
141796,-0.161529541015625,1.283767700195312,0.5199737548828125
141797,-0.116058349609375,1.307846069335938,0.5021820068359375
141798,-0.0834197998046875,1.298843383789062,0.4918365478515625
141799,-0.089447021484375,1.290771484375,0.4478607177734375
141800,-0.1022491455078125,1.288528442382812,0.380645751953125
141801,-0.1252593994140625,1.307571411132812,0.272674560546875
141802,-0.1403961181640625,1.31829833984375,0.1550750732421875
141803,-0.1443939208984375,1.334182739257812,0.0196685791015625
141804,-0.1393280029296875,1.31097412109375,-0.0765380859375
141805,-0.140472412109375,1.239578247070312,-0.12420654296875
141806,-0.1301727294921875,1.123382568359375,-0.14141845703125
141807,-0.10882568359375,1.003158569335938,-0.1439361572265625
141808,-0.10882568359375,1.003158569335938,-0.1439361572265625
141809,-0.082672119140625,0.9138336181640624,-0.12762451171875
141810,-0.0764007568359375,0.839019775390625,-0.1276397705078125
141811,-0.097747802734375,0.890838623046875,-0.0879974365234375
141812,-0.097747802734375,0.890838623046875,-0.0879974365234375
141813,-0.120086669921875,0.9433746337890624,-0.0681915283203125
141814,-0.1424560546875,1.009857177734375,-0.050018310546875
141815,-0.1493072509765625,1.045639038085938,-0.027435302734375
141816,-0.1243743896484375,1.05023193359375,-0.0017547607421875
141817,-0.0523681640625,1.026687622070312,0.034759521484375
141818,0.0623931884765625,0.9752655029296876,0.0672607421875
141819,0.16778564453125,0.903961181640625,0.0777740478515625
141820,0.19525146484375,0.8094940185546875,0.02911376953125
141821,0.193511962890625,0.72503662109375,-0.0621337890625
141822,0.2170562744140625,0.6560211181640625,-0.1334686279296875
141823,0.2414398193359375,0.5922393798828125,-0.178985595703125
141824,0.2661895751953125,0.5482177734375,-0.20904541015625
141825,0.283294677734375,0.5191802978515625,-0.2297210693359375
141826,0.2832794189453125,0.50616455078125,-0.2335357666015625
141827,0.2680816650390625,0.53546142578125,-0.2083282470703125
141828,0.2517852783203125,0.5995025634765625,-0.16363525390625
141829,0.2379302978515625,0.6480560302734375,-0.11669921875
141830,0.23126220703125,0.6986236572265625,-0.0775299072265625
141831,0.2352447509765625,0.7655181884765625,-0.059967041015625
141832,0.2368927001953125,0.830535888671875,-0.0485687255859375
141833,0.227874755859375,0.9054412841796876,-0.03521728515625
141834,0.2009429931640625,0.988189697265625,-0.0045013427734375
141835,0.1636810302734375,1.086135864257812,0.066162109375
141836,0.08331298828125,1.166427612304688,0.1263275146484375
141837,-0.0031585693359375,1.213394165039062,0.096099853515625
141838,-0.072296142578125,1.238311767578125,0.0161895751953125
141839,-0.11126708984375,1.257919311523438,-0.033172607421875
141840,-0.1356353759765625,1.263519287109375,-0.0178985595703125
141841,-0.1499786376953125,1.2655029296875,0.0543975830078125
141842,-0.1560516357421875,1.248214721679688,0.1552581787109375
141843,-0.148895263671875,1.209259033203125,0.2601165771484375
141844,-0.1286468505859375,1.184036254882812,0.3223724365234375
141845,-0.0838165283203125,1.192962646484375,0.3740081787109375
141846,-0.0286712646484375,1.231781005859375,0.443572998046875
141847,0.0238494873046875,1.29425048828125,0.5489044189453125
141848,0.0402679443359375,1.366683959960938,0.611602783203125
141849,0.0007476806640625,1.401885986328125,0.6046905517578125
141850,-0.05218505859375,1.357467651367188,0.5530853271484375
141851,-0.0673065185546875,1.245559692382812,0.5308837890625
141852,-0.070068359375,1.151092529296875,0.5442352294921875
141853,-0.0690155029296875,1.083953857421875,0.5302734375
141854,-0.0341644287109375,1.023086547851562,0.42254638671875
141855,-0.0341644287109375,1.023086547851562,0.42254638671875
141856,-0.0109710693359375,1.023300170898438,0.357452392578125
141857,0.013458251953125,1.052078247070312,0.2779541015625
141858,0.0343475341796875,1.096954345703125,0.20428466796875
141859,0.057769775390625,1.13330078125,0.1651153564453125
141860,0.0861663818359375,1.155838012695312,0.1385345458984375
141861,0.0861663818359375,1.155838012695312,0.1385345458984375
141862,0.19586181640625,1.117324829101562,-0.022979736328125
141863,0.19586181640625,1.117324829101562,-0.022979736328125
141864,0.2243804931640625,1.099472045898438,-0.0766754150390625
141865,0.2523040771484375,1.072433471679688,-0.1170654296875
141866,0.2725677490234375,1.030242919921875,-0.12603759765625
141867,0.298553466796875,0.979888916015625,-0.1226348876953125
141868,0.315338134765625,0.917572021484375,-0.0977935791015625
141869,0.319732666015625,0.8515167236328125,-0.028228759765625
141870,0.3308868408203125,0.815948486328125,0.0534820556640625
141871,0.3301544189453125,0.795074462890625,0.118133544921875
141872,0.310333251953125,0.7864837646484375,0.148345947265625
141873,0.281036376953125,0.7954559326171875,0.0862884521484375
141874,0.243255615234375,0.794708251953125,-0.01190185546875
141875,0.1956329345703125,0.7813720703125,-0.08489990234375
141876,0.1956329345703125,0.7813720703125,-0.08489990234375
141877,0.1535797119140625,0.7617034912109375,-0.13330078125
141878,0.108001708984375,0.7190399169921875,-0.1846923828125
141879,0.0907745361328125,0.688690185546875,-0.2183837890625
141880,0.07232666015625,0.6430206298828125,-0.24444580078125
141881,0.044708251953125,0.6002960205078125,-0.248138427734375
141882,-0.0901336669921875,0.599212646484375,-0.1990509033203125
141883,-0.0901336669921875,0.599212646484375,-0.1990509033203125
141884,-0.149078369140625,0.685577392578125,-0.1534881591796875
141885,-0.167205810546875,0.7957305908203125,-0.117919921875
141886,-0.1736297607421875,0.87762451171875,-0.129608154296875
141887,-0.1617431640625,0.938995361328125,-0.1649169921875
141888,-0.0999755859375,1.001785278320312,-0.2042083740234375
141889,-0.01531982421875,1.065261840820312,-0.236663818359375
141890,0.09722900390625,1.1727294921875,-0.3542022705078125
141891,0.09722900390625,1.1727294921875,-0.3542022705078125
141892,0.138916015625,1.23211669921875,-0.3387908935546875
141893,0.1659698486328125,1.275131225585938,-0.2592620849609375
141894,0.1669158935546875,1.277191162109375,0.0714874267578125
141895,0.1669158935546875,1.277191162109375,0.0714874267578125
141896,0.1655426025390625,1.206832885742188,0.174346923828125
141897,0.164520263671875,1.097625732421875,0.0694427490234375
141898,0.15313720703125,0.9883575439453124,-0.0074462890625
141899,0.1353302001953125,0.9100189208984376,0.0263519287109375
141900,0.0892181396484375,0.8748626708984375,0.13946533203125
141901,0.0206298828125,0.8538970947265625,0.321624755859375
141902,-0.063629150390625,0.9393157958984376,0.5584259033203125
141903,-0.063629150390625,0.9393157958984376,0.5584259033203125
141904,-0.063629150390625,0.9393157958984376,0.5584259033203125
141905,-0.06915283203125,1.042633056640625,0.6377410888671875
141906,-0.0308990478515625,1.2825927734375,0.6893463134765625
141907,0.0313720703125,1.3494873046875,0.6485748291015625
141908,0.1020965576171875,1.35321044921875,0.6182708740234375
141909,0.12908935546875,1.280914306640625,0.672027587890625
141910,0.0842132568359375,1.19091796875,0.714508056640625
141911,0.0374755859375,1.137908935546875,0.6581268310546875
141912,0.0374755859375,1.137908935546875,0.6581268310546875
141913,-0.00732421875,1.114425659179688,0.514556884765625
141914,-0.0235748291015625,1.128707885742188,0.425537109375
141915,-0.0214691162109375,1.134445190429688,0.2948455810546875
141916,0.0020751953125,1.15191650390625,0.1512298583984375
141917,0.0306396484375,1.203704833984375,0.0207366943359375
141918,0.0620574951171875,1.224777221679688,-0.0793609619140625
141919,0.0818328857421875,1.236831665039062,-0.1526641845703125
141920,0.0828857421875,1.239288330078125,-0.199066162109375
141921,0.0674896240234375,1.218353271484375,-0.22186279296875
141922,-0.0040435791015625,1.112808227539062,-0.272735595703125
141923,-0.0040435791015625,1.112808227539062,-0.272735595703125
141924,-0.0040435791015625,1.112808227539062,-0.272735595703125
141925,-0.105499267578125,0.96722412109375,-0.2649078369140625
141926,-0.1669158935546875,0.9207763671875,-0.2634735107421875
141927,-0.2239227294921875,0.892333984375,-0.2362213134765625
141928,-0.25482177734375,0.886383056640625,-0.213592529296875
141929,-0.25482177734375,0.886383056640625,-0.213592529296875
141930,-0.1032867431640625,0.93511962890625,-0.1787872314453125
141931,0.029296875,0.9355926513671876,-0.19000244140625
141932,0.1077728271484375,0.8961639404296875,-0.1808929443359375
141933,0.13739013671875,0.84197998046875,-0.155914306640625
141934,0.1763916015625,0.74200439453125,-0.13946533203125
141935,0.1763916015625,0.74200439453125,-0.13946533203125
141936,0.1985626220703125,0.71551513671875,-0.16827392578125
141937,0.2208404541015625,0.6875762939453125,-0.1977081298828125
141938,0.275634765625,0.6103363037109375,-0.217376708984375
141939,0.275634765625,0.6103363037109375,-0.217376708984375
141940,0.275634765625,0.6103363037109375,-0.217376708984375
141941,0.30078125,0.578369140625,-0.213165283203125
141942,0.346649169921875,0.5641326904296875,-0.165557861328125
141943,0.3716278076171875,0.60009765625,-0.13037109375
141944,0.39886474609375,0.6590423583984375,-0.109344482421875
