time_idx,accelerometerAccelerationX(G),accelerometerAccelerationY(G),accelerometerAccelerationZ(G)
220000,-1.0084228515625,1.984207153320312,4.59844970703125
220001,-0.395782470703125,1.243133544921875,0.2935333251953125
220002,-0.395782470703125,1.243133544921875,0.2935333251953125
220003,-0.1377410888671875,1.091690063476562,0.0741119384765625
220004,0.0007476806640625,1.049346923828125,-0.0807037353515625
220005,0.13641357421875,0.6548614501953125,0.06610107421875
220006,0.13641357421875,0.6548614501953125,0.06610107421875
220007,0.1997528076171875,0.4205780029296875,0.2320709228515625
220008,0.2682342529296875,0.205108642578125,0.4475860595703125
220009,0.3107757568359375,-0.1524810791015625,0.5526885986328125
220010,0.3107757568359375,-0.1524810791015625,0.5526885986328125
220011,0.287261962890625,-0.2629547119140625,0.447052001953125
220012,0.213409423828125,-0.270355224609375,0.1757659912109375
220013,0.0494232177734375,-0.1925506591796875,-0.2249298095703125
220014,0.0494232177734375,-0.1925506591796875,-0.2249298095703125
220015,0.021209716796875,-0.181854248046875,-0.302154541015625
220016,0.0286102294921875,-0.1728057861328125,-0.3202667236328125
220017,0.02557373046875,-0.1776275634765625,-0.3548583984375
220018,0.0225372314453125,-0.1804351806640625,-0.3712921142578125
220019,0.0225372314453125,-0.1804351806640625,-0.3712921142578125
220020,0.027130126953125,-0.177886962890625,-0.3478851318359375
220021,0.0146942138671875,-0.1583099365234375,-0.202911376953125
220022,0.0146942138671875,-0.1583099365234375,-0.202911376953125
220023,0.007080078125,-0.1623687744140625,-0.2173309326171875
220024,0.00274658203125,-0.162994384765625,-0.2310333251953125
220025,-0.0035858154296875,-0.1666107177734375,-0.237518310546875
220026,-0.0105438232421875,-0.169342041015625,-0.2256622314453125
220027,-0.0180206298828125,-0.1666412353515625,-0.163543701171875
220028,-0.028289794921875,-0.167205810546875,-0.1239776611328125
220029,-0.011322021484375,0.061859130859375,-0.1896820068359375
220030,-0.011322021484375,0.061859130859375,-0.1896820068359375
220031,0.01702880859375,0.2027587890625,-0.487335205078125
220032,0.078277587890625,0.3900604248046875,-0.3754425048828125
220033,0.234771728515625,3.337432861328125,0.995086669921875
220034,0.234771728515625,3.337432861328125,0.995086669921875
220035,0.2431182861328125,6.3385009765625,-1.055648803710938
220036,1.464920043945312,7.949874877929688,0.0691986083984375
220037,0.3958892822265625,3.3651123046875,-0.3927764892578125
220038,0.3958892822265625,3.3651123046875,-0.3927764892578125
220039,0.1625823974609375,1.599700927734375,-0.02056884765625
220040,0.155303955078125,0.7390594482421875,0.3911285400390625
220041,-0.1938323974609375,0.84521484375,0.86688232421875
220042,-0.1938323974609375,0.84521484375,0.86688232421875
220043,-0.186553955078125,1.451141357421875,0.4774627685546875
220044,-0.2436981201171875,1.56103515625,0.6093597412109375
220045,-0.324188232421875,1.341064453125,0.531341552734375
220046,-0.29486083984375,1.068252563476562,0.350250244140625
220047,-0.224212646484375,0.878997802734375,0.2274169921875
220048,-0.172515869140625,0.7348785400390625,0.1132049560546875
220049,-0.129364013671875,0.58453369140625,0.0399627685546875
220050,-0.1006927490234375,0.429901123046875,0.072540283203125
220051,-0.0781097412109375,0.28228759765625,0.145599365234375
220052,-0.05718994140625,0.1493682861328125,0.18310546875
220053,0.032318115234375,-0.04779052734375,0.06927490234375
220054,0.032318115234375,-0.04779052734375,0.06927490234375
220055,0.08233642578125,-0.1098175048828125,0.003875732421875
220056,0.1287384033203125,-0.1545562744140625,-0.0076904296875
220057,0.18121337890625,-0.1893157958984375,0.0304107666015625
220058,0.2409210205078125,-0.2041015625,0.0908050537109375
220059,0.2767791748046875,-0.2061309814453125,0.15728759765625
220060,0.251556396484375,-0.202606201171875,0.127532958984375
220061,0.2016448974609375,-0.1934661865234375,0.04205322265625
220062,0.150238037109375,-0.1850738525390625,-0.0113067626953125
220063,0.115142822265625,-0.1776885986328125,-0.0210418701171875
220064,0.1025238037109375,-0.16485595703125,0.0229339599609375
220065,0.078094482421875,-0.1583099365234375,0.058197021484375
220066,0.0375213623046875,-0.15447998046875,0.022979736328125
220067,-0.0006103515625,-0.146270751953125,-0.047943115234375
220068,-0.040618896484375,-0.1252593994140625,-0.131805419921875
220069,-0.0454864501953125,0.0841827392578125,-0.2863922119140625
220070,-0.0454864501953125,0.0841827392578125,-0.2863922119140625
220071,-0.0454864501953125,0.0841827392578125,-0.2863922119140625
220072,-0.013275146484375,0.1589202880859375,-0.3551788330078125
220073,0.400177001953125,4.914306640625,-1.17816162109375
220074,0.400177001953125,4.914306640625,-1.17816162109375
220075,3.034942626953125,8.158523559570312,-3.587905883789062
220076,1.92169189453125,5.559417724609375,-0.708404541015625
220077,-0.292938232421875,3.101913452148438,0.02294921875
220078,-0.2208404541015625,2.337905883789062,0.4957427978515625
220079,-0.32904052734375,1.366897583007812,1.952774047851562
220080,-0.582122802734375,1.184890747070312,1.793746948242188
220081,-0.314361572265625,1.618759155273438,0.2502288818359375
220082,-0.314361572265625,1.618759155273438,0.2502288818359375
220083,-0.2565460205078125,1.5113525390625,0.3809051513671875
220084,-0.1433563232421875,1.208343505859375,0.4568939208984375
220085,-0.0220184326171875,0.73931884765625,0.4839935302734375
220086,-0.0220184326171875,0.73931884765625,0.4839935302734375
220087,0.0140380859375,0.5352935791015625,0.437652587890625
220088,0.0309295654296875,0.3272705078125,0.4031982421875
220089,0.0456085205078125,-0.0083160400390625,0.330322265625
220090,0.0456085205078125,-0.0083160400390625,0.330322265625
220091,0.037689208984375,-0.09234619140625,0.1849822998046875
220092,0.0357666015625,-0.127777099609375,0.0234832763671875
220093,0.00634765625,-0.1578521728515625,-0.12176513671875
220094,0.00634765625,-0.1578521728515625,-0.12176513671875
220095,-0.0118255615234375,-0.1531982421875,-0.135986328125
220096,-0.0242767333984375,-0.138519287109375,-0.13043212890625
220097,-0.0318450927734375,-0.1236724853515625,-0.124755859375
220098,-0.033599853515625,-0.111663818359375,-0.108734130859375
220099,-0.031585693359375,-0.1028289794921875,-0.0985260009765625
220100,-0.028778076171875,-0.099151611328125,-0.090576171875
220101,-0.026519775390625,-0.1053924560546875,-0.0796356201171875
220102,-0.026519775390625,-0.1053924560546875,-0.0796356201171875
220103,-0.0339202880859375,-0.1285400390625,-0.1248321533203125
220104,-0.0436248779296875,-0.1541595458984375,-0.1462860107421875
220105,-0.0486297607421875,-0.16876220703125,-0.1050567626953125
220106,-0.0502471923828125,-0.189727783203125,0.0560302734375
220107,-0.08660888671875,-0.315826416015625,0.7411041259765625
220108,-0.0882568359375,-0.2576904296875,0.1722259521484375
220109,-0.0987548828125,0.0462799072265625,0.005645751953125
220110,-0.0987548828125,0.0462799072265625,0.005645751953125
220111,-0.07293701171875,0.1012725830078125,0.040008544921875
220112,-0.0731964111328125,0.1704254150390625,-0.0063018798828125
220113,-0.0866851806640625,0.4766082763671875,-0.1016693115234375
220114,-0.132537841796875,1.209259033203125,-0.1943817138671875
220115,-0.4949493408203125,5.320831298828125,-0.8391265869140625
220116,-0.578857421875,8.184829711914062,-2.228607177734375
220117,1.138153076171875,5.70941162109375,0.6480712890625
220118,1.138153076171875,5.70941162109375,0.6480712890625
220119,1.138153076171875,5.70941162109375,0.6480712890625
220120,1.036483764648438,2.446273803710938,1.03082275390625
220121,0.22467041015625,0.1818389892578125,-0.4839935302734375
220122,0.12744140625,-0.0491180419921875,-0.0170135498046875
220123,0.133453369140625,0.196136474609375,0.80462646484375
220124,-0.0498809814453125,0.6623992919921875,0.8322601318359375
220125,-0.18798828125,0.670745849609375,0.3345489501953125
220126,-0.18798828125,0.670745849609375,0.3345489501953125
220127,-0.119384765625,0.469390869140625,0.34564208984375
220128,-0.050537109375,0.3354644775390625,0.2006683349609375
220129,0.060089111328125,0.1316070556640625,0.091339111328125
220130,0.060089111328125,0.1316070556640625,0.091339111328125
220131,0.104766845703125,0.0558013916015625,0.1088714599609375
220132,0.158966064453125,0.005828857421875,0.120147705078125
220133,0.2291107177734375,-0.035247802734375,0.0241546630859375
220134,0.2291107177734375,-0.035247802734375,0.0241546630859375
220135,0.219268798828125,-0.0545806884765625,-0.0104522705078125
220136,0.174041748046875,-0.071014404296875,-0.02423095703125
220137,0.1089019775390625,-0.0889129638671875,-0.021575927734375
220138,0.0539093017578125,-0.090484619140625,-0.00372314453125
220139,0.0077972412109375,-0.080657958984375,0.03399658203125
220140,-0.02264404296875,-0.0773162841796875,0.0912322998046875
220141,-0.10711669921875,-0.09564208984375,0.2842864990234375
220142,-0.10711669921875,-0.09564208984375,0.2842864990234375
220143,-0.145111083984375,-0.06036376953125,0.214752197265625
220144,-0.1514739990234375,0.012237548828125,0.06915283203125
220145,-0.116851806640625,0.2736663818359375,0.039459228515625
220146,-0.116851806640625,0.2736663818359375,0.039459228515625
220147,-0.1173248291015625,0.5471954345703125,-0.0204010009765625
220148,-0.0584259033203125,0.780914306640625,-0.147979736328125
220149,0.088653564453125,1.49578857421875,-0.7026519775390625
220150,0.088653564453125,1.49578857421875,-0.7026519775390625
220151,0.2449188232421875,2.088287353515625,-1.01165771484375
220152,0.4689788818359375,2.886260986328125,-1.273818969726562
220153,1.293487548828125,5.392425537109375,-1.406112670898438
220154,1.293487548828125,5.392425537109375,-1.406112670898438
220155,1.47509765625,4.719070434570312,-0.7573394775390625
220156,0.837158203125,3.244522094726562,-0.5893096923828125
220157,0.44439697265625,2.6959228515625,-0.0532379150390625
220158,0.1887664794921875,2.526931762695312,0.6123199462890625
220159,-0.2847442626953125,2.612548828125,2.196243286132812
220160,-0.5640716552734375,1.742050170898438,0.4935302734375
220161,-0.5640716552734375,1.742050170898438,0.4935302734375
220162,-0.1700592041015625,1.289627075195312,0.383392333984375
220163,0.0685272216796875,1.00799560546875,0.393096923828125
220164,0.137939453125,0.8153076171875,0.353240966796875
220165,0.1598052978515625,0.610809326171875,0.4042205810546875
220166,0.1425628662109375,0.39703369140625,0.442169189453125
220167,0.1263885498046875,0.17291259765625,0.43780517578125
220168,0.168853759765625,-0.2310943603515625,0.2743988037109375
220169,0.168853759765625,-0.2310943603515625,0.2743988037109375
220170,0.168853759765625,-0.2310943603515625,0.2743988037109375
220171,0.1403045654296875,-0.2257232666015625,0.0688629150390625
220172,0.1024627685546875,-0.18035888671875,-0.097900390625
220173,0.070770263671875,-0.1312103271484375,-0.145416259765625
220174,0.0261688232421875,-0.0877227783203125,-0.1534423828125
220175,-0.0077056884765625,-0.0726470947265625,-0.16754150390625
220176,-0.022491455078125,-0.0766143798828125,-0.185272216796875
220177,-0.0274658203125,-0.0831756591796875,-0.184906005859375
220178,-0.0219879150390625,-0.087066650390625,-0.1585540771484375
220179,-0.018890380859375,-0.084686279296875,-0.1284637451171875
220180,-0.019744873046875,-0.0840606689453125,-0.106964111328125
220181,-0.0251617431640625,-0.090606689453125,-0.08648681640625
220182,-0.028350830078125,-0.10345458984375,-0.05810546875
220183,-0.03057861328125,-0.1154327392578125,-0.0185394287109375
220184,-0.0367279052734375,-0.1295166015625,0.055145263671875
220185,-0.0510101318359375,-0.148773193359375,0.156219482421875
220186,-0.0647430419921875,-0.128997802734375,0.1995391845703125
220187,-0.0701141357421875,-0.0724945068359375,0.1314239501953125
220188,-0.0580902099609375,0.0138702392578125,0.0712738037109375
220189,-0.0205230712890625,0.1276702880859375,-0.1154937744140625
220190,-0.0205230712890625,0.1276702880859375,-0.1154937744140625
220191,-0.00164794921875,0.2362060546875,-0.2318878173828125
220192,0.158843994140625,1.378616333007812,-0.1335296630859375
220193,0.2282257080078125,3.586441040039062,-0.2423095703125
220194,0.2708740234375,5.754425048828125,-1.177490234375
220195,0.5016937255859375,7.537445068359375,-1.528564453125
220196,1.059616088867188,7.473770141601562,-0.4049835205078125
220197,1.388778686523438,4.93048095703125,1.166778564453125
220198,0.6541595458984375,2.390289306640625,0.506103515625
220199,0.2262420654296875,1.256942749023438,-0.2594146728515625
220200,0.1927490234375,0.826171875,0.3875274658203125
220201,-0.23150634765625,0.7811737060546875,0.91705322265625
220202,-0.23150634765625,0.7811737060546875,0.91705322265625
220203,-0.2702178955078125,0.8396148681640625,0.512451171875
220204,-0.1902008056640625,0.7511138916015625,0.6481475830078125
220205,-0.1269989013671875,0.682373046875,0.5709381103515625
220206,-0.063018798828125,0.555450439453125,0.2303466796875
220207,-0.0139007568359375,0.3778228759765625,0.0560150146484375
220208,0.0245819091796875,0.2295074462890625,0.0927734375
220209,0.0569305419921875,0.1123199462890625,0.17608642578125
220210,0.08660888671875,0.02886962890625,0.1881561279296875
220211,0.129180908203125,-0.011322021484375,0.0948944091796875
220212,0.129180908203125,-0.011322021484375,0.0948944091796875
220213,0.22412109375,-0.0585784912109375,-0.068267822265625
220214,0.266143798828125,-0.061492919921875,-0.0967559814453125
220215,0.311492919921875,-0.048126220703125,-0.1078338623046875
220216,0.32659912109375,-0.055999755859375,-0.0887908935546875
220217,0.162200927734375,-0.1655120849609375,-0.03204345703125
220218,0.162200927734375,-0.1655120849609375,-0.03204345703125
220219,0.0589141845703125,-0.1741790771484375,0.0277862548828125
220220,-0.0093231201171875,-0.1582183837890625,0.0903167724609375
220221,-0.06195068359375,-0.12811279296875,0.1269378662109375
220222,-0.108612060546875,-0.09564208984375,0.1267852783203125
220223,-0.146209716796875,-0.070098876953125,0.117218017578125
220224,-0.1782379150390625,-0.05804443359375,0.125823974609375
220225,-0.2021942138671875,-0.0289459228515625,0.1203155517578125
220226,-0.2021942138671875,-0.0289459228515625,0.1203155517578125
220227,-0.23553466796875,0.043975830078125,0.0784454345703125
220228,-0.2990570068359375,0.5667572021484375,0.001617431640625
220229,-0.0255584716796875,0.9078521728515624,-0.0939788818359375
220230,-0.0255584716796875,0.9078521728515624,-0.0939788818359375
220231,0.0776824951171875,1.158493041992188,-0.404937744140625
220232,0.1607818603515625,1.618072509765625,-0.8437042236328125
220233,0.579193115234375,2.967376708984375,-1.566131591796875
220234,0.579193115234375,2.967376708984375,-1.566131591796875
220235,0.816986083984375,4.075088500976562,-1.758438110351562
220236,1.056900024414062,5.494827270507812,-1.260040283203125
220237,1.806396484375,4.981552124023438,-1.046539306640625
220238,1.641128540039062,3.016082763671875,-1.497894287109375
220239,1.12103271484375,1.8751220703125,-1.481903076171875
220240,0.9239044189453124,2.004592895507812,-0.4828033447265625
220241,0.6353912353515625,2.482345581054688,1.097091674804688
220242,-0.0216064453125,3.028762817382812,1.499588012695312
220243,-0.47052001953125,3.056930541992188,2.51202392578125
220244,-0.343475341796875,1.494857788085938,0.3209991455078125
220245,-0.343475341796875,1.494857788085938,0.3209991455078125
220246,-0.114166259765625,0.9684600830078124,0.13641357421875
220247,0.000579833984375,0.557708740234375,0.1805877685546875
220248,0.0451202392578125,0.39697265625,0.3013763427734375
220249,0.041412353515625,0.3219451904296875,0.2866973876953125
220250,0.0256805419921875,0.1851654052734375,0.2932891845703125
220251,0.021942138671875,0.0130462646484375,0.381988525390625
220252,-0.005950927734375,-0.2315826416015625,0.43682861328125
220253,-0.005950927734375,-0.2315826416015625,0.43682861328125
220254,-0.029632568359375,-0.21563720703125,0.2416839599609375
220255,-0.0445556640625,-0.1083221435546875,0.040557861328125
220256,-0.0616455078125,0.0274505615234375,-0.1320037841796875
220257,-0.0616455078125,0.0274505615234375,-0.1320037841796875
220258,-0.0762786865234375,0.03338623046875,-0.1336822509765625
220259,-0.1014404296875,0.042633056640625,-0.1416778564453125
220260,-0.1045989990234375,0.037841796875,-0.1355133056640625
220261,-0.0972137451171875,0.01483154296875,-0.136810302734375
220262,-0.0844268798828125,-0.0290374755859375,-0.1463470458984375
220263,-0.0623626708984375,-0.0818939208984375,-0.1423492431640625
220264,-0.04522705078125,-0.119537353515625,-0.10284423828125
220265,-0.0302886962890625,-0.1296844482421875,-0.0201568603515625
220266,-0.0182342529296875,-0.1427459716796875,0.107666015625
220267,-0.012237548828125,-0.1779632568359375,0.313568115234375
220268,0.00311279296875,-0.1908721923828125,0.3459014892578125
220269,0.02423095703125,-0.1432952880859375,0.0691680908203125
220270,0.0349884033203125,-0.121490478515625,0.0314178466796875
220271,0.0349884033203125,-0.121490478515625,0.0314178466796875
220272,0.033355712890625,-0.0720062255859375,0.0076751708984375
220273,0.0024871826171875,0.037322998046875,-0.0178070068359375
220274,-0.0077972412109375,0.06842041015625,-0.068328857421875
220275,-0.00604248046875,0.0826263427734375,-0.136444091796875
220276,0.0103759765625,0.1849365234375,-0.256591796875
220277,0.3277130126953125,2.008392333984375,-0.81939697265625
220278,0.3277130126953125,2.008392333984375,-0.81939697265625
220279,0.637420654296875,2.77691650390625,-1.363662719726562
220280,1.00115966796875,3.650421142578125,-1.874130249023438
220281,1.262481689453125,4.981033325195312,-2.081375122070312
220282,1.431243896484375,6.232559204101562,-1.59954833984375
220283,1.431243896484375,6.232559204101562,-1.59954833984375
220284,1.365585327148438,5.202011108398438,-0.7124176025390625
220285,0.3874664306640625,2.136642456054688,0.5526885986328125
220286,0.302520751953125,1.546066284179688,0.563629150390625
220287,0.2458953857421875,1.55181884765625,0.986480712890625
220288,0.1512298583984375,1.818206787109375,1.092025756835938
220289,0.109649658203125,1.810379028320312,0.55133056640625
220290,0.14141845703125,1.67730712890625,0.2090606689453125
220291,0.1375274658203125,1.519989013671875,0.062103271484375
220292,0.100555419921875,1.366058349609375,0.1558380126953125
220293,-0.1022491455078125,1.235946655273438,0.478271484375
220294,-0.1022491455078125,1.235946655273438,0.478271484375
220295,-0.2410430908203125,1.074111938476562,0.7494354248046875
220296,-0.301727294921875,0.82696533203125,0.727020263671875
220297,-0.123992919921875,0.5413970947265625,0.2972869873046875
220298,-0.123992919921875,0.5413970947265625,0.2972869873046875
220299,-0.052154541015625,0.517974853515625,0.0610198974609375
220300,0.0142364501953125,0.463226318359375,-0.0283355712890625
220301,0.0572357177734375,0.3583831787109375,-0.0171661376953125
220302,0.0572357177734375,0.3583831787109375,-0.0171661376953125
220303,0.079986572265625,0.2337188720703125,0.0609588623046875
220304,0.1138458251953125,0.0037689208984375,0.27923583984375
220305,0.1156463623046875,-0.059661865234375,0.2706756591796875
220306,0.1153717041015625,-0.09881591796875,0.1995391845703125
220307,0.0945892333984375,-0.100830078125,0.1387481689453125
220308,0.0668182373046875,-0.105255126953125,0.0895843505859375
220309,0.047027587890625,-0.115081787109375,0.0431365966796875
220310,0.0139007568359375,-0.112152099609375,0.0308380126953125
220311,-0.0285186767578125,-0.1122283935546875,0.0462646484375
220312,-0.0698699951171875,-0.1151885986328125,0.058502197265625
220313,-0.16375732421875,-0.0821380615234375,0.09527587890625
220314,-0.16375732421875,-0.0821380615234375,0.09527587890625
220315,-0.2122039794921875,-0.0609893798828125,0.09466552734375
220316,-0.2626800537109375,-0.025634765625,0.065032958984375
220317,-0.3828887939453125,0.2606964111328125,-0.0501251220703125
220318,-0.3828887939453125,0.2606964111328125,-0.0501251220703125
220319,-0.4766693115234375,0.5591888427734375,-0.1334686279296875
220320,-0.549896240234375,0.8615875244140625,-0.3288726806640625
220321,-0.5228729248046875,1.0517578125,-0.53485107421875
220322,-0.4216766357421875,1.197433471679688,-0.8069000244140625
220323,-0.2954254150390625,1.464019775390625,-1.241378784179688
220324,-0.092254638671875,1.934707641601562,-1.706863403320312
220325,0.2535858154296875,2.46002197265625,-1.855804443359375
220326,0.628021240234375,2.989776611328125,-1.844512939453125
220327,0.8824310302734375,3.301589965820312,-1.7646484375
220328,0.900421142578125,3.00341796875,-1.455352783203125
220329,0.6558074951171875,2.295516967773438,-1.0341796875
220330,0.40985107421875,1.662765502929688,-0.6466217041015625
220331,0.2506561279296875,1.3033447265625,-0.55810546875
220332,0.14532470703125,1.223617553710938,-0.386505126953125
220333,0.170318603515625,1.345672607421875,0.891845703125
220334,0.0076141357421875,1.510528564453125,2.7054443359375
220335,-0.1541900634765625,1.470504760742188,1.447555541992188
220336,0.00970458984375,1.154067993164062,-0.1505279541015625
220337,0.040557861328125,1.120697021484375,-0.1749267578125
220338,0.040557861328125,1.120697021484375,-0.1749267578125
220339,0.1005401611328125,1.264434814453125,-0.1418914794921875
220340,0.0813140869140625,1.422103881835938,0.081878662109375
220341,0.0308074951171875,1.506942749023438,0.4739532470703125
220342,-0.0243988037109375,1.511886596679688,0.707244873046875
220343,-0.05023193359375,1.386734008789062,0.4810943603515625
220344,-0.04217529296875,1.225540161132812,0.17864990234375
220345,0.002899169921875,0.9410552978515624,0.213287353515625
220346,0.002899169921875,0.9410552978515624,0.213287353515625
220347,0.0348358154296875,0.832244873046875,0.3177947998046875
220348,0.042022705078125,0.73468017578125,0.329803466796875
220349,0.031951904296875,0.6367340087890625,0.29302978515625
220350,0.031951904296875,0.6367340087890625,0.29302978515625
220351,0.0088653564453125,0.53875732421875,0.2577972412109375
220352,-0.0521087646484375,0.3228302001953125,0.213287353515625
220353,-0.064117431640625,0.285400390625,0.2045440673828125
220354,-0.064117431640625,0.285400390625,0.2045440673828125
220355,-0.08538818359375,0.2654266357421875,0.192291259765625
220356,-0.0947265625,0.2537078857421875,0.1831207275390625
220357,-0.0971527099609375,0.2455596923828125,0.1667327880859375
220358,-0.084075927734375,0.233642578125,0.158905029296875
220359,-0.07342529296875,0.22991943359375,0.1658172607421875
220360,-0.0578765869140625,0.218109130859375,0.1905517578125
220361,-0.0283660888671875,0.200225830078125,0.1949005126953125
220362,0.0284881591796875,0.20135498046875,0.16796875
220363,0.1059722900390625,0.2460479736328125,0.13177490234375
220364,0.2007598876953125,0.2983856201171875,0.1027984619140625
220365,0.32818603515625,0.4314117431640625,0.0409088134765625
220366,0.32818603515625,0.4314117431640625,0.0409088134765625
220367,0.36956787109375,0.562255859375,0.0245513916015625
220368,0.266143798828125,1.514373779296875,-0.0898284912109375
220369,0.266143798828125,1.514373779296875,-0.0898284912109375
220370,0.266143798828125,1.514373779296875,-0.0898284912109375
220371,0.268798828125,2.003646850585938,-0.284423828125
220372,0.3113250732421875,2.533447265625,-0.61761474609375
220373,0.44378662109375,3.262588500976562,-1.156234741210938
220374,0.44378662109375,3.262588500976562,-1.156234741210938
220375,0.491973876953125,3.042633056640625,-0.9686431884765624
220376,0.264373779296875,1.564743041992188,-0.17510986328125
220377,0.264373779296875,1.564743041992188,-0.17510986328125
220378,0.1760406494140625,1.219268798828125,0.048065185546875
220379,0.137908935546875,1.011337280273438,0.1592864990234375
220380,0.1905517578125,0.9295501708984376,0.25634765625
220381,0.3009185791015625,0.9608612060546876,0.4610748291015625
220382,0.335418701171875,1.053817749023438,0.676025390625
220383,0.17718505859375,1.153839111328125,0.5603790283203125
220384,0.0756378173828125,1.20758056640625,0.3476409912109375
220385,0.056854248046875,1.229171752929688,0.3142242431640625
220386,0.056854248046875,1.229171752929688,0.3142242431640625
220387,0.08941650390625,1.172653198242188,0.3545074462890625
220388,0.16033935546875,1.080673217773438,0.254974365234375
220389,0.1653289794921875,1.019805908203125,0.2000274658203125
220390,0.15380859375,0.9414520263671876,0.130615234375
220391,0.1414642333984375,0.8431854248046875,0.094085693359375
220392,0.133087158203125,0.7454071044921875,0.0915985107421875
220393,0.12298583984375,0.6542816162109375,0.1082763671875
220394,0.11077880859375,0.5762481689453125,0.1485443115234375
220395,0.100250244140625,0.517486572265625,0.20465087890625
220396,0.0764617919921875,0.4927978515625,0.2484893798828125
220397,0.0499114990234375,0.494049072265625,0.2523040771484375
220398,0.0167236328125,0.5437164306640625,0.19073486328125
220399,-0.0032196044921875,0.60772705078125,0.0994720458984375
220400,-0.0057525634765625,0.6497344970703125,0.01458740234375
220401,-0.0158843994140625,0.6826934814453125,-0.0484161376953125
220402,-0.0158843994140625,0.6826934814453125,-0.0484161376953125
220403,-0.0256195068359375,0.7322998046875,-0.0758209228515625
220404,-0.0596771240234375,0.8191986083984375,-0.0472869873046875
220405,-0.109222412109375,0.8533477783203125,-0.0166778564453125
220406,-0.1658782958984375,0.843231201171875,0.0148162841796875
220407,-0.1942901611328125,0.7977142333984375,0.037841796875
220408,-0.1986083984375,0.7749786376953125,0.016632080078125
220409,-0.1867523193359375,0.77435302734375,-0.02789306640625
220410,-0.1867523193359375,0.77435302734375,-0.02789306640625
220411,-0.176422119140625,0.7794342041015625,-0.0479583740234375
220412,-0.178741455078125,0.7545318603515625,-0.04443359375
220413,-0.1919097900390625,0.74456787109375,-0.045166015625
220414,-0.2020416259765625,0.734771728515625,-0.0482025146484375
220415,-0.203033447265625,0.7266693115234375,-0.05316162109375
220416,-0.193450927734375,0.7229461669921875,-0.0748138427734375
220417,-0.1824188232421875,0.732574462890625,-0.13720703125
220418,-0.1730194091796875,0.7516021728515625,-0.2220306396484375
220419,-0.1618804931640625,0.7913970947265625,-0.3395843505859375
220420,-0.1416168212890625,0.8708038330078125,-0.4423065185546875
220421,-0.1133880615234375,0.9918212890625,-0.5051727294921875
220422,-0.0784454345703125,1.147232055664062,-0.54888916015625
220423,-0.041595458984375,1.292724609375,-0.623626708984375
220424,0.010345458984375,1.424850463867188,-0.7139129638671875
220425,0.0754241943359375,1.541168212890625,-0.764556884765625
220426,0.15753173828125,1.623641967773438,-0.7548828125
220427,0.238433837890625,1.658050537109375,-0.683013916015625
220428,0.2775421142578125,1.626510620117188,-0.578826904296875
220429,0.2737274169921875,1.496780395507812,-0.439605712890625
220430,0.227447509765625,1.388381958007812,-0.3307342529296875
220431,0.1940155029296875,1.346298217773438,-0.2497406005859375
220432,0.1625213623046875,1.350830078125,-0.2098541259765625
220433,-0.0096435546875,1.415145874023438,-0.08355712890625
220434,-0.0096435546875,1.415145874023438,-0.08355712890625
220435,-0.060089111328125,1.395751953125,0.3097686767578125
220436,-0.1201171875,1.366119384765625,0.3240509033203125
220437,-0.1643829345703125,1.270370483398438,0.0793914794921875
220438,-0.1540985107421875,1.177902221679688,-0.16986083984375
220439,-0.1190338134765625,1.131866455078125,-0.24407958984375
220440,-0.0474090576171875,1.106842041015625,-0.16900634765625
220441,-0.0110015869140625,1.0452880859375,-0.1399993896484375
220442,0.0027923583984375,0.973785400390625,-0.12542724609375
220443,0.00140380859375,0.9358367919921876,-0.09515380859375
220444,-0.017333984375,0.907562255859375,-0.078216552734375
220445,-0.0435638427734375,0.86785888671875,-0.0873565673828125
220446,-0.0435638427734375,0.86785888671875,-0.0873565673828125
220447,-0.03704833984375,0.85516357421875,-0.0860443115234375
220448,-0.0263519287109375,0.839141845703125,-0.0705413818359375
220449,-0.014007568359375,0.816192626953125,-0.043731689453125
220450,0.000274658203125,0.7869415283203125,-0.0116424560546875
220451,0.0133209228515625,0.754913330078125,0.018341064453125
220452,0.022247314453125,0.7307281494140625,0.04833984375
220453,0.0280303955078125,0.7259979248046875,0.078277587890625
220454,0.0280303955078125,0.7259979248046875,0.078277587890625
220455,0.0165252685546875,0.7409820556640625,0.066741943359375
220456,-0.02239990234375,0.757171630859375,0.035552978515625
220457,-0.0630645751953125,0.784942626953125,-0.0106353759765625
220458,-0.07318115234375,0.8253936767578125,-0.0564422607421875
220459,-0.0683441162109375,0.867401123046875,-0.101287841796875
220460,-0.05450439453125,0.90869140625,-0.14300537109375
220461,-0.03143310546875,0.9428558349609376,-0.17584228515625
220462,0.0028533935546875,0.9677276611328124,-0.1995849609375
220463,0.041656494140625,0.98828125,-0.1960601806640625
220464,0.07122802734375,0.9973602294921876,-0.1754608154296875
220465,0.0867919921875,1.003616333007812,-0.1600494384765625
220466,0.0949249267578125,1.009994506835938,-0.148468017578125
220467,0.093505859375,1.0189208984375,-0.1411590576171875
220468,0.0816650390625,1.034332275390625,-0.135345458984375
220469,0.0597991943359375,1.048995971679688,-0.1317901611328125
220470,0.0597991943359375,1.048995971679688,-0.1317901611328125
220471,0.0417633056640625,1.065185546875,-0.118621826171875
220472,0.0390625,1.078475952148438,-0.0710601806640625
220473,0.0483245849609375,1.066085815429688,-0.065155029296875
220474,0.0542449951171875,1.04351806640625,-0.0553436279296875
220475,0.0562896728515625,1.012557983398438,-0.0450592041015625
220476,0.0591278076171875,0.98486328125,-0.0541534423828125
220477,0.0649871826171875,0.9691162109375,-0.06903076171875
220478,0.0649871826171875,0.9691162109375,-0.06903076171875
220479,0.0693359375,0.9633636474609376,-0.0713043212890625
220480,0.0519866943359375,1.007949829101562,-0.0361785888671875
220481,0.0519866943359375,1.007949829101562,-0.0361785888671875
220482,0.0473785400390625,1.023910522460938,-0.03143310546875
220483,0.0520172119140625,1.031326293945312,-0.0321044921875
220484,0.0594635009765625,1.031585693359375,-0.0291290283203125
220485,0.0715179443359375,1.023483276367188,-0.0125274658203125
220486,0.082733154296875,1.008651733398438,0.006378173828125
220487,0.09454345703125,0.985504150390625,0.0220489501953125
220488,0.106292724609375,0.967071533203125,0.031646728515625
220489,0.1157073974609375,0.9499053955078124,0.041168212890625
220490,0.1253509521484375,0.942169189453125,0.0486907958984375
220491,0.1342010498046875,0.9388580322265624,0.05670166015625
220492,0.1387939453125,0.94512939453125,0.0666961669921875
220493,0.137603759765625,0.9585418701171876,0.0769195556640625
220494,0.137603759765625,0.9585418701171876,0.0769195556640625
220495,0.12872314453125,0.9827423095703124,0.0881195068359375
220496,0.085845947265625,1.062393188476562,0.137420654296875
220497,0.05804443359375,1.125167846679688,0.187835693359375
220498,0.02679443359375,1.196029663085938,0.25701904296875
220499,0.02679443359375,1.196029663085938,0.25701904296875
220500,-0.0230865478515625,1.264892578125,0.2287445068359375
220501,-0.0230560302734375,1.238479614257812,0.13531494140625
220502,0.0007171630859375,1.15875244140625,0.0971832275390625
220503,0.0007171630859375,1.15875244140625,0.0971832275390625
220504,0.0759124755859375,0.9281005859375,0.2602691650390625
220505,0.0759124755859375,0.9281005859375,0.2602691650390625
220506,0.0891571044921875,0.8956146240234375,0.2738189697265625
220507,0.0891571044921875,0.8956146240234375,0.2738189697265625
220508,0.07318115234375,0.881103515625,0.248291015625
220509,0.06219482421875,0.88995361328125,0.2364349365234375
220510,0.0565032958984375,0.8939971923828125,0.2479705810546875
220511,0.0565032958984375,0.8939971923828125,0.2479705810546875
220512,0.047576904296875,0.893218994140625,0.28131103515625
220513,0.0500640869140625,0.885498046875,0.2783660888671875
220514,0.0510711669921875,0.88909912109375,0.24810791015625
220515,0.05267333984375,0.8970489501953125,0.2137298583984375
220516,0.057708740234375,0.9065704345703124,0.17852783203125
220517,0.058197021484375,0.9272918701171876,0.144683837890625
220518,0.054901123046875,0.93975830078125,0.095947265625
220519,0.0557708740234375,0.9316558837890624,0.02935791015625
220520,0.0608367919921875,0.9227142333984376,-0.0082550048828125
220521,0.059234619140625,0.91943359375,-0.0243682861328125
220522,0.0554351806640625,0.9110107421875,-0.0425872802734375
220523,0.0570068359375,0.8983001708984375,-0.05535888671875
220524,0.088226318359375,0.8924713134765625,-0.090423583984375
220525,0.088226318359375,0.8924713134765625,-0.090423583984375
220526,0.116058349609375,0.8987884521484375,-0.1036376953125
220527,0.1381988525390625,0.8913421630859375,-0.1096343994140625
220528,0.151641845703125,0.8775177001953125,-0.0968475341796875
220529,0.15203857421875,0.8198089599609375,-0.0338897705078125
220530,0.15203857421875,0.8198089599609375,-0.0338897705078125
220531,0.14495849609375,0.788238525390625,-0.00518798828125
220532,0.13580322265625,0.7562408447265625,0.014923095703125
220533,0.129058837890625,0.7398529052734375,0.0262298583984375
220534,0.1166229248046875,0.73529052734375,0.0204925537109375
220535,0.101409912109375,0.7391357421875,0.0008087158203125
220536,0.10491943359375,0.790252685546875,-0.08441162109375
220537,0.10491943359375,0.790252685546875,-0.08441162109375
220538,0.1294403076171875,0.8585968017578125,-0.15838623046875
220539,0.1551971435546875,0.9640655517578124,-0.2405548095703125
220540,0.1446533203125,1.1099853515625,-0.308837890625
220541,0.1446533203125,1.1099853515625,-0.308837890625
220542,0.1135101318359375,1.141067504882812,-0.2844696044921875
220543,0.0920867919921875,1.195877075195312,-0.21490478515625
220544,0.0759124755859375,1.261917114257812,-0.10589599609375
220545,0.0433349609375,1.37542724609375,0.080780029296875
220546,0.0433349609375,1.37542724609375,0.080780029296875
220547,0.0265045166015625,1.416244506835938,0.1268768310546875
220548,0.0058746337890625,1.425079345703125,0.1343536376953125
220549,-0.0036468505859375,1.4102783203125,0.0907745361328125
220550,-0.0036468505859375,1.4102783203125,0.0907745361328125
220551,-0.005340576171875,1.371841430664062,0.0482635498046875
220552,0.0721282958984375,1.171737670898438,0.050506591796875
220553,0.0721282958984375,1.171737670898438,0.050506591796875
220554,0.098052978515625,1.1497802734375,0.0479888916015625
220555,0.1148223876953125,1.142501831054688,0.030609130859375
220556,0.125762939453125,1.133010864257812,0.02252197265625
220557,0.1238861083984375,1.118667602539062,0.02252197265625
220558,0.1115264892578125,1.084152221679688,0.0356292724609375
220559,0.1115264892578125,1.084152221679688,0.0356292724609375
220560,0.0897674560546875,0.991058349609375,0.0289306640625
220561,0.0884857177734375,0.9605712890625,0.012420654296875
220562,0.0930633544921875,0.946014404296875,0.0030517578125
220563,0.0970458984375,0.93756103515625,0.006744384765625
220564,0.090789794921875,0.928070068359375,0.0105743408203125
220565,0.0744781494140625,0.912689208984375,0.00811767578125
220566,0.05523681640625,0.890625,-0.005859375
220567,0.0334625244140625,0.86492919921875,-0.0261383056640625
220568,0.01116943359375,0.842559814453125,-0.051055908203125
220569,-0.031829833984375,0.83563232421875,-0.094696044921875
220570,-0.031829833984375,0.83563232421875,-0.094696044921875
220571,-0.0505523681640625,0.8431854248046875,-0.1049652099609375
220572,-0.0596923828125,0.8492584228515625,-0.1186981201171875
220573,-0.05743408203125,0.8567352294921875,-0.12371826171875
220574,-0.06109619140625,0.8754730224609375,-0.1205902099609375
220575,-0.0756072998046875,0.9165802001953124,-0.111083984375
220576,-0.0860748291015625,0.9583740234375,-0.1041107177734375
220577,-0.0868682861328125,1.002273559570312,-0.1085205078125
220578,-0.073211669921875,1.044235229492188,-0.134124755859375
220579,-0.0411376953125,1.07708740234375,-0.18280029296875
220580,0.047210693359375,1.108261108398438,-0.2532196044921875
220581,0.047210693359375,1.108261108398438,-0.2532196044921875
220582,0.0893096923828125,1.098739624023438,-0.2061767578125
220583,0.1155853271484375,1.075347900390625,-0.1305389404296875
220584,0.123443603515625,1.029022216796875,-0.048736572265625
220585,0.1283111572265625,0.9630279541015624,0.0503692626953125
220586,0.1287994384765625,0.917327880859375,0.1142425537109375
220587,0.132904052734375,0.90338134765625,0.1263580322265625
220588,0.1303253173828125,0.9127349853515624,0.11859130859375
220589,0.1063385009765625,0.932647705078125,0.1085357666015625
220590,0.056915283203125,0.9573974609375,0.097137451171875
220591,0.0184783935546875,0.977569580078125,0.0804443359375
220592,0.0036773681640625,0.9874114990234376,0.059112548828125
220593,-0.0046234130859375,0.9937591552734376,0.039031982421875
220594,-0.011566162109375,0.994903564453125,0.0301055908203125
220595,-0.0111541748046875,0.9890594482421876,0.0393829345703125
220596,-0.0001068115234375,0.96405029296875,0.0478363037109375
220597,0.0079803466796875,0.933135986328125,0.035919189453125
220598,0.009490966796875,0.9134521484375,0.033843994140625
220599,0.011962890625,0.905609130859375,0.0419158935546875
220600,0.0095672607421875,0.901947021484375,0.0591583251953125
220601,0.0095672607421875,0.901947021484375,0.0591583251953125
220602,0.0035247802734375,0.908538818359375,0.059112548828125
220603,-0.002197265625,0.9328460693359376,0.0561370849609375
220604,-0.0024566650390625,0.958648681640625,0.0510101318359375
220605,0.0008544921875,0.993408203125,0.0547332763671875
220606,0.013214111328125,1.022964477539062,0.047210693359375
220607,0.03277587890625,1.0535888671875,0.0292205810546875
220608,0.0505218505859375,1.0765380859375,0.013702392578125
220609,0.0638275146484375,1.096771240234375,-0.002685546875
220610,0.0638275146484375,1.096771240234375,-0.002685546875
220611,0.0674896240234375,1.106063842773438,-0.022705078125
220612,0.0523529052734375,1.082305908203125,-0.032867431640625
220613,0.0439605712890625,1.052047729492188,-0.028564453125
220614,0.040069580078125,1.032913208007812,-0.02679443359375
220615,0.0362701416015625,1.021759033203125,-0.017303466796875
220616,0.0290985107421875,1.017349243164062,-0.0064697265625
220617,0.0203094482421875,1.013931274414062,-0.00396728515625
220618,0.013397216796875,1.013565063476562,0.000640869140625
220619,0.0110015869140625,1.013595581054688,0.0079193115234375
220620,0.0195770263671875,1.01953125,0.00396728515625
220621,0.0195770263671875,1.01953125,0.00396728515625
220622,0.029541015625,1.02423095703125,0.005279541015625
220623,0.0418243408203125,1.023391723632812,0.004150390625
220624,0.0489959716796875,1.019821166992188,-0.001556396484375
220625,0.052093505859375,1.014404296875,-0.0110321044921875
220626,0.0519256591796875,1.004714965820312,-0.0136566162109375
220627,0.0527191162109375,0.989654541015625,-0.0149993896484375
220628,0.0553741455078125,0.9743499755859376,-0.0246124267578125
220629,0.053955078125,0.963897705078125,-0.029388427734375
220630,0.0465240478515625,0.96356201171875,-0.0227203369140625
220631,0.03948974609375,0.96685791015625,-0.01336669921875
220632,0.0357818603515625,0.967071533203125,-0.0053863525390625
220633,0.0371551513671875,0.9595794677734376,-0.00140380859375
220634,0.0408935546875,0.946014404296875,-0.00408935546875
220635,0.0481109619140625,0.9322357177734376,-0.0070343017578125
220636,0.0583343505859375,0.9278717041015624,0.0035247802734375
220637,0.073455810546875,0.93133544921875,0.0159454345703125
220638,0.0872650146484375,0.94189453125,0.007476806640625
220639,0.095855712890625,0.9556121826171876,0.0007171630859375
220640,0.10491943359375,0.96905517578125,0.0009307861328125
220641,0.122711181640625,0.961669921875,-0.0242919921875
220642,0.122711181640625,0.961669921875,-0.0242919921875
220643,0.1297607421875,0.9529876708984376,-0.01873779296875
220644,0.1467132568359375,0.9329833984375,0.0167388916015625
220645,0.1467132568359375,0.9329833984375,0.0167388916015625
220646,0.15765380859375,0.9294891357421876,0.021240234375
220647,0.166290283203125,0.9344482421875,0.0127716064453125
220648,0.1708984375,0.943603515625,0.0041046142578125
220649,0.168304443359375,0.956512451171875,-0.0036773681640625
220650,0.154144287109375,0.9754180908203124,-0.00213623046875
220651,0.1325531005859375,0.9992218017578124,0.008758544921875
220652,0.111663818359375,1.03076171875,0.023223876953125
220653,0.08984375,1.064239501953125,0.042755126953125
220654,0.0746612548828125,1.094741821289062,0.0592193603515625
220655,0.07244873046875,1.122100830078125,0.064453125
220656,0.0810089111328125,1.142593383789062,0.0629119873046875
220657,0.1019287109375,1.14862060546875,0.0607452392578125
220658,0.1196746826171875,1.137054443359375,0.0574188232421875
220659,0.1207122802734375,1.103012084960938,0.058135986328125
220660,0.0822601318359375,1.033233642578125,0.078582763671875
220661,0.0822601318359375,1.033233642578125,0.078582763671875
220662,0.0822601318359375,1.033233642578125,0.078582763671875
220663,0.0678253173828125,1.015411376953125,0.0851287841796875
220664,0.04498291015625,1.006134033203125,0.078643798828125
220665,0.035552978515625,1.010009765625,0.0653076171875
220666,0.035552978515625,1.010009765625,0.0653076171875
220667,0.02593994140625,1.022567749023438,0.0225677490234375
220668,0.031951904296875,1.023056030273438,0.0031280517578125
220669,0.0433197021484375,1.020751953125,-0.0167388916015625
220670,0.0433197021484375,1.020751953125,-0.0167388916015625
220671,0.0583953857421875,1.013259887695312,-0.035980224609375
220672,0.0830535888671875,0.9502410888671876,-0.04345703125
220673,0.0830535888671875,0.9502410888671876,-0.04345703125
220674,0.081329345703125,0.935516357421875,-0.053314208984375
220675,0.076263427734375,0.9181671142578124,-0.054901123046875
220676,0.06988525390625,0.9030914306640624,-0.0438690185546875
220677,0.0639495849609375,0.90301513671875,-0.0276641845703125
220678,0.0689544677734375,0.9162750244140624,-0.00799560546875
220679,0.081085205078125,0.932861328125,-0.0022735595703125
220680,0.092376708984375,0.949493408203125,-0.0037689208984375
220681,0.095184326171875,0.9624176025390624,0.0094146728515625
220682,0.099639892578125,0.9758148193359376,0.0271453857421875
220683,0.10791015625,0.98626708984375,0.033172607421875
220684,0.1145477294921875,0.992095947265625,0.0295562744140625
220685,0.1164398193359375,0.99176025390625,0.02874755859375
220686,0.1140899658203125,0.9906463623046876,0.03289794921875
220687,0.108306884765625,0.99139404296875,0.0403900146484375
220688,0.1029052734375,0.991119384765625,0.0458526611328125
220689,0.10089111328125,0.9945220947265624,0.043701171875
220690,0.1012420654296875,0.9945220947265624,0.0349273681640625
220691,0.100830078125,0.9930267333984376,0.0294952392578125
220692,0.1079864501953125,0.9894866943359376,0.0204620361328125
220693,0.1079864501953125,0.9894866943359376,0.0204620361328125
220694,0.119293212890625,0.9910736083984376,0.023284912109375
220695,0.1299591064453125,0.9971923828125,0.0372314453125
220696,0.1308746337890625,1.004898071289062,0.0488128662109375
220697,0.1308746337890625,1.004898071289062,0.0488128662109375
220698,0.1219482421875,1.00787353515625,0.0493011474609375
220699,0.1128082275390625,1.010147094726562,0.0421295166015625
220700,0.1045989990234375,1.013397216796875,0.0356597900390625
220701,0.1006317138671875,1.017166137695312,0.0287322998046875
220702,0.100738525390625,1.018814086914062,0.020538330078125
220703,0.100738525390625,1.018814086914062,0.020538330078125
220704,0.1207275390625,1.018707275390625,0.012451171875
220705,0.1207275390625,1.018707275390625,0.012451171875
220706,0.1242828369140625,1.008560180664062,0.010711669921875
220707,0.1242828369140625,1.008560180664062,0.010711669921875
220708,0.116790771484375,0.9815216064453124,0.0167999267578125
220709,0.1039276123046875,0.9644927978515624,0.0232391357421875
220710,0.082916259765625,0.946258544921875,0.02996826171875
220711,0.059722900390625,0.928314208984375,0.0389404296875
220712,0.0282440185546875,0.9075469970703124,0.049560546875
220713,0.0282440185546875,0.9075469970703124,0.049560546875
220714,0.0193023681640625,0.9095306396484376,0.0512847900390625
220715,0.01416015625,0.919921875,0.0503387451171875
220716,0.01361083984375,0.9297027587890624,0.0464935302734375
220717,0.019287109375,0.93035888671875,0.0410614013671875
220718,0.0248565673828125,0.9304962158203124,0.03509521484375
220719,0.023651123046875,0.929046630859375,0.0349578857421875
220720,0.0214080810546875,0.92352294921875,0.0441131591796875
220721,0.0202789306640625,0.920196533203125,0.0416107177734375
220722,0.0160369873046875,0.9154815673828124,0.0242767333984375
220723,0.015045166015625,0.90185546875,0.01458740234375
220724,0.0120391845703125,0.8798370361328125,0.0169830322265625
220725,0.0035247802734375,0.85040283203125,0.03399658203125
220726,-0.007659912109375,0.8203277587890625,0.0677490234375
220727,-0.0271759033203125,0.799407958984375,0.1025390625
220728,-0.048370361328125,0.79034423828125,0.121002197265625
220729,-0.0650177001953125,0.7935028076171875,0.11749267578125
220730,-0.07318115234375,0.8089447021484375,0.098419189453125
220731,-0.071868896484375,0.831298828125,0.0685272216796875
220732,-0.0626373291015625,0.8588104248046875,0.041168212890625
220733,-0.040740966796875,0.9070892333984376,0.0160980224609375
220734,-0.0058746337890625,0.96942138671875,-0.00341796875
220735,0.02880859375,1.050399780273438,-0.0203094482421875
220736,0.0529632568359375,1.132064819335938,-0.036834716796875
220737,0.0669708251953125,1.202713012695312,-0.053558349609375
220738,0.076385498046875,1.254531860351562,-0.0786285400390625
220739,0.0876312255859375,1.29058837890625,-0.1149749755859375
220740,0.1002655029296875,1.31591796875,-0.158935546875
220741,0.116058349609375,1.327011108398438,-0.19818115234375
220742,0.137725830078125,1.318191528320312,-0.2101593017578125
220743,0.1741485595703125,1.292648315429688,-0.1899871826171875
220744,0.2169342041015625,1.257125854492188,-0.15325927734375
220745,0.2557830810546875,1.223983764648438,-0.104644775390625
220746,0.281005859375,1.195892333984375,-0.04632568359375
220747,0.2807464599609375,1.173980712890625,0.0052032470703125
220748,0.2621307373046875,1.1622314453125,0.042205810546875
220749,0.231689453125,1.14892578125,0.0648193359375
220750,0.1802825927734375,1.134170532226562,0.0743255615234375
220751,0.1802825927734375,1.134170532226562,0.0743255615234375
220752,0.0443878173828125,1.08721923828125,0.081695556640625
220753,0.0443878173828125,1.08721923828125,0.081695556640625
220754,0.0239105224609375,1.060409545898438,0.0876922607421875
220755,0.0181121826171875,1.029159545898438,0.0927276611328125
220756,0.0229034423828125,0.99755859375,0.099395751953125
220757,0.0355987548828125,0.978302001953125,0.114898681640625
220758,0.0529022216796875,0.969879150390625,0.13031005859375
220759,0.0769500732421875,0.962158203125,0.13409423828125
220760,0.1195220947265625,0.9781341552734376,0.134735107421875
220761,0.1195220947265625,0.9781341552734376,0.134735107421875
220762,0.1352386474609375,0.9896087646484376,0.1234893798828125
220763,0.14385986328125,0.9933013916015624,0.087615966796875
220764,0.1474761962890625,0.9813232421875,0.06072998046875
220765,0.1508636474609375,0.9618377685546876,0.0614013671875
220766,0.1508636474609375,0.9618377685546876,0.0614013671875
220767,0.1559600830078125,0.9248046875,0.072998046875
220768,0.1518707275390625,0.9063720703125,0.073150634765625
220769,0.14306640625,0.89935302734375,0.0664215087890625
220770,0.1392974853515625,0.895233154296875,0.0502471923828125
220771,0.13079833984375,0.8989105224609375,0.0367889404296875
220772,0.1234893798828125,0.917816162109375,0.021209716796875
220773,0.1234893798828125,0.917816162109375,0.021209716796875
220774,0.1067962646484375,0.9246368408203124,0.0186004638671875
220775,0.0920867919921875,0.919830322265625,0.011077880859375
220776,0.0801544189453125,0.9008331298828124,0.0001373291015625
220777,0.0758514404296875,0.877197265625,-0.008697509765625
220778,0.0765533447265625,0.8608551025390625,-0.0120849609375
220779,0.0803375244140625,0.84735107421875,-0.008941650390625
220780,0.0865478515625,0.843475341796875,-0.0072174072265625
220781,0.0961151123046875,0.8503875732421875,-0.0026702880859375
220782,0.1082000732421875,0.8675994873046875,-0.0025177001953125
220783,0.11968994140625,0.893829345703125,-0.0051727294921875
220784,0.127655029296875,0.9209747314453124,-0.0078887939453125
220785,0.128662109375,0.937255859375,-0.017578125
220786,0.12158203125,0.9390411376953124,-0.0337066650390625
220787,0.1082000732421875,0.9325714111328124,-0.04730224609375
220788,0.08746337890625,0.9368896484375,-0.0495758056640625
220789,0.08746337890625,0.9368896484375,-0.0495758056640625
220790,0.092498779296875,0.9413604736328124,-0.0313262939453125
220791,0.10906982421875,0.9496612548828124,-0.012176513671875
220792,0.1427764892578125,0.985382080078125,0.0213775634765625
220793,0.1427764892578125,0.985382080078125,0.0213775634765625
220794,0.1533966064453125,1.009231567382812,0.05572509765625
220795,0.158172607421875,1.035324096679688,0.079345703125
220796,0.1588897705078125,1.063522338867188,0.0931396484375
220797,0.1553192138671875,1.086074829101562,0.103302001953125
220798,0.1458740234375,1.107192993164062,0.10089111328125
220799,0.1291351318359375,1.129898071289062,0.1017913818359375
220800,0.1095428466796875,1.150466918945312,0.104705810546875
220801,0.0936431884765625,1.15692138671875,0.1083526611328125
220802,0.081451416015625,1.144500732421875,0.10858154296875
220803,0.07470703125,1.104629516601562,0.1061248779296875
220804,0.062835693359375,0.9904632568359376,0.113067626953125
220805,0.062835693359375,0.9904632568359376,0.113067626953125
220806,0.0604705810546875,0.9575042724609376,0.1366424560546875
220807,0.05767822265625,0.94537353515625,0.1488037109375
220808,0.0683135986328125,0.957611083984375,0.1433258056640625
220809,0.0683135986328125,0.957611083984375,0.1433258056640625
220810,0.071380615234375,0.9707183837890624,0.130096435546875
220811,0.070068359375,0.9870452880859376,0.11676025390625
220812,0.0673980712890625,1.00238037109375,0.0950927734375
220813,0.0663909912109375,1.012893676757812,0.0666046142578125
220814,0.0663909912109375,1.012893676757812,0.0666046142578125
220815,0.0693817138671875,1.015426635742188,0.0460205078125
220816,0.09698486328125,1.004425048828125,0.03143310546875
220817,0.118011474609375,0.9929351806640624,0.04290771484375
220818,0.1380157470703125,0.977874755859375,0.063262939453125
220819,0.154571533203125,0.9602203369140624,0.0865020751953125
220820,0.1575469970703125,0.926300048828125,0.1029510498046875
220821,0.1575469970703125,0.926300048828125,0.1029510498046875
220822,0.1427764892578125,0.9174652099609376,0.0993499755859375
220823,0.124114990234375,0.9154205322265624,0.08856201171875
220824,0.1127471923828125,0.9181365966796876,0.066070556640625
220825,0.1024322509765625,0.9250946044921876,0.0385284423828125
220826,0.094696044921875,0.9351348876953124,0.0180206298828125
220827,0.0940399169921875,0.9483795166015624,0.001312255859375
220828,0.1005401611328125,0.9718475341796876,-0.007781982421875
220829,0.1136474609375,0.99969482421875,-0.016754150390625
220830,0.13397216796875,1.0133056640625,-0.0269775390625
220831,0.15692138671875,1.013458251953125,-0.0364837646484375
220832,0.204864501953125,1.013519287109375,-0.0387725830078125
220833,0.204864501953125,1.013519287109375,-0.0387725830078125
220834,0.22412109375,1.006851196289062,-0.0395355224609375
220835,0.2281036376953125,0.9911346435546876,-0.048126220703125
220836,0.2146453857421875,0.9662017822265624,-0.048248291015625
220837,0.194427490234375,0.9458770751953124,-0.0416259765625
220838,0.17901611328125,0.930084228515625,-0.0276336669921875
220839,0.1766510009765625,0.9228668212890624,-0.005523681640625
220840,0.1916961669921875,0.9560089111328124,0.0435333251953125
220841,0.1916961669921875,0.9560089111328124,0.0435333251953125
220842,0.200531005859375,0.9649658203125,0.0398101806640625
220843,0.2027435302734375,0.9552001953125,0.0313873291015625
220844,0.1899566650390625,0.951934814453125,0.0417938232421875
220845,0.1899566650390625,0.951934814453125,0.0417938232421875
220846,0.19085693359375,0.9619903564453124,0.04058837890625
220847,0.1949005126953125,0.977294921875,0.0200042724609375
220848,0.195953369140625,0.998626708984375,0.01348876953125
220849,0.19415283203125,1.021865844726562,0.004058837890625
220850,0.19415283203125,1.021865844726562,0.004058837890625
220851,0.1837921142578125,1.033462524414062,-0.010406494140625
220852,0.117523193359375,0.9932861328125,-0.01849365234375
220853,0.117523193359375,0.9932861328125,-0.01849365234375
220854,0.117523193359375,0.9932861328125,-0.01849365234375
220855,0.114654541015625,0.984283447265625,-0.0077056884765625
220856,0.1319580078125,0.9731903076171876,-0.0100555419921875
220857,0.143096923828125,0.9735565185546876,-0.0174713134765625
220858,0.1466827392578125,0.968475341796875,-0.0238800048828125
220859,0.14215087890625,0.9622955322265624,-0.031463623046875
220860,0.1108551025390625,0.94580078125,-0.04302978515625
220861,0.1108551025390625,0.94580078125,-0.04302978515625
220862,0.09918212890625,0.9330902099609376,-0.0457611083984375
220863,0.0937347412109375,0.9119720458984376,-0.047119140625
220864,0.091949462890625,0.89141845703125,-0.0400543212890625
220865,0.093231201171875,0.874725341796875,-0.0277099609375
220866,0.0960540771484375,0.8659515380859375,-0.0138397216796875
220867,0.104339599609375,0.861541748046875,-0.0042266845703125
220868,0.1647796630859375,0.933349609375,-0.040557861328125
220869,0.1647796630859375,0.933349609375,-0.040557861328125
220870,0.1647796630859375,0.933349609375,-0.040557861328125
220871,0.183746337890625,0.982147216796875,-0.0728759765625
220872,0.1994171142578125,1.033096313476562,-0.1022491455078125
220873,0.2096099853515625,1.060745239257812,-0.1286468505859375
220874,0.2159271240234375,1.0771484375,-0.1450958251953125
220875,0.223876953125,1.09326171875,-0.15673828125
220876,0.2562103271484375,1.123489379882812,-0.164306640625
220877,0.2562103271484375,1.123489379882812,-0.164306640625
220878,0.2682952880859375,1.131591796875,-0.1518096923828125
220879,0.271331787109375,1.133575439453125,-0.119598388671875
220880,0.2759552001953125,1.119903564453125,-0.0692596435546875
220881,0.2754364013671875,1.113693237304688,-0.0576324462890625
220882,0.2754364013671875,1.113693237304688,-0.0576324462890625
220883,0.269195556640625,1.114273071289062,-0.0464935302734375
220884,0.259368896484375,1.119171142578125,-0.034210205078125
220885,0.2419586181640625,1.134246826171875,-0.0160369873046875
220886,0.2118072509765625,1.145111083984375,0.01165771484375
220887,0.180419921875,1.149917602539062,0.0425567626953125
220888,0.1618194580078125,1.14349365234375,0.03289794921875
220889,0.1541748046875,1.132888793945312,0.006378173828125
220890,0.1549224853515625,1.117843627929688,0.0035247802734375
220891,0.163818359375,1.093917846679688,0.0069580078125
220892,0.176025390625,1.058547973632812,0.0130462646484375
220893,0.1876983642578125,1.017440795898438,0.016357421875
220894,0.201568603515625,0.976287841796875,0.01513671875
220895,0.21343994140625,0.9381866455078124,0.0150146484375
220896,0.2205810546875,0.9066619873046876,0.0174102783203125
220897,0.2213287353515625,0.88714599609375,0.0168914794921875
220898,0.211212158203125,0.888031005859375,0.0154876708984375
220899,0.19720458984375,0.9035491943359376,0.010498046875
220900,0.1581268310546875,0.9665679931640624,-0.0268707275390625
220901,0.1581268310546875,0.9665679931640624,-0.0268707275390625
220902,0.128082275390625,0.98236083984375,-0.04058837890625
220903,0.128082275390625,0.98236083984375,-0.04058837890625
220904,0.0061798095703125,0.985198974609375,-0.007904052734375
220905,0.0061798095703125,0.985198974609375,-0.007904052734375
220906,-0.0353240966796875,0.9603118896484376,-0.004913330078125
220907,-0.053314208984375,0.9339447021484376,-0.019073486328125
220908,-0.013336181640625,0.9420623779296876,-0.0500335693359375
220909,0.0914154052734375,1.015960693359375,-0.1192474365234375
220910,0.211822509765625,1.119842529296875,-0.1889801025390625
220911,0.3038787841796875,1.183441162109375,-0.2755279541015625
220912,0.3082122802734375,1.175537109375,-0.2413330078125
220913,0.3082122802734375,1.175537109375,-0.2413330078125
220914,0.1562957763671875,1.077194213867188,-0.0078887939453125
220915,0.05517578125,0.93731689453125,0.0820159912109375
220916,0.0427398681640625,0.767303466796875,-0.0126800537109375
220917,0.0427398681640625,0.767303466796875,-0.0126800537109375
220918,0.029388427734375,0.7137603759765625,-0.0257720947265625
220919,0.02398681640625,0.67559814453125,-0.002777099609375
220920,-0.0228118896484375,0.6412811279296875,0.0491180419921875
220921,-0.0228118896484375,0.6412811279296875,0.0491180419921875
220922,-0.0657958984375,0.644744873046875,0.059600830078125
220923,-0.1022796630859375,0.66082763671875,0.0634307861328125
220924,-0.1141204833984375,0.7302398681640625,0.030975341796875
220925,-0.1141204833984375,0.7302398681640625,0.030975341796875
220926,-0.0739898681640625,0.7847137451171875,-0.001495361328125
220927,-0.0128326416015625,0.8425445556640625,-0.0323638916015625
220928,0.063201904296875,0.8750152587890625,-0.019866943359375
220929,0.063201904296875,0.8750152587890625,-0.019866943359375
220930,0.0627899169921875,0.841644287109375,-0.0068359375
220931,0.0524139404296875,0.797119140625,0.0060577392578125
220932,0.0262298583984375,0.713592529296875,0.0526275634765625
220933,0.0262298583984375,0.713592529296875,0.0526275634765625
220934,-0.00360107421875,0.6917572021484375,0.07757568359375
220935,-0.0257568359375,0.7117462158203125,0.0840301513671875
220936,-0.02752685546875,0.7559967041015625,0.0521087646484375
220937,-0.0093231201171875,0.8409576416015625,0.0075225830078125
220938,-0.0093231201171875,0.8409576416015625,0.0075225830078125
220939,0.003448486328125,1.000442504882812,-0.0233154296875
220940,0.03485107421875,1.393569946289062,-0.2223052978515625
220941,0.0406494140625,1.508834838867188,-0.3103790283203125
220942,0.0406494140625,1.508834838867188,-0.3103790283203125
220943,0.036651611328125,1.618255615234375,-0.363494873046875
220944,0.0352020263671875,1.751663208007812,-0.284759521484375
220945,0.0352020263671875,1.751663208007812,-0.284759521484375
220946,0.044830322265625,1.711502075195312,-0.210540771484375
220947,0.062286376953125,1.537200927734375,-0.160430908203125
220948,0.0758819580078125,1.336807250976562,-0.1570892333984375
220949,0.09234619140625,1.204238891601562,-0.165802001953125
220950,0.1014251708984375,1.087432861328125,-0.1681365966796875
220951,0.102142333984375,1.002243041992188,-0.1439971923828125
220952,0.0785980224609375,0.950286865234375,-0.0008392333984375
220953,0.0785980224609375,0.950286865234375,-0.0008392333984375
220954,0.063568115234375,0.97650146484375,0.0680694580078125
220955,0.0514984130859375,1.013153076171875,0.0970458984375
220956,0.0430755615234375,1.0806884765625,0.0173492431640625
220957,0.0430755615234375,1.0806884765625,0.0173492431640625
220958,0.05426025390625,1.103240966796875,-0.047882080078125
220959,0.074005126953125,1.109054565429688,-0.105743408203125
220960,0.119140625,1.090606689453125,-0.1868743896484375
220961,0.119140625,1.090606689453125,-0.1868743896484375
220962,0.1358184814453125,1.059600830078125,-0.1871185302734375
220963,0.147857666015625,1.017562866210938,-0.1607818603515625
220964,0.1813201904296875,0.9180450439453124,-0.097076416015625
220965,0.1813201904296875,0.9180450439453124,-0.097076416015625
220966,0.2077178955078125,0.8773040771484375,-0.081878662109375
220967,0.2310638427734375,0.848236083984375,-0.079071044921875
220968,0.259185791015625,0.789306640625,-0.0912322998046875
220969,0.259185791015625,0.789306640625,-0.0912322998046875
220970,0.259185791015625,0.789306640625,-0.0912322998046875
220971,0.259002685546875,0.77239990234375,-0.0986175537109375
220972,0.2272491455078125,0.7117767333984375,-0.106597900390625
220973,0.2272491455078125,0.7117767333984375,-0.106597900390625
220974,0.185577392578125,0.6750640869140625,-0.111663818359375
220975,0.1468505859375,0.6404571533203125,-0.1017913818359375
220976,0.1324615478515625,0.654754638671875,-0.1399993896484375
220977,0.1324615478515625,0.654754638671875,-0.1399993896484375
220978,0.173614501953125,0.801422119140625,-0.2246246337890625
220979,0.173614501953125,0.801422119140625,-0.2246246337890625
220980,0.317230224609375,0.92828369140625,-0.5433349609375
220981,0.317230224609375,0.92828369140625,-0.5433349609375
220982,0.3076324462890625,0.930084228515625,-0.5411529541015625
220983,0.2694244384765625,0.923492431640625,-0.385894775390625
220984,0.145416259765625,0.9697113037109376,0.30816650390625
220985,0.145416259765625,0.9697113037109376,0.30816650390625
220986,0.130706787109375,0.925537109375,0.687103271484375
220987,0.175323486328125,0.8444366455078125,0.526031494140625
220988,0.1696929931640625,0.8172454833984375,-0.0443572998046875
220989,0.1696929931640625,0.8172454833984375,-0.0443572998046875
220990,0.167938232421875,0.8419647216796875,-0.10162353515625
220991,0.1611175537109375,0.8833770751953125,-0.064788818359375
220992,0.128875732421875,0.9225006103515624,0.050384521484375
220993,0.128875732421875,0.9225006103515624,0.050384521484375
220994,0.1342620849609375,0.90869140625,0.0675506591796875
220995,0.1399078369140625,0.8695831298828125,0.05596923828125
220996,0.13165283203125,0.7938232421875,-0.01788330078125
220997,0.13165283203125,0.7938232421875,-0.01788330078125
220998,0.13165283203125,0.7938232421875,-0.01788330078125
220999,0.1256561279296875,0.7926483154296875,-0.041961669921875
221000,0.140777587890625,1.087600708007812,-0.1716766357421875
221001,0.140777587890625,1.087600708007812,-0.1716766357421875
221002,0.154266357421875,1.17669677734375,-0.2440032958984375
221003,0.193695068359375,1.27972412109375,-0.30828857421875
221004,0.333831787109375,1.514816284179688,-0.419464111328125
221005,0.333831787109375,1.514816284179688,-0.419464111328125
221006,0.333831787109375,1.514816284179688,-0.419464111328125
221007,0.3977813720703125,1.619232177734375,-0.46514892578125
221008,0.412384033203125,1.61041259765625,-0.1043853759765625
221009,0.412384033203125,1.61041259765625,-0.1043853759765625
221010,0.412384033203125,1.61041259765625,-0.1043853759765625
221011,0.3806915283203125,1.426742553710938,0.1108245849609375
221012,0.2599029541015625,0.949737548828125,0.0519561767578125
221013,0.2599029541015625,0.949737548828125,0.0519561767578125
221014,0.2599029541015625,0.949737548828125,0.0519561767578125
221015,0.228851318359375,0.8541259765625,0.0738677978515625
221016,0.0874786376953125,0.796539306640625,0.08697509765625
221017,0.0874786376953125,0.796539306640625,0.08697509765625
221018,0.0874786376953125,0.796539306640625,0.08697509765625
221019,0.059173583984375,0.8175201416015625,0.057220458984375
221020,0.1065216064453125,0.8905792236328125,-0.0059356689453125
221021,0.1065216064453125,0.8905792236328125,-0.0059356689453125
221022,0.149261474609375,0.9226531982421876,-0.0109710693359375
221023,0.184814453125,0.9635009765625,-0.010986328125
221024,0.2601165771484375,1.0181884765625,-0.06024169921875
221025,0.2601165771484375,1.0181884765625,-0.06024169921875
221026,0.2976837158203125,1.025497436523438,-0.10186767578125
221027,0.3151702880859375,1.023406982421875,-0.1455535888671875
221028,0.269805908203125,0.9933013916015624,-0.1867828369140625
221029,0.269805908203125,0.9933013916015624,-0.1867828369140625
221030,0.21527099609375,0.9680633544921876,-0.18560791015625
221031,0.1548919677734375,0.940704345703125,-0.1766815185546875
221032,0.0693359375,0.866973876953125,-0.1582794189453125
221033,0.0693359375,0.866973876953125,-0.1582794189453125
221034,0.0693359375,0.866973876953125,-0.1582794189453125
221035,0.0392913818359375,0.77484130859375,-0.1534423828125
221036,0.055755615234375,0.664886474609375,-0.18731689453125
221037,0.055755615234375,0.664886474609375,-0.18731689453125
221038,0.0600128173828125,0.6276702880859375,-0.2136383056640625
221039,0.0600128173828125,0.6276702880859375,-0.2136383056640625
221040,0.085662841796875,0.644561767578125,-0.1952972412109375
221041,0.085662841796875,0.644561767578125,-0.1952972412109375
221042,0.1161956787109375,0.679229736328125,-0.178375244140625
221043,0.182464599609375,0.7465667724609375,-0.17108154296875
221044,0.39483642578125,0.8994598388671875,-0.280853271484375
221045,0.39483642578125,0.8994598388671875,-0.280853271484375
221046,0.496551513671875,0.9575042724609376,-0.4042816162109375
221047,0.5697479248046875,1.001602172851562,-0.4949493408203125
221048,0.4194793701171875,1.127593994140625,-0.15570068359375
221049,0.4194793701171875,1.127593994140625,-0.15570068359375
221050,0.163238525390625,1.204421997070312,0.20196533203125
221051,-0.038848876953125,1.1270751953125,0.2373504638671875
221052,-0.0379638671875,0.7947845458984375,0.03594970703125
221053,-0.0379638671875,0.7947845458984375,0.03594970703125
221054,-0.02545166015625,0.760284423828125,0.1968994140625
221055,-0.02545166015625,0.760284423828125,0.1968994140625
221056,-0.077728271484375,0.957489013671875,0.4364471435546875
221057,-0.077728271484375,0.957489013671875,0.4364471435546875
221058,-0.111572265625,1.014129638671875,0.4529876708984375
221059,-0.141326904296875,1.080810546875,0.4374542236328125
221060,-0.1956787109375,1.19097900390625,0.3243560791015625
221061,-0.1956787109375,1.19097900390625,0.3243560791015625
221062,-0.1924285888671875,1.263702392578125,0.25189208984375
221063,-0.1916961669921875,1.365493774414062,0.1999053955078125
221064,-0.1747589111328125,1.4700927734375,0.18560791015625
221065,-0.12255859375,1.57110595703125,0.150634765625
221066,-0.0407562255859375,1.653717041015625,0.07403564453125
221067,0.048583984375,1.6961669921875,-0.03631591796875
221068,0.175323486328125,1.642288208007812,-0.1955413818359375
221069,0.175323486328125,1.642288208007812,-0.1955413818359375
221070,0.1992645263671875,1.541717529296875,-0.2174835205078125
221071,0.212554931640625,1.431900024414062,-0.19793701171875
221072,0.164520263671875,1.20550537109375,-0.121368408203125
221073,0.164520263671875,1.20550537109375,-0.121368408203125
221074,0.164520263671875,1.20550537109375,-0.121368408203125
221075,0.0858612060546875,1.100982666015625,-0.0942840576171875
221076,-0.154083251953125,0.8807525634765625,-0.025909423828125
221077,-0.154083251953125,0.8807525634765625,-0.025909423828125
221078,-0.20220947265625,0.8372039794921875,0.002166748046875
221079,-0.226898193359375,0.807220458984375,0.0247344970703125
221080,-0.20587158203125,0.793304443359375,0.0881500244140625
221081,-0.20587158203125,0.793304443359375,0.0881500244140625
221082,-0.1526947021484375,0.8043365478515625,0.114532470703125
221083,-0.0832977294921875,0.828582763671875,0.1163482666015625
221084,-0.011932373046875,0.900970458984375,0.06842041015625
221085,-0.011932373046875,0.900970458984375,0.06842041015625
221086,-0.007049560546875,0.9259490966796876,0.0399932861328125
221087,-0.017059326171875,0.9524078369140624,0.0096893310546875
221088,-0.00408935546875,1.000869750976562,-0.048919677734375
221089,-0.00408935546875,1.000869750976562,-0.048919677734375
221090,0.015350341796875,1.00775146484375,-0.0996856689453125
221091,0.015350341796875,1.00775146484375,-0.0996856689453125
221092,0.1182403564453125,0.9763336181640624,-0.175628662109375
221093,0.1182403564453125,0.9763336181640624,-0.175628662109375
221094,0.1685943603515625,0.959808349609375,-0.1764068603515625
221095,0.1685943603515625,0.959808349609375,-0.1764068603515625
221096,0.29486083984375,0.8805694580078125,-0.1763458251953125
221097,0.29486083984375,0.8805694580078125,-0.1763458251953125
221098,0.3024749755859375,0.840118408203125,-0.164886474609375
221099,0.3024749755859375,0.840118408203125,-0.164886474609375
221100,0.1984100341796875,0.7335357666015625,-0.1026153564453125
221101,0.1984100341796875,0.7335357666015625,-0.1026153564453125
221102,0.149627685546875,0.727508544921875,-0.0847930908203125
221103,0.0829925537109375,0.7332916259765625,-0.063507080078125
221104,-0.0629730224609375,0.8996429443359375,-0.101715087890625
221105,-0.0629730224609375,0.8996429443359375,-0.101715087890625
221106,-0.0629730224609375,0.8996429443359375,-0.101715087890625
221107,-0.0741729736328125,1.099197387695312,-0.2199859619140625
221108,0.0082550048828125,1.248016357421875,-0.77301025390625
221109,0.0082550048828125,1.248016357421875,-0.77301025390625
221110,0.0082550048828125,1.248016357421875,-0.77301025390625
221111,0.047027587890625,1.263473510742188,-0.7880859375
221112,0.0694732666015625,0.93951416015625,0.220001220703125
221113,0.0694732666015625,0.93951416015625,0.220001220703125
221114,0.0694732666015625,0.93951416015625,0.220001220703125
221115,0.0986175537109375,0.7624359130859375,0.879547119140625
221116,0.1492919921875,0.617584228515625,-0.009521484375
221117,0.1492919921875,0.617584228515625,-0.009521484375
221118,0.1492919921875,0.617584228515625,-0.009521484375
221119,0.1603240966796875,0.54339599609375,-0.0237884521484375
221120,0.2012786865234375,0.4356689453125,0.121002197265625
221121,0.2176666259765625,0.4390869140625,0.2627105712890625
221122,0.2176666259765625,0.4390869140625,0.2627105712890625
221123,0.2199249267578125,0.5166778564453125,0.325927734375
221124,0.1278228759765625,0.678375244140625,0.1243743896484375
221125,0.1278228759765625,0.678375244140625,0.1243743896484375
221126,0.099945068359375,0.7823028564453125,0.1085205078125
221127,0.0815277099609375,0.922027587890625,0.0870819091796875
221128,0.041168212890625,1.19146728515625,-0.0230560302734375
221129,0.041168212890625,1.19146728515625,-0.0230560302734375
221130,0.041168212890625,1.19146728515625,-0.0230560302734375
221131,0.031097412109375,1.276519775390625,-0.1071319580078125
221132,0.0354156494140625,1.529647827148438,-0.167205810546875
221133,0.0354156494140625,1.529647827148438,-0.167205810546875
221134,0.07708740234375,1.58331298828125,-0.1309814453125
221135,0.07708740234375,1.58331298828125,-0.1309814453125
221136,0.16705322265625,1.305221557617188,-0.0506134033203125
221137,0.16705322265625,1.305221557617188,-0.0506134033203125
221138,0.1779937744140625,1.169525146484375,-0.0108795166015625
221139,0.186859130859375,1.076446533203125,0.034881591796875
221140,0.15911865234375,1.021728515625,0.1464996337890625
221141,0.15911865234375,1.021728515625,0.1464996337890625
221142,0.15911865234375,1.021728515625,0.1464996337890625
221143,0.1148223876953125,1.050796508789062,0.1967315673828125
221144,0.021270751953125,1.111953735351562,0.1927490234375
221145,0.021270751953125,1.111953735351562,0.1927490234375
221146,0.0660400390625,1.089599609375,0.161285400390625
221147,0.1187896728515625,1.034988403320312,0.168212890625
221148,0.2043914794921875,0.986785888671875,0.1286773681640625
221149,0.2043914794921875,0.986785888671875,0.1286773681640625
221150,0.24468994140625,0.9963836669921876,0.093963623046875
221151,0.268829345703125,1.019180297851562,0.0602874755859375
221152,0.244537353515625,1.074874877929688,0.01312255859375
221153,0.244537353515625,1.074874877929688,0.01312255859375
221154,0.20928955078125,1.087188720703125,0.00030517578125
221155,0.1710205078125,1.083236694335938,-0.0103607177734375
221156,0.1232147216796875,1.045257568359375,-0.044403076171875
221157,0.1232147216796875,1.045257568359375,-0.044403076171875
221158,0.1165924072265625,1.008316040039062,-0.0792388916015625
221159,0.1165924072265625,1.008316040039062,-0.0792388916015625
221160,0.17730712890625,0.92535400390625,-0.16290283203125
221161,0.17730712890625,0.92535400390625,-0.16290283203125
221162,0.2258453369140625,0.928375244140625,-0.20306396484375
221163,0.2258453369140625,0.928375244140625,-0.20306396484375
221164,0.3624725341796875,0.911865234375,-0.335723876953125
221165,0.3624725341796875,0.911865234375,-0.335723876953125
221166,0.3887786865234375,0.89605712890625,-0.3482666015625
221167,0.3944244384765625,0.881134033203125,-0.3327178955078125
221168,0.324737548828125,0.79473876953125,-0.2326202392578125
221169,0.324737548828125,0.79473876953125,-0.2326202392578125
221170,0.26800537109375,0.7548370361328125,-0.201171875
221171,0.225433349609375,0.7289886474609375,-0.1826934814453125
221172,0.23095703125,0.776611328125,-0.266815185546875
221173,0.23095703125,0.776611328125,-0.266815185546875
221174,0.2913055419921875,0.8196868896484375,-0.3482208251953125
221175,0.2913055419921875,0.8196868896484375,-0.3482208251953125
221176,0.4073333740234375,0.7846527099609375,-0.4913787841796875
221177,0.4073333740234375,0.7846527099609375,-0.4913787841796875
221178,0.3578643798828125,0.729736328125,-0.44744873046875
221179,0.3578643798828125,0.729736328125,-0.44744873046875
221180,0.0924224853515625,0.7452239990234375,-0.0924072265625
221181,0.0924224853515625,0.7452239990234375,-0.0924072265625
221182,0.0924224853515625,0.7452239990234375,-0.0924072265625
221183,-0.017242431640625,0.7942047119140625,0.175506591796875
221184,-0.0327301025390625,0.6225128173828125,0.0861968994140625
221185,-0.0327301025390625,0.6225128173828125,0.0861968994140625
221186,-0.0327301025390625,0.6225128173828125,0.0861968994140625
221187,0.0272064208984375,0.6630096435546875,0.106292724609375
221188,0.0867462158203125,1.009475708007812,0.291534423828125
221189,0.0867462158203125,1.009475708007812,0.291534423828125
221190,0.1204986572265625,1.150955200195312,0.258880615234375
221191,0.1204986572265625,1.150955200195312,0.258880615234375
221192,0.1925811767578125,1.487762451171875,0.0011444091796875
221193,0.1925811767578125,1.487762451171875,0.0011444091796875
221194,0.19073486328125,1.517501831054688,-0.13543701171875
221195,0.1875457763671875,1.535476684570312,-0.2045135498046875
221196,0.2625885009765625,1.51788330078125,-0.191162109375
221197,0.2625885009765625,1.51788330078125,-0.191162109375
221198,0.32080078125,1.484939575195312,-0.2083892822265625
221199,0.339630126953125,1.396240234375,-0.2454986572265625
221200,0.362030029296875,1.150054931640625,-0.232940673828125
221201,0.362030029296875,1.150054931640625,-0.232940673828125
221202,0.316802978515625,1.00946044921875,-0.154388427734375
221203,0.26007080078125,0.8983154296875,-0.06494140625
221204,0.12286376953125,0.821014404296875,-0.0032806396484375
221205,0.12286376953125,0.821014404296875,-0.0032806396484375
221206,0.12286376953125,0.821014404296875,-0.0032806396484375
221207,0.04791259765625,0.8400726318359375,-0.0086669921875
221208,-0.1174774169921875,0.9763641357421876,0.01702880859375
221209,-0.1174774169921875,0.9763641357421876,0.01702880859375
221210,-0.1670379638671875,1.025497436523438,0.0300140380859375
221211,-0.2044219970703125,1.05487060546875,0.045623779296875
221212,-0.1996612548828125,1.064544677734375,0.0439300537109375
221213,-0.1996612548828125,1.064544677734375,0.0439300537109375
221214,-0.1453857421875,1.066726684570312,0.05352783203125
221215,-0.1453857421875,1.066726684570312,0.05352783203125
221216,0.0015106201171875,1.0860595703125,0.150390625
221217,0.0015106201171875,1.0860595703125,0.150390625
221218,0.0015106201171875,1.0860595703125,0.150390625
221219,0.0334625244140625,1.103622436523438,0.135223388671875
221220,0.097320556640625,1.048355102539062,0.0938720703125
221221,0.097320556640625,1.048355102539062,0.0938720703125
221222,0.097320556640625,1.048355102539062,0.0938720703125
221223,0.113922119140625,1.010009765625,0.0887451171875
221224,0.2177734375,0.8365631103515625,0.15606689453125
221225,0.2177734375,0.8365631103515625,0.15606689453125
221226,0.26275634765625,0.80963134765625,0.2215118408203125
221227,0.3054962158203125,0.8367919921875,0.2612152099609375
221228,0.39398193359375,0.9698486328125,0.2153167724609375
221229,0.39398193359375,0.9698486328125,0.2153167724609375
221230,0.3871307373046875,1.016632080078125,0.203765869140625
221231,0.373046875,1.037261962890625,0.1766204833984375
221232,0.3754730224609375,1.00885009765625,0.1288604736328125
221233,0.3754730224609375,1.00885009765625,0.1288604736328125
221234,0.3655548095703125,0.9556121826171876,0.1523284912109375
221235,0.3655548095703125,0.9556121826171876,0.1523284912109375
221236,0.2232666015625,0.8271942138671875,0.23236083984375
221237,0.2232666015625,0.8271942138671875,0.23236083984375
221238,0.177398681640625,0.833221435546875,0.2488555908203125
221239,0.1425018310546875,0.8602447509765625,0.2612457275390625
221240,0.0906524658203125,0.947601318359375,0.259857177734375
221241,0.0906524658203125,0.947601318359375,0.259857177734375
221242,0.0758209228515625,0.9816436767578124,0.248260498046875
221243,0.07415771484375,0.99884033203125,0.24298095703125
221244,0.110565185546875,0.986572265625,0.2491607666015625
221245,0.110565185546875,0.986572265625,0.2491607666015625
221246,0.1484527587890625,0.97705078125,0.242950439453125
221247,0.1834259033203125,0.9831695556640624,0.2268829345703125
221248,0.2351226806640625,1.0262451171875,0.1781005859375
221249,0.2351226806640625,1.0262451171875,0.1781005859375
221250,0.2372589111328125,1.035751342773438,0.149078369140625
221251,0.224700927734375,1.034820556640625,0.110595703125
221252,0.201080322265625,1.008285522460938,0.0388641357421875
221253,0.201080322265625,1.008285522460938,0.0388641357421875
221254,0.20684814453125,0.9876708984375,0.0341033935546875
221255,0.2215118408203125,0.9818267822265624,0.04071044921875
221256,0.2326202392578125,1.01690673828125,0.0759429931640625
221257,0.2326202392578125,1.01690673828125,0.0759429931640625
221258,0.2363433837890625,1.041122436523438,0.1038360595703125
221259,0.2396697998046875,1.054946899414062,0.1331787109375
221260,0.2297515869140625,1.04583740234375,0.1968231201171875
221261,0.2297515869140625,1.04583740234375,0.1968231201171875
221262,0.22698974609375,1.0313720703125,0.223846435546875
221263,0.2152099609375,1.0146484375,0.2429962158203125
221264,0.1452178955078125,0.95556640625,0.27142333984375
221265,0.1452178955078125,0.95556640625,0.27142333984375
221266,0.1020355224609375,0.9254608154296876,0.2652587890625
221267,0.059906005859375,0.9109039306640624,0.2469329833984375
221268,0.0244598388671875,0.897735595703125,0.1897735595703125
221269,0.0244598388671875,0.897735595703125,0.1897735595703125
221270,0.0270233154296875,0.898651123046875,0.1739959716796875
221271,0.0332794189453125,0.9038238525390624,0.1715087890625
221272,0.03826904296875,0.903472900390625,0.182037353515625
221273,0.03826904296875,0.903472900390625,0.182037353515625
221274,0.0396575927734375,0.8867034912109375,0.204681396484375
221275,0.0307159423828125,0.8605804443359375,0.2076568603515625
221276,-0.0240936279296875,0.8012542724609375,0.2381134033203125
221277,-0.0240936279296875,0.8012542724609375,0.2381134033203125
221278,-0.0240936279296875,0.8012542724609375,0.2381134033203125
221279,-0.0541229248046875,0.78900146484375,0.2595062255859375
221280,-0.08795166015625,0.751861572265625,0.2003021240234375
221281,-0.08795166015625,0.751861572265625,0.2003021240234375
221282,-0.08795166015625,0.751861572265625,0.2003021240234375
221283,-0.072845458984375,0.753326416015625,0.15887451171875
221284,0.0607757568359375,1.036819458007812,0.14605712890625
221285,0.0607757568359375,1.036819458007812,0.14605712890625
221286,0.1100311279296875,1.163360595703125,0.1883697509765625
221287,0.1732177734375,1.272842407226562,0.2102508544921875
221288,0.27508544921875,1.440780639648438,0.2044525146484375
221289,0.27508544921875,1.440780639648438,0.2044525146484375
221290,0.2900390625,1.477508544921875,0.1944732666015625
221291,0.272979736328125,1.466705322265625,0.1872100830078125
221292,0.151763916015625,1.18878173828125,0.1972808837890625
221293,0.151763916015625,1.18878173828125,0.1972808837890625
221294,0.0782623291015625,1.043228149414062,0.200531005859375
221295,0.020111083984375,0.9322662353515624,0.2134857177734375
221296,-0.0649261474609375,0.777801513671875,0.26580810546875
221297,-0.0649261474609375,0.777801513671875,0.26580810546875
221298,-0.0649261474609375,0.777801513671875,0.26580810546875
221299,-0.0806884765625,0.74725341796875,0.2861785888671875
221300,-0.0470428466796875,0.8033447265625,0.2669219970703125
221301,-0.0470428466796875,0.8033447265625,0.2669219970703125
221302,-0.03912353515625,0.8311920166015625,0.2515106201171875
221303,-0.0383758544921875,0.8427581787109375,0.2238006591796875
221304,-0.03765869140625,0.8248748779296875,0.153900146484375
221305,-0.03765869140625,0.8248748779296875,0.153900146484375
221306,-0.0341644287109375,0.8251953125,0.145050048828125
221307,-0.03143310546875,0.849395751953125,0.160247802734375
221308,0.008026123046875,0.957366943359375,0.17449951171875
221309,0.008026123046875,0.957366943359375,0.17449951171875
221310,0.0416412353515625,1.006576538085938,0.14385986328125
221311,0.0700836181640625,1.03875732421875,0.0968780517578125
221312,0.082855224609375,1.09356689453125,0.0091705322265625
221313,0.082855224609375,1.09356689453125,0.0091705322265625
221314,0.0718841552734375,1.132339477539062,-0.0096588134765625
221315,0.0718841552734375,1.132339477539062,-0.0096588134765625
221316,0.0511016845703125,1.296844482421875,-0.0069732666015625
221317,0.0511016845703125,1.296844482421875,-0.0069732666015625
221318,0.0511016845703125,1.296844482421875,-0.0069732666015625
221319,0.0557098388671875,1.342193603515625,-0.0241851806640625
221320,0.0164947509765625,1.334609985351562,-0.085113525390625
221321,0.0164947509765625,1.334609985351562,-0.085113525390625
221322,0.0164947509765625,1.334609985351562,-0.085113525390625
221323,0.020294189453125,1.306838989257812,-0.1126556396484375
221324,0.105865478515625,1.348724365234375,-0.012481689453125
221325,0.105865478515625,1.348724365234375,-0.012481689453125
221326,0.1246795654296875,1.374847412109375,0.040618896484375
221327,0.1371307373046875,1.370162963867188,0.076324462890625
221328,0.10498046875,1.2252197265625,0.048309326171875
221329,0.10498046875,1.2252197265625,0.048309326171875
221330,0.10498046875,1.2252197265625,0.048309326171875
221331,0.09588623046875,1.071975708007812,-0.045501708984375
221332,0.1131744384765625,0.7649078369140625,-0.107452392578125
221333,0.1188507080078125,0.6286468505859375,-0.078826904296875
221334,0.134368896484375,0.5259246826171875,-0.0084228515625
221335,0.1558837890625,0.45294189453125,0.07281494140625
221336,0.2019195556640625,0.3603973388671875,0.146209716796875
221337,0.2019195556640625,0.3603973388671875,0.146209716796875
221338,0.2019195556640625,0.3603973388671875,0.146209716796875
221339,0.22552490234375,0.348968505859375,0.1650848388671875
221340,0.2627716064453125,0.447906494140625,0.1854400634765625
221341,0.2627716064453125,0.447906494140625,0.1854400634765625
221342,0.239501953125,0.512786865234375,0.1685333251953125
221343,0.2457122802734375,0.581024169921875,0.167510986328125
221344,0.2473907470703125,0.7638702392578125,0.2103118896484375
221345,0.2473907470703125,0.7638702392578125,0.2103118896484375
221346,0.2443084716796875,0.8890838623046875,0.2323455810546875
221347,0.234405517578125,1.041336059570312,0.2490997314453125
221348,0.2175750732421875,1.33465576171875,0.178802490234375
221349,0.2175750732421875,1.33465576171875,0.178802490234375
221350,0.2049407958984375,1.441909790039062,0.0985260009765625
221351,0.1736602783203125,1.518142700195312,0.0753173828125
221352,0.1187286376953125,1.539764404296875,0.1627349853515625
221353,0.045867919921875,1.395782470703125,0.3281097412109375
221354,0.027801513671875,1.209152221679688,0.4401397705078125
221355,0.027801513671875,1.209152221679688,0.4401397705078125
221356,0.01025390625,0.878448486328125,0.37921142578125
221357,0.01025390625,0.878448486328125,0.37921142578125
221358,-0.0083465576171875,0.8029632568359375,0.362945556640625
221359,-0.026458740234375,0.7479705810546875,0.3482513427734375
221360,-0.049652099609375,0.7538299560546875,0.2947235107421875
221361,-0.049652099609375,0.7538299560546875,0.2947235107421875
221362,-0.027252197265625,0.848876953125,0.2471466064453125
221363,-0.027252197265625,0.848876953125,0.2471466064453125
221364,0.2200469970703125,1.318801879882812,0.202728271484375
221365,0.2200469970703125,1.318801879882812,0.202728271484375
221366,0.2949371337890625,1.456375122070312,0.2203216552734375
221367,0.3949737548828125,1.568740844726562,0.184356689453125
221368,0.6033477783203125,1.64544677734375,-0.0703277587890625
221369,0.6033477783203125,1.64544677734375,-0.0703277587890625
221370,0.6033477783203125,1.64544677734375,-0.0703277587890625
221371,0.6734466552734375,1.58953857421875,-0.166015625
221372,0.61761474609375,1.096694946289062,-0.2343902587890625
221373,0.61761474609375,1.096694946289062,-0.2343902587890625
221374,0.5650787353515625,0.99456787109375,-0.20166015625
221375,0.5183868408203125,0.9054718017578124,-0.1681060791015625
221376,0.48919677734375,0.8131866455078125,-0.1457061767578125
221377,0.4575958251953125,0.723602294921875,-0.0863800048828125
221378,0.4575958251953125,0.723602294921875,-0.0863800048828125
221379,0.402099609375,0.6479949951171875,-0.005126953125
221380,0.1397247314453125,0.4884033203125,0.1497039794921875
221381,0.1397247314453125,0.4884033203125,0.1497039794921875
221382,0.0496978759765625,0.42584228515625,0.1977996826171875
221383,0.0496978759765625,0.42584228515625,0.1977996826171875
221384,-0.168701171875,0.2479400634765625,0.3771820068359375
221385,-0.168701171875,0.2479400634765625,0.3771820068359375
221386,-0.218658447265625,0.260009765625,0.307891845703125
221387,-0.218658447265625,0.260009765625,0.307891845703125
221388,-0.3830718994140625,0.4622650146484375,0.3346710205078125
221389,-0.3830718994140625,0.4622650146484375,0.3346710205078125
221390,-0.3830718994140625,0.4622650146484375,0.3346710205078125
221391,-0.4088287353515625,0.538787841796875,0.3780670166015625
221392,-0.25311279296875,0.883758544921875,0.4961700439453125
221393,-0.25311279296875,0.883758544921875,0.4961700439453125
221394,-0.045623779296875,1.102447509765625,0.5702972412109375
221395,0.1180267333984375,1.32476806640625,0.6229705810546875
221396,0.146392822265625,1.732421875,0.3367156982421875
221397,0.146392822265625,1.732421875,0.3367156982421875
221398,0.087158203125,1.7864990234375,0.2684783935546875
221399,0.02581787109375,1.64007568359375,0.3100738525390625
221400,-0.0832672119140625,1.172576904296875,0.202178955078125
221401,-0.0832672119140625,1.172576904296875,0.202178955078125
221402,-0.021636962890625,1.085647583007812,0.1897430419921875
221403,0.047332763671875,1.093841552734375,0.1969757080078125
221404,0.1307220458984375,1.307571411132812,0.2480621337890625
221405,0.1307220458984375,1.307571411132812,0.2480621337890625
221406,0.1399993896484375,1.4229736328125,0.2208404541015625
221407,0.145477294921875,1.518569946289062,0.160552978515625
221408,0.1565704345703125,1.629501342773438,-0.03314208984375
221409,0.1565704345703125,1.629501342773438,-0.03314208984375
221410,0.1766510009765625,1.637298583984375,-0.1360931396484375
221411,0.21099853515625,1.622756958007812,-0.201507568359375
221412,0.263458251953125,1.639801025390625,-0.1578826904296875
221413,0.263458251953125,1.639801025390625,-0.1578826904296875
221414,0.245391845703125,1.624298095703125,-0.1481781005859375
221415,0.1719970703125,1.577346801757812,-0.185333251953125
221416,0.03875732421875,1.376632690429688,-0.1759185791015625
221417,0.03875732421875,1.376632690429688,-0.1759185791015625
221418,0.03875732421875,1.376632690429688,-0.1759185791015625
221419,0.00628662109375,1.222335815429688,-0.1599884033203125
221420,0.0120849609375,0.9380340576171876,-0.0479583740234375
221421,0.0120849609375,0.9380340576171876,-0.0479583740234375
221422,0.0120849609375,0.9380340576171876,-0.0479583740234375
221423,-0.002838134765625,0.8756561279296875,0.0465087890625
221424,-0.0055999755859375,0.496307373046875,0.2757110595703125
221425,-0.0055999755859375,0.496307373046875,0.2757110595703125
221426,0.0020599365234375,0.3248138427734375,0.2992401123046875
221427,-0.00433349609375,0.170318603515625,0.3045806884765625
221428,-0.04345703125,-0.0390167236328125,0.216888427734375
221429,-0.04345703125,-0.0390167236328125,0.216888427734375
221430,-0.0605621337890625,-0.0994110107421875,0.1717987060546875
221431,-0.0667572021484375,-0.136505126953125,0.1437225341796875
221432,-0.082977294921875,-0.1458740234375,0.08270263671875
221433,-0.082977294921875,-0.1458740234375,0.08270263671875
221434,-0.102691650390625,-0.1329345703125,0.1095733642578125
221435,-0.116668701171875,-0.1231231689453125,0.16009521484375
221436,-0.124114990234375,-0.0932159423828125,0.0577850341796875
221437,-0.124114990234375,-0.0932159423828125,0.0577850341796875
221438,-0.1344757080078125,-0.0538177490234375,-0.044036865234375
221439,-0.138916015625,-0.005035400390625,-0.0729827880859375
221440,-0.123016357421875,0.09564208984375,-0.0767059326171875
221441,-0.123016357421875,0.09564208984375,-0.0767059326171875
221442,-0.098388671875,0.20550537109375,-0.0804595947265625
221443,-0.098388671875,0.20550537109375,-0.0804595947265625
221444,0.0563201904296875,1.651107788085938,-0.4228057861328125
221445,0.0563201904296875,1.651107788085938,-0.4228057861328125
221446,-0.0131683349609375,2.816024780273438,-0.7635498046875
221447,0.0291290283203125,4.216323852539062,-1.0625
221448,1.319488525390625,5.229598999023438,-0.30029296875
221449,1.319488525390625,5.229598999023438,-0.30029296875
221450,1.319488525390625,5.229598999023438,-0.30029296875
221451,1.553878784179688,3.382766723632812,-0.31915283203125
221452,0.3317413330078125,0.984771728515625,0.0131988525390625
221453,0.3317413330078125,0.984771728515625,0.0131988525390625
221454,0.126861572265625,1.301132202148438,0.130706787109375
221455,0.0115966796875,1.784530639648438,0.2486724853515625
221456,-0.23370361328125,2.258544921875,1.079330444335938
221457,-0.23370361328125,2.258544921875,1.079330444335938
221458,-0.358306884765625,2.12945556640625,1.524795532226562
221459,-0.10687255859375,1.797149658203125,0.9451904296875
221460,0.3058013916015625,1.368148803710938,0.281494140625
221461,0.3058013916015625,1.368148803710938,0.281494140625
221462,0.2564849853515625,1.096481323242188,0.0572052001953125
221463,0.2437896728515625,0.902191162109375,0.0435943603515625
221464,0.1191558837890625,0.6976470947265625,0.003570556640625
221465,0.1191558837890625,0.6976470947265625,0.003570556640625
221466,0.0720672607421875,0.589019775390625,-0.00836181640625
221467,0.058013916015625,0.4719085693359375,-0.0130767822265625
221468,0.075897216796875,0.24298095703125,-0.0386810302734375
221469,0.075897216796875,0.24298095703125,-0.0386810302734375
221470,0.0995635986328125,0.1324005126953125,-0.0413970947265625
221471,0.1318511962890625,0.0304718017578125,-0.041961669921875
221472,0.153533935546875,-0.0537567138671875,-0.044097900390625
221473,0.1697845458984375,-0.110260009765625,-0.03363037109375
221474,0.176788330078125,-0.1433258056640625,-0.02166748046875
221475,0.1891021728515625,-0.1627349853515625,0.0292816162109375
221476,0.170379638671875,-0.188751220703125,0.144012451171875
221477,0.170379638671875,-0.188751220703125,0.144012451171875
221478,0.1151885986328125,-0.1917877197265625,0.1198577880859375
221479,0.0716552734375,-0.1837615966796875,0.102630615234375
221480,0.0068511962890625,-0.1622772216796875,0.040008544921875
221481,0.0068511962890625,-0.1622772216796875,0.040008544921875
221482,-0.0059661865234375,-0.1504669189453125,-0.0006866455078125
221483,-0.0059661865234375,-0.1504669189453125,-0.0006866455078125
221484,-0.012359619140625,-0.1443023681640625,0.0243988037109375
221485,-0.012359619140625,-0.1443023681640625,0.0243988037109375
221486,-0.0126190185546875,-0.1531829833984375,0.0194549560546875
221487,-0.0110015869140625,-0.1611328125,0.005462646484375
221488,-0.012603759765625,-0.1952362060546875,-0.072296142578125
221489,-0.012603759765625,-0.1952362060546875,-0.072296142578125
221490,-0.012603759765625,-0.1952362060546875,-0.072296142578125
221491,-0.0056610107421875,-0.194427490234375,-0.1623687744140625
221492,0.051666259765625,0.129730224609375,-0.2643890380859375
221493,0.051666259765625,0.129730224609375,-0.2643890380859375
221494,0.0524444580078125,0.216033935546875,-0.3797760009765625
221495,0.0992584228515625,0.6684722900390625,-0.7686309814453125
221496,3.911331176757812,8.230606079101562,-4.733840942382812
221497,3.911331176757812,8.230606079101562,-4.733840942382812
221498,3.911331176757812,8.230606079101562,-4.733840942382812
221499,1.163848876953125,7.40753173828125,-0.996246337890625
221500,-0.369415283203125,1.208221435546875,2.29443359375
221501,-0.369415283203125,1.208221435546875,2.29443359375
221502,-0.6595001220703125,0.920318603515625,1.596023559570312
221503,-0.904266357421875,1.009765625,0.1881561279296875
221504,-0.4892578125,1.28765869140625,0.6266632080078125
221505,-0.4892578125,1.28765869140625,0.6266632080078125
221506,-0.330780029296875,1.163253784179688,0.46478271484375
221507,-0.1802215576171875,0.995941162109375,0.536346435546875
221508,-0.09820556640625,0.6127777099609375,0.6544036865234375
221509,-0.09820556640625,0.6127777099609375,0.6544036865234375
221510,-0.0532073974609375,0.536773681640625,0.58123779296875
221511,-0.02606201171875,0.509796142578125,0.3113861083984375
221512,0.01226806640625,0.4171295166015625,-0.051239013671875
221513,0.01226806640625,0.4171295166015625,-0.051239013671875
221514,0.0125579833984375,0.3358306884765625,-0.0704803466796875
221515,0.0078582763671875,0.2551727294921875,-0.061676025390625
221516,0.011444091796875,0.1771697998046875,-0.0552215576171875
221517,0.022705078125,0.0943756103515625,-0.0801849365234375
221518,0.022705078125,0.0943756103515625,-0.0801849365234375
221519,0.033416748046875,0.0151824951171875,-0.1154022216796875
221520,0.081787109375,-0.140899658203125,-0.1373443603515625
221521,0.081787109375,-0.140899658203125,-0.1373443603515625
221522,0.0908203125,-0.1583404541015625,-0.1482391357421875
221523,0.0983428955078125,-0.167205810546875,-0.1660919189453125
221524,0.1261138916015625,-0.1940155029296875,-0.1506805419921875
221525,0.1261138916015625,-0.1940155029296875,-0.1506805419921875
221526,0.129302978515625,-0.18853759765625,-0.13812255859375
221527,0.1237335205078125,-0.17962646484375,-0.1208038330078125
221528,0.112274169921875,-0.1646881103515625,-0.082183837890625
221529,0.093109130859375,-0.1437530517578125,-0.03546142578125
221530,0.07012939453125,-0.1270904541015625,-0.010833740234375
221531,0.050018310546875,-0.1126251220703125,-0.014068603515625
221532,0.022918701171875,-0.10455322265625,-0.06756591796875
221533,0.022918701171875,-0.10455322265625,-0.06756591796875
221534,0.022918701171875,-0.10455322265625,-0.06756591796875
221535,0.0055999755859375,-0.1009979248046875,-0.121978759765625
221536,-0.03875732421875,-0.004913330078125,-0.302215576171875
221537,0.0138702392578125,0.1029052734375,-0.382843017578125
221538,0.0533599853515625,0.168182373046875,-0.527252197265625
221539,0.08587646484375,0.3103179931640625,-0.687957763671875
221540,0.339874267578125,3.285446166992188,-0.667816162109375
221541,0.339874267578125,3.285446166992188,-0.667816162109375
221542,1.17333984375,7.82421875,-2.12261962890625
221543,3.059921264648438,7.928848266601562,-3.424270629882812
221544,0.1972503662109375,2.703948974609375,-0.23431396484375
221545,0.1972503662109375,2.703948974609375,-0.23431396484375
221546,0.126617431640625,1.841110229492188,0.950164794921875
221547,-0.1725616455078125,1.752655029296875,1.879501342773438
221548,-0.742706298828125,1.511383056640625,1.965774536132812
221549,-0.742706298828125,1.511383056640625,1.965774536132812
221550,-0.403594970703125,1.780792236328125,0.857391357421875
221551,-0.24658203125,1.758255004882812,0.124267578125
221552,-0.08599853515625,1.109756469726562,0.0179595947265625
221553,-0.08599853515625,1.109756469726562,0.0179595947265625
221554,-0.134552001953125,0.8035736083984375,0.2782440185546875
221555,-0.1289215087890625,0.55133056640625,0.422637939453125
221556,-0.04742431640625,0.2070770263671875,0.1907806396484375
221557,-0.04742431640625,0.2070770263671875,0.1907806396484375
221558,-0.04742431640625,0.2070770263671875,0.1907806396484375
221559,-0.01995849609375,0.0722808837890625,0.1204071044921875
221560,0.0772857666015625,-0.08697509765625,0.24237060546875
221561,0.147064208984375,-0.1122283935546875,0.1616973876953125
221562,0.2204437255859375,-0.1287841796875,0.094635009765625
221563,0.28369140625,-0.1484375,0.06591796875
221564,0.4603118896484375,-0.17138671875,-0.01702880859375
221565,0.4603118896484375,-0.17138671875,-0.01702880859375
221566,0.5078125,-0.1704559326171875,0.0115966796875
221567,0.409149169921875,-0.185302734375,-0.0001068115234375
221568,0.1787109375,-0.1905975341796875,-0.090576171875
221569,0.1787109375,-0.1905975341796875,-0.090576171875
221570,0.131561279296875,-0.17242431640625,-0.0707550048828125
221571,0.1072998046875,-0.1513824462890625,-0.0166473388671875
221572,0.0661468505859375,-0.1231231689453125,0.0644073486328125
221573,0.0661468505859375,-0.1231231689453125,0.0644073486328125
221574,0.0518035888671875,-0.11431884765625,0.045562744140625
221575,0.042236328125,-0.10162353515625,0.0150299072265625
221576,0.0629730224609375,-0.0685272216796875,-0.0445556640625
221577,0.0629730224609375,-0.0685272216796875,-0.0445556640625
221578,0.0895538330078125,0.013763427734375,-0.049591064453125
221579,0.086029052734375,0.0581207275390625,-0.0539703369140625
221580,0.154449462890625,0.145782470703125,-0.0170135498046875
221581,0.154449462890625,0.145782470703125,-0.0170135498046875
221582,0.2779693603515625,0.4513397216796875,-0.01885986328125
221583,0.5275421142578125,1.780792236328125,-0.0437469482421875
221584,0.68902587890625,4.4852294921875,-0.9590606689453124
221585,0.68902587890625,4.4852294921875,-0.9590606689453124
221586,0.8143463134765625,5.733367919921875,-1.488357543945312
221587,1.229660034179688,6.61480712890625,-0.9134368896484376
221588,0.9763336181640624,5.725784301757812,-0.0390167236328125
221589,0.1895294189453125,3.898712158203125,-0.1376495361328125
221590,-0.03802490234375,2.538162231445312,0.1807861328125
221591,-0.226806640625,1.923446655273438,0.694000244140625
221592,-0.8887481689453125,1.853012084960938,1.255935668945312
221593,-0.8887481689453125,1.853012084960938,1.255935668945312
221594,-0.7229766845703125,1.61688232421875,0.4364776611328125
221595,-0.430084228515625,1.26141357421875,0.2398529052734375
221596,-0.142974853515625,0.9160614013671876,0.2322998046875
221597,-0.142974853515625,0.9160614013671876,0.2322998046875
221598,-0.109832763671875,0.6985626220703125,0.3040618896484375
221599,-0.11859130859375,0.4799041748046875,0.4336090087890625
221600,-0.0392913818359375,0.189453125,0.4565887451171875
221601,-0.0392913818359375,0.189453125,0.4565887451171875
221602,0.01275634765625,0.169097900390625,0.2613067626953125
221603,0.0550537109375,0.1513214111328125,0.0797119140625
221604,0.0565948486328125,0.0476531982421875,-0.0855560302734375
221605,0.0565948486328125,0.0476531982421875,-0.0855560302734375
221606,0.033172607421875,-0.0185699462890625,-0.0954437255859375
221607,0.0085601806640625,-0.075225830078125,-0.0838775634765625
221608,-0.0126800537109375,-0.159149169921875,-0.0687255859375
221609,-0.0126800537109375,-0.159149169921875,-0.0687255859375
221610,-0.0052337646484375,-0.1779327392578125,-0.0811920166015625
221611,0.00677490234375,-0.1808624267578125,-0.099853515625
221612,0.0403900146484375,-0.1705322265625,-0.113861083984375
221613,0.0403900146484375,-0.1705322265625,-0.113861083984375
221614,0.0561981201171875,-0.170440673828125,-0.1154632568359375
221615,0.06536865234375,-0.1710205078125,-0.0993804931640625
221616,0.112030029296875,-0.19342041015625,-0.043121337890625
221617,0.112030029296875,-0.19342041015625,-0.043121337890625
221618,0.112030029296875,-0.19342041015625,-0.043121337890625
221619,0.150054931640625,-0.21630859375,-0.0252685546875
221620,0.5111846923828125,-0.1108856201171875,0.3453369140625
221621,0.5111846923828125,-0.1108856201171875,0.3453369140625
221622,0.4347991943359375,0.1942901611328125,0.0912628173828125
221623,0.4347991943359375,0.1942901611328125,0.0912628173828125
221624,0.46337890625,0.632232666015625,0.0877685546875
221625,0.46337890625,0.632232666015625,0.0877685546875
221626,0.55047607421875,1.829681396484375,-0.153167724609375
221627,0.4477081298828125,4.143707275390625,-0.55877685546875
221628,0.2310333251953125,6.846694946289062,-1.454818725585938
221629,0.2310333251953125,6.846694946289062,-1.454818725585938
221630,0.1837921142578125,5.532958984375,-0.280487060546875
221631,0.0964508056640625,3.289657592773438,0.2554931640625
221632,0.0802001953125,1.022994995117188,0.234100341796875
221633,0.0802001953125,1.022994995117188,0.234100341796875
221634,-0.0699920654296875,0.8924407958984375,0.4089813232421875
221635,-0.338104248046875,1.257492065429688,0.6100311279296875
221636,-0.49627685546875,1.606857299804688,0.777313232421875
221637,-0.49627685546875,1.606857299804688,0.777313232421875
221638,-0.40740966796875,1.384063720703125,0.5987091064453125
221639,-0.247955322265625,1.175430297851562,0.372772216796875
221640,-0.056884765625,0.7775115966796875,0.171661376953125
221641,-0.056884765625,0.7775115966796875,0.171661376953125
221642,0.0051727294921875,0.6031646728515625,0.26641845703125
221643,0.0440826416015625,0.446746826171875,0.33935546875
221644,0.084686279296875,0.1888885498046875,0.268768310546875
221645,0.084686279296875,0.1888885498046875,0.268768310546875
221646,0.110870361328125,0.08984375,0.2142333984375
221647,0.1582794189453125,0.0059661865234375,0.135528564453125
221648,0.2713623046875,-0.096923828125,-0.0132598876953125
221649,0.2713623046875,-0.096923828125,-0.0132598876953125
221650,0.31134033203125,-0.115997314453125,-0.0494842529296875
221651,0.317352294921875,-0.1356201171875,-0.0695343017578125
221652,0.2820587158203125,-0.1359405517578125,-0.091339111328125
221653,0.227142333984375,-0.1492462158203125,-0.0955810546875
221654,0.168609619140625,-0.1601104736328125,-0.090362548828125
221655,0.1186065673828125,-0.1522216796875,-0.0907135009765625
221656,0.050994873046875,-0.1329498291015625,-0.0416717529296875
221657,0.050994873046875,-0.1329498291015625,-0.0416717529296875
221658,0.02734375,-0.1318206787109375,-0.0068359375
221659,0.02734375,-0.1318206787109375,-0.0068359375
221660,-0.0085906982421875,-0.13385009765625,-0.0035400390625
221661,-0.0085906982421875,-0.13385009765625,-0.0035400390625
221662,-0.01715087890625,-0.120025634765625,-0.038177490234375
221663,-0.0149688720703125,-0.01885986328125,-0.0692596435546875
221664,0.0525360107421875,0.13946533203125,-0.133880615234375
221665,0.0525360107421875,0.13946533203125,-0.133880615234375
221666,0.1204681396484375,0.2493438720703125,-0.1154937744140625
221667,0.1204681396484375,0.2493438720703125,-0.1154937744140625
221668,0.740234375,6.253738403320312,-2.084152221679688
221669,0.740234375,6.253738403320312,-2.084152221679688
221670,1.658279418945312,7.6507568359375,-1.945465087890625
221671,1.481842041015625,5.74078369140625,-0.98382568359375
221672,0.464447021484375,3.014434814453125,-0.6372833251953125
221673,0.04803466796875,1.794479370117188,-0.10528564453125
221674,-0.127655029296875,1.097930908203125,-0.0171356201171875
221675,-0.2681732177734375,1.085311889648438,0.082000732421875
221676,-0.4499359130859375,1.721420288085938,1.060623168945312
221677,-0.981170654296875,2.591049194335938,2.317214965820312
221678,-1.075042724609375,2.636276245117188,1.18560791015625
221679,-0.665008544921875,2.177520751953125,0.6093597412109375
221680,-0.001495361328125,1.438644409179688,0.4907073974609375
221681,-0.001495361328125,1.438644409179688,0.4907073974609375
221682,0.0665740966796875,1.025970458984375,0.361907958984375
221683,0.0583648681640625,0.71539306640625,0.2661590576171875
221684,0.0120697021484375,0.2540740966796875,0.297698974609375
221685,0.0120697021484375,0.2540740966796875,0.297698974609375
221686,0.0044403076171875,0.0973968505859375,0.2788543701171875
221687,-0.0232086181640625,-0.03759765625,0.14581298828125
221688,-0.11859130859375,-0.1691741943359375,-0.0988922119140625
221689,-0.11859130859375,-0.1691741943359375,-0.0988922119140625
221690,-0.144989013671875,-0.180511474609375,-0.0924072265625
221691,-0.1385955810546875,-0.185089111328125,-0.097930908203125
221692,-0.1031951904296875,-0.192230224609375,-0.1309661865234375
221693,-0.05157470703125,-0.1942291259765625,-0.161102294921875
221694,0.0019378662109375,-0.1985931396484375,-0.19140625
221695,0.046539306640625,-0.2129974365234375,-0.2169189453125
221696,0.1287689208984375,-0.2894439697265625,0.035858154296875
221697,0.1287689208984375,-0.2894439697265625,0.035858154296875
221698,0.1744232177734375,-0.389068603515625,0.4313201904296875
221699,0.2136077880859375,-0.4381866455078125,0.4617462158203125
221700,0.2992095947265625,-0.4102325439453125,0.207733154296875
221701,0.2992095947265625,-0.4102325439453125,0.207733154296875
221702,0.3832244873046875,-0.38665771484375,0.137908935546875
221703,0.437530517578125,-0.3108978271484375,0.0196533203125
221704,0.2915191650390625,0.1366119384765625,-0.2119293212890625
221705,0.2915191650390625,0.1366119384765625,-0.2119293212890625
221706,0.1376800537109375,0.3221893310546875,-0.0901031494140625
221707,0.0593719482421875,0.4920196533203125,0.1343994140625
221708,0.0481719970703125,0.863128662109375,0.455718994140625
221709,0.0481719970703125,0.863128662109375,0.455718994140625
221710,0.11431884765625,1.207855224609375,-0.0162200927734375
221711,0.0483856201171875,4.225845336914062,-0.8018035888671875
221712,0.4322967529296875,7.924606323242188,-0.04534912109375
221713,0.4322967529296875,7.924606323242188,-0.04534912109375
221714,0.8710479736328125,5.180404663085938,0.6943359375
221715,0.4024810791015625,2.6129150390625,-0.2066497802734375
221716,0.4077911376953125,0.65740966796875,0.2204742431640625
221717,0.4077911376953125,0.65740966796875,0.2204742431640625
221718,0.4077911376953125,0.65740966796875,0.2204742431640625
221719,0.1141357421875,0.659393310546875,0.5206146240234375
221720,-0.4386138916015625,1.42608642578125,0.5431976318359375
221721,-0.4386138916015625,1.42608642578125,0.5431976318359375
221722,-0.46710205078125,1.233612060546875,0.460723876953125
221723,-0.40936279296875,1.015045166015625,0.391632080078125
221724,-0.207916259765625,0.6959228515625,0.2712860107421875
221725,-0.207916259765625,0.6959228515625,0.2712860107421875
221726,-0.1060028076171875,0.52899169921875,0.2127685546875
221727,-0.014190673828125,0.3665313720703125,0.273468017578125
221728,0.1683807373046875,0.1069183349609375,0.258819580078125
221729,0.1683807373046875,0.1069183349609375,0.258819580078125
221730,0.2283935546875,0.024810791015625,0.1934967041015625
221731,0.26922607421875,-0.044036865234375,0.1018218994140625
221732,0.2967681884765625,-0.1831207275390625,0.023468017578125
221733,0.2967681884765625,-0.1831207275390625,0.023468017578125
221734,0.2793731689453125,-0.22265625,-0.007965087890625
221735,0.2509613037109375,-0.2457122802734375,-0.0507965087890625
221736,0.2192840576171875,-0.239898681640625,-0.06390380859375
221737,0.1847991943359375,-0.2188262939453125,-0.0741119384765625
221738,0.14276123046875,-0.209564208984375,-0.090606689453125
221739,0.0995635986328125,-0.2027435302734375,-0.0814666748046875
221740,0.015472412109375,-0.1865234375,0.042205810546875
221741,0.015472412109375,-0.1865234375,0.042205810546875
221742,-0.029205322265625,-0.1634368896484375,0.122589111328125
221743,-0.083892822265625,-0.0974578857421875,0.1370849609375
221744,-0.090667724609375,0.06463623046875,0.0374908447265625
221745,-0.032440185546875,0.139556884765625,-0.0465850830078125
221746,-0.010223388671875,0.244476318359375,-0.1706085205078125
221747,0.0577850341796875,0.5682830810546875,-0.298370361328125
221748,0.4527435302734375,2.753036499023438,-0.4264984130859375
221749,1.019638061523438,5.055557250976562,-1.321563720703125
221750,2.200363159179688,7.672561645507812,-2.708892822265625
221751,2.164779663085938,5.847305297851562,-1.535400390625
221752,0.5603790283203125,2.477828979492188,-0.2027130126953125
221753,0.148895263671875,1.7044677734375,0.104522705078125
221754,0.0976409912109375,1.049591064453125,0.1397705078125
221755,-0.0565338134765625,0.94866943359375,-0.176849365234375
221756,-0.2253570556640625,2.024932861328125,0.1839447021484375
221757,-0.2253570556640625,2.024932861328125,0.1839447021484375
221758,-0.57928466796875,2.44140625,0.77435302734375
221759,-0.986053466796875,2.395248413085938,1.7489013671875
221760,-0.6466827392578125,1.666580200195312,1.24359130859375
221761,0.04632568359375,1.363601684570312,0.71929931640625
221762,0.201171875,1.1881103515625,0.4458465576171875
221763,0.2189483642578125,0.898040771484375,0.1558685302734375
221764,0.22564697265625,0.6705169677734375,0.13519287109375
221765,0.226959228515625,0.470001220703125,0.1539154052734375
221766,0.2265777587890625,0.279937744140625,0.119842529296875
221767,0.21417236328125,0.0830230712890625,0.0921630859375
221768,0.0992889404296875,-0.2583770751953125,0.108245849609375
221769,0.0992889404296875,-0.2583770751953125,0.108245849609375
221770,0.0165863037109375,-0.3158721923828125,0.0801849365234375
221771,-0.035858154296875,-0.2875518798828125,0.000213623046875
221772,-0.0526580810546875,-0.2130279541015625,-0.097198486328125
221773,-0.0526580810546875,-0.2130279541015625,-0.097198486328125
221774,-0.0515594482421875,-0.19549560546875,-0.076324462890625
221775,-0.0565185546875,-0.190948486328125,-0.0245513916015625
221776,-0.08660888671875,-0.2789764404296875,0.2093963623046875
221777,-0.08660888671875,-0.2789764404296875,0.2093963623046875
221778,-0.08734130859375,-0.30718994140625,0.285186767578125
221779,-0.077545166015625,-0.2915191650390625,0.109039306640625
221780,-0.0675506591796875,-0.269439697265625,-0.0964202880859375
221781,-0.05267333984375,-0.247467041015625,-0.1937408447265625
221782,-0.025115966796875,-0.2250823974609375,-0.2200164794921875
221783,0.0160369873046875,-0.0621795654296875,-0.1871185302734375
221784,0.0038909912109375,0.3683013916015625,0.2168121337890625
221785,0.0038909912109375,0.3683013916015625,0.2168121337890625
221786,-0.002105712890625,0.5020294189453125,0.36871337890625
221787,-0.0018463134765625,0.7025299072265625,0.1193389892578125
221788,0.0624542236328125,7.060379028320312,-1.2467041015625
221789,0.0624542236328125,7.060379028320312,-1.2467041015625
221790,0.7101898193359375,8.117645263671875,-1.925933837890625
221791,1.282028198242188,6.15557861328125,-0.4093170166015625
221792,0.4493255615234375,3.0023193359375,0.216522216796875
221793,0.18609619140625,1.463241577148438,-0.0185089111328125
221794,0.1631011962890625,0.631622314453125,-0.145904541015625
221795,0.1152496337890625,0.3895416259765625,-0.0963897705078125
221796,0.128875732421875,1.279312133789062,0.5548858642578125
221797,0.128875732421875,1.279312133789062,0.5548858642578125
221798,0.1543426513671875,1.3682861328125,0.70953369140625
221799,0.2091522216796875,1.142745971679688,0.6610107421875
221800,0.2931060791015625,0.80047607421875,0.3134307861328125
221801,0.2931060791015625,0.80047607421875,0.3134307861328125
221802,0.32037353515625,0.7205352783203125,0.1606597900390625
221803,0.3307037353515625,0.6349945068359375,0.065399169921875
221804,0.3279876708984375,0.44012451171875,0.000457763671875
221805,0.3279876708984375,0.44012451171875,0.000457763671875
221806,0.323822021484375,0.338287353515625,0.0009765625
221807,0.3260345458984375,0.218902587890625,0.0175323486328125
221808,0.2809295654296875,-0.03167724609375,0.04510498046875
221809,0.2809295654296875,-0.03167724609375,0.04510498046875
221810,0.23809814453125,-0.127288818359375,0.0238494873046875
221811,0.2055206298828125,-0.1873931884765625,-0.0011749267578125
221812,0.1691131591796875,-0.20751953125,-0.0153961181640625
221813,0.13360595703125,-0.193145751953125,-0.029388427734375
221814,0.0940399169921875,-0.17962646484375,-0.056427001953125
221815,0.0489959716796875,-0.1592559814453125,-0.0752410888671875
221816,-0.0028228759765625,-0.136016845703125,-0.0665740966796875
221817,-0.0553131103515625,-0.1119384765625,-0.008026123046875
221818,-0.0553131103515625,-0.1119384765625,-0.008026123046875
221819,-0.112030029296875,-0.1057586669921875,0.114288330078125
221820,-0.2664031982421875,-0.0938720703125,-0.0351715087890625
221821,-0.2664031982421875,-0.0938720703125,-0.0351715087890625
221822,-0.2164764404296875,-0.035125732421875,-0.079833984375
221823,-0.18701171875,0.02862548828125,-0.0116119384765625
221824,-0.271331787109375,0.2826385498046875,-0.129364013671875
221825,-0.271331787109375,0.2826385498046875,-0.129364013671875
221826,-0.358367919921875,0.6385040283203125,-0.314727783203125
221827,-0.3241424560546875,0.9382171630859376,-0.662200927734375
221828,2.235610961914062,7.544342041015625,-2.80499267578125
221829,2.235610961914062,7.544342041015625,-2.80499267578125
221830,1.6285400390625,4.6162109375,-2.071685791015625
221831,-1.041412353515625,-0.56524658203125,-2.472259521484375
221832,-0.456451416015625,0.3686370849609375,-1.032943725585938
221833,-0.4593963623046875,1.163360595703125,-0.33837890625
221834,-0.3562774658203125,1.556121826171875,-0.2598876953125
221835,-0.3993682861328125,2.39208984375,-0.4315338134765625
221836,-0.5255584716796875,3.271438598632812,0.3954010009765625
221837,-0.0200347900390625,3.500167846679688,4.79742431640625
221838,0.27508544921875,2.053024291992188,3.110244750976562
221839,-0.0878448486328125,1.392486572265625,0.9431915283203124
221840,-0.0043487548828125,0.7498321533203125,-0.1988983154296875
221841,-0.0043487548828125,0.7498321533203125,-0.1988983154296875
221842,0.0843353271484375,0.545623779296875,-0.182952880859375
221843,0.1592864990234375,0.396697998046875,-0.0488128662109375
221844,0.20904541015625,0.27764892578125,0.15869140625
221845,0.20611572265625,0.198822021484375,0.30181884765625
221846,0.19219970703125,0.1328582763671875,0.329681396484375
221847,0.179901123046875,0.049774169921875,0.2879638671875
221848,0.0791015625,-0.0630035400390625,-0.0110626220703125
221849,0.0791015625,-0.0630035400390625,-0.0110626220703125
221850,0.0043182373046875,-0.046173095703125,-0.093292236328125
221851,-0.053253173828125,0.00213623046875,-0.1290283203125
221852,-0.082305908203125,-0.0003204345703125,-0.17596435546875
221853,-0.082305908203125,-0.0003204345703125,-0.17596435546875
221854,-0.0810546875,-0.02960205078125,-0.1781005859375
221855,-0.074798583984375,-0.07354736328125,-0.23321533203125
221856,-0.0561981201171875,-0.1672515869140625,-0.351470947265625
221857,-0.0561981201171875,-0.1672515869140625,-0.351470947265625
221858,-0.0548095703125,-0.198455810546875,-0.414581298828125
221859,-0.0560302734375,-0.21875,-0.4330902099609375
221860,-0.0554046630859375,-0.2138824462890625,-0.401214599609375
221861,-0.0518951416015625,-0.1907806396484375,-0.3262939453125
221862,-0.053497314453125,-0.166534423828125,-0.2466278076171875
221863,-0.065093994140625,-0.134552001953125,-0.2021331787109375
221864,-0.0556488037109375,0.07904052734375,-0.089111328125
221865,-0.0556488037109375,0.07904052734375,-0.089111328125
221866,-0.042083740234375,0.2347564697265625,0.041717529296875
221867,-0.107818603515625,0.494873046875,0.4385986328125
221868,-0.51654052734375,2.780319213867188,0.18701171875
221869,-0.51654052734375,2.780319213867188,0.18701171875
221870,-0.983642578125,4.8282470703125,0.002655029296875
221871,-0.983642578125,4.8282470703125,0.002655029296875
221872,0.3424835205078125,4.42303466796875,-0.62384033203125
221873,0.3424835205078125,4.42303466796875,-0.62384033203125
221874,1.147598266601562,3.5321044921875,-0.1009521484375
221875,1.979766845703125,2.452789306640625,0.2161102294921875
221876,1.390487670898438,1.167221069335938,-0.4248046875
221877,0.707366943359375,1.314788818359375,-0.455078125
221878,0.38629150390625,1.654922485351562,0.40313720703125
221879,0.2473907470703125,1.63055419921875,0.6756591796875
221880,-0.076171875,1.109939575195312,1.060821533203125
221881,-0.076171875,1.109939575195312,1.060821533203125
221882,-0.195159912109375,0.8430328369140625,1.0086669921875
221883,-0.21832275390625,0.6608123779296875,0.5640869140625
221884,-0.159027099609375,0.4492645263671875,0.348876953125
221885,-0.0939483642578125,0.26898193359375,0.2471923828125
221886,-0.0293731689453125,0.1444854736328125,0.162841796875
221887,-0.0293731689453125,0.1444854736328125,0.162841796875
221888,0.1132049560546875,0.04156494140625,-0.0241851806640625
221889,0.1132049560546875,0.04156494140625,-0.0241851806640625
221890,0.1365966796875,0.0446014404296875,-0.106048583984375
221891,0.1365966796875,0.0446014404296875,-0.106048583984375
221892,0.1613616943359375,-0.0326080322265625,-0.381805419921875
221893,0.1613616943359375,-0.0326080322265625,-0.381805419921875
221894,0.1670989990234375,-0.05340576171875,-0.4741668701171875
221895,0.1614532470703125,-0.0612030029296875,-0.489044189453125
221896,0.1134490966796875,-0.08990478515625,-0.3369598388671875
221897,0.1134490966796875,-0.08990478515625,-0.3369598388671875
221898,0.0784149169921875,-0.100830078125,-0.2290802001953125
221899,0.0490570068359375,-0.1011962890625,-0.1148681640625
221900,0.009765625,-0.065673828125,0.0097808837890625
221901,0.009765625,-0.065673828125,0.0097808837890625
221902,-0.0051727294921875,-0.054718017578125,0.0217742919921875
221903,-0.0203399658203125,-0.04669189453125,0.0240631103515625
221904,-0.041839599609375,-0.0248870849609375,0.026031494140625
221905,-0.041839599609375,-0.0248870849609375,0.026031494140625
221906,-0.0536041259765625,0.015533447265625,0.00408935546875
221907,-0.0515594482421875,0.079376220703125,-0.0384063720703125
221908,-0.0479736328125,0.1338653564453125,-0.08599853515625
221909,-0.0711212158203125,0.20977783203125,-0.1240081787109375
221910,-0.0874176025390625,0.670562744140625,-0.1531219482421875
221911,-0.121734619140625,2.195648193359375,-0.4653167724609375
221912,0.1123809814453125,5.871780395507812,-2.52880859375
221913,0.1123809814453125,5.871780395507812,-2.52880859375
221914,0.59112548828125,6.925735473632812,-1.788528442382812
221915,0.433074951171875,5.296554565429688,-0.8729705810546875
221916,0.290374755859375,2.95843505859375,-0.4340972900390625
221917,0.261993408203125,1.845870971679688,0.042236328125
221918,0.261993408203125,1.845870971679688,0.042236328125
221919,0.229583740234375,1.594192504882812,0.4566497802734375
221920,0.0034942626953125,1.587005615234375,1.049758911132812
221921,0.0034942626953125,1.587005615234375,1.049758911132812
221922,0.00518798828125,1.6434326171875,0.8003387451171875
221923,0.0699462890625,1.515853881835938,0.4289398193359375
221924,0.073028564453125,0.9743194580078124,0.2553863525390625
221925,0.073028564453125,0.9743194580078124,0.2553863525390625
221926,0.011566162109375,0.75341796875,0.3524627685546875
221927,-0.035003662109375,0.6261444091796875,0.3831787109375
221928,-0.084930419921875,0.442047119140625,0.064910888671875
221929,-0.084930419921875,0.442047119140625,0.064910888671875
221930,-0.1493988037109375,0.3461151123046875,-0.069854736328125
221931,-0.1949462890625,0.2620697021484375,-0.1627655029296875
221932,-0.2553253173828125,0.1744232177734375,-0.304168701171875
221933,-0.2553253173828125,0.1744232177734375,-0.304168701171875
221934,-0.27734375,0.1399688720703125,-0.4077606201171875
221935,-0.286834716796875,0.095245361328125,-0.4712677001953125
221936,-0.265106201171875,0.020263671875,-0.5018768310546875
221937,-0.1961517333984375,-0.0818939208984375,-0.503387451171875
221938,-0.124755859375,-0.17645263671875,-0.4450836181640625
221939,-0.072967529296875,-0.2248687744140625,-0.4011077880859375
221940,-0.0409088134765625,-0.22235107421875,-0.311248779296875
