time_idx,accelerometerAccelerationX(G),accelerometerAccelerationY(G),accelerometerAccelerationZ(G)
280000,-0.0405120849609375,1.034912109375,-0.0916900634765625
280001,0.027618408203125,0.96014404296875,-0.0932159423828125
280002,0.10516357421875,0.9207916259765624,-0.1059722900390625
280003,0.1863250732421875,0.9142303466796876,-0.115386962890625
280004,0.2735137939453125,0.9232330322265624,-0.1241912841796875
280005,0.3549346923828125,0.9334716796875,-0.1342926025390625
280006,0.39801025390625,0.9288482666015624,-0.1540985107421875
280007,0.3966827392578125,0.856201171875,-0.161468505859375
280008,0.3966827392578125,0.856201171875,-0.161468505859375
280009,0.371917724609375,0.8025360107421875,-0.1466522216796875
280010,0.3320465087890625,0.7462158203125,-0.1392059326171875
280011,0.29205322265625,0.695709228515625,-0.1435089111328125
280012,0.2611846923828125,0.6632843017578125,-0.1551513671875
280013,0.238067626953125,0.6514434814453125,-0.16522216796875
280014,0.2186431884765625,0.6427459716796875,-0.1662445068359375
280015,0.1986083984375,0.6311798095703125,-0.15362548828125
280016,0.1833648681640625,0.62042236328125,-0.1318511962890625
280017,0.1871185302734375,0.62286376953125,-0.1040496826171875
280018,0.238861083984375,0.6124267578125,-0.013397216796875
280019,0.238861083984375,0.6124267578125,-0.013397216796875
280020,0.238861083984375,0.6124267578125,-0.013397216796875
280021,0.258758544921875,0.6397857666015625,0.028778076171875
280022,0.2625732421875,0.704193115234375,0.0805816650390625
280023,0.2308197021484375,0.805511474609375,0.1275482177734375
280024,0.1836395263671875,0.8612060546875,0.103973388671875
280025,0.147003173828125,0.9031219482421876,0.037445068359375
280026,0.11541748046875,0.95831298828125,-0.04888916015625
280027,0.0702362060546875,1.012359619140625,-0.132476806640625
280028,0.0279541015625,1.056060791015625,-0.1929168701171875
280029,0.00311279296875,1.08819580078125,-0.224517822265625
280030,-0.003662109375,1.114776611328125,-0.233642578125
280031,0.00799560546875,1.122894287109375,-0.214019775390625
280032,0.0529327392578125,1.10858154296875,-0.1401519775390625
280033,0.1062774658203125,1.064910888671875,-0.030426025390625
280034,0.137115478515625,1.030609130859375,0.0561370849609375
280035,0.20556640625,1.003570556640625,0.1370849609375
280036,0.20556640625,1.003570556640625,0.1370849609375
280037,0.2368316650390625,1.000885009765625,0.163177490234375
280038,0.2368316650390625,1.000885009765625,0.163177490234375
280039,0.2535858154296875,1.091232299804688,0.2119293212890625
280040,0.2535858154296875,1.091232299804688,0.2119293212890625
280041,0.216400146484375,1.136062622070312,0.19024658203125
280042,0.167205810546875,1.17266845703125,0.131622314453125
280043,0.1303863525390625,1.215347290039062,0.0808563232421875
280044,0.11212158203125,1.258987426757812,0.0480804443359375
280045,0.11444091796875,1.30242919921875,0.021270751953125
280046,0.1429901123046875,1.3370361328125,0.0100555419921875
280047,0.179473876953125,1.346832275390625,0.0250396728515625
280048,0.197906494140625,1.299240112304688,0.0728302001953125
280049,0.2000579833984375,1.245162963867188,0.1280364990234375
280050,0.2017974853515625,1.195297241210938,0.159393310546875
280051,0.20379638671875,1.14483642578125,0.1650238037109375
280052,0.21002197265625,1.102920532226562,0.16412353515625
280053,0.2114715576171875,1.06689453125,0.1573333740234375
280054,0.2061614990234375,1.049270629882812,0.15087890625
280055,0.2049713134765625,1.055679321289062,0.1485443115234375
280056,0.214447021484375,1.070388793945312,0.136993408203125
280057,0.2422027587890625,1.08013916015625,0.1122283935546875
280058,0.2840118408203125,1.081405639648438,0.051239013671875
280059,0.30230712890625,1.0736083984375,0.0011444091796875
280060,0.306060791015625,1.031509399414062,-0.046142578125
280061,0.2935791015625,0.97235107421875,-0.07696533203125
280062,0.2678680419921875,0.8857269287109375,-0.096221923828125
280063,0.174560546875,0.696807861328125,-0.1285247802734375
280064,0.174560546875,0.696807861328125,-0.1285247802734375
280065,0.127593994140625,0.6354217529296875,-0.147552490234375
280066,0.056243896484375,0.5839996337890625,-0.1614837646484375
280067,-0.02508544921875,0.5376129150390625,-0.1759033203125
280068,-0.107757568359375,0.5139617919921875,-0.1675262451171875
280069,-0.180206298828125,0.5133056640625,-0.1427459716796875
280070,-0.2354278564453125,0.5200042724609375,-0.1181640625
280071,-0.2889862060546875,0.616424560546875,-0.07861328125
280072,-0.2889862060546875,0.616424560546875,-0.07861328125
280073,-0.2896728515625,0.663818359375,-0.101531982421875
280074,-0.257720947265625,0.716278076171875,-0.1573486328125
280075,-0.1962738037109375,0.8094635009765625,-0.262603759765625
280076,-0.08477783203125,0.9503173828125,-0.453094482421875
280077,0.0814971923828125,1.112411499023438,-0.6222686767578125
280078,0.280517578125,1.235992431640625,-0.6732635498046875
280079,0.4773406982421875,1.394821166992188,-0.722808837890625
280080,0.4773406982421875,1.394821166992188,-0.722808837890625
280081,0.497222900390625,1.432693481445312,-0.669158935546875
280082,0.4709930419921875,1.43756103515625,-0.5663299560546875
280083,0.408172607421875,1.390243530273438,-0.4583740234375
280084,0.3074951171875,1.289566040039062,-0.387451171875
280085,0.2144012451171875,1.211593627929688,-0.3260498046875
280086,0.1589813232421875,1.157028198242188,-0.2405242919921875
280087,0.12255859375,1.007781982421875,-0.03814697265625
280088,0.12255859375,1.007781982421875,-0.03814697265625
280089,0.1392974853515625,0.9066162109375,0.054534912109375
280090,0.15484619140625,0.827239990234375,0.1278533935546875
280091,0.1314544677734375,0.7644500732421875,0.224395751953125
280092,0.1314544677734375,0.7644500732421875,0.224395751953125
280093,0.0872039794921875,0.75994873046875,0.23699951171875
280094,0.0303192138671875,0.761962890625,0.22039794921875
280095,-0.086395263671875,0.818511962890625,0.1564178466796875
280096,-0.086395263671875,0.818511962890625,0.1564178466796875
280097,-0.1340789794921875,0.8809661865234375,0.125946044921875
280098,-0.1672821044921875,0.972869873046875,0.10699462890625
280099,-0.186920166015625,1.074569702148438,0.0994110107421875
280100,-0.190338134765625,1.178741455078125,0.0950775146484375
280101,-0.17596435546875,1.255264282226562,0.089019775390625
280102,-0.1444244384765625,1.312271118164062,0.062591552734375
280103,-0.0469970703125,1.375579833984375,-0.0455322265625
280104,-0.0469970703125,1.375579833984375,-0.0455322265625
280105,0.0009307861328125,1.385360717773438,-0.06793212890625
280106,0.0436859130859375,1.375091552734375,-0.06549072265625
280107,0.0828094482421875,1.369491577148438,-0.0513916015625
280108,0.1225433349609375,1.358657836914062,-0.061981201171875
280109,0.151153564453125,1.324127197265625,-0.0998687744140625
280110,0.162139892578125,1.26409912109375,-0.1201171875
280111,0.1495513916015625,1.104385375976562,-0.1074371337890625
280112,0.1495513916015625,1.104385375976562,-0.1074371337890625
280113,0.1474761962890625,1.026901245117188,-0.08685302734375
280114,0.1612548828125,0.9577484130859376,-0.0765533447265625
280115,0.19134521484375,0.904205322265625,-0.0963134765625
280116,0.2301483154296875,0.8779144287109375,-0.1335296630859375
280117,0.2684783935546875,0.87408447265625,-0.1761322021484375
280118,0.320770263671875,0.9054718017578124,-0.2624969482421875
280119,0.320770263671875,0.9054718017578124,-0.2624969482421875
280120,0.318389892578125,0.919677734375,-0.3052215576171875
280121,0.2967071533203125,0.92669677734375,-0.34954833984375
280122,0.2587127685546875,0.917999267578125,-0.390380859375
280123,0.20501708984375,0.8944091796875,-0.4095001220703125
280124,0.148101806640625,0.8641204833984375,-0.40679931640625
280125,0.1023101806640625,0.817596435546875,-0.3918304443359375
280126,0.0740966796875,0.7670440673828125,-0.3585205078125
280127,0.067230224609375,0.7235565185546875,-0.223785400390625
280128,0.067230224609375,0.7235565185546875,-0.223785400390625
280129,0.063507080078125,0.6920013427734375,-0.169677734375
280130,0.066436767578125,0.665374755859375,-0.113800048828125
280131,0.0780029296875,0.641387939453125,-0.0698089599609375
280132,0.095977783203125,0.6221466064453125,-0.0386199951171875
280133,0.1177825927734375,0.610595703125,-0.0072784423828125
280134,0.137969970703125,0.612884521484375,0.0271453857421875
280135,0.1602935791015625,0.62176513671875,0.0865325927734375
280136,0.1602935791015625,0.62176513671875,0.0865325927734375
280137,0.163360595703125,0.64013671875,0.1175384521484375
280138,0.1684112548828125,0.6652374267578125,0.15972900390625
280139,0.1938934326171875,0.740447998046875,0.210906982421875
280140,0.1938934326171875,0.740447998046875,0.210906982421875
280141,0.2170562744140625,0.790557861328125,0.2022247314453125
280142,0.240966796875,0.8469696044921875,0.1898345947265625
280143,0.25775146484375,0.9584808349609376,0.1240692138671875
280144,0.25775146484375,0.9584808349609376,0.1240692138671875
280145,0.2548370361328125,1.010086059570312,0.0529022216796875
280146,0.2506866455078125,1.071029663085938,-0.021392822265625
280147,0.251617431640625,1.1348876953125,-0.097686767578125
280148,0.2474365234375,1.220672607421875,-0.1789703369140625
280149,0.2451324462890625,1.335769653320312,-0.23291015625
280150,0.1859130859375,1.519973754882812,-0.2752532958984375
280151,0.1859130859375,1.519973754882812,-0.2752532958984375
280152,0.1320648193359375,1.524215698242188,-0.288360595703125
280153,0.084259033203125,1.479446411132812,-0.3445587158203125
280154,0.052459716796875,1.451126098632812,-0.3993377685546875
280155,0.058135986328125,1.424102783203125,-0.4446258544921875
280156,0.0789947509765625,1.372833251953125,-0.44140625
280157,0.1076202392578125,1.311538696289062,-0.38775634765625
280158,0.1437530517578125,1.246658325195312,-0.3377532958984375
280159,0.1990203857421875,1.19537353515625,-0.292877197265625
280160,0.251220703125,1.160903930664062,-0.2177581787109375
280161,0.251220703125,1.160903930664062,-0.2177581787109375
280162,0.282257080078125,1.122802734375,-0.1728515625
280163,0.3060302734375,1.0535888671875,-0.11395263671875
280164,0.3060302734375,1.0535888671875,-0.11395263671875
280165,0.278533935546875,1.022674560546875,-0.06756591796875
280166,0.2404632568359375,1.0047607421875,-0.06219482421875
280167,0.2017059326171875,0.992218017578125,-0.0568695068359375
280168,0.1661834716796875,0.983489990234375,-0.0514373779296875
280169,0.1346893310546875,0.9761199951171876,-0.04156494140625
280170,0.0961761474609375,0.9675750732421876,-0.0239410400390625
280171,0.04522705078125,0.9626312255859376,-0.0020294189453125
280172,-0.00421142578125,0.9568634033203124,0.0261993408203125
280173,-0.0453338623046875,0.9534759521484376,0.030426025390625
280174,-0.0728607177734375,0.9510955810546876,0.0081634521484375
280175,-0.072601318359375,0.9711761474609376,-0.0401153564453125
280176,-0.072601318359375,0.9711761474609376,-0.0401153564453125
280177,-0.0633392333984375,0.983673095703125,-0.0285797119140625
280178,-0.046539306640625,1.00543212890625,-0.0137786865234375
280179,-0.046539306640625,1.00543212890625,-0.0137786865234375
280180,-0.0308837890625,1.000411987304688,-0.0385894775390625
280181,-0.016357421875,0.9870147705078124,-0.072052001953125
280182,-0.002593994140625,0.9696044921875,-0.1012420654296875
280183,0.007354736328125,0.9508819580078124,-0.1180267333984375
280184,0.014862060546875,0.9396820068359376,-0.114410400390625
280185,0.0213165283203125,0.9387359619140624,-0.092437744140625
280186,0.0319671630859375,0.9414825439453124,-0.080047607421875
280187,0.0462188720703125,0.9558258056640624,-0.07830810546875
280188,0.062408447265625,0.972137451171875,-0.0831298828125
280189,0.0904998779296875,0.9969329833984376,-0.0824127197265625
280190,0.12396240234375,1.024993896484375,-0.0840911865234375
280191,0.198699951171875,1.075515747070312,-0.1121368408203125
280192,0.198699951171875,1.075515747070312,-0.1121368408203125
280193,0.2236175537109375,1.078369140625,-0.131103515625
280194,0.2141571044921875,1.036849975585938,-0.1304168701171875
280195,0.2141571044921875,1.036849975585938,-0.1304168701171875
280196,0.190582275390625,1.011123657226562,-0.097015380859375
280197,0.1684112548828125,0.9873046875,-0.0701446533203125
280198,0.155609130859375,0.970550537109375,-0.04937744140625
280199,0.1463470458984375,0.960845947265625,-0.029327392578125
280200,0.135284423828125,0.948638916015625,-0.0085296630859375
280201,0.122222900390625,0.9386749267578124,0.0124359130859375
280202,0.1010284423828125,0.92950439453125,0.0283966064453125
280203,0.0743255615234375,0.92156982421875,0.037445068359375
280204,0.0484161376953125,0.91552734375,0.0426483154296875
280205,0.0255584716796875,0.9119110107421876,0.0480499267578125
280206,-0.0081024169921875,0.9204559326171876,0.0509796142578125
280207,-0.0081024169921875,0.9204559326171876,0.0509796142578125
280208,-0.0185394287109375,0.9298095703125,0.045257568359375
280209,-0.02862548828125,0.9264068603515624,0.0337677001953125
280210,-0.0367431640625,0.9168243408203124,0.01171875
280211,-0.0443115234375,0.8931732177734375,-0.0125732421875
280212,-0.0571136474609375,0.85546875,-0.02972412109375
280213,-0.072906494140625,0.8122406005859375,-0.023895263671875
280214,-0.085357666015625,0.7678985595703125,-0.0059814453125
280215,-0.1135101318359375,0.6786041259765625,0.003509521484375
280216,-0.1135101318359375,0.6786041259765625,0.003509521484375
280217,-0.1351776123046875,0.63165283203125,0.010101318359375
280218,-0.15924072265625,0.5899810791015625,0.00982666015625
280219,-0.2124481201171875,0.5356292724609375,0.0123443603515625
280220,-0.2124481201171875,0.5356292724609375,0.0123443603515625
280221,-0.2495269775390625,0.532745361328125,0.017181396484375
280222,-0.28070068359375,0.55865478515625,0.030181884765625
280223,-0.301025390625,0.6161956787109375,0.039947509765625
280224,-0.3069610595703125,0.7046051025390625,0.038482666015625
280225,-0.2881011962890625,0.8096160888671875,0.0167999267578125
280226,-0.233245849609375,0.912811279296875,-0.00189208984375
280227,-0.1683349609375,0.9969024658203124,-0.0065460205078125
280228,-0.1135101318359375,1.075332641601562,0.0124053955078125
280229,-0.066314697265625,1.145584106445312,0.0399932861328125
280230,0.0021820068359375,1.270950317382812,0.0242919921875
280231,0.0021820068359375,1.270950317382812,0.0242919921875
280232,0.025054931640625,1.3321533203125,-0.02740478515625
280233,0.0386199951171875,1.4039306640625,-0.0964813232421875
280234,0.0380706787109375,1.473709106445312,-0.1484222412109375
280235,0.0162353515625,1.506759643554688,-0.120697021484375
280236,0.0162353515625,1.506759643554688,-0.120697021484375
280237,-0.00714111328125,1.447525024414062,-0.089752197265625
280238,-0.0092926025390625,1.350494384765625,-0.0859222412109375
280239,0.0016937255859375,1.2650146484375,-0.099761962890625
280240,0.015289306640625,1.210296630859375,-0.111083984375
280241,0.0314178466796875,1.1697998046875,-0.119140625
280242,0.0419769287109375,1.128646850585938,-0.1282501220703125
280243,0.0485076904296875,1.072463989257812,-0.124908447265625
280244,0.04217529296875,1.032806396484375,-0.1009521484375
280245,0.0262298583984375,0.9920654296875,-0.063262939453125
280246,0.009033203125,0.9759063720703124,-0.0195770263671875
280247,-0.02532958984375,0.9840087890625,0.007293701171875
280248,-0.0708160400390625,0.973358154296875,0.0166473388671875
280249,-0.104339599609375,0.97216796875,0.0164642333984375
280250,-0.1270599365234375,0.97454833984375,-0.0061492919921875
280251,-0.1281585693359375,0.9720458984375,-0.024383544921875
280252,-0.1196136474609375,0.97845458984375,-0.0123748779296875
280253,-0.107330322265625,0.97137451171875,0.0194091796875
280254,-0.069976806640625,0.9618682861328124,0.0940093994140625
280255,-0.069976806640625,0.9618682861328124,0.0940093994140625
280256,-0.0687408447265625,0.9572906494140624,0.1080474853515625
280257,-0.0784149169921875,0.9576568603515624,0.106536865234375
280258,-0.08428955078125,0.9636383056640624,0.103179931640625
280259,-0.0906219482421875,0.9796905517578124,0.1208343505859375
280260,-0.093231201171875,1.000869750976562,0.14794921875
280261,-0.0923309326171875,1.028762817382812,0.1767425537109375
280262,-0.0792083740234375,1.052154541015625,0.19073486328125
280263,-0.066925048828125,1.071914672851562,0.178192138671875
280264,-0.05169677734375,1.07171630859375,0.1581268310546875
280265,-0.0389251708984375,1.0723876953125,0.1406402587890625
280266,-0.0506134033203125,1.05999755859375,0.149261474609375
280267,-0.0506134033203125,1.05999755859375,0.149261474609375
280268,-0.05853271484375,1.050979614257812,0.1590576171875
280269,-0.05853271484375,1.050979614257812,0.1590576171875
280270,-0.0452423095703125,1.058242797851562,0.1328582763671875
280271,-0.038299560546875,1.065353393554688,0.113311767578125
280272,-0.03289794921875,1.06573486328125,0.0938262939453125
280273,-0.02655029296875,1.050918579101562,0.0720672607421875
280274,-0.0119781494140625,1.024124145507812,0.0535125732421875
280275,0.01470947265625,0.987548828125,0.041595458984375
280276,0.0450439453125,0.9525146484375,0.04345703125
280277,0.0739288330078125,0.923828125,0.0557403564453125
280278,0.113494873046875,0.8932342529296875,0.0802154541015625
280279,0.113494873046875,0.8932342529296875,0.0802154541015625
280280,0.117767333984375,0.895965576171875,0.08917236328125
280281,0.10723876953125,0.9083709716796876,0.08941650390625
280282,0.0887298583984375,0.9205322265625,0.076141357421875
280283,0.0681304931640625,0.9260406494140624,0.0587921142578125
280284,0.0501708984375,0.9207763671875,0.0478515625
280285,0.0361328125,0.9098968505859376,0.0377197265625
280286,0.02001953125,0.8978424072265625,0.028289794921875
280287,0.0048828125,0.895233154296875,0.0266571044921875
280288,-0.0093231201171875,0.8952484130859375,0.0228424072265625
280289,-0.0197296142578125,0.89630126953125,0.0100250244140625
280290,-0.0229644775390625,0.903106689453125,0.006805419921875
280291,-0.0219268798828125,0.905120849609375,0.01806640625
280292,-0.01678466796875,0.9010772705078124,0.03558349609375
280293,-0.005615234375,0.895660400390625,0.0536956787109375
280294,0.010772705078125,0.8883209228515625,0.0678253173828125
280295,0.027587890625,0.8824615478515625,0.088226318359375
280296,0.04815673828125,0.8712921142578125,0.1230926513671875
280297,0.0699310302734375,0.855987548828125,0.156524658203125
280298,0.0881500244140625,0.8361053466796875,0.1769866943359375
280299,0.0959014892578125,0.815948486328125,0.189910888671875
280300,0.091827392578125,0.7956390380859375,0.197265625
280301,0.087982177734375,0.782928466796875,0.2028045654296875
280302,0.092071533203125,0.7811737060546875,0.2193603515625
280303,0.105743408203125,0.8004913330078125,0.2419586181640625
280304,0.1165313720703125,0.8286895751953125,0.2587127685546875
280305,0.119873046875,0.854888916015625,0.2623748779296875
280306,0.1100311279296875,0.8922882080078125,0.2388763427734375
280307,0.0938568115234375,0.930694580078125,0.1962890625
280308,0.069976806640625,0.9696502685546876,0.144195556640625
280309,0.069976806640625,0.9696502685546876,0.144195556640625
280310,0.020965576171875,1.069992065429688,0.027130126953125
280311,0.0043792724609375,1.12628173828125,-0.03875732421875
280312,0.000885009765625,1.181838989257812,-0.0993194580078125
280313,0.010498046875,1.231948852539062,-0.1442718505859375
280314,0.0364532470703125,1.265625,-0.1777496337890625
280315,0.0653533935546875,1.287948608398438,-0.2048797607421875
280316,0.0885467529296875,1.288986206054688,-0.23516845703125
280317,0.099090576171875,1.272445678710938,-0.263153076171875
280318,0.100250244140625,1.242538452148438,-0.2956695556640625
280319,0.0853271484375,1.147384643554688,-0.3408203125
280320,0.0853271484375,1.147384643554688,-0.3408203125
280321,0.0761871337890625,1.097946166992188,-0.359954833984375
280322,0.0708770751953125,1.050567626953125,-0.3639984130859375
280323,0.064361572265625,1.018905639648438,-0.3442535400390625
280324,0.055877685546875,1.009002685546875,-0.308990478515625
280325,0.04034423828125,0.99560546875,-0.2751312255859375
280326,0.019500732421875,0.986602783203125,-0.2376708984375
280327,-0.0012969970703125,0.97857666015625,-0.19720458984375
280328,-0.0198974609375,0.9711151123046876,-0.16595458984375
280329,-0.0460205078125,0.9758453369140624,-0.1335296630859375
280330,-0.073883056640625,0.9937744140625,-0.0973052978515625
280331,-0.1005401611328125,1.017974853515625,-0.0594940185546875
280332,-0.1260833740234375,1.045074462890625,-0.016998291015625
280333,-0.1494598388671875,1.066131591796875,0.0090789794921875
280334,-0.2282867431640625,1.134384155273438,0.1395111083984375
280335,-0.2282867431640625,1.134384155273438,0.1395111083984375
280336,-0.2282867431640625,1.134384155273438,0.1395111083984375
280337,-0.254730224609375,1.158584594726562,0.190093994140625
280338,-0.275054931640625,1.219146728515625,0.21136474609375
280339,-0.275054931640625,1.219146728515625,0.21136474609375
280340,-0.258636474609375,1.235488891601562,0.15826416015625
280341,-0.2056732177734375,1.238906860351562,0.092071533203125
280342,-0.0865631103515625,1.188461303710938,0.0322723388671875
280343,-0.0865631103515625,1.188461303710938,0.0322723388671875
280344,-0.0630645751953125,1.124053955078125,0.0506744384765625
280345,-0.0503692626953125,1.061325073242188,0.064117431640625
280346,-0.0490264892578125,0.959564208984375,0.0969085693359375
280347,-0.0490264892578125,0.959564208984375,0.0969085693359375
280348,-0.0561981201171875,0.9227294921875,0.08935546875
280349,-0.0546722412109375,0.8941802978515625,0.0618438720703125
280350,-0.0472412109375,0.8828887939453125,0.0172271728515625
280351,-0.04498291015625,0.8802337646484375,-0.02301025390625
280352,-0.0437164306640625,0.8639984130859375,-0.045013427734375
280353,-0.0469207763671875,0.8552703857421875,-0.0455169677734375
280354,-0.0502166748046875,0.85174560546875,-0.0435638427734375
280355,-0.0555267333984375,0.8473358154296875,-0.048431396484375
280356,-0.0646820068359375,0.8401031494140625,-0.0530242919921875
280357,-0.07415771484375,0.82757568359375,-0.0614013671875
280358,-0.0866851806640625,0.814453125,-0.0664215087890625
280359,-0.1000823974609375,0.8085174560546875,-0.0803680419921875
280360,-0.1121673583984375,0.8041534423828125,-0.10638427734375
280361,-0.12115478515625,0.79718017578125,-0.1280059814453125
280362,-0.12744140625,0.78485107421875,-0.1771697998046875
280363,-0.12744140625,0.78485107421875,-0.1771697998046875
280364,-0.123443603515625,0.7718658447265625,-0.18341064453125
280365,-0.10980224609375,0.7755126953125,-0.1691741943359375
280366,-0.0771331787109375,0.82000732421875,-0.145721435546875
280367,-0.0072174072265625,0.966766357421875,-0.127899169921875
280368,-0.0072174072265625,0.966766357421875,-0.127899169921875
280369,0.01409912109375,0.9716033935546876,-0.1333770751953125
280370,0.0372314453125,0.973663330078125,-0.140625
280371,0.0644989013671875,0.9852142333984376,-0.1568603515625
280372,0.0897216796875,1.003814697265625,-0.171051025390625
280373,0.10302734375,1.030960083007812,-0.166412353515625
280374,0.09033203125,1.06195068359375,-0.130584716796875
280375,0.051483154296875,1.094512939453125,-0.0608978271484375
280376,0.009735107421875,1.119979858398438,-0.0105743408203125
280377,-0.0174407958984375,1.1396484375,-0.0084991455078125
280378,-0.0463714599609375,1.176559448242188,-0.062652587890625
280379,-0.0463714599609375,1.176559448242188,-0.062652587890625
280380,-0.069793701171875,1.17431640625,-0.0629730224609375
280381,-0.089935302734375,1.150009155273438,-0.0326690673828125
280382,-0.102142333984375,1.097702026367188,0.0011749267578125
280383,-0.1012420654296875,1.04052734375,0.0255584716796875
280384,-0.0839080810546875,1.004806518554688,0.0452728271484375
280385,-0.0556640625,0.98486328125,0.066986083984375
280386,-0.0294342041015625,0.97991943359375,0.087982177734375
280387,-0.012542724609375,0.9838714599609376,0.10858154296875
280388,-0.0050201416015625,0.9945068359375,0.1221466064453125
280389,-0.0031585693359375,1.0093994140625,0.1196441650390625
280390,-0.007476806640625,1.031539916992188,0.108917236328125
280391,-0.0120697021484375,1.047714233398438,0.0980224609375
280392,-0.016204833984375,1.059768676757812,0.0863800048828125
280393,-0.022430419921875,1.062454223632812,0.0759735107421875
280394,-0.0228729248046875,1.058151245117188,0.06671142578125
280395,-0.0165863037109375,1.049407958984375,0.0565948486328125
280396,-0.009368896484375,1.038726806640625,0.045013427734375
280397,0.0052642822265625,1.027816772460938,0.037353515625
280398,0.024200439453125,1.016220092773438,0.0316925048828125
280399,0.0397491455078125,1.0037841796875,0.0287933349609375
280400,0.04608154296875,0.9901123046875,0.0254364013671875
280401,0.04986572265625,0.9698028564453124,0.018524169921875
280402,0.04925537109375,0.952789306640625,0.0019683837890625
280403,0.0418701171875,0.9363861083984376,-0.0175628662109375
280404,0.02862548828125,0.9217529296875,-0.040924072265625
280405,0.012451171875,0.9037933349609376,-0.05120849609375
280406,-0.02825927734375,0.9145050048828124,-0.05841064453125
280407,-0.02825927734375,0.9145050048828124,-0.05841064453125
280408,-0.047698974609375,0.9242401123046876,-0.0609130859375
280409,-0.061798095703125,0.9359588623046876,-0.060455322265625
280410,-0.069244384765625,0.969207763671875,-0.0814361572265625
280411,-0.069244384765625,0.969207763671875,-0.0814361572265625
280412,-0.0643157958984375,0.9697418212890624,-0.1021270751953125
280413,-0.0589447021484375,0.9579010009765624,-0.123809814453125
280414,-0.0509796142578125,0.933807373046875,-0.145660400390625
280415,-0.031219482421875,0.866851806640625,-0.1840362548828125
280416,-0.031219482421875,0.866851806640625,-0.1840362548828125
280417,-0.0069732666015625,0.8485107421875,-0.1968994140625
280418,0.0568084716796875,0.8305206298828125,-0.207916259765625
280419,0.0568084716796875,0.8305206298828125,-0.207916259765625
280420,0.0916595458984375,0.839447021484375,-0.2017669677734375
280421,0.123748779296875,0.8585357666015625,-0.186614990234375
280422,0.1493072509765625,0.8941650390625,-0.169281005859375
280423,0.1672210693359375,0.974212646484375,-0.1318817138671875
280424,0.185272216796875,1.043991088867188,-0.117156982421875
280425,0.185546875,1.0679931640625,-0.1641387939453125
280426,0.174468994140625,1.061355590820312,-0.2530975341796875
280427,0.174468994140625,1.061355590820312,-0.2530975341796875
280428,0.160186767578125,1.067855834960938,-0.2851409912109375
280429,0.1433258056640625,1.062881469726562,-0.316986083984375
280430,0.1326751708984375,1.079864501953125,-0.3329315185546875
280431,0.1264801025390625,1.096527099609375,-0.3410186767578125
280432,0.1175384521484375,1.100692749023438,-0.335418701171875
280433,0.10980224609375,1.067672729492188,-0.330474853515625
280434,0.1041259765625,1.008407592773438,-0.324554443359375
280435,0.0953521728515625,0.94036865234375,-0.269775390625
280436,0.0953521728515625,0.94036865234375,-0.269775390625
280437,0.0968017578125,0.9282379150390624,-0.268310546875
280438,0.1098785400390625,0.9683837890625,-0.2454376220703125
280439,0.1098785400390625,0.9683837890625,-0.2454376220703125
280440,0.112060546875,0.9826507568359376,-0.2240753173828125
280441,0.107147216796875,0.97552490234375,-0.21063232421875
280442,0.102691650390625,0.9665374755859376,-0.2148895263671875
280443,0.108795166015625,0.953857421875,-0.241302490234375
280444,0.1208038330078125,0.9523162841796876,-0.2719879150390625
280445,0.1399078369140625,0.9601287841796876,-0.3121185302734375
280446,0.1990509033203125,0.961181640625,-0.4190673828125
280447,0.1990509033203125,0.961181640625,-0.4190673828125
280448,0.2130889892578125,0.9605255126953124,-0.4473876953125
280449,0.19775390625,0.9522247314453124,-0.4481658935546875
280450,0.1693115234375,0.91943359375,-0.431488037109375
280451,0.124420166015625,0.896392822265625,-0.4019775390625
280452,0.0800018310546875,0.8845367431640625,-0.3581390380859375
280453,0.0547027587890625,0.8864288330078125,-0.282745361328125
280454,0.05755615234375,0.8532257080078125,-0.260467529296875
280455,0.05755615234375,0.8532257080078125,-0.260467529296875
280456,0.0784454345703125,0.821319580078125,-0.28314208984375
280457,0.1035003662109375,0.8013153076171875,-0.31549072265625
280458,0.1268310546875,0.8016815185546875,-0.326446533203125
280459,0.15570068359375,0.81048583984375,-0.3419952392578125
280460,0.17694091796875,0.8386383056640625,-0.3726348876953125
280461,0.19549560546875,0.863922119140625,-0.398529052734375
280462,0.2288970947265625,0.91839599609375,-0.395294189453125
280463,0.2288970947265625,0.91839599609375,-0.395294189453125
280464,0.2319793701171875,0.92999267578125,-0.3751373291015625
280465,0.234100341796875,0.9328460693359376,-0.3396148681640625
280466,0.2269287109375,0.923553466796875,-0.31805419921875
280467,0.21337890625,0.9068603515625,-0.2893829345703125
280468,0.20428466796875,0.89495849609375,-0.2677459716796875
280469,0.2029876708984375,0.895599365234375,-0.2592010498046875
280470,0.2102508544921875,0.91363525390625,-0.2866973876953125
280471,0.2102508544921875,0.91363525390625,-0.2866973876953125
280472,0.220245361328125,0.9121246337890624,-0.3074951171875
280473,0.2237091064453125,0.9190521240234376,-0.3199462890625
280474,0.209503173828125,0.9688568115234376,-0.30096435546875
280475,0.209503173828125,0.9688568115234376,-0.30096435546875
280476,0.190887451171875,1.002960205078125,-0.2874298095703125
280477,0.1975555419921875,0.9952392578125,-0.3121337890625
280478,0.2097930908203125,0.9825592041015624,-0.3258819580078125
280479,0.214630126953125,0.9756622314453124,-0.3231964111328125
280480,0.222900390625,0.97021484375,-0.330413818359375
280481,0.2342681884765625,0.981658935546875,-0.3210906982421875
280482,0.246124267578125,0.9854736328125,-0.3396453857421875
280483,0.246124267578125,0.9854736328125,-0.3396453857421875
280484,0.255126953125,0.980926513671875,-0.3359527587890625
280485,0.2589874267578125,0.9757537841796876,-0.346099853515625
280486,0.253814697265625,0.9933013916015624,-0.319061279296875
280487,0.248016357421875,0.98681640625,-0.320159912109375
280488,0.2425994873046875,0.9781036376953124,-0.3203887939453125
280489,0.2315216064453125,0.9790496826171876,-0.30548095703125
280490,0.2159881591796875,0.981597900390625,-0.2789459228515625
280491,0.206390380859375,0.965545654296875,-0.252777099609375
280492,0.1970062255859375,0.9591217041015624,-0.2314453125
280493,0.1896209716796875,0.9666748046875,-0.1971893310546875
280494,0.1883544921875,0.965576171875,-0.1930084228515625
280495,0.1903533935546875,0.9578857421875,-0.1934814453125
280496,0.1958160400390625,0.955657958984375,-0.1966400146484375
280497,0.1958160400390625,0.955657958984375,-0.1966400146484375
280498,0.198089599609375,0.96697998046875,-0.1734771728515625
280499,0.19952392578125,0.975982666015625,-0.152984619140625
280500,0.200103759765625,0.988006591796875,-0.1385955810546875
280501,0.1990814208984375,0.997528076171875,-0.125732421875
280502,0.1969146728515625,0.994598388671875,-0.1297607421875
280503,0.1942291259765625,0.9864349365234376,-0.1405181884765625
280504,0.19146728515625,0.9722747802734376,-0.14959716796875
280505,0.1915740966796875,0.955322265625,-0.1580047607421875
280506,0.193023681640625,0.939697265625,-0.15997314453125
280507,0.18603515625,0.9263916015625,-0.1653594970703125
280508,0.1785736083984375,0.9235382080078124,-0.159393310546875
280509,0.1710052490234375,0.926666259765625,-0.158721923828125
280510,0.1705780029296875,0.931121826171875,-0.156005859375
280511,0.17523193359375,0.9403076171875,-0.14898681640625
280512,0.1822357177734375,0.94866943359375,-0.14117431640625
280513,0.191253662109375,0.954437255859375,-0.1313934326171875
280514,0.19891357421875,0.958038330078125,-0.11932373046875
280515,0.201904296875,0.96258544921875,-0.10528564453125
280516,0.2016143798828125,0.9621429443359376,-0.09295654296875
280517,0.19158935546875,0.95843505859375,-0.0852203369140625
280518,0.1669158935546875,0.976165771484375,-0.0656585693359375
280519,0.1669158935546875,0.976165771484375,-0.0656585693359375
280520,0.165924072265625,0.999176025390625,-0.0561370849609375
280521,0.170654296875,1.025527954101562,-0.0508270263671875
280522,0.1821746826171875,1.05206298828125,-0.0567626953125
280523,0.19415283203125,1.061187744140625,-0.0716705322265625
280524,0.19415283203125,1.061187744140625,-0.0716705322265625
280525,0.20050048828125,1.053024291992188,-0.0904541015625
280526,0.242431640625,1.002471923828125,-0.1422882080078125
280527,0.24407958984375,0.98382568359375,-0.1414947509765625
280528,0.2559814453125,0.973907470703125,-0.1226959228515625
280529,0.27178955078125,0.978912353515625,-0.1077880859375
280530,0.2829742431640625,0.9980316162109376,-0.1041412353515625
280531,0.2714080810546875,0.9925537109375,-0.1305999755859375
280532,0.261138916015625,0.97796630859375,-0.13360595703125
280533,0.259765625,0.9761810302734376,-0.1235809326171875
280534,0.2473907470703125,0.9773406982421876,-0.121612548828125
280535,0.2325592041015625,0.9871673583984376,-0.1068267822265625
280536,0.2325592041015625,0.9871673583984376,-0.1068267822265625
280537,0.2197418212890625,1.002853393554688,-0.099761962890625
280538,0.1972808837890625,1.004989624023438,-0.1259307861328125
280539,0.19073486328125,0.9725341796875,-0.140167236328125
280540,0.1921234130859375,0.9264678955078124,-0.1490020751953125
280541,0.1948089599609375,0.879180908203125,-0.157440185546875
280542,0.193634033203125,0.84747314453125,-0.1729278564453125
280543,0.1884307861328125,0.80584716796875,-0.1906280517578125
280544,0.1903076171875,0.7733154296875,-0.2128753662109375
280545,0.195220947265625,0.777557373046875,-0.249908447265625
280546,0.202239990234375,0.7993621826171875,-0.29638671875
280547,0.2060546875,0.8236846923828125,-0.3453216552734375
280548,0.2012481689453125,0.8553314208984375,-0.3801422119140625
280549,0.1942138671875,0.9083251953125,-0.34918212890625
280550,0.19000244140625,0.94073486328125,-0.2984771728515625
280551,0.1995697021484375,0.9270477294921876,-0.3251190185546875
280552,0.2177581787109375,0.93035888671875,-0.3260955810546875
280553,0.230316162109375,0.928741455078125,-0.3259735107421875
280554,0.2433013916015625,0.9009246826171876,-0.321563720703125
280555,0.2433013916015625,0.9009246826171876,-0.321563720703125
280556,0.2454986572265625,0.8791046142578125,-0.309722900390625
280557,0.2441558837890625,0.861572265625,-0.2996978759765625
280558,0.24273681640625,0.8566131591796875,-0.294281005859375
280559,0.2415924072265625,0.8592987060546875,-0.28668212890625
280560,0.2432403564453125,0.875030517578125,-0.2829132080078125
280561,0.2471771240234375,0.8993988037109375,-0.288726806640625
280562,0.2624053955078125,0.937408447265625,-0.288787841796875
280563,0.2624053955078125,0.937408447265625,-0.288787841796875
280564,0.2605743408203125,0.949005126953125,-0.2824859619140625
280565,0.249969482421875,0.948028564453125,-0.2690277099609375
280566,0.2368621826171875,0.9464569091796876,-0.2520294189453125
280567,0.2368621826171875,0.9464569091796876,-0.2520294189453125
280568,0.253387451171875,0.950103759765625,-0.261932373046875
280569,0.253387451171875,0.950103759765625,-0.261932373046875
280570,0.2860260009765625,0.9487152099609376,-0.3023223876953125
280571,0.2860260009765625,0.9487152099609376,-0.3023223876953125
280572,0.293212890625,0.9506072998046876,-0.294708251953125
280573,0.2988433837890625,0.9515838623046876,-0.290496826171875
280574,0.2972259521484375,0.95098876953125,-0.290374755859375
280575,0.2972259521484375,0.95098876953125,-0.290374755859375
280576,0.2949676513671875,0.9497833251953124,-0.2978515625
280577,0.291748046875,0.9503631591796876,-0.298309326171875
280578,0.28387451171875,0.94476318359375,-0.3019561767578125
280579,0.27239990234375,0.93511962890625,-0.3032989501953125
280580,0.2644500732421875,0.9326019287109376,-0.30303955078125
280581,0.26885986328125,0.9284210205078124,-0.312164306640625
280582,0.269439697265625,0.93402099609375,-0.312408447265625
280583,0.269439697265625,0.93402099609375,-0.312408447265625
280584,0.269439697265625,0.93402099609375,-0.312408447265625
280585,0.2595062255859375,0.9369659423828124,-0.30535888671875
280586,0.2307586669921875,0.9504852294921876,-0.291168212890625
280587,0.2204437255859375,0.95538330078125,-0.2867889404296875
280588,0.2141876220703125,0.9552459716796876,-0.287689208984375
280589,0.2068023681640625,0.95648193359375,-0.286407470703125
280590,0.1973419189453125,0.9593963623046876,-0.28375244140625
280591,0.1918182373046875,0.9698333740234376,-0.27996826171875
280592,0.1887969970703125,0.980316162109375,-0.27191162109375
280593,0.1929931640625,0.971527099609375,-0.2775421142578125
280594,0.20098876953125,0.9640045166015624,-0.2765350341796875
280595,0.2049102783203125,0.9534454345703124,-0.2815399169921875
280596,0.21038818359375,0.9359588623046876,-0.2910308837890625
280597,0.2150421142578125,0.9210357666015624,-0.297698974609375
280598,0.2145843505859375,0.9244537353515624,-0.2829437255859375
280599,0.2108154296875,0.9357147216796876,-0.266815185546875
280600,0.209930419921875,0.9467315673828124,-0.2498016357421875
280601,0.2131805419921875,0.95428466796875,-0.2253570556640625
280602,0.214996337890625,0.9613189697265624,-0.19244384765625
280603,0.2128753662109375,0.970916748046875,-0.144256591796875
280604,0.2146453857421875,0.98748779296875,-0.0992889404296875
280605,0.226806640625,1.00592041015625,-0.078369140625
280606,0.243804931640625,1.007598876953125,-0.0962371826171875
280607,0.2569427490234375,0.9957733154296876,-0.1148529052734375
280608,0.2587432861328125,0.9720306396484376,-0.146820068359375
280609,0.2542877197265625,0.9511871337890624,-0.1682586669921875
280610,0.2347564697265625,0.9422760009765624,-0.1821136474609375
280611,0.2347564697265625,0.9422760009765624,-0.1821136474609375
280612,0.2237396240234375,0.947235107421875,-0.176177978515625
280613,0.2159576416015625,0.9542083740234376,-0.1712188720703125
280614,0.206939697265625,0.9551239013671876,-0.1761016845703125
280615,0.2008056640625,0.9542236328125,-0.1893768310546875
280616,0.2046051025390625,0.95135498046875,-0.2085723876953125
280617,0.2104034423828125,0.9449005126953124,-0.2289581298828125
280618,0.22698974609375,0.938690185546875,-0.2491912841796875
280619,0.22698974609375,0.938690185546875,-0.2491912841796875
280620,0.231842041015625,0.9399566650390624,-0.2473297119140625
280621,0.2364349365234375,0.943267822265625,-0.24493408203125
280622,0.242401123046875,0.9499969482421876,-0.241668701171875
280623,0.2471771240234375,0.9553680419921876,-0.236175537109375
280624,0.2470855712890625,0.95684814453125,-0.230194091796875
280625,0.2385711669921875,0.952606201171875,-0.2321929931640625
280626,0.2230072021484375,0.9398040771484376,-0.228851318359375
280627,0.2230072021484375,0.9398040771484376,-0.228851318359375
280628,0.2116851806640625,0.936859130859375,-0.2250518798828125
280629,0.2030792236328125,0.9337615966796876,-0.2193603515625
280630,0.197296142578125,0.9302520751953124,-0.21514892578125
280631,0.1961517333984375,0.922088623046875,-0.210845947265625
280632,0.198883056640625,0.9157562255859376,-0.20977783203125
280633,0.2068939208984375,0.911102294921875,-0.2048797607421875
280634,0.2474822998046875,0.9315338134765624,-0.1621246337890625
280635,0.2474822998046875,0.9315338134765624,-0.1621246337890625
280636,0.2474822998046875,0.9315338134765624,-0.1621246337890625
280637,0.253448486328125,0.94287109375,-0.1384429931640625
280638,0.25933837890625,0.9510650634765624,-0.119293212890625
280639,0.26141357421875,0.955108642578125,-0.114593505859375
280640,0.26397705078125,0.9571990966796876,-0.115386962890625
280641,0.2606201171875,0.95477294921875,-0.1102447509765625
280642,0.256866455078125,0.9487762451171876,-0.1103973388671875
280643,0.254974365234375,0.9406280517578124,-0.1177215576171875
280644,0.25421142578125,0.9364013671875,-0.1201934814453125
280645,0.2557220458984375,0.9421234130859376,-0.1175079345703125
280646,0.253204345703125,0.9507598876953124,-0.1139373779296875
280647,0.2506103515625,0.9600982666015624,-0.1117095947265625
280648,0.2521820068359375,0.97418212890625,-0.106658935546875
280649,0.2481842041015625,0.9826812744140624,-0.1042022705078125
280650,0.2434844970703125,0.9931640625,-0.093292236328125
280651,0.2360992431640625,1.001815795898438,-0.0801849365234375
280652,0.2250823974609375,1.00244140625,-0.0760498046875
280653,0.2141571044921875,1.0067138671875,-0.0764617919921875
280654,0.2153472900390625,1.001632690429688,-0.08905029296875
280655,0.2153472900390625,1.001632690429688,-0.08905029296875
280656,0.2187042236328125,0.993988037109375,-0.0883331298828125
280657,0.2242431640625,0.97625732421875,-0.077545166015625
280658,0.2332000732421875,0.956390380859375,-0.0724945068359375
280659,0.2425079345703125,0.9404449462890624,-0.0695648193359375
280660,0.25091552734375,0.928558349609375,-0.0640106201171875
280661,0.25091552734375,0.928558349609375,-0.0640106201171875
280662,0.2647247314453125,0.93621826171875,-0.062164306640625
280663,0.2668609619140625,0.9467315673828124,-0.068023681640625
280664,0.2633056640625,0.956756591796875,-0.071197509765625
280665,0.258758544921875,0.963409423828125,-0.0770263671875
280666,0.252655029296875,0.95361328125,-0.0820465087890625
280667,0.2441253662109375,0.9314117431640624,-0.0861663818359375
280668,0.2359771728515625,0.90997314453125,-0.0851287841796875
280669,0.2310791015625,0.8965301513671875,-0.0844573974609375
280670,0.2306060791015625,0.8978118896484375,-0.082550048828125
280671,0.233154296875,0.916595458984375,-0.0807342529296875
280672,0.2393341064453125,0.9417266845703124,-0.0839691162109375
280673,0.24713134765625,0.97052001953125,-0.0928802490234375
280674,0.25494384765625,0.99493408203125,-0.1000213623046875
280675,0.2595672607421875,1.012619018554688,-0.1038818359375
280676,0.2629547119140625,1.022842407226562,-0.10498046875
280677,0.264251708984375,1.015213012695312,-0.103790283203125
280678,0.2743377685546875,0.9879150390625,-0.1275482177734375
280679,0.2743377685546875,0.9879150390625,-0.1275482177734375
280680,0.2825775146484375,0.9737548828125,-0.1342926025390625
280681,0.2874755859375,0.957183837890625,-0.1325225830078125
280682,0.2819366455078125,0.948883056640625,-0.127532958984375
280683,0.2819366455078125,0.948883056640625,-0.127532958984375
280684,0.2709808349609375,0.95233154296875,-0.13427734375
280685,0.260955810546875,0.9596405029296876,-0.1449127197265625
280686,0.2423248291015625,0.9657745361328124,-0.1498260498046875
280687,0.2423248291015625,0.9657745361328124,-0.1498260498046875
280688,0.2423248291015625,0.9657745361328124,-0.1498260498046875
280689,0.2326202392578125,0.96405029296875,-0.1405792236328125
280690,0.2188568115234375,0.9541778564453124,-0.12396240234375
280691,0.2127838134765625,0.948150634765625,-0.11993408203125
280692,0.2118682861328125,0.945526123046875,-0.1150360107421875
280693,0.2166748046875,0.9488372802734376,-0.109375
280694,0.2224273681640625,0.95709228515625,-0.1025390625
280695,0.2262725830078125,0.9694061279296876,-0.0982513427734375
280696,0.2271881103515625,0.9821624755859376,-0.097412109375
280697,0.2271881103515625,0.9821624755859376,-0.097412109375
280698,0.23291015625,0.9961700439453124,-0.104766845703125
280699,0.24176025390625,1.00384521484375,-0.10638427734375
280700,0.2497406005859375,1.0078125,-0.1030120849609375
280701,0.257781982421875,1.008544921875,-0.094024658203125
280702,0.2724456787109375,1.007659912109375,-0.0821533203125
280703,0.2724456787109375,1.007659912109375,-0.0821533203125
280704,0.27642822265625,1.004531860351562,-0.079559326171875
280705,0.274200439453125,0.9954833984375,-0.07598876953125
280706,0.2578887939453125,0.97076416015625,-0.06329345703125
280707,0.2578887939453125,0.97076416015625,-0.06329345703125
280708,0.2508544921875,0.9534759521484376,-0.0620269775390625
280709,0.2476654052734375,0.938995361328125,-0.0618896484375
280710,0.259246826171875,0.928619384765625,-0.06671142578125
280711,0.259246826171875,0.928619384765625,-0.06671142578125
280712,0.2699432373046875,0.937164306640625,-0.074920654296875
280713,0.278411865234375,0.9505767822265624,-0.084625244140625
280714,0.2823638916015625,0.964263916015625,-0.0988616943359375
280715,0.2800445556640625,0.980621337890625,-0.1085662841796875
280716,0.2800445556640625,0.980621337890625,-0.1085662841796875
280717,0.2690887451171875,0.991180419921875,-0.1121978759765625
280718,0.239990234375,0.974945068359375,-0.1278076171875
280719,0.239990234375,0.974945068359375,-0.1278076171875
280720,0.235626220703125,0.956512451171875,-0.1363067626953125
280721,0.2359619140625,0.9437103271484376,-0.136627197265625
280722,0.2462310791015625,0.9229736328125,-0.123321533203125
280723,0.2462310791015625,0.9229736328125,-0.123321533203125
280724,0.251861572265625,0.9152374267578124,-0.1206207275390625
280725,0.2586822509765625,0.9104766845703124,-0.120269775390625
280726,0.2624969482421875,0.901824951171875,-0.1155548095703125
280727,0.263092041015625,0.895660400390625,-0.111572265625
280728,0.264495849609375,0.8948822021484375,-0.1107330322265625
280729,0.2649688720703125,0.8987274169921875,-0.1174468994140625
280730,0.2666473388671875,0.9089508056640624,-0.1235809326171875
280731,0.2662506103515625,0.931060791015625,-0.1234893798828125
280732,0.2662506103515625,0.931060791015625,-0.1234893798828125
280733,0.2647705078125,0.9728546142578124,-0.11383056640625
280734,0.2640533447265625,0.9853515625,-0.115966796875
280735,0.2589569091796875,0.98199462890625,-0.11871337890625
280736,0.251739501953125,0.9729156494140624,-0.1220245361328125
280737,0.24127197265625,0.9627532958984376,-0.1231689453125
280738,0.2137908935546875,0.953338623046875,-0.11822509765625
280739,0.2137908935546875,0.953338623046875,-0.11822509765625
280740,0.200469970703125,0.953277587890625,-0.1219329833984375
280741,0.1895751953125,0.95361328125,-0.12744140625
280742,0.1855926513671875,0.957000732421875,-0.1334686279296875
280743,0.190643310546875,0.96173095703125,-0.1356658935546875
280744,0.2004241943359375,0.967254638671875,-0.137786865234375
280745,0.2107391357421875,0.9747161865234376,-0.1531219482421875
280746,0.2242584228515625,0.9772491455078124,-0.162933349609375
280747,0.223480224609375,0.9814605712890624,-0.167572021484375
280748,0.2223358154296875,0.98162841796875,-0.1792449951171875
280749,0.2166290283203125,0.9808502197265624,-0.194488525390625
280750,0.2101287841796875,0.9774627685546876,-0.2088775634765625
280751,0.2049713134765625,0.973968505859375,-0.220458984375
280752,0.2015228271484375,0.9670562744140624,-0.223388671875
280753,0.1995391845703125,0.9585418701171876,-0.221038818359375
280754,0.19940185546875,0.9545135498046876,-0.21844482421875
280755,0.2023773193359375,0.9536285400390624,-0.214324951171875
280756,0.204498291015625,0.9513397216796876,-0.2067108154296875
280757,0.20538330078125,0.9444427490234376,-0.199737548828125
280758,0.2035675048828125,0.9205780029296876,-0.1865997314453125
280759,0.2035675048828125,0.9205780029296876,-0.1865997314453125
280760,0.2012176513671875,0.9135589599609376,-0.1742401123046875
280761,0.2010345458984375,0.906768798828125,-0.171173095703125
280762,0.1976318359375,0.888763427734375,-0.1755523681640625
280763,0.1976318359375,0.888763427734375,-0.1755523681640625
280764,0.1954193115234375,0.880157470703125,-0.182769775390625
280765,0.1932220458984375,0.8706817626953125,-0.194427490234375
280766,0.173126220703125,0.86126708984375,-0.2166290283203125
280767,0.173126220703125,0.86126708984375,-0.2166290283203125
280768,0.1618499755859375,0.864837646484375,-0.21624755859375
280769,0.15374755859375,0.8750762939453125,-0.211639404296875
280770,0.1899871826171875,0.935699462890625,-0.205169677734375
280771,0.1899871826171875,0.935699462890625,-0.205169677734375
280772,0.2052764892578125,0.9434661865234376,-0.2266387939453125
280773,0.2182769775390625,0.953216552734375,-0.2549591064453125
280774,0.244140625,0.98187255859375,-0.2897796630859375
280775,0.244140625,0.98187255859375,-0.2897796630859375
280776,0.2508544921875,0.9933929443359376,-0.3050384521484375
280777,0.255767822265625,1.001434326171875,-0.3173065185546875
280778,0.2493133544921875,1.005523681640625,-0.322265625
280779,0.2493133544921875,1.005523681640625,-0.322265625
280780,0.2366180419921875,0.9959259033203124,-0.31549072265625
280781,0.2243194580078125,0.974365234375,-0.3027191162109375
280782,0.2092742919921875,0.93524169921875,-0.26751708984375
280783,0.2092742919921875,0.93524169921875,-0.26751708984375
280784,0.2092742919921875,0.93524169921875,-0.26751708984375
280785,0.1997222900390625,0.9423828125,-0.2386474609375
280786,0.1741180419921875,0.9414520263671876,-0.247161865234375
280787,0.1741180419921875,0.9414520263671876,-0.247161865234375
280788,0.1688995361328125,0.9419097900390624,-0.252349853515625
280789,0.1647491455078125,0.9417877197265624,-0.2560272216796875
280790,0.1459197998046875,0.9249267578125,-0.2596435546875
280791,0.1459197998046875,0.9249267578125,-0.2596435546875
280792,0.13629150390625,0.91644287109375,-0.262939453125
280793,0.1305389404296875,0.901885986328125,-0.2689056396484375
280794,0.15850830078125,0.87860107421875,-0.2110748291015625
280795,0.15850830078125,0.87860107421875,-0.2110748291015625
280796,0.1734771728515625,0.915618896484375,-0.1700439453125
280797,0.16571044921875,0.91754150390625,-0.184173583984375
280798,0.1995391845703125,0.834259033203125,-0.0996856689453125
280799,0.1995391845703125,0.834259033203125,-0.0996856689453125
280800,0.21044921875,0.8134307861328125,0.0031585693359375
280801,0.2334747314453125,0.74591064453125,0.0767059326171875
280802,0.23785400390625,0.66473388671875,0.102752685546875
280803,0.23785400390625,0.66473388671875,0.102752685546875
280804,0.261962890625,0.64923095703125,0.0970001220703125
280805,0.295318603515625,0.660186767578125,0.072479248046875
280806,0.3624420166015625,0.753448486328125,-0.01141357421875
280807,0.3624420166015625,0.753448486328125,-0.01141357421875
280808,0.38494873046875,0.816131591796875,-0.06085205078125
280809,0.3928680419921875,0.89642333984375,-0.1123046875
280810,0.3392181396484375,1.0928955078125,-0.2531585693359375
280811,0.3392181396484375,1.0928955078125,-0.2531585693359375
280812,0.3105621337890625,1.148300170898438,-0.28125
280813,0.279693603515625,1.190475463867188,-0.2952880859375
280814,0.2802276611328125,1.252655029296875,-0.3441925048828125
280815,0.2802276611328125,1.252655029296875,-0.3441925048828125
280816,0.2941436767578125,1.262161254882812,-0.42620849609375
280817,0.310272216796875,1.24407958984375,-0.508819580078125
280818,0.3457489013671875,1.194671630859375,-0.572052001953125
280819,0.3457489013671875,1.194671630859375,-0.572052001953125
280820,0.355377197265625,1.19451904296875,-0.5264434814453125
280821,0.3592376708984375,1.192947387695312,-0.444091796875
280822,0.314666748046875,1.140090942382812,-0.2703857421875
280823,0.314666748046875,1.140090942382812,-0.2703857421875
280824,0.2915191650390625,1.101058959960938,-0.1922760009765625
280825,0.2666778564453125,1.070068359375,-0.1670074462890625
280826,0.2493133544921875,1.038787841796875,-0.1708984375
280827,0.2493133544921875,1.038787841796875,-0.1708984375
280828,0.245361328125,1.061599731445312,-0.168914794921875
280829,0.209808349609375,1.0484619140625,-0.1650238037109375
280830,0.1015167236328125,0.96014404296875,-0.128692626953125
280831,0.1015167236328125,0.96014404296875,-0.128692626953125
280832,0.0480499267578125,0.9185638427734376,-0.117095947265625
280833,0.00750732421875,0.8851165771484375,-0.0976104736328125
280834,-0.019439697265625,0.8670196533203125,-0.1108245849609375
280835,-0.019439697265625,0.8670196533203125,-0.1108245849609375
280836,-0.0004730224609375,0.9032745361328124,-0.1425323486328125
280837,-0.0004730224609375,0.9032745361328124,-0.1425323486328125
280838,0.11419677734375,1.004547119140625,-0.2497406005859375
280839,0.11419677734375,1.004547119140625,-0.2497406005859375
280840,0.1456756591796875,0.9919281005859376,-0.235321044921875
280841,0.1846160888671875,0.9781646728515624,-0.221954345703125
280842,0.2215118408203125,0.96734619140625,-0.228546142578125
280843,0.246063232421875,0.955108642578125,-0.2301788330078125
280844,0.2618408203125,0.9471893310546876,-0.226715087890625
280845,0.263641357421875,0.9389495849609376,-0.2244415283203125
280846,0.2357025146484375,0.9361724853515624,-0.2052764892578125
280847,0.2357025146484375,0.9361724853515624,-0.2052764892578125
280848,0.227783203125,0.9315948486328124,-0.19805908203125
280849,0.21807861328125,0.9120330810546876,-0.191558837890625
280850,0.1886749267578125,0.84967041015625,-0.1507568359375
280851,0.169677734375,0.820037841796875,-0.1349334716796875
280852,0.169677734375,0.820037841796875,-0.1349334716796875
280853,0.1602630615234375,0.81439208984375,-0.1400909423828125
280854,0.149261474609375,0.83984375,-0.2021942138671875
280855,0.149261474609375,0.83984375,-0.2021942138671875
280856,0.13201904296875,0.8481597900390625,-0.2226715087890625
280857,0.111297607421875,0.8761749267578125,-0.2245330810546875
280858,0.070098876953125,0.90728759765625,-0.223297119140625
280859,0.070098876953125,0.90728759765625,-0.223297119140625
280860,0.04962158203125,0.92242431640625,-0.2393646240234375
280861,0.0411376953125,0.9481353759765624,-0.25518798828125
280862,0.0419158935546875,0.972869873046875,-0.2981719970703125
280863,0.0419158935546875,0.972869873046875,-0.2981719970703125
280864,0.0419158935546875,0.972869873046875,-0.2981719970703125
280865,0.0468902587890625,0.9859161376953124,-0.33782958984375
280866,0.079193115234375,1.039154052734375,-0.4166107177734375
280867,0.079193115234375,1.039154052734375,-0.4166107177734375
280868,0.079193115234375,1.039154052734375,-0.4166107177734375
280869,0.0876007080078125,1.044174194335938,-0.4521331787109375
280870,0.1070556640625,1.037384033203125,-0.4703521728515625
280871,0.1236572265625,1.03350830078125,-0.4720001220703125
280872,0.1563720703125,1.039031982421875,-0.4617767333984375
280873,0.18780517578125,1.034408569335938,-0.4443359375
280874,0.2232208251953125,0.9594573974609376,-0.380401611328125
280875,0.2232208251953125,0.9594573974609376,-0.380401611328125
280876,0.2232208251953125,0.9594573974609376,-0.380401611328125
280877,0.22686767578125,0.9328765869140624,-0.35736083984375
280878,0.2046966552734375,0.895294189453125,-0.3017578125
280879,0.2046966552734375,0.895294189453125,-0.3017578125
280880,0.1978912353515625,0.9051666259765624,-0.2870941162109375
280881,0.1962127685546875,0.92041015625,-0.2733917236328125
280882,0.1994476318359375,0.9404144287109376,-0.2486572265625
280883,0.1994476318359375,0.9404144287109376,-0.2486572265625
280884,0.1994476318359375,0.9404144287109376,-0.2486572265625
280885,0.210968017578125,0.9246368408203124,-0.2429962158203125
280886,0.2215576171875,0.8511962890625,-0.2767486572265625
280887,0.2215576171875,0.8511962890625,-0.2767486572265625
280888,0.2101287841796875,0.8548736572265625,-0.277923583984375
280889,0.2101287841796875,0.8548736572265625,-0.277923583984375
280890,0.156341552734375,0.9136199951171876,-0.266632080078125
280891,0.156341552734375,0.9136199951171876,-0.266632080078125
280892,0.156341552734375,0.9136199951171876,-0.266632080078125
280893,0.1678466796875,0.9147186279296876,-0.2944488525390625
280894,0.1656951904296875,0.9155426025390624,-0.335601806640625
280895,0.1656951904296875,0.9155426025390624,-0.335601806640625
280896,0.1501312255859375,0.910247802734375,-0.3336944580078125
280897,0.1501312255859375,0.910247802734375,-0.3336944580078125
280898,0.1070556640625,0.886474609375,-0.3779449462890625
280899,0.1070556640625,0.886474609375,-0.3779449462890625
280900,0.093719482421875,0.900360107421875,-0.392578125
280901,0.0865478515625,0.91302490234375,-0.39910888671875
280902,0.0936279296875,0.9225921630859376,-0.3782196044921875
280903,0.0936279296875,0.9225921630859376,-0.3782196044921875
280904,0.1123504638671875,0.90130615234375,-0.366912841796875
280905,0.1346435546875,0.872406005859375,-0.3447265625
280906,0.1830291748046875,0.9066925048828124,-0.335052490234375
280907,0.1830291748046875,0.9066925048828124,-0.335052490234375
280908,0.1830291748046875,0.9066925048828124,-0.335052490234375
280909,0.2030792236328125,0.931549072265625,-0.3297576904296875
280910,0.2129058837890625,0.9733123779296876,-0.307647705078125
280911,0.2129058837890625,0.9733123779296876,-0.307647705078125
280912,0.2027130126953125,0.98614501953125,-0.29498291015625
280913,0.196533203125,0.9928131103515624,-0.3020782470703125
280914,0.2070159912109375,0.99169921875,-0.3404541015625
280915,0.2070159912109375,0.99169921875,-0.3404541015625
280916,0.2106475830078125,0.9887542724609376,-0.347198486328125
280917,0.2039642333984375,0.981170654296875,-0.34881591796875
280918,0.17205810546875,0.9507598876953124,-0.3451080322265625
280919,0.17205810546875,0.9507598876953124,-0.3451080322265625
280920,0.17205810546875,0.9507598876953124,-0.3451080322265625
280921,0.153411865234375,0.9417572021484376,-0.3573455810546875
280922,0.10076904296875,0.9414825439453124,-0.3885345458984375
280923,0.10076904296875,0.9414825439453124,-0.3885345458984375
280924,0.0858001708984375,0.95050048828125,-0.3771514892578125
280925,0.0680694580078125,0.9593048095703124,-0.359039306640625
280926,0.0448455810546875,0.96697998046875,-0.2840118408203125
280927,0.0448455810546875,0.96697998046875,-0.2840118408203125
280928,0.0448455810546875,0.96697998046875,-0.2840118408203125
280929,0.04461669921875,0.965667724609375,-0.24945068359375
280930,0.03399658203125,0.9239501953125,-0.1129302978515625
280931,0.03399658203125,0.9239501953125,-0.1129302978515625
280932,0.03399658203125,0.9239501953125,-0.1129302978515625
280933,0.034088134765625,0.9136810302734376,-0.0907440185546875
280934,0.0410614013671875,0.9080963134765624,-0.0298919677734375
280935,0.0538330078125,0.9125213623046876,-0.0190277099609375
280936,0.0538330078125,0.9125213623046876,-0.0190277099609375
280937,0.0628204345703125,0.9148101806640624,0.007537841796875
280938,0.069915771484375,0.8647308349609375,0.0337677001953125
280939,0.069915771484375,0.8647308349609375,0.0337677001953125
280940,0.0857391357421875,0.82708740234375,-0.0054168701171875
280941,0.0857391357421875,0.82708740234375,-0.0054168701171875
280942,0.152069091796875,0.885711669921875,-0.04815673828125
280943,0.152069091796875,0.885711669921875,-0.04815673828125
280944,0.1514434814453125,0.9361419677734376,-0.05810546875
280945,0.14739990234375,0.9954986572265624,-0.0898590087890625
280946,0.1728057861328125,1.08038330078125,-0.1367645263671875
280947,0.207366943359375,1.140609741210938,-0.2107086181640625
280948,0.1370849609375,1.178924560546875,-0.2719268798828125
280949,0.072296142578125,1.221893310546875,-0.3090972900390625
280950,0.076812744140625,1.122802734375,-0.4007110595703125
280951,0.076812744140625,1.122802734375,-0.4007110595703125
280952,0.1374969482421875,1.0906982421875,-0.412445068359375
280953,0.180755615234375,1.065887451171875,-0.4417266845703125
280954,0.2212066650390625,0.982757568359375,-0.4155120849609375
280955,0.2212066650390625,0.982757568359375,-0.4155120849609375
280956,0.21337890625,0.9795074462890624,-0.399383544921875
280957,0.198089599609375,0.99237060546875,-0.3714141845703125
280958,0.198638916015625,1.04632568359375,-0.3189697265625
280959,0.198638916015625,1.04632568359375,-0.3189697265625
280960,0.2158966064453125,1.075424194335938,-0.322601318359375
280961,0.21044921875,1.083251953125,-0.2856292724609375
280962,0.1993408203125,1.06390380859375,-0.215972900390625
280963,0.1993408203125,1.06390380859375,-0.215972900390625
280964,0.1729888916015625,1.04461669921875,-0.2426605224609375
280965,0.1483306884765625,0.9939422607421876,-0.2523193359375
280966,0.110931396484375,0.8802337646484375,-0.24688720703125
280967,0.110931396484375,0.8802337646484375,-0.24688720703125
280968,0.0941925048828125,0.85943603515625,-0.2475738525390625
280969,0.07769775390625,0.8539276123046875,-0.2478485107421875
280970,0.0518646240234375,0.87347412109375,-0.251739501953125
280971,0.0518646240234375,0.87347412109375,-0.251739501953125
280972,0.0345611572265625,0.8842926025390625,-0.262847900390625
280973,0.0131072998046875,0.897674560546875,-0.270111083984375
280974,-0.036712646484375,0.9576263427734376,-0.233489990234375
280975,-0.036712646484375,0.9576263427734376,-0.233489990234375
280976,-0.044677734375,1.002578735351562,-0.2139129638671875
280977,-0.044677734375,1.002578735351562,-0.2139129638671875
280978,-0.01129150390625,1.017562866210938,-0.2716827392578125
280979,-0.01129150390625,1.017562866210938,-0.2716827392578125
280980,0.0141143798828125,0.9894866943359376,-0.310943603515625
280981,0.0491485595703125,0.9750213623046876,-0.33074951171875
280982,0.13616943359375,0.947509765625,-0.3607177734375
280983,0.13616943359375,0.947509765625,-0.3607177734375
280984,0.13616943359375,0.947509765625,-0.3607177734375
280985,0.172119140625,0.897918701171875,-0.3802947998046875
280986,0.2481536865234375,0.6712188720703125,-0.4077606201171875
280987,0.2481536865234375,0.6712188720703125,-0.4077606201171875
280988,0.26513671875,0.669189453125,-0.4193115234375
280989,0.2419891357421875,0.689117431640625,-0.381500244140625
280990,0.1663055419921875,0.7173004150390625,-0.265869140625
280991,0.1663055419921875,0.7173004150390625,-0.265869140625
280992,0.1349945068359375,0.780303955078125,-0.2037353515625
280993,0.1100921630859375,0.848297119140625,-0.1406402587890625
280994,0.020172119140625,0.9470367431640624,0.0811309814453125
280995,0.020172119140625,0.9470367431640624,0.0811309814453125
280996,-0.025726318359375,0.928619384765625,0.103240966796875
280997,-0.025726318359375,0.928619384765625,0.103240966796875
280998,0.1443939208984375,0.850067138671875,-0.38861083984375
280999,0.1443939208984375,0.850067138671875,-0.38861083984375
281000,0.1849212646484375,0.8554534912109375,-0.4561767578125
281001,0.195587158203125,0.872772216796875,-0.460662841796875
281002,0.172882080078125,0.938690185546875,-0.356842041015625
281003,0.172882080078125,0.938690185546875,-0.356842041015625
281004,0.16064453125,0.993133544921875,-0.2692718505859375
281005,0.1589202880859375,1.055419921875,-0.201141357421875
281006,0.251953125,1.234512329101562,-0.101531982421875
281007,0.251953125,1.234512329101562,-0.101531982421875
281008,0.2628173828125,1.230697631835938,-0.10906982421875
281009,0.2628173828125,1.230697631835938,-0.10906982421875
281010,0.232513427734375,0.941497802734375,-0.2457427978515625
281011,0.232513427734375,0.941497802734375,-0.2457427978515625
281012,0.185089111328125,0.9959716796875,-0.20770263671875
281013,0.185089111328125,0.9959716796875,-0.20770263671875
281014,0.0384368896484375,1.07379150390625,-0.31182861328125
281015,0.0384368896484375,1.07379150390625,-0.31182861328125
281016,0.0157318115234375,1.089508056640625,-0.3754425048828125
281017,-0.002197265625,1.096405029296875,-0.4276885986328125
281018,-0.017547607421875,1.0882568359375,-0.4582366943359375
281019,-0.017547607421875,1.0882568359375,-0.4582366943359375
281020,-0.0165863037109375,1.10638427734375,-0.4480133056640625
281021,-0.0165863037109375,1.10638427734375,-0.4480133056640625
281022,0.0294952392578125,1.017654418945312,-0.37774658203125
281023,0.0294952392578125,1.017654418945312,-0.37774658203125
281024,0.091339111328125,1.008834838867188,-0.337860107421875
281025,0.135498046875,0.9910888671875,-0.351776123046875
281026,0.1576385498046875,0.896942138671875,-0.477447509765625
281027,0.1576385498046875,0.896942138671875,-0.477447509765625
281028,0.1576385498046875,0.896942138671875,-0.477447509765625
281029,0.1841888427734375,0.876983642578125,-0.4671173095703125
281030,0.22418212890625,0.8256988525390625,-0.3548126220703125
281031,0.22418212890625,0.8256988525390625,-0.3548126220703125
281032,0.2278900146484375,0.8097991943359375,-0.354217529296875
281033,0.229949951171875,0.808135986328125,-0.400848388671875
281034,0.2347564697265625,0.8533172607421875,-0.53643798828125
281035,0.2347564697265625,0.8533172607421875,-0.53643798828125
281036,0.2161865234375,0.872344970703125,-0.5574493408203125
281037,0.1742401123046875,0.8717193603515625,-0.5250244140625
281038,0.08740234375,0.8474273681640625,-0.4332122802734375
281039,0.08740234375,0.8474273681640625,-0.4332122802734375
281040,0.0394439697265625,0.838897705078125,-0.403961181640625
281041,0.00079345703125,0.8504638671875,-0.3826751708984375
281042,-0.04803466796875,0.838897705078125,-0.311370849609375
281043,-0.04803466796875,0.838897705078125,-0.311370849609375
281044,-0.04803466796875,0.838897705078125,-0.311370849609375
281045,-0.0681304931640625,0.8284149169921875,-0.2543182373046875
281046,0.1063995361328125,0.882568359375,-0.2827301025390625
281047,0.1063995361328125,0.882568359375,-0.2827301025390625
281048,0.192138671875,0.9071044921875,-0.3401336669921875
281049,0.192138671875,0.9071044921875,-0.3401336669921875
281050,0.33740234375,1.052825927734375,-0.377288818359375
281051,0.33740234375,1.052825927734375,-0.377288818359375
281052,0.3561248779296875,1.142608642578125,-0.17437744140625
281053,0.2546234130859375,1.208389282226562,0.0368499755859375
281054,0.1249542236328125,1.1405029296875,-0.3744049072265625
281055,0.1249542236328125,1.1405029296875,-0.3744049072265625
281056,0.112701416015625,1.133010864257812,-0.4638519287109375
281057,0.1215667724609375,1.1009521484375,-0.502777099609375
281058,0.1377410888671875,1.037002563476562,-0.48211669921875
281059,0.1377410888671875,1.037002563476562,-0.48211669921875
281060,0.12701416015625,0.996429443359375,-0.497406005859375
281061,0.0983428955078125,0.9384307861328124,-0.5777740478515625
281062,-0.05291748046875,0.866180419921875,-0.5404205322265625
281063,-0.05291748046875,0.866180419921875,-0.5404205322265625
281064,-0.1097259521484375,0.794647216796875,-0.43914794921875
281065,-0.1157989501953125,0.689422607421875,-0.354736328125
281066,-0.0550384521484375,0.6073455810546875,-0.2796478271484375
281067,-0.0550384521484375,0.6073455810546875,-0.2796478271484375
281068,-7.62939453125e-05,0.727294921875,-0.285888671875
281069,0.1000823974609375,0.8628082275390625,-0.2378387451171875
281070,0.19842529296875,0.9618072509765624,-0.1898040771484375
281071,0.288177490234375,1.028778076171875,-0.1588287353515625
281072,0.354278564453125,1.112045288085938,-0.0414581298828125
281073,0.354278564453125,1.112045288085938,-0.0414581298828125
281074,0.2447509765625,1.051177978515625,0.06829833984375
281075,0.2447509765625,1.051177978515625,0.06829833984375
281076,0.165771484375,1.043228149414062,-0.0189361572265625
281077,0.176910400390625,1.2003173828125,-0.0348358154296875
281078,0.081146240234375,1.377212524414062,0.0760650634765625
281079,0.081146240234375,1.377212524414062,0.0760650634765625
281080,0.081146240234375,1.377212524414062,0.0760650634765625
281081,0.2324981689453125,1.280563354492188,-0.2665557861328125
281082,-0.1700592041015625,0.7957305908203125,-0.23895263671875
281083,-0.1700592041015625,0.7957305908203125,-0.23895263671875
281084,-0.1700592041015625,0.7957305908203125,-0.23895263671875
281085,-0.29644775390625,0.6988677978515625,-0.225189208984375
281086,-0.3609619140625,0.8792572021484375,-0.073150634765625
281087,-0.3609619140625,0.8792572021484375,-0.073150634765625
281088,-0.3609619140625,0.8792572021484375,-0.073150634765625
281089,-0.346405029296875,1.052169799804688,-0.2007293701171875
281090,0.066314697265625,1.205169677734375,-0.25860595703125
281091,0.066314697265625,1.205169677734375,-0.25860595703125
281092,0.0249786376953125,0.9563751220703124,-0.129241943359375
281093,0.010833740234375,0.757415771484375,-0.096160888671875
281094,0.082550048828125,0.59930419921875,-0.2347412109375
281095,0.082550048828125,0.59930419921875,-0.2347412109375
281096,0.082550048828125,0.59930419921875,-0.2347412109375
281097,0.137939453125,0.5813446044921875,-0.27703857421875
281098,0.1913909912109375,0.79656982421875,-0.0341796875
281099,0.1913909912109375,0.79656982421875,-0.0341796875
281100,0.1333160400390625,0.896636962890625,0.1759033203125
281101,0.1333160400390625,0.896636962890625,0.1759033203125
281102,-0.0553436279296875,0.8110504150390625,0.578948974609375
281103,-0.0553436279296875,0.8110504150390625,0.578948974609375
281104,-0.01513671875,0.752685546875,0.3182830810546875
281105,0.027923583984375,0.727691650390625,0.15301513671875
281106,0.130340576171875,0.87689208984375,0.0286865234375
281107,0.130340576171875,0.87689208984375,0.0286865234375
281108,0.1951446533203125,1.024261474609375,-0.01007080078125
281109,0.1951446533203125,1.024261474609375,-0.01007080078125
281110,0.25341796875,1.316558837890625,-0.0213775634765625
281111,0.257080078125,1.361526489257812,-0.0028076171875
281112,0.257080078125,1.361526489257812,-0.0028076171875
281113,0.2115631103515625,1.29010009765625,-0.097015380859375
281114,0.146728515625,1.0406494140625,-0.2463226318359375
281115,0.146728515625,1.0406494140625,-0.2463226318359375
281116,0.1478424072265625,0.98516845703125,-0.2494049072265625
281117,0.1402130126953125,0.956512451171875,-0.24853515625
281118,0.101470947265625,0.9000396728515625,-0.3071746826171875
281119,0.101470947265625,0.9000396728515625,-0.3071746826171875
281120,0.101470947265625,0.9000396728515625,-0.3071746826171875
281121,0.096832275390625,0.8849639892578125,-0.3749847412109375
281122,0.1831817626953125,0.988800048828125,-0.559112548828125
281123,0.1831817626953125,0.988800048828125,-0.559112548828125
281124,0.2259674072265625,1.058349609375,-0.5483245849609375
281125,0.2259674072265625,1.058349609375,-0.5483245849609375
281126,0.2570343017578125,1.245361328125,-0.217498779296875
281127,0.2570343017578125,1.245361328125,-0.217498779296875
281128,0.2509765625,1.2957763671875,-0.1545257568359375
281129,0.2811126708984375,1.2884521484375,-0.019287109375
281130,0.339599609375,1.197097778320312,0.594970703125
281131,0.339599609375,1.197097778320312,0.594970703125
281132,0.3898773193359375,1.127532958984375,0.484832763671875
281133,0.27996826171875,1.023086547851562,0.085052490234375
281134,0.11572265625,0.9251251220703124,-0.1781463623046875
281135,0.11572265625,0.9251251220703124,-0.1781463623046875
281136,0.069183349609375,0.9154815673828124,-0.1837310791015625
281137,0.020294189453125,0.9135894775390624,-0.1627349853515625
281138,-0.0437774658203125,0.9270172119140624,-0.110443115234375
281139,-0.0437774658203125,0.9270172119140624,-0.110443115234375
281140,-0.0509033203125,0.930694580078125,-0.1017913818359375
281141,-0.042816162109375,0.9222564697265624,-0.1157684326171875
281142,-0.0062255859375,0.8834075927734375,-0.17840576171875
281143,-0.0062255859375,0.8834075927734375,-0.17840576171875
281144,0.004486083984375,0.8520660400390625,-0.19427490234375
281145,0.0113525390625,0.8216705322265625,-0.19622802734375
281146,0.0196990966796875,0.801177978515625,-0.1828155517578125
281147,0.0334625244140625,0.790191650390625,-0.144195556640625
281148,0.0459442138671875,0.7799224853515625,-0.10174560546875
281149,0.05535888671875,0.7777252197265625,-0.080780029296875
281150,0.05865478515625,0.7822265625,-0.07940673828125
281151,0.0574951171875,0.78875732421875,-0.09490966796875
281152,0.0533294677734375,0.8123321533203125,-0.1162872314453125
281153,0.047088623046875,0.8569488525390625,-0.129302978515625
281154,0.048309326171875,0.9200897216796876,-0.12811279296875
281155,0.048309326171875,0.9200897216796876,-0.12811279296875
281156,0.0517120361328125,0.9316864013671876,-0.1169281005859375
281157,0.0570068359375,0.9391021728515624,-0.118011474609375
281158,0.0664215087890625,0.9582672119140624,-0.1516876220703125
281159,0.0664215087890625,0.9582672119140624,-0.1516876220703125
281160,0.0720062255859375,0.9752197265625,-0.168060302734375
281161,0.0765380859375,1.004791259765625,-0.17510986328125
281162,0.0782012939453125,1.097335815429688,-0.183197021484375
281163,0.0782012939453125,1.097335815429688,-0.183197021484375
281164,0.081085205078125,1.1485595703125,-0.1881103515625
281165,0.0834197998046875,1.196670532226562,-0.19549560546875
281166,0.0560760498046875,1.28570556640625,-0.1301727294921875
281167,0.0560760498046875,1.28570556640625,-0.1301727294921875
281168,0.0185089111328125,1.269317626953125,-0.0693359375
281169,-0.0205078125,1.16473388671875,-0.013092041015625
281170,-0.0026092529296875,1.032363891601562,-0.12066650390625
281171,-0.0026092529296875,1.032363891601562,-0.12066650390625
281172,0.0257720947265625,1.012039184570312,-0.1760101318359375
281173,0.0468597412109375,1.00933837890625,-0.1949615478515625
281174,0.0526580810546875,1.0380859375,-0.1606292724609375
281175,0.0526580810546875,1.0380859375,-0.1606292724609375
281176,0.0396881103515625,1.041000366210938,-0.14447021484375
281177,0.026336669921875,1.035324096679688,-0.1359405517578125
281178,0.0142822265625,1.03045654296875,-0.1456146240234375
281179,0.0142822265625,1.03045654296875,-0.1456146240234375
281180,0.0146331787109375,1.034210205078125,-0.157440185546875
281181,0.0179290771484375,1.038604736328125,-0.1616058349609375
281182,0.001190185546875,1.027618408203125,-0.1324310302734375
281183,0.001190185546875,1.027618408203125,-0.1324310302734375
281184,0.001190185546875,1.027618408203125,-0.1324310302734375
281185,-0.00836181640625,1.012069702148438,-0.1123809814453125
281186,0.0001983642578125,0.96124267578125,-0.1114654541015625
281187,0.0001983642578125,0.96124267578125,-0.1114654541015625
281188,0.0001983642578125,0.96124267578125,-0.1114654541015625
281189,0.01226806640625,0.94683837890625,-0.123779296875
281190,0.05401611328125,0.913665771484375,-0.121826171875
281191,0.05401611328125,0.913665771484375,-0.121826171875
281192,0.0831451416015625,0.9009552001953124,-0.1184539794921875
281193,0.109588623046875,0.894927978515625,-0.1095428466796875
281194,0.1351776123046875,0.8766632080078125,-0.0694580078125
281195,0.1351776123046875,0.8766632080078125,-0.0694580078125
281196,0.1353302001953125,0.8706207275390625,-0.04443359375
281197,0.1300201416015625,0.863189697265625,-0.0250244140625
281198,0.1042633056640625,0.854156494140625,-0.0139923095703125
281199,0.1042633056640625,0.854156494140625,-0.0139923095703125
281200,0.08502197265625,0.854522705078125,-0.0077972412109375
281201,0.0652923583984375,0.86431884765625,0.0070648193359375
281202,0.0436248779296875,0.9326324462890624,0.0076751708984375
281203,0.0436248779296875,0.9326324462890624,0.0076751708984375
281204,0.0436248779296875,0.9326324462890624,0.0076751708984375
281205,0.0525970458984375,0.982330322265625,-0.023345947265625
281206,0.100311279296875,1.120162963867188,-0.1212005615234375
281207,0.100311279296875,1.120162963867188,-0.1212005615234375
281208,0.108734130859375,1.151657104492188,-0.1492462158203125
281209,0.116790771484375,1.177459716796875,-0.16705322265625
281210,0.12615966796875,1.205642700195312,-0.1524810791015625
281211,0.12615966796875,1.205642700195312,-0.1524810791015625
281212,0.12615966796875,1.205642700195312,-0.1524810791015625
281213,0.1251678466796875,1.198440551757812,-0.1410980224609375
281214,0.14727783203125,1.112808227539062,-0.180755615234375
281215,0.14727783203125,1.112808227539062,-0.180755615234375
281216,0.148345947265625,1.091018676757812,-0.1724395751953125
281217,0.146820068359375,1.087295532226562,-0.14654541015625
281218,0.13543701171875,1.075485229492188,-0.057586669921875
281219,0.13543701171875,1.075485229492188,-0.057586669921875
281220,0.1390838623046875,1.049026489257812,-0.0305023193359375
281221,0.1488800048828125,1.02374267578125,-0.0342254638671875
281222,0.14892578125,0.9908905029296876,-0.0438385009765625
281223,0.14892578125,0.9908905029296876,-0.0438385009765625
281224,0.1392059326171875,0.980987548828125,-0.03778076171875
281225,0.1351318359375,0.98333740234375,-0.027618408203125
281226,0.1370697021484375,1.025344848632812,-0.004425048828125
281227,0.1370697021484375,1.025344848632812,-0.004425048828125
281228,0.144683837890625,1.057464599609375,0.0110931396484375
281229,0.1546478271484375,1.086318969726562,0.0260009765625
281230,0.17889404296875,1.122100830078125,0.0212860107421875
281231,0.17889404296875,1.122100830078125,0.0212860107421875
281232,0.1933441162109375,1.123565673828125,0.0049896240234375
281233,0.211456298828125,1.119415283203125,-0.009674072265625
281234,0.263275146484375,1.057388305664062,-0.0042724609375
281235,0.263275146484375,1.057388305664062,-0.0042724609375
281236,0.28692626953125,1.016387939453125,0.001708984375
281237,0.3053741455078125,0.9817047119140624,0.011932373046875
281238,0.3047027587890625,0.9240875244140624,0.0204010009765625
281239,0.3047027587890625,0.9240875244140624,0.0204010009765625
281240,0.2909088134765625,0.9070587158203124,0.0061492919921875
281241,0.270904541015625,0.901519775390625,-0.01300048828125
281242,0.22314453125,0.900390625,-0.026885986328125
281243,0.22314453125,0.900390625,-0.026885986328125
281244,0.2068634033203125,0.8956298828125,-0.0240631103515625
281245,0.1923370361328125,0.8876495361328125,-0.01690673828125
281246,0.16412353515625,0.864013671875,-0.0040435791015625
281247,0.16412353515625,0.864013671875,-0.0040435791015625
281248,0.1438446044921875,0.85504150390625,-0.0141448974609375
281249,0.1215972900390625,0.847747802734375,-0.034027099609375
281250,0.1075897216796875,0.8477935791015625,-0.0566558837890625
281251,0.099273681640625,0.8690643310546875,-0.0751190185546875
281252,0.0875244140625,0.901397705078125,-0.1024322509765625
281253,0.0723724365234375,0.93634033203125,-0.136138916015625
281254,0.038848876953125,0.9883880615234376,-0.17340087890625
281255,0.038848876953125,0.9883880615234376,-0.17340087890625
281256,0.038848876953125,0.9883880615234376,-0.17340087890625
281257,0.030181884765625,1.006515502929688,-0.16473388671875
281258,0.0226593017578125,1.009597778320312,-0.119781494140625
281259,0.01715087890625,0.9920654296875,-0.096221923828125
281260,0.0157318115234375,0.9672698974609376,-0.084808349609375
281261,0.02337646484375,0.945526123046875,-0.0755615234375
281262,0.0566864013671875,0.914276123046875,-0.0419921875
281263,0.0566864013671875,0.914276123046875,-0.0419921875
281264,0.0566864013671875,0.914276123046875,-0.0419921875
281265,0.0821990966796875,0.90692138671875,-0.0195770263671875
281266,0.158538818359375,0.9201812744140624,0.03399658203125
281267,0.158538818359375,0.9201812744140624,0.03399658203125
281268,0.173126220703125,0.9351043701171876,0.04254150390625
281269,0.1805419921875,0.95001220703125,0.059814453125
281270,0.2137908935546875,0.986724853515625,0.0781097412109375
281271,0.2137908935546875,0.986724853515625,0.0781097412109375
281272,0.2254791259765625,0.9986419677734376,0.093414306640625
281273,0.2295989990234375,1.003463745117188,0.1014862060546875
281274,0.2239837646484375,1.001327514648438,0.133544921875
281275,0.2239837646484375,1.001327514648438,0.133544921875
281276,0.2147369384765625,0.989837646484375,0.1500244140625
281277,0.20928955078125,0.9771881103515624,0.142547607421875
281278,0.2020721435546875,0.9560546875,0.0729217529296875
281279,0.2020721435546875,0.9560546875,0.0729217529296875
281280,0.2043914794921875,0.9525146484375,0.04876708984375
281281,0.2119140625,0.957977294921875,0.02978515625
281282,0.25665283203125,0.98138427734375,0.0037841796875
281283,0.25665283203125,0.98138427734375,0.0037841796875
281284,0.25665283203125,0.98138427734375,0.0037841796875
281285,0.2870330810546875,0.9920501708984376,-0.008941650390625
281286,0.3369293212890625,0.9996795654296876,-0.069000244140625
281287,0.3369293212890625,0.9996795654296876,-0.069000244140625
281288,0.334869384765625,0.9973297119140624,-0.0804595947265625
281289,0.323883056640625,0.9917755126953124,-0.0805511474609375
281290,0.3084716796875,0.9857330322265624,-0.068359375
281291,0.2913055419921875,0.9754180908203124,-0.0530853271484375
281292,0.2772979736328125,0.9644775390625,-0.047698974609375
281293,0.2701873779296875,0.951629638671875,-0.04376220703125
281294,0.26800537109375,0.9389190673828124,-0.0294952392578125
281295,0.26800537109375,0.9389190673828124,-0.0294952392578125
281296,0.2598114013671875,0.936248779296875,-0.025421142578125
281297,0.2475738525390625,0.92755126953125,-0.018341064453125
281298,0.2394256591796875,0.9238128662109376,-0.044281005859375
281299,0.2394256591796875,0.9238128662109376,-0.044281005859375
281300,0.2345428466796875,0.9155426025390624,-0.0590362548828125
281301,0.2411651611328125,0.9104766845703124,-0.066925048828125
281302,0.262237548828125,0.899444580078125,-0.083343505859375
281303,0.262237548828125,0.899444580078125,-0.083343505859375
281304,0.2821044921875,0.9017486572265624,-0.084564208984375
281305,0.30291748046875,0.9050445556640624,-0.08154296875
281306,0.3324432373046875,0.9213714599609376,-0.067169189453125
281307,0.3324432373046875,0.9213714599609376,-0.067169189453125
281308,0.342529296875,0.928863525390625,-0.064697265625
281309,0.3441162109375,0.932861328125,-0.0678253173828125
281310,0.3400115966796875,0.9375457763671876,-0.0723724365234375
281311,0.3400115966796875,0.9375457763671876,-0.0723724365234375
281312,0.332366943359375,0.9348907470703124,-0.078521728515625
281313,0.322479248046875,0.934112548828125,-0.0798187255859375
281314,0.2752685546875,0.91607666015625,-0.070343017578125
281315,0.2752685546875,0.91607666015625,-0.070343017578125
281316,0.2525482177734375,0.909576416015625,-0.074676513671875
281317,0.2345428466796875,0.89776611328125,-0.0754852294921875
281318,0.2202301025390625,0.89703369140625,-0.0760498046875
281319,0.221099853515625,0.90185546875,-0.072479248046875
281320,0.2324981689453125,0.9143524169921876,-0.080474853515625
281321,0.2518157958984375,0.9326171875,-0.08355712890625
281322,0.2911529541015625,0.967803955078125,-0.0894012451171875
281323,0.2911529541015625,0.967803955078125,-0.0894012451171875
281324,0.299774169921875,0.9704742431640624,-0.0888671875
281325,0.30828857421875,0.9665069580078124,-0.0910491943359375
281326,0.3150177001953125,0.9545135498046876,-0.106536865234375
281327,0.3150177001953125,0.9545135498046876,-0.106536865234375
281328,0.313262939453125,0.9419403076171876,-0.1112213134765625
281329,0.319122314453125,0.9393157958984376,-0.121063232421875
281330,0.3505096435546875,0.9449615478515624,-0.1480255126953125
281331,0.3505096435546875,0.9449615478515624,-0.1480255126953125
281332,0.3681182861328125,0.9447784423828124,-0.1652069091796875
281333,0.3888397216796875,0.94256591796875,-0.1649627685546875
281334,0.4162750244140625,0.9218292236328124,-0.1817169189453125
281335,0.4162750244140625,0.9218292236328124,-0.1817169189453125
281336,0.4212646484375,0.9091796875,-0.1800994873046875
281337,0.4113311767578125,0.8901824951171875,-0.182403564453125
281338,0.384796142578125,0.852630615234375,-0.179718017578125
281339,0.384796142578125,0.852630615234375,-0.179718017578125
281340,0.3757781982421875,0.8435211181640625,-0.1704864501953125
281341,0.3811798095703125,0.849609375,-0.168060302734375
281342,0.3786163330078125,0.8604736328125,-0.16607666015625
281343,0.3793792724609375,0.878509521484375,-0.1581878662109375
281344,0.38751220703125,0.9083099365234376,-0.1541748046875
281345,0.38751220703125,0.9083099365234376,-0.1541748046875
281346,0.442962646484375,0.93255615234375,-0.1587982177734375
281347,0.442962646484375,0.93255615234375,-0.1587982177734375
281348,0.4765167236328125,0.9180755615234376,-0.165679931640625
281349,0.5059356689453125,0.9062347412109376,-0.1671295166015625
281350,0.548309326171875,0.901885986328125,-0.1769256591796875
281351,0.548309326171875,0.901885986328125,-0.1769256591796875
281352,0.56488037109375,0.9075164794921876,-0.20416259765625
281353,0.571441650390625,0.91973876953125,-0.233001708984375
281354,0.5506744384765625,0.93011474609375,-0.2667083740234375
281355,0.5506744384765625,0.93011474609375,-0.2667083740234375
281356,0.5495452880859375,0.91864013671875,-0.27374267578125
281357,0.5539398193359375,0.9034881591796876,-0.291229248046875
281358,0.5819244384765625,0.8651580810546875,-0.2901763916015625
281359,0.5819244384765625,0.8651580810546875,-0.2901763916015625
281360,0.5819244384765625,0.8651580810546875,-0.2901763916015625
281361,0.584503173828125,0.85333251953125,-0.2896881103515625
281362,0.614898681640625,0.8378448486328125,-0.296112060546875
281363,0.614898681640625,0.8378448486328125,-0.296112060546875
281364,0.6213836669921875,0.8317413330078125,-0.3084564208984375
281365,0.616912841796875,0.8218536376953125,-0.309326171875
281366,0.58099365234375,0.795074462890625,-0.309478759765625
281367,0.58099365234375,0.795074462890625,-0.309478759765625
281368,0.561279296875,0.775360107421875,-0.32354736328125
281369,0.561279296875,0.775360107421875,-0.32354736328125
281370,0.5419921875,0.733184814453125,-0.3719329833984375
281371,0.5419921875,0.733184814453125,-0.3719329833984375
281372,0.553802490234375,0.724822998046875,-0.381439208984375
281373,0.552703857421875,0.7148590087890625,-0.3868408203125
281374,0.551361083984375,0.687225341796875,-0.3873291015625
281375,0.562255859375,0.6730499267578125,-0.384674072265625
281376,0.5893096923828125,0.6620941162109375,-0.374359130859375
281377,0.6099700927734375,0.6456756591796875,-0.373687744140625
281378,0.6515045166015625,0.5930023193359375,-0.4263916015625
281379,0.6515045166015625,0.5930023193359375,-0.4263916015625
281380,0.65216064453125,0.6198272705078125,-0.37884521484375
281381,0.616607666015625,0.6318511962890625,-0.3184051513671875
281382,0.6109771728515625,0.5858001708984375,-0.3255615234375
281383,0.6109771728515625,0.5858001708984375,-0.3255615234375
281384,0.6109771728515625,0.5858001708984375,-0.3255615234375
281385,0.626953125,0.576141357421875,-0.365570068359375
281386,0.6751861572265625,0.557403564453125,-0.3775787353515625
281387,0.6751861572265625,0.557403564453125,-0.3775787353515625
281388,0.67645263671875,0.5501251220703125,-0.378662109375
281389,0.676605224609375,0.5474395751953125,-0.390838623046875
281390,0.693817138671875,0.579132080078125,-0.41021728515625
281391,0.693817138671875,0.579132080078125,-0.41021728515625
281392,0.7014923095703125,0.5803070068359375,-0.4306640625
281393,0.710662841796875,0.581207275390625,-0.4470672607421875
281394,0.7523345947265625,0.5858917236328125,-0.448577880859375
281395,0.7523345947265625,0.5858917236328125,-0.448577880859375
281396,0.7709503173828125,0.6029052734375,-0.457550048828125
281397,0.788055419921875,0.6125640869140625,-0.4621734619140625
281398,0.8185577392578125,0.6160125732421875,-0.4568634033203125
281399,0.8185577392578125,0.6160125732421875,-0.4568634033203125
281400,0.8300628662109375,0.6092071533203125,-0.457061767578125
281401,0.838653564453125,0.5952301025390625,-0.446533203125
281402,0.87030029296875,0.55181884765625,-0.46990966796875
281403,0.87030029296875,0.55181884765625,-0.46990966796875
281404,0.87030029296875,0.55181884765625,-0.46990966796875
281405,0.851837158203125,0.53790283203125,-0.50982666015625
281406,0.7530670166015625,0.5049896240234375,-0.4133453369140625
281407,0.7530670166015625,0.5049896240234375,-0.4133453369140625
281408,0.7396240234375,0.478057861328125,-0.4184417724609375
281409,0.75653076171875,0.42291259765625,-0.4061279296875
281410,0.82733154296875,0.37823486328125,-0.4750213623046875
281411,0.82733154296875,0.37823486328125,-0.4750213623046875
281412,0.8786773681640625,0.383026123046875,-0.4979400634765625
281413,0.918121337890625,0.388397216796875,-0.5113067626953125
281414,0.9581298828125,0.3931427001953125,-0.496612548828125
281415,0.9581298828125,0.3931427001953125,-0.496612548828125
281416,0.924591064453125,0.3762054443359375,-0.46258544921875
281417,0.85760498046875,0.3564300537109375,-0.405426025390625
281418,0.8011627197265625,0.3454437255859375,-0.3433990478515625
281419,0.7821044921875,0.3607330322265625,-0.2952117919921875
281420,0.80419921875,0.4007720947265625,-0.2682342529296875
281421,0.80419921875,0.4007720947265625,-0.2682342529296875
281422,0.896759033203125,0.4603118896484375,-0.3073883056640625
281423,0.9324493408203124,0.4509429931640625,-0.3172454833984375
281424,0.9511566162109376,0.4227752685546875,-0.316436767578125
281425,0.957061767578125,0.38714599609375,-0.2986907958984375
281426,0.920806884765625,0.34210205078125,-0.3332061767578125
281427,0.920806884765625,0.34210205078125,-0.3332061767578125
281428,0.920806884765625,0.34210205078125,-0.3332061767578125
281429,0.887451171875,0.3358306884765625,-0.3770751953125
281430,0.8314666748046875,0.355682373046875,-0.431121826171875
281431,0.8156585693359375,0.373992919921875,-0.434234619140625
281432,0.814849853515625,0.3785400390625,-0.44403076171875
281433,0.8331451416015625,0.3713531494140625,-0.440948486328125
281434,0.8445281982421875,0.3936309814453125,-0.4278564453125
281435,0.8445281982421875,0.3936309814453125,-0.4278564453125
281436,0.833465576171875,0.4171905517578125,-0.4069366455078125
281437,0.82293701171875,0.4426422119140625,-0.37481689453125
281438,0.8300628662109375,0.4739532470703125,-0.3316497802734375
281439,0.8300628662109375,0.4739532470703125,-0.3316497802734375
281440,0.8476409912109375,0.453399658203125,-0.328887939453125
281441,0.87152099609375,0.421630859375,-0.3246002197265625
281442,0.8999176025390625,0.3436431884765625,-0.3047943115234375
281443,0.8999176025390625,0.3436431884765625,-0.3047943115234375
281444,0.916290283203125,0.307159423828125,-0.2918853759765625
281445,0.9171905517578124,0.277099609375,-0.2890625
281446,0.9137420654296876,0.2615509033203125,-0.2855072021484375
281447,0.9137420654296876,0.2615509033203125,-0.2855072021484375
281448,0.9156494140625,0.2777099609375,-0.28851318359375
281449,0.92889404296875,0.303985595703125,-0.309814453125
281450,0.9355926513671876,0.3641204833984375,-0.392822265625
281451,0.9355926513671876,0.3641204833984375,-0.392822265625
281452,0.9355926513671876,0.3641204833984375,-0.392822265625
281453,0.93048095703125,0.3805084228515625,-0.391510009765625
281454,0.893646240234375,0.4243927001953125,-0.35919189453125
281455,0.893646240234375,0.4243927001953125,-0.35919189453125
281456,0.856536865234375,0.4487762451171875,-0.359527587890625
281457,0.8332061767578125,0.435333251953125,-0.325714111328125
281458,0.7880706787109375,0.4176788330078125,-0.2543182373046875
281459,0.7880706787109375,0.4176788330078125,-0.2543182373046875
281460,0.7724761962890625,0.4256591796875,-0.241546630859375
281461,0.7692718505859375,0.4387969970703125,-0.22137451171875
281462,0.778564453125,0.46978759765625,-0.18157958984375
281463,0.778564453125,0.46978759765625,-0.18157958984375
281464,0.77899169921875,0.4854583740234375,-0.0902252197265625
281465,0.7877349853515625,0.4654693603515625,0.1630096435546875
281466,0.822357177734375,0.43109130859375,-0.0860595703125
281467,0.822357177734375,0.43109130859375,-0.0860595703125
281468,0.8028411865234375,0.4430999755859375,-0.1531524658203125
281469,0.70782470703125,0.48004150390625,-0.150054931640625
281470,0.6127471923828125,0.499053955078125,-0.2334747314453125
281471,0.6127471923828125,0.499053955078125,-0.2334747314453125
281472,0.64215087890625,0.4631500244140625,-0.2476043701171875
281473,0.687286376953125,0.4281463623046875,-0.2823028564453125
281474,0.708465576171875,0.40521240234375,-0.3415985107421875
281475,0.7619476318359375,0.3682861328125,-0.3382415771484375
281476,0.836883544921875,0.35491943359375,-0.254180908203125
281477,0.8993682861328125,0.3603057861328125,-0.1960296630859375
281478,0.9084625244140624,0.4382476806640625,-0.0837554931640625
281479,0.9084625244140624,0.4382476806640625,-0.0837554931640625
281480,0.819976806640625,0.469146728515625,-0.0284271240234375
281481,0.7451324462890625,0.46221923828125,-0.05206298828125
281482,0.718048095703125,0.399444580078125,-0.19244384765625
281483,0.718048095703125,0.399444580078125,-0.19244384765625
281484,0.716094970703125,0.3816986083984375,-0.2175750732421875
281485,0.716094970703125,0.3816986083984375,-0.2175750732421875
281486,0.687774658203125,0.359619140625,-0.2347412109375
281487,0.687774658203125,0.359619140625,-0.2347412109375
281488,0.69671630859375,0.3645782470703125,-0.25311279296875
281489,0.70550537109375,0.371795654296875,-0.2770233154296875
281490,0.7092437744140625,0.410064697265625,-0.2877044677734375
281491,0.7092437744140625,0.410064697265625,-0.2877044677734375
281492,0.712615966796875,0.4208831787109375,-0.287353515625
281493,0.724090576171875,0.431640625,-0.302734375
281494,0.7635498046875,0.45745849609375,-0.3199615478515625
281495,0.7635498046875,0.45745849609375,-0.3199615478515625
281496,0.782470703125,0.46771240234375,-0.31005859375
281497,0.8101806640625,0.4785919189453125,-0.293365478515625
281498,0.8527374267578125,0.4742279052734375,-0.294647216796875
281499,0.8527374267578125,0.4742279052734375,-0.294647216796875
281500,0.834686279296875,0.4640960693359375,-0.3073577880859375
281501,0.796875,0.4515533447265625,-0.299407958984375
281502,0.7523345947265625,0.4354400634765625,-0.2899169921875
281503,0.7264862060546875,0.4228668212890625,-0.29034423828125
281504,0.7197113037109375,0.414276123046875,-0.3223724365234375
281505,0.7181243896484375,0.4195404052734375,-0.357391357421875
281506,0.723602294921875,0.444091796875,-0.349395751953125
281507,0.723602294921875,0.444091796875,-0.349395751953125
281508,0.7425537109375,0.462432861328125,-0.354034423828125
281509,0.766357421875,0.4904022216796875,-0.3765411376953125
281510,0.7779541015625,0.5907135009765625,-0.38677978515625
281511,0.7779541015625,0.5907135009765625,-0.38677978515625
281512,0.7470855712890625,0.639404296875,-0.3663177490234375
281513,0.713348388671875,0.67138671875,-0.3514404296875
281514,0.65081787109375,0.69561767578125,-0.349822998046875
281515,0.65081787109375,0.69561767578125,-0.349822998046875
281516,0.6190643310546875,0.696014404296875,-0.37353515625
281517,0.5893096923828125,0.6819305419921875,-0.3983154296875
281518,0.5765838623046875,0.6686248779296875,-0.4024505615234375
281519,0.5702972412109375,0.6880645751953125,-0.4187774658203125
281520,0.5805511474609375,0.7374114990234375,-0.4458770751953125
281521,0.598358154296875,0.8072357177734375,-0.46661376953125
281522,0.6195068359375,0.87725830078125,-0.46929931640625
281523,0.6399688720703125,0.925994873046875,-0.4532623291015625
281524,0.6445465087890625,0.9376220703125,-0.4588470458984375
281525,0.636444091796875,0.931610107421875,-0.4839935302734375
281526,0.602508544921875,0.905853271484375,-0.465911865234375
281527,0.602508544921875,0.905853271484375,-0.465911865234375
281528,0.56927490234375,0.8984375,-0.4707489013671875
281529,0.534515380859375,0.8669891357421875,-0.5102996826171875
281530,0.5320281982421875,0.7929534912109375,-0.6163787841796875
281531,0.5320281982421875,0.7929534912109375,-0.6163787841796875
281532,0.541168212890625,0.7830657958984375,-0.6442413330078125
281533,0.5270843505859375,0.782623291015625,-0.6776123046875
281534,0.447540283203125,0.7817230224609375,-0.7568206787109375
281535,0.447540283203125,0.7817230224609375,-0.7568206787109375
281536,0.4124298095703125,0.797149658203125,-0.808197021484375
281537,0.4124298095703125,0.797149658203125,-0.808197021484375
281538,0.3352203369140625,0.8585205078125,-0.9366302490234376
281539,0.2713165283203125,0.87664794921875,-1.00445556640625
281540,0.2146148681640625,0.8890228271484375,-1.043899536132812
281541,0.1597747802734375,0.9205169677734376,-1.079620361328125
281542,0.1625518798828125,0.932708740234375,-1.021469116210938
281543,0.1625518798828125,0.932708740234375,-1.021469116210938
281544,0.1643524169921875,0.9075927734375,-0.944183349609375
281545,0.1434326171875,0.869873046875,-0.8495025634765625
281546,0.104095458984375,0.837249755859375,-0.781280517578125
281547,0.0895233154296875,0.7769317626953125,-0.711151123046875
281548,0.0949859619140625,0.7413330078125,-0.6726226806640625
281549,0.1022186279296875,0.753021240234375,-0.642669677734375
281550,0.118438720703125,0.755859375,-0.6678009033203125
281551,0.118438720703125,0.755859375,-0.6678009033203125
281552,0.1879425048828125,0.684295654296875,-0.72479248046875
281553,0.24395751953125,0.6087493896484375,-0.81134033203125
281554,0.2227325439453125,0.4742431640625,-0.7967681884765625
281555,0.2227325439453125,0.4742431640625,-0.7967681884765625
281556,0.1528472900390625,0.4632720947265625,-0.7930450439453125
281557,0.1055145263671875,0.42431640625,-0.813507080078125
281558,0.070159912109375,0.371917724609375,-0.914398193359375
281559,0.070159912109375,0.371917724609375,-0.914398193359375
281560,0.0705108642578125,0.37603759765625,-0.9259796142578124
281561,0.07611083984375,0.3988189697265625,-0.904144287109375
281562,0.059539794921875,0.5187225341796875,-0.839630126953125
281563,0.059539794921875,0.5187225341796875,-0.839630126953125
281564,0.041290283203125,0.5859222412109375,-0.767608642578125
281565,-0.006195068359375,0.6285858154296875,-0.7006988525390625
281566,-0.125335693359375,0.678131103515625,-0.605377197265625
281567,-0.125335693359375,0.678131103515625,-0.605377197265625
281568,-0.1802978515625,0.692718505859375,-0.583526611328125
281569,-0.224945068359375,0.693328857421875,-0.571990966796875
281570,-0.2859344482421875,0.6442413330078125,-0.564605712890625
281571,-0.2859344482421875,0.6442413330078125,-0.564605712890625
281572,-0.3234710693359375,0.612152099609375,-0.556976318359375
281573,-0.3899383544921875,0.602752685546875,-0.481201171875
281574,-0.462890625,0.6270599365234375,-0.306182861328125
281575,-0.520965576171875,0.666534423828125,-0.1202239990234375
281576,-0.55621337890625,0.69146728515625,-0.0376739501953125
281577,-0.5482635498046875,0.69024658203125,-0.0474853515625
281578,-0.498687744140625,0.6613616943359375,-0.1575469970703125
281579,-0.443450927734375,0.62286376953125,-0.33636474609375
281580,-0.4009857177734375,0.5889892578125,-0.5125274658203125
281581,-0.368011474609375,0.55487060546875,-0.6146240234375
281582,-0.295257568359375,0.509857177734375,-0.5151824951171875
281583,-0.295257568359375,0.509857177734375,-0.5151824951171875
281584,-0.295257568359375,0.509857177734375,-0.5151824951171875
281585,-0.2484283447265625,0.5701904296875,-0.394500732421875
281586,-0.2725067138671875,0.5020599365234375,-0.380462646484375
281587,-0.2725067138671875,0.5020599365234375,-0.380462646484375
281588,-0.27984619140625,0.49267578125,-0.3916778564453125
281589,-0.283660888671875,0.4862213134765625,-0.397674560546875
281590,-0.2960968017578125,0.468170166015625,-0.419952392578125
281591,-0.3096923828125,0.440948486328125,-0.443206787109375
281592,-0.320770263671875,0.4130706787109375,-0.455352783203125
281593,-0.3314208984375,0.395294189453125,-0.44866943359375
281594,-0.3101348876953125,0.4113922119140625,-0.3945770263671875
281595,-0.3101348876953125,0.4113922119140625,-0.3945770263671875
281596,-0.2775421142578125,0.431640625,-0.3690643310546875
281597,-0.24407958984375,0.4370880126953125,-0.367034912109375
281598,-0.2190399169921875,0.3632354736328125,-0.39404296875
281599,-0.2190399169921875,0.3632354736328125,-0.39404296875
281600,-0.2042694091796875,0.3048095703125,-0.3744964599609375
281601,-0.1870880126953125,0.2389373779296875,-0.3349609375
281602,-0.1239776611328125,0.149505615234375,-0.2756500244140625
281603,-0.1239776611328125,0.149505615234375,-0.2756500244140625
281604,-0.0746612548828125,0.1186370849609375,-0.2698516845703125
281605,-0.0746612548828125,0.1186370849609375,-0.2698516845703125
281606,0.0355987548828125,0.0773162841796875,-0.28009033203125
281607,0.0914459228515625,0.067352294921875,-0.2967987060546875
281608,0.1402130126953125,0.0604705810546875,-0.3174285888671875
281609,0.1826934814453125,0.055419921875,-0.3226470947265625
281610,0.2124176025390625,0.0562591552734375,-0.31988525390625
281611,0.22576904296875,0.0707550048828125,-0.2704315185546875
281612,0.220977783203125,0.1676483154296875,-0.1476287841796875
281613,0.255889892578125,0.282928466796875,-0.059295654296875
281614,0.30426025390625,0.2539215087890625,-0.1323394775390625
281615,0.30426025390625,0.2539215087890625,-0.1323394775390625
281616,0.3934478759765625,-0.0144195556640625,-0.30194091796875
281617,0.4019775390625,-0.156646728515625,-0.2082672119140625
281618,0.2352447509765625,-0.1832122802734375,-0.1214447021484375
281619,0.2352447509765625,-0.1832122802734375,-0.1214447021484375
281620,0.166168212890625,-0.203369140625,-0.1138916015625
281621,0.195709228515625,-0.2394256591796875,-0.10272216796875
281622,0.249237060546875,-0.1367645263671875,0.0520477294921875
281623,0.249237060546875,-0.1367645263671875,0.0520477294921875
281624,0.2755584716796875,-0.0066070556640625,0.01312255859375
281625,0.29705810546875,0.115692138671875,-0.0276641845703125
281626,0.3094329833984375,0.159698486328125,0.01983642578125
281627,0.3094329833984375,0.159698486328125,0.01983642578125
281628,0.295928955078125,0.1773681640625,0.06109619140625
281629,0.279052734375,0.3047027587890625,-0.0016937255859375
281630,0.33038330078125,1.221206665039062,-0.3478546142578125
281631,0.33038330078125,1.221206665039062,-0.3478546142578125
281632,0.5438232421875,1.916366577148438,-0.5088043212890625
281633,0.7386322021484375,2.892501831054688,-0.600372314453125
281634,1.342300415039062,6.568405151367188,-0.88311767578125
281635,1.342300415039062,6.568405151367188,-0.88311767578125
281636,1.599319458007812,7.228683471679688,-0.795379638671875
281637,1.63555908203125,6.395416259765625,-0.7120361328125
281638,1.28173828125,3.450973510742188,-0.963287353515625
281639,1.28173828125,3.450973510742188,-0.963287353515625
281640,1.112457275390625,2.5509033203125,-0.537841796875
281641,0.926605224609375,1.912109375,-0.30181884765625
281642,0.5922088623046875,1.134201049804688,-0.1670074462890625
281643,0.5922088623046875,1.134201049804688,-0.1670074462890625
281644,0.4651031494140625,1.031204223632812,-0.2009124755859375
281645,0.37017822265625,1.243209838867188,-0.231719970703125
281646,0.1707305908203125,2.105484008789062,-0.275787353515625
281647,0.1707305908203125,2.105484008789062,-0.275787353515625
281648,0.13525390625,2.273178100585938,-0.112518310546875
281649,0.20257568359375,2.189224243164062,0.303680419921875
281650,0.3632354736328125,1.770614624023438,0.388916015625
281651,0.3632354736328125,1.770614624023438,0.388916015625
281652,0.4384765625,1.637863159179688,0.1016998291015625
281653,0.5208282470703125,1.489089965820312,-0.152618408203125
281654,0.66650390625,1.2332763671875,-0.3399200439453125
281655,0.66650390625,1.2332763671875,-0.3399200439453125
281656,0.681549072265625,1.156509399414062,-0.2339935302734375
281657,0.6548614501953125,1.120407104492188,-0.1323394775390625
281658,0.604278564453125,1.04693603515625,-0.1110076904296875
281659,0.604278564453125,1.04693603515625,-0.1110076904296875
281660,0.573577880859375,1.003662109375,-0.16912841796875
281661,0.52850341796875,0.9652099609375,-0.2049407958984375
281662,0.398406982421875,0.9022216796875,-0.18585205078125
281663,0.398406982421875,0.9022216796875,-0.18585205078125
281664,0.33599853515625,0.8630828857421875,-0.1721343994140625
281665,0.289337158203125,0.8144073486328125,-0.1587371826171875
281666,0.2577972412109375,0.7644500732421875,-0.153778076171875
281667,0.234222412109375,0.7175140380859375,-0.1556549072265625
281668,0.21356201171875,0.6756134033203125,-0.1571502685546875
281669,0.197723388671875,0.643157958984375,-0.1593780517578125
281670,0.1677093505859375,0.5955810546875,-0.16827392578125
281671,0.1677093505859375,0.5955810546875,-0.16827392578125
281672,0.149383544921875,0.5754241943359375,-0.1693115234375
281673,0.131805419921875,0.5507659912109375,-0.1634521484375
281674,0.069854736328125,0.507293701171875,-0.0928955078125
281675,0.069854736328125,0.507293701171875,-0.0928955078125
281676,0.062347412109375,0.5343475341796875,-0.0688629150390625
281677,0.069732666015625,0.5568389892578125,-0.08294677734375
281678,0.0734100341796875,0.573944091796875,-0.0857696533203125
281679,0.0734100341796875,0.573944091796875,-0.0857696533203125
281680,0.085052490234375,0.5770416259765625,-0.0903778076171875
281681,0.085052490234375,0.5770416259765625,-0.0903778076171875
281682,0.141143798828125,0.5948028564453125,-0.184478759765625
281683,0.141143798828125,0.5948028564453125,-0.184478759765625
281684,0.141143798828125,0.5948028564453125,-0.184478759765625
281685,0.1709442138671875,0.6059417724609375,-0.2061767578125
281686,0.272125244140625,0.6369781494140625,-0.2108306884765625
281687,0.272125244140625,0.6369781494140625,-0.2108306884765625
281688,0.3480682373046875,0.68316650390625,-0.236785888671875
281689,0.434967041015625,0.74932861328125,-0.2800445556640625
281690,0.5613861083984375,0.8488616943359375,-0.2973480224609375
281691,0.5613861083984375,0.8488616943359375,-0.2973480224609375
281692,0.6110687255859375,0.8680572509765625,-0.285064697265625
281693,0.5823516845703125,0.8961029052734375,0.13568115234375
281694,0.4061431884765625,0.953338623046875,0.8232269287109375
281695,0.2247161865234375,0.930389404296875,0.3057403564453125
281696,0.244140625,0.9349517822265624,-0.2349853515625
281697,0.3105926513671875,0.949066162109375,-0.175018310546875
281698,0.272705078125,0.94219970703125,-0.1214599609375
281699,0.2541961669921875,0.94134521484375,-0.1216888427734375
281700,0.21429443359375,0.9918212890625,-0.1409149169921875
281701,0.18310546875,1.040054321289062,-0.22265625
281702,0.1436920166015625,1.0986328125,-0.355712890625
281703,0.1436920166015625,1.0986328125,-0.355712890625
281704,0.1157989501953125,1.087814331054688,-0.379638671875
281705,0.084716796875,1.060806274414062,-0.382843017578125
281706,0.0540924072265625,0.979949951171875,-0.3525238037109375
281707,0.0540924072265625,0.979949951171875,-0.3525238037109375
281708,0.0556182861328125,0.9367523193359376,-0.3426513671875
281709,0.0639801025390625,0.8941802978515625,-0.340484619140625
281710,0.09332275390625,0.8394622802734375,-0.32843017578125
281711,0.09332275390625,0.8394622802734375,-0.32843017578125
281712,0.10345458984375,0.8474273681640625,-0.3223419189453125
281713,0.1080322265625,0.8648681640625,-0.3097686767578125
281714,0.092132568359375,0.8613739013671875,-0.2905120849609375
281715,0.092132568359375,0.8613739013671875,-0.2905120849609375
281716,0.0854644775390625,0.849517822265625,-0.2783050537109375
281717,0.0828857421875,0.8365631103515625,-0.27459716796875
281718,0.108184814453125,0.850830078125,-0.2780914306640625
281719,0.108184814453125,0.850830078125,-0.2780914306640625
281720,0.13067626953125,0.8778839111328125,-0.275909423828125
281721,0.1389007568359375,0.9015960693359376,-0.28179931640625
281722,0.1342620849609375,0.9167633056640624,-0.2802276611328125
281723,0.125,0.9156341552734376,-0.2699127197265625
281724,0.113861083984375,0.9058990478515624,-0.2630462646484375
281725,0.107177734375,0.911773681640625,-0.2563934326171875
281726,0.08807373046875,0.9460601806640624,-0.2495880126953125
281727,0.055206298828125,0.9736785888671876,-0.2223968505859375
281728,0.029693603515625,0.99072265625,-0.1825103759765625
281729,0.0146026611328125,1.007888793945312,-0.1663970947265625
281730,0.004302978515625,1.024749755859375,-0.1741790771484375
281731,-0.0059661865234375,1.032333374023438,-0.168853759765625
281732,-0.0177154541015625,1.02935791015625,-0.1496124267578125
281733,-0.01910400390625,1.012527465820312,-0.1409759521484375
281734,0.0003204345703125,0.9740447998046876,-0.147674560546875
281735,0.0003204345703125,0.9740447998046876,-0.147674560546875
281736,0.023895263671875,0.9610443115234376,-0.148223876953125
281737,0.0518646240234375,0.96746826171875,-0.1586761474609375
281738,0.079132080078125,0.9752197265625,-0.17218017578125
281739,0.10504150390625,0.9729461669921876,-0.1905975341796875
281740,0.121612548828125,0.9603271484375,-0.216583251953125
281741,0.1333770751953125,0.9467926025390624,-0.2284088134765625
281742,0.141265869140625,0.9400482177734376,-0.2289276123046875
281743,0.1431732177734375,0.9436187744140624,-0.2355499267578125
281744,0.1358795166015625,0.960540771484375,-0.2524261474609375
281745,0.127349853515625,0.9808502197265624,-0.2646484375
281746,0.0922698974609375,1.0374755859375,-0.2883453369140625
281747,0.0922698974609375,1.0374755859375,-0.2883453369140625
281748,0.0644073486328125,1.042388916015625,-0.29571533203125
281749,0.0267181396484375,1.042312622070312,-0.2828521728515625
281750,-0.0418243408203125,0.992523193359375,-0.15484619140625
281751,-0.0418243408203125,0.992523193359375,-0.15484619140625
281752,-0.0612640380859375,0.95330810546875,-0.0828399658203125
281753,-0.0706634521484375,0.9283905029296876,-0.0220794677734375
281754,-0.0365753173828125,0.9305267333984376,0.0267486572265625
281755,-0.0365753173828125,0.9305267333984376,0.0267486572265625
281756,0.0187835693359375,0.98028564453125,0.030181884765625
281757,0.0187835693359375,0.98028564453125,0.030181884765625
281758,0.149078369140625,1.088180541992188,-0.0364837646484375
281759,0.2222442626953125,1.1334228515625,-0.0995330810546875
281760,0.2694854736328125,1.174774169921875,-0.0262908935546875
281761,0.2869415283203125,1.199432373046875,0.240081787109375
281762,0.3078460693359375,1.181777954101562,0.3351593017578125
281763,0.24737548828125,1.054702758789062,0.2067108154296875
281764,0.1580963134765625,0.958465576171875,0.02362060546875
281765,0.1016387939453125,0.9263458251953124,-0.0968170166015625
281766,0.0705108642578125,0.8824615478515625,-0.1571044921875
281767,0.0490264892578125,0.8646392822265625,-0.1685028076171875
281768,0.0262908935546875,0.864654541015625,-0.150390625
281769,-0.0154571533203125,0.9310760498046876,-0.1352386474609375
281770,-0.0366668701171875,1.018386840820312,-0.144989013671875
281771,-0.0366668701171875,1.018386840820312,-0.144989013671875
281772,-0.051971435546875,1.106689453125,-0.1631317138671875
281773,-0.0627899169921875,1.1854248046875,-0.1947479248046875
281774,-0.0693206787109375,1.2518310546875,-0.2165679931640625
281775,-0.0693206787109375,1.2518310546875,-0.2165679931640625
281776,-0.037872314453125,1.221115112304688,-0.200714111328125
281777,0.0279541015625,1.163772583007812,-0.180267333984375
281778,0.09521484375,1.083938598632812,-0.129364013671875
281779,0.140228271484375,0.9882965087890624,-0.08367919921875
281780,0.17559814453125,0.926177978515625,-0.0730743408203125
281781,0.20709228515625,0.8909149169921875,-0.097412109375
281782,0.2357025146484375,0.8638916015625,-0.134185791015625
281783,0.2588348388671875,0.860748291015625,-0.1364898681640625
281784,0.2716522216796875,0.859039306640625,-0.1212615966796875
281785,0.2577972412109375,0.8453369140625,-0.1383514404296875
281786,0.2577972412109375,0.8453369140625,-0.1383514404296875
281787,0.23345947265625,0.83721923828125,-0.162261962890625
281788,0.2252349853515625,0.8518218994140625,-0.147430419921875
281789,0.2186737060546875,0.8685150146484375,-0.1375732421875
281790,0.21826171875,0.8944854736328125,-0.1290130615234375
281791,0.222320556640625,0.9232025146484376,-0.113922119140625
281792,0.22589111328125,0.9473419189453124,-0.0563507080078125
281793,0.22552490234375,0.98834228515625,0.0223236083984375
281794,0.244873046875,1.0052490234375,0.0160064697265625
281795,0.2704620361328125,0.9935150146484376,-0.028961181640625
281796,0.2844085693359375,0.9767303466796876,-0.039703369140625
281797,0.2975921630859375,0.9706573486328124,-0.047698974609375
281798,0.3047943115234375,0.9610595703125,-0.0777740478515625
281799,0.317962646484375,0.94659423828125,-0.1114501953125
281800,0.330413818359375,0.933349609375,-0.128570556640625
281801,0.335662841796875,0.926605224609375,-0.129608154296875
281802,0.2950286865234375,0.941650390625,-0.1318206787109375
281803,0.2950286865234375,0.941650390625,-0.1318206787109375
281804,0.2530670166015625,0.93121337890625,-0.1363372802734375
281805,0.253936767578125,0.928375244140625,-0.1157989501953125
281806,0.253936767578125,0.928375244140625,-0.1157989501953125
281807,0.27130126953125,0.90692138671875,-0.135955810546875
281808,0.2981109619140625,0.915374755859375,-0.14178466796875
281809,0.3282928466796875,0.9360504150390624,-0.12255859375
281810,0.3401031494140625,0.9322662353515624,-0.114501953125
281811,0.359161376953125,0.9449462890625,-0.0980072021484375
281812,0.36541748046875,0.962005615234375,-0.078369140625
281813,0.3680419921875,0.967437744140625,-0.062774658203125
281814,0.366058349609375,0.983673095703125,-0.0569610595703125
281815,0.3549652099609375,0.9907073974609376,-0.0555572509765625
281816,0.33544921875,0.972930908203125,-0.06561279296875
281817,0.3239898681640625,0.94537353515625,-0.08319091796875
281818,0.3239898681640625,0.94537353515625,-0.08319091796875
281819,0.320587158203125,0.937957763671875,-0.098480224609375
281820,0.3185882568359375,0.931182861328125,-0.0933837890625
281821,0.3121795654296875,0.9130706787109376,-0.08599853515625
281822,0.30999755859375,0.9168243408203124,-0.0768280029296875
281823,0.3019256591796875,0.90887451171875,-0.0727691650390625
281824,0.294342041015625,0.907928466796875,-0.0652313232421875
281825,0.285186767578125,0.90911865234375,-0.0556488037109375
281826,0.272979736328125,0.894256591796875,-0.0507659912109375
281827,0.270721435546875,0.889739990234375,-0.0394287109375
281828,0.2766876220703125,0.8943328857421875,-0.0336761474609375
281829,0.2844085693359375,0.8999481201171875,-0.03021240234375
281830,0.3069915771484375,0.9010467529296876,-0.0290679931640625
281831,0.3069915771484375,0.9010467529296876,-0.0290679931640625
281832,0.3153533935546875,0.9083251953125,-0.041046142578125
281833,0.3175201416015625,0.929962158203125,-0.04534912109375
281834,0.2975921630859375,0.9714202880859376,-0.0414276123046875
281835,0.2975921630859375,0.9714202880859376,-0.0414276123046875
281836,0.27392578125,0.9788055419921876,-0.06341552734375
281837,0.2592620849609375,0.9864501953125,-0.0942840576171875
281838,0.24810791015625,0.9912109375,-0.1240081787109375
281839,0.2491607666015625,0.9915924072265624,-0.1386566162109375
281840,0.2466583251953125,1.00494384765625,-0.1299896240234375
281841,0.2574920654296875,0.9910736083984376,-0.095733642578125
281842,0.2574920654296875,0.9910736083984376,-0.095733642578125
281843,0.2787933349609375,0.9747467041015624,-0.101837158203125
281844,0.3086090087890625,0.9577178955078124,-0.1248016357421875
281845,0.328826904296875,0.940032958984375,-0.151580810546875
281846,0.3441619873046875,0.910552978515625,-0.1663818359375
281847,0.3539581298828125,0.897735595703125,-0.172760009765625
281848,0.3539581298828125,0.897735595703125,-0.172760009765625
281849,0.3882293701171875,0.8897247314453125,-0.1597137451171875
281850,0.4168243408203125,0.8840179443359375,-0.1590728759765625
281851,0.4356231689453125,0.9000396728515625,-0.1422882080078125
281852,0.4561767578125,0.9320220947265624,-0.122894287109375
281853,0.4755096435546875,0.980621337890625,-0.109039306640625
281854,0.4849090576171875,1.011001586914062,-0.09228515625
281855,0.4826812744140625,1.036651611328125,-0.0842742919921875
281856,0.471221923828125,1.008651733398438,-0.06805419921875
281857,0.455535888671875,0.946014404296875,-0.066436767578125
281858,0.45721435546875,0.9233856201171876,-0.0615386962890625
281859,0.4563751220703125,0.8883056640625,-0.080841064453125
281860,0.4536285400390625,0.8720855712890625,-0.076019287109375
281861,0.446075439453125,0.8761138916015625,-0.0843505859375
281862,0.405914306640625,0.87432861328125,-0.093170166015625
281863,0.405914306640625,0.87432861328125,-0.093170166015625
281864,0.38427734375,0.8677825927734375,-0.1135711669921875
281865,0.3668212890625,0.8722991943359375,-0.1160430908203125
281866,0.35205078125,0.878143310546875,-0.1167755126953125
281867,0.35205078125,0.878143310546875,-0.1167755126953125
281868,0.34344482421875,0.87957763671875,-0.122650146484375
281869,0.3337860107421875,0.8924713134765625,-0.1181488037109375
281870,0.3296051025390625,0.906036376953125,-0.097564697265625
281871,0.3296051025390625,0.906036376953125,-0.097564697265625
281872,0.3203582763671875,0.9053497314453124,-0.0815582275390625
281873,0.31329345703125,0.891143798828125,-0.0690765380859375
281874,0.3078155517578125,0.8828887939453125,-0.061614990234375
281875,0.308013916015625,0.8784942626953125,-0.05548095703125
281876,0.3125152587890625,0.8797454833984375,-0.0601959228515625
281877,0.316009521484375,0.8859100341796875,-0.0612335205078125
281878,0.321533203125,0.8918914794921875,-0.0546417236328125
281879,0.3250732421875,0.8985443115234375,-0.0503997802734375
281880,0.33306884765625,0.9115447998046876,-0.05780029296875
281881,0.340545654296875,0.930450439453125,-0.0763397216796875
281882,0.3366241455078125,0.966064453125,-0.11248779296875
281883,0.3366241455078125,0.966064453125,-0.11248779296875
281884,0.338623046875,0.9981689453125,-0.1462860107421875
281885,0.344940185546875,1.032577514648438,-0.1956787109375
281886,0.361419677734375,1.079940795898438,-0.247894287109375
281887,0.3598785400390625,1.101669311523438,-0.2740631103515625
281888,0.3373260498046875,1.120254516601562,-0.26910400390625
281889,0.2913055419921875,1.134185791015625,-0.2434539794921875
281890,0.1428375244140625,1.065582275390625,-0.2015380859375
281891,0.1428375244140625,1.065582275390625,-0.2015380859375
281892,0.0899505615234375,1.007843017578125,-0.18817138671875
281893,0.0663604736328125,0.9599761962890624,-0.1796722412109375
281894,0.0848846435546875,0.906951904296875,-0.1851348876953125
281895,0.0848846435546875,0.906951904296875,-0.1851348876953125
281896,0.1176910400390625,0.917816162109375,-0.19097900390625
281897,0.160858154296875,0.9248046875,-0.1854248046875
281898,0.237640380859375,0.93487548828125,-0.1915435791015625
281899,0.237640380859375,0.93487548828125,-0.1915435791015625
281900,0.2540283203125,0.94378662109375,-0.18804931640625
281901,0.2583160400390625,0.9511871337890624,-0.1785888671875
281902,0.2577056884765625,0.9668731689453124,-0.170166015625
281903,0.2518157958984375,0.9789886474609376,-0.154754638671875
281904,0.24810791015625,0.9929046630859376,-0.14166259765625
281905,0.2396392822265625,1.002426147460938,-0.1399383544921875
281906,0.2206878662109375,1.004623413085938,-0.189117431640625
281907,0.2206878662109375,1.004623413085938,-0.189117431640625
281908,0.2151336669921875,1.006301879882812,-0.2305450439453125
281909,0.201629638671875,1.004470825195312,-0.2515716552734375
281910,0.170074462890625,0.97760009765625,-0.2235107421875
281911,0.170074462890625,0.97760009765625,-0.2235107421875
281912,0.171630859375,0.969757080078125,-0.171875
281913,0.178253173828125,0.9687347412109376,-0.1214599609375
281914,0.1937713623046875,0.972747802734375,-0.0872039794921875
281915,0.207763671875,0.985015869140625,-0.0745697021484375
281916,0.211395263671875,0.998321533203125,-0.0899200439453125
281917,0.186279296875,0.9958343505859376,-0.1290435791015625
281918,0.186279296875,0.9958343505859376,-0.1290435791015625
281919,0.1654510498046875,0.9987030029296876,-0.148223876953125
281920,0.1546630859375,0.99822998046875,-0.1612396240234375
281921,0.1483154296875,1.001922607421875,-0.1770172119140625
281922,0.1485595703125,1.013458251953125,-0.190826416015625
281923,0.15545654296875,1.029190063476562,-0.1925201416015625
281924,0.1647186279296875,1.037490844726562,-0.171051025390625
281925,0.169921875,1.042922973632812,-0.1519012451171875
281926,0.156494140625,1.0478515625,-0.1253509521484375
281927,0.133880615234375,1.046646118164062,-0.103729248046875
281928,0.097808837890625,1.044189453125,-0.10174560546875
281929,0.0601959228515625,1.043365478515625,-0.1016845703125
281930,0.026519775390625,1.039215087890625,-0.104034423828125
281931,0.0029144287109375,1.031539916992188,-0.106231689453125
281932,-0.0101318359375,1.017807006835938,-0.1037750244140625
281933,-0.0142822265625,1.007217407226562,-0.0996246337890625
281934,-0.00384521484375,0.9827117919921876,-0.0851898193359375
281935,-0.00384521484375,0.9827117919921876,-0.0851898193359375
281936,0.0041961669921875,0.9940185546875,-0.072967529296875
281937,0.013153076171875,0.9981536865234376,-0.067962646484375
281938,0.020965576171875,0.99951171875,-0.063751220703125
281939,0.031646728515625,0.9998779296875,-0.0550079345703125
281940,0.041046142578125,0.996337890625,-0.04583740234375
