time_idx,accelerometerAccelerationX(G),accelerometerAccelerationY(G),accelerometerAccelerationZ(G)
0,0.0792083740234375,-0.1251220703125,-0.958526611328125
1,0.078582763671875,-0.120941162109375,-0.9406585693359376
2,0.075927734375,-0.120025634765625,-0.9457550048828124
3,0.080841064453125,-0.1250762939453125,-0.9595947265625
4,0.098297119140625,-0.1259307861328125,-0.9698944091796876
5,0.1147308349609375,-0.1248931884765625,-0.9623260498046876
6,0.1231842041015625,-0.1298675537109375,-0.9497528076171876
7,0.13421630859375,-0.1331634521484375,-0.9509735107421876
8,0.144378662109375,-0.139923095703125,-0.954803466796875
9,0.1558990478515625,-0.14947509765625,-0.9543914794921876
10,0.1524658203125,-0.162139892578125,-0.9469146728515624
11,0.1422271728515625,-0.1744842529296875,-0.9404296875
12,0.128143310546875,-0.1886138916015625,-0.9396820068359376
13,0.0999603271484375,-0.2027435302734375,-0.9373321533203124
14,0.0643463134765625,-0.2099609375,-0.9372711181640624
15,0.029541015625,-0.2046966552734375,-0.9525909423828124
16,0.01214599609375,-0.1938018798828125,-0.970458984375
17,0.0179901123046875,-0.1791534423828125,-0.972869873046875
18,0.0328521728515625,-0.148651123046875,-0.96063232421875
19,0.0284271240234375,-0.16162109375,-0.961700439453125
20,0.0141143798828125,-0.1333770751953125,-0.9681243896484376
21,-0.0193939208984375,-0.1277618408203125,-0.968597412109375
22,-0.053924560546875,-0.118927001953125,-0.962921142578125
23,-0.073638916015625,-0.0986480712890625,-0.9693603515625
24,-0.091400146484375,-0.084503173828125,-0.959625244140625
25,-0.103302001953125,-0.0726165771484375,-0.9517974853515624
26,-0.1032257080078125,-0.053863525390625,-0.9654998779296876
27,-0.1024017333984375,-0.0634002685546875,-0.953399658203125
28,-0.106964111328125,-0.0436248779296875,-0.9774017333984376
29,-0.1011810302734375,-0.0315093994140625,-0.989227294921875
30,-0.1012420654296875,-0.02557373046875,-1.002670288085938
31,-0.114593505859375,-0.02252197265625,-1.005340576171875
32,-0.126861572265625,-0.026702880859375,-1.00286865234375
33,-0.137481689453125,-0.0400238037109375,-0.993499755859375
34,-0.139251708984375,-0.048065185546875,-0.9889678955078124
35,-0.1303253173828125,-0.0513763427734375,-0.99383544921875
36,-0.1280364990234375,-0.0545501708984375,-1.004226684570312
37,-0.12799072265625,-0.059326171875,-1.021469116210938
38,-0.1119537353515625,-0.0601654052734375,-1.0594482421875
39,-0.1232452392578125,-0.0607452392578125,-1.040084838867188
40,-0.1000823974609375,-0.061065673828125,-1.088821411132812
41,-0.09033203125,-0.060821533203125,-1.106979370117188
42,-0.075286865234375,-0.0540313720703125,-1.114242553710938
43,-0.053466796875,-0.0501708984375,-1.106826782226562
44,-0.0354156494140625,-0.05291748046875,-1.08282470703125
45,-0.0193939208984375,-0.0503692626953125,-1.063613891601562
46,-0.0163726806640625,-0.039093017578125,-1.051864624023438
47,-0.022918701171875,-0.033050537109375,-1.037185668945312
48,-0.0283203125,-0.0358123779296875,-1.027542114257812
49,-0.0407257080078125,-0.0436248779296875,-1.0208740234375
50,-0.050201416015625,-0.0473785400390625,-1.0162353515625
51,-0.0579071044921875,-0.0515289306640625,-1.00634765625
52,-0.07159423828125,-0.0583953857421875,-0.99169921875
53,-0.0863037109375,-0.0621490478515625,-0.972930908203125
54,-0.0925140380859375,-0.069488525390625,-0.97637939453125
55,-0.0931396484375,-0.073974609375,-0.99560546875
56,-0.0885467529296875,-0.07708740234375,-1.008331298828125
57,-0.0739593505859375,-0.0786590576171875,-1.01654052734375
58,-0.0581512451171875,-0.0771026611328125,-1.023284912109375
59,-0.0418243408203125,-0.079681396484375,-1.021286010742188
60,-0.0269012451171875,-0.07684326171875,-1.01287841796875
61,-0.0171356201171875,-0.0736236572265625,-1.007476806640625
62,-0.0136871337890625,-0.072021484375,-1.013015747070312
63,-0.009063720703125,-0.0695037841796875,-1.021270751953125
64,-0.0024871826171875,-0.066802978515625,-1.022979736328125
65,0.0042572021484375,-0.0655670166015625,-1.013702392578125
66,0.00518798828125,-0.0634918212890625,-1.003021240234375
67,3.0517578125e-05,-0.0619964599609375,-0.999542236328125
68,-0.0024871826171875,-0.069366455078125,-0.99169921875
69,0.0016632080078125,-0.0777587890625,-0.9847869873046876
70,0.0068206787109375,-0.0816650390625,-0.9894866943359376
71,0.0039825439453125,-0.084625244140625,-0.9977874755859376
72,-0.005462646484375,-0.0928192138671875,-0.99700927734375
73,-0.014984130859375,-0.1009674072265625,-0.9869232177734376
74,-0.0301666259765625,-0.104949951171875,-0.986358642578125
75,-0.0449981689453125,-0.107940673828125,-0.989288330078125
76,-0.0538177490234375,-0.1131591796875,-0.9914703369140624
77,-0.0628662109375,-0.1216583251953125,-0.99127197265625
78,-0.0528717041015625,-0.13092041015625,-0.989532470703125
79,-0.06219482421875,-0.127655029296875,-0.9902801513671876
80,-0.0445098876953125,-0.1282501220703125,-0.9868621826171876
81,-0.03875732421875,-0.1243743896484375,-0.984832763671875
82,-0.0345916748046875,-0.1181640625,-0.981689453125
83,-0.029449462890625,-0.11395263671875,-0.9817962646484376
84,-0.0263824462890625,-0.1090850830078125,-0.982879638671875
85,-0.0291900634765625,-0.10430908203125,-0.9814910888671876
86,-0.037750244140625,-0.1007080078125,-0.9823455810546876
87,-0.0469207763671875,-0.0977325439453125,-0.99761962890625
88,-0.0542144775390625,-0.0955352783203125,-1.0159912109375
89,-0.0552520751953125,-0.093170166015625,-1.023452758789062
90,-0.047027587890625,-0.0857086181640625,-1.013946533203125
91,-0.0378875732421875,-0.078460693359375,-1.008102416992188
92,-0.034332275390625,-0.0682525634765625,-1.009719848632812
93,-0.0349884033203125,-0.05499267578125,-1.007965087890625
94,-0.0326385498046875,-0.0489044189453125,-1.005905151367188
95,-0.034271240234375,-0.043487548828125,-1.00897216796875
96,-0.043975830078125,-0.0408172607421875,-1.013473510742188
97,-0.0489044189453125,-0.038848876953125,-1.0147705078125
98,-0.0533599853515625,-0.0387420654296875,-1.01568603515625
99,-0.0632171630859375,-0.041351318359375,-1.016189575195312
100,-0.070892333984375,-0.043731689453125,-1.024368286132812
101,-0.079803466796875,-0.046630859375,-1.034011840820312
102,-0.0830078125,-0.0474700927734375,-1.038543701171875
103,-0.0792388916015625,-0.0460357666015625,-1.044998168945312
104,-0.0743255615234375,-0.04449462890625,-1.053436279296875
105,-0.068603515625,-0.042724609375,-1.057022094726562
106,-0.057586669921875,-0.04052734375,-1.054168701171875
107,-0.0447845458984375,-0.0389404296875,-1.047286987304688
108,-0.0360107421875,-0.0369873046875,-1.040817260742188
109,-0.0350341796875,-0.0342864990234375,-1.034011840820312
110,-0.0398101806640625,-0.034637451171875,-1.030319213867188
111,-0.054534912109375,-0.0377960205078125,-1.026351928710938
112,-0.0673980712890625,-0.03887939453125,-1.015487670898438
113,-0.0723876953125,-0.0370941162109375,-1.009689331054688
114,-0.0741424560546875,-0.0340423583984375,-1.002685546875
115,-0.078125,-0.0316314697265625,-1.003768920898438
116,-0.087371826171875,-0.0253143310546875,-1.005706787109375
117,-0.0967864990234375,-0.024078369140625,-1.005783081054688
118,-0.1061248779296875,-0.02288818359375,-1.003570556640625
119,-0.1166534423828125,-0.017120361328125,-0.9870452880859376
120,-0.1109466552734375,-0.010711669921875,-0.976776123046875
121,-0.10528564453125,-0.006195068359375,-0.9656524658203124
122,-0.09747314453125,1.52587890625e-05,-0.96563720703125
123,-0.0793914794921875,-0.0084228515625,-0.9786224365234376
124,-0.0743255615234375,-0.020233154296875,-0.9746856689453124
125,-0.0805816650390625,-0.0296783447265625,-0.9755401611328124
126,-0.09051513671875,-0.0337066650390625,-0.975982666015625
127,-0.1066131591796875,-0.0391998291015625,-0.97369384765625
128,-0.1159515380859375,-0.04864501953125,-0.9751434326171876
129,-0.10498046875,-0.0562286376953125,-0.9812164306640624
130,-0.0861053466796875,-0.0676116943359375,-0.983489990234375
131,-0.074127197265625,-0.0811309814453125,-0.9866943359375
132,-0.0636444091796875,-0.088592529296875,-0.983642578125
133,-0.0450439453125,-0.0845489501953125,-0.9907684326171876
134,-0.0436248779296875,-0.0886383056640625,-0.987396240234375
135,-0.033111572265625,-0.0891265869140625,-0.9813995361328124
136,-0.01885986328125,-0.0910186767578125,-0.959625244140625
137,-0.0003662109375,-0.0909271240234375,-0.9459381103515624
138,0.0142822265625,-0.0922088623046875,-0.9533233642578124
139,0.0164337158203125,-0.0995330810546875,-0.9456329345703124
140,0.0124053955078125,-0.1070709228515625,-0.9345245361328124
141,0.012481689453125,-0.1080169677734375,-0.9328765869140624
142,0.014678955078125,-0.10247802734375,-0.941131591796875
143,0.0072174072265625,-0.098388671875,-0.9673919677734376
144,-0.0104217529296875,-0.101776123046875,-0.9977569580078124
145,-0.0145721435546875,-0.0992584228515625,-1.01361083984375
146,-0.037689208984375,-0.116668701171875,-1.0242919921875
147,-0.02850341796875,-0.1064300537109375,-1.022674560546875
148,-0.037689208984375,-0.1168365478515625,-1.016647338867188
149,-0.03375244140625,-0.107452392578125,-0.99530029296875
150,-0.028228759765625,-0.0942535400390625,-0.990997314453125
151,-0.011993408203125,-0.091766357421875,-0.9990234375
152,0.009613037109375,-0.0936279296875,-1.0048828125
153,-0.0128631591796875,-0.0370025634765625,-1.008163452148438
154,-0.05706787109375,0.0231170654296875,-1.0142822265625
155,0.12542724609375,-0.0746612548828125,-0.997314453125
156,0.1677093505859375,-0.1341400146484375,-1.042861938476562
157,0.0530853271484375,-0.11273193359375,-1.047637939453125
158,-0.10076904296875,-0.079132080078125,-0.9572601318359376
159,-0.0841522216796875,-0.0636138916015625,-0.987091064453125
160,-0.112701416015625,-0.1283416748046875,-0.87139892578125
161,-0.1414794921875,-0.14453125,-0.70599365234375
162,-0.13385009765625,-0.136077880859375,-0.67041015625
163,-0.08270263671875,-0.1459197998046875,-0.82855224609375
164,0.0223236083984375,-0.145477294921875,-1.102890014648438
165,0.0767822265625,-0.1190338134765625,-1.231857299804688
166,0.0980987548828125,-0.08526611328125,-1.212448120117188
167,0.11474609375,-0.06365966796875,-1.16961669921875
168,0.1018218994140625,-0.06488037109375,-1.101531982421875
169,0.04827880859375,-0.0624237060546875,-1.016799926757812
170,-0.02215576171875,-0.063262939453125,-0.919189453125
171,-0.0463104248046875,-0.073760986328125,-0.914093017578125
172,-0.050140380859375,-0.0852508544921875,-1.003402709960938
173,-0.0547943115234375,-0.0840911865234375,-1.059127807617188
174,-0.05816650390625,-0.0786590576171875,-1.040023803710938
175,-0.0646514892578125,-0.059844970703125,-0.9986114501953124
176,-0.0652313232421875,-0.04559326171875,-0.981842041015625
177,-0.061065673828125,-0.04840087890625,-0.9935302734375
178,-0.0732879638671875,-0.0489349365234375,-1.0010986328125
179,-0.098663330078125,-0.056915283203125,-1.014083862304688
180,-0.12615966796875,-0.07135009765625,-0.98394775390625
181,-0.12969970703125,-0.0729522705078125,-0.960968017578125
182,-0.1080474853515625,-0.0800628662109375,-0.971160888671875
183,-0.080413818359375,-0.0974884033203125,-1.024887084960938
184,-0.07086181640625,-0.121185302734375,-1.062652587890625
185,-0.0779571533203125,-0.135894775390625,-1.049636840820312
186,-0.07415771484375,-0.1348419189453125,-1.013229370117188
187,-0.0665283203125,-0.11907958984375,-0.972625732421875
188,-0.06365966796875,-0.1001434326171875,-0.9481964111328124
189,-0.0653228759765625,-0.091796875,-0.95001220703125
190,-0.0666046142578125,-0.0871734619140625,-0.959014892578125
191,-0.0642242431640625,-0.09515380859375,-0.96478271484375
192,-0.06396484375,-0.1060333251953125,-0.9790802001953124
193,-0.064056396484375,-0.112945556640625,-1.013046264648438
194,-0.0709991455078125,-0.1094818115234375,-1.029067993164062
195,-0.0807952880859375,-0.0882415771484375,-1.018356323242188
196,-0.089935302734375,-0.0698089599609375,-1.00396728515625
197,-0.103515625,-0.0594329833984375,-0.9943389892578124
198,-0.1135406494140625,-0.061248779296875,-0.9931640625
199,-0.1098785400390625,-0.070831298828125,-1.010940551757812
200,-0.1046142578125,-0.0848846435546875,-1.004058837890625
201,-0.105255126953125,-0.09002685546875,-0.9966278076171876
202,-0.098968505859375,-0.0894927978515625,-0.999725341796875
203,-0.079681396484375,-0.0970306396484375,-0.99658203125
204,-0.0450897216796875,-0.1055450439453125,-1.006134033203125
205,-0.046783447265625,-0.122894287109375,-1.040634155273438
206,-0.0707244873046875,-0.10357666015625,-1.067123413085938
207,-0.08099365234375,-0.0676727294921875,-1.012985229492188
208,-0.089508056640625,-0.053070068359375,-0.948516845703125
209,-0.0799713134765625,-0.05548095703125,-0.95745849609375
210,-0.065826416015625,-0.07281494140625,-0.9678802490234376
211,-0.0595550537109375,-0.0696258544921875,-0.9776458740234376
212,-0.0440216064453125,-0.069244384765625,-1.0003662109375
213,-0.0462188720703125,-0.0879974365234375,-1.017562866210938
214,-0.0584259033203125,-0.1174163818359375,-1.037994384765625
215,-0.0706329345703125,-0.1284942626953125,-1.054153442382812
216,-0.0798492431640625,-0.1066131591796875,-1.066680908203125
217,-0.093414306640625,-0.0902252197265625,-1.052658081054688
218,-0.1084136962890625,-0.08721923828125,-0.99896240234375
219,-0.1105194091796875,-0.0855865478515625,-1.041549682617188
220,-0.10943603515625,-0.07806396484375,-0.95001220703125
221,-0.1006011962890625,-0.091461181640625,-0.900787353515625
222,-0.085540771484375,-0.1058502197265625,-0.895111083984375
223,-0.0613555908203125,-0.1259002685546875,-0.9187469482421876
224,-0.0573577880859375,-0.13360595703125,-0.9337005615234376
225,-0.0543670654296875,-0.1307525634765625,-0.9239654541015624
226,-0.0668487548828125,-0.1082916259765625,-0.938629150390625
227,-0.0804443359375,-0.0835723876953125,-0.9503021240234376
228,-0.1024322509765625,-0.085479736328125,-0.9447021484375
229,-0.1124114990234375,-0.0883636474609375,-0.980255126953125
230,-0.12200927734375,-0.0848541259765625,-0.96612548828125
231,-0.103851318359375,-0.0885467529296875,-0.931396484375
232,-0.074493408203125,-0.1030731201171875,-1.04803466796875
233,-0.06207275390625,-0.1081390380859375,-1.15081787109375
234,-0.055511474609375,-0.0850982666015625,-1.111801147460938
235,-0.085205078125,-0.0694122314453125,-1.040924072265625
236,-0.1085662841796875,-0.0599212646484375,-0.9917144775390624
237,-0.112213134765625,-0.0560455322265625,-0.9847564697265624
238,-0.10736083984375,-0.0687713623046875,-0.9760589599609376
239,-0.0593719482421875,-0.1249847412109375,-0.85137939453125
240,-0.011383056640625,-0.173370361328125,-0.9586334228515624
241,-0.0464019775390625,-0.1017608642578125,-1.132980346679688
242,-0.03326416015625,-0.06805419921875,-0.965545654296875
243,-0.0726470947265625,-0.0446319580078125,-0.8637847900390625
244,-0.0952301025390625,-0.0482330322265625,-0.8863677978515625
245,-0.100250244140625,-0.0799713134765625,-0.97113037109375
246,-0.0933837890625,-0.087890625,-1.08306884765625
247,-0.097503662109375,-0.083709716796875,-1.1484375
248,-0.1102447509765625,-0.0761566162109375,-1.161788940429688
249,-0.11175537109375,-0.0796966552734375,-1.136856079101562
250,-0.1223297119140625,-0.0919647216796875,-1.0618896484375
251,-0.1231842041015625,-0.0988922119140625,-0.99468994140625
252,-0.11517333984375,-0.102874755859375,-0.982421875
253,-0.103057861328125,-0.10247802734375,-0.977447509765625
254,-0.09307861328125,-0.117279052734375,-0.958892822265625
255,-0.0481414794921875,-0.16387939453125,-0.8911590576171875
256,-0.0076446533203125,-0.14678955078125,-0.990447998046875
257,-0.039947509765625,-0.1071624755859375,-1.051177978515625
258,-0.0684051513671875,-0.07745361328125,-0.93585205078125
259,-0.09765625,-0.065704345703125,-0.9001007080078125
260,-0.10614013671875,-0.05743408203125,-0.921630859375
261,-0.09906005859375,-0.05889892578125,-0.975555419921875
262,-0.098052978515625,-0.0688629150390625,-1.000701904296875
263,-0.07061767578125,-0.0682220458984375,-1.01025390625
264,-0.0522613525390625,-0.095306396484375,-1.022750854492188
265,-0.0560760498046875,-0.1123046875,-1.01617431640625
266,-0.0500335693359375,-0.10076904296875,-0.9962921142578124
267,-0.0699310302734375,-0.0976104736328125,-0.973968505859375
268,-0.1041412353515625,-0.0917205810546875,-0.971343994140625
269,-0.124237060546875,-0.0858154296875,-0.952392578125
270,-0.1149139404296875,-0.09698486328125,-0.965179443359375
271,-0.1013946533203125,-0.104736328125,-1.011611938476562
272,-0.1016387939453125,-0.12554931640625,-1.026199340820312
273,-0.09173583984375,-0.128631591796875,-1.016830444335938
274,-0.0874176025390625,-0.125518798828125,-1.005783081054688
275,-0.0952301025390625,-0.1114654541015625,-0.99609375
276,-0.0948028564453125,-0.0926971435546875,-0.9982452392578124
277,-0.0861358642578125,-0.087646484375,-0.9854583740234376
278,-0.0743408203125,-0.080413818359375,-0.96990966796875
279,-0.0633392333984375,-0.0807342529296875,-0.96160888671875
280,-0.0484466552734375,-0.1020355224609375,-0.9716033935546876
281,-0.023681640625,-0.109161376953125,-0.9907379150390624
282,-0.0277099609375,-0.1149139404296875,-0.9738616943359376
283,-0.0361480712890625,-0.1182861328125,-0.9776611328125
284,-0.053314208984375,-0.1197967529296875,-0.977294921875
285,-0.08721923828125,-0.117218017578125,-0.9797821044921876
286,-0.1265106201171875,-0.1044921875,-1.025222778320312
287,-0.11126708984375,-0.1004486083984375,-1.013458251953125
288,-0.1219482421875,-0.0938262939453125,-1.001678466796875
289,-0.1116485595703125,-0.1170501708984375,-0.998321533203125
290,-0.1084747314453125,-0.1338653564453125,-1.044677734375
291,-0.0906829833984375,-0.123321533203125,-1.035842895507812
292,-0.0833282470703125,-0.10382080078125,-1.00042724609375
293,-0.0995635986328125,-0.1048736572265625,-0.9950714111328124
294,-0.0868988037109375,-0.1047821044921875,-0.986907958984375
295,-0.0968475341796875,-0.1132965087890625,-0.9910430908203124
296,-0.0771942138671875,-0.0901031494140625,-0.9832305908203124
297,-0.0616302490234375,-0.076416015625,-1.002182006835938
298,-0.0444183349609375,-0.091949462890625,-1.004623413085938
299,-0.0064849853515625,-0.144561767578125,-0.9125213623046876
300,-0.01043701171875,-0.129638671875,-1.017745971679688
301,-0.0356597900390625,-0.07830810546875,-1.013656616210938
302,-0.070953369140625,-0.0479736328125,-0.9277801513671876
303,-0.1123199462890625,-0.0446319580078125,-0.9048309326171876
304,-0.131439208984375,-0.06671142578125,-0.9386138916015624
305,-0.12652587890625,-0.10052490234375,-1.040420532226562
306,-0.1136322021484375,-0.107086181640625,-1.077407836914062
307,-0.103179931640625,-0.1133880615234375,-1.016555786132812
308,-0.0950775146484375,-0.1266326904296875,-0.995452880859375
309,-0.0871124267578125,-0.129974365234375,-0.9914093017578124
310,-0.0817413330078125,-0.1304473876953125,-0.9908294677734376
311,-0.073822021484375,-0.1399078369140625,-0.9639739990234376
312,-0.049560546875,-0.1403350830078125,-0.9651641845703124
313,-0.048370361328125,-0.149169921875,-0.9768524169921876
314,-0.050262451171875,-0.151947021484375,-0.9788665771484376
315,-0.0398406982421875,-0.0874481201171875,-0.98980712890625
316,-0.058563232421875,-0.095733642578125,-0.9736328125
317,-0.065765380859375,-0.0956878662109375,-1.03582763671875
318,-0.0784912109375,-0.09539794921875,-1.046356201171875
319,-0.0903472900390625,-0.0750274658203125,-1.018569946289062
320,-0.093414306640625,-0.08099365234375,-1.017562866210938
321,-0.110626220703125,-0.0877227783203125,-1.017486572265625
322,-0.113800048828125,-0.0942840576171875,-0.9916229248046876
323,-0.0959930419921875,-0.1010589599609375,-1.010467529296875
324,-0.092437744140625,-0.114990234375,-1.029434204101562
325,-0.0925140380859375,-0.1150970458984375,-0.998046875
326,-0.073394775390625,-0.114013671875,-0.9914398193359376
327,-0.0893707275390625,-0.1163177490234375,-0.9830474853515624
328,-0.0672454833984375,-0.11383056640625,-1.002197265625
329,-0.0557098388671875,-0.1073760986328125,-0.9780731201171876
330,-0.055999755859375,-0.111236572265625,-0.96697998046875
331,-0.0601043701171875,-0.1072235107421875,-0.9376068115234376
332,-0.0573577880859375,-0.088958740234375,-0.93670654296875
333,-0.0741729736328125,-0.0916595458984375,-0.947235107421875
334,-0.078521728515625,-0.1008453369140625,-0.9551849365234376
335,-0.071014404296875,-0.1161346435546875,-0.96527099609375
336,-0.05859375,-0.1267852783203125,-0.98736572265625
337,-0.05633544921875,-0.136138916015625,-0.9826202392578124
338,-0.0627593994140625,-0.1251983642578125,-0.965972900390625
339,-0.06951904296875,-0.126983642578125,-0.952484130859375
340,-0.0645294189453125,-0.1245269775390625,-0.939910888671875
341,-0.0630035400390625,-0.124908447265625,-0.9135894775390624
342,-0.056671142578125,-0.1475830078125,-0.901397705078125
343,-0.0677947998046875,-0.18212890625,-0.9615936279296876
344,-0.0720977783203125,-0.183502197265625,-0.97125244140625
345,-0.0654144287109375,-0.1740264892578125,-0.9274444580078124
346,-0.06890869140625,-0.142181396484375,-0.9891204833984376
347,-0.0712890625,-0.1648406982421875,-0.9279937744140624
348,-0.039794921875,-0.13018798828125,-1.114166259765625
349,-0.03179931640625,-0.1110687255859375,-1.109375
350,-0.0504302978515625,-0.098175048828125,-1.069580078125
351,-0.0706787109375,-0.0785675048828125,-1.015975952148438
352,-0.0697784423828125,-0.0555877685546875,-0.979217529296875
353,-0.0612335205078125,-0.0461578369140625,-0.938812255859375
354,-0.05029296875,-0.0404205322265625,-0.91290283203125
355,-0.031280517578125,-0.0430908203125,-0.9442291259765624
356,-0.0346527099609375,-0.0736236572265625,-1.045501708984375
357,-0.0416717529296875,-0.1233978271484375,-1.120208740234375
358,-0.033721923828125,-0.1533660888671875,-1.115219116210938
359,-0.026275634765625,-0.172576904296875,-1.0604248046875
360,-0.035491943359375,-0.192626953125,-1.018951416015625
361,-0.03948974609375,-0.1919403076171875,-0.9858551025390624
362,-0.0191802978515625,-0.1805572509765625,-0.9715423583984376
363,0.0035552978515625,-0.1627655029296875,-0.9407806396484376
364,0.0069732666015625,-0.1356658935546875,-0.9130401611328124
365,0.010406494140625,-0.113983154296875,-0.912933349609375
366,0.0301361083984375,-0.1016082763671875,-0.973968505859375
367,0.0223846435546875,-0.1050262451171875,-0.9433135986328124
368,0.0288238525390625,-0.1067657470703125,-1.003448486328125
369,0.000762939453125,-0.126861572265625,-1.026473999023438
370,-0.0420379638671875,-0.1458740234375,-1.022476196289062
371,-0.0617218017578125,-0.147735595703125,-1.018646240234375
372,-0.0370941162109375,-0.128021240234375,-0.9971771240234376
373,-0.01239013671875,-0.1090850830078125,-0.9579925537109376
374,0.007415771484375,-0.0951385498046875,-0.9319000244140624
375,0.02838134765625,-0.085784912109375,-0.9306640625
376,0.03424072265625,-0.0831451416015625,-0.9342041015625
377,0.02313232421875,-0.08447265625,-0.9489288330078124
378,0.005340576171875,-0.0961456298828125,-0.9767913818359376
379,-0.0124664306640625,-0.1088409423828125,-0.99627685546875
380,-0.030181884765625,-0.11669921875,-1.015243530273438
381,-0.0363922119140625,-0.1248321533203125,-1.063858032226562
382,-0.02984619140625,-0.1262054443359375,-1.061752319335938
383,-0.0124359130859375,-0.11883544921875,-1.030807495117188
384,0.006561279296875,-0.1139068603515625,-1.029937744140625
385,0.0200347900390625,-0.10870361328125,-1.002731323242188
386,0.034454345703125,-0.1098480224609375,-1.00836181640625
387,0.0322265625,-0.101470947265625,-1.006256103515625
388,0.024871826171875,-0.1195831298828125,-1.019287109375
389,0.0028839111328125,-0.128662109375,-1.023117065429688
390,-0.0202178955078125,-0.1358795166015625,-1.03155517578125
391,-0.023834228515625,-0.1457977294921875,-1.03912353515625
392,-0.016357421875,-0.14801025390625,-1.0267333984375
393,-0.0072784423828125,-0.145660400390625,-1.022293090820312
394,-0.000579833984375,-0.1415557861328125,-1.01727294921875
395,0.00274658203125,-0.139678955078125,-1.005233764648438
396,0.0025787353515625,-0.1377105712890625,-0.988128662109375
397,0.0184326171875,-0.1467742919921875,-0.987579345703125
398,-0.0176239013671875,-0.146636962890625,-1.003448486328125
399,-0.1222686767578125,-0.1146392822265625,-1.00115966796875
400,-0.0531158447265625,-0.0944671630859375,-1.011276245117188
401,0.0016632080078125,-0.0899810791015625,-1.020004272460938
402,0.001708984375,-0.0827178955078125,-1.009933471679688
403,-0.0220184326171875,-0.0713043212890625,-1.0291748046875
404,-0.0420989990234375,-0.0763397216796875,-1.033645629882812
405,-0.059295654296875,-0.0935211181640625,-1.029510498046875
406,-0.0189056396484375,-0.057647705078125,-1.0081787109375
407,-0.0887908935546875,-0.09613037109375,-1.041961669921875
408,-0.014068603515625,-0.0281829833984375,-0.2476959228515625
409,-0.124053955078125,-0.0447998046875,-0.3400726318359375
410,-0.0844879150390625,-0.0123748779296875,-0.63525390625
411,-0.0573883056640625,-0.1404876708984375,-1.002273559570312
412,0.0049896240234375,-0.214447021484375,-1.244964599609375
413,0.003753662109375,-0.18841552734375,-1.129684448242188
414,-0.0329437255859375,-0.1381683349609375,-1.146743774414062
415,-0.040130615234375,-0.1492462158203125,-1.223297119140625
416,0.0028533935546875,-0.179931640625,-1.249465942382812
417,0.0183258056640625,-0.17901611328125,-1.120986938476562
418,-0.000946044921875,-0.148162841796875,-0.992156982421875
419,-0.00469970703125,-0.142852783203125,-1.001419067382812
420,-0.034881591796875,-0.1662750244140625,-1.022293090820312
421,-0.07763671875,-0.1668853759765625,-1.051239013671875
422,-0.1124420166015625,-0.1595916748046875,-1.051483154296875
423,-0.13214111328125,-0.153900146484375,-1.06561279296875
424,-0.1641998291015625,-0.1552734375,-1.075592041015625
425,-0.1917572021484375,-0.153411865234375,-1.024551391601562
426,-0.20220947265625,-0.1354217529296875,-0.931182861328125
427,-0.2007904052734375,-0.1412506103515625,-0.966400146484375
428,-0.2082061767578125,-0.1388397216796875,-0.929718017578125
429,-0.2108154296875,-0.1394805908203125,-0.9386444091796876
430,-0.2112274169921875,-0.130523681640625,-0.948516845703125
431,-0.19891357421875,-0.1191864013671875,-0.956634521484375
432,-0.1776275634765625,-0.0959014892578125,-0.9581451416015624
433,-0.164581298828125,-0.0789794921875,-0.9546661376953124
434,-0.1549530029296875,-0.0754852294921875,-0.9468536376953124
435,-0.1457061767578125,-0.07879638671875,-0.9351654052734376
436,-0.13726806640625,-0.079559326171875,-0.931732177734375
437,-0.124664306640625,-0.0756072998046875,-0.939117431640625
438,-0.1037750244140625,-0.0745391845703125,-0.9622650146484376
439,-0.089691162109375,-0.0761566162109375,-0.9888916015625
440,-0.0923614501953125,-0.074432373046875,-1.00714111328125
441,-0.08587646484375,-0.0635833740234375,-1.00750732421875
442,-0.0826416015625,-0.061279296875,-0.998809814453125
443,-0.0881195068359375,-0.0566253662109375,-0.9951171875
444,-0.090423583984375,-0.0630950927734375,-1.0054931640625
445,-0.094940185546875,-0.075439453125,-1.02105712890625
446,-0.096771240234375,-0.0736236572265625,-1.029754638671875
447,-0.0847320556640625,-0.068389892578125,-1.04595947265625
448,-0.0721435546875,-0.0624542236328125,-1.05792236328125
449,-0.0635223388671875,-0.050201416015625,-1.043899536132812
450,-0.0555419921875,-0.0354766845703125,-1.020050048828125
451,-0.0317230224609375,-0.0222930908203125,-1.005889892578125
452,-0.01611328125,-0.0222930908203125,-1.002044677734375
453,-0.0246734619140625,-0.0290679931640625,-1.000228881835938
454,-0.048309326171875,-0.0384063720703125,-1.00823974609375
455,-0.0673675537109375,-0.048095703125,-1.019561767578125
456,-0.07757568359375,-0.054595947265625,-1.02996826171875
457,-0.0836181640625,-0.0547332763671875,-1.0389404296875
458,-0.0787200927734375,-0.0519866943359375,-1.040191650390625
459,-0.061187744140625,-0.0456695556640625,-1.027587890625
460,-0.047698974609375,-0.0428924560546875,-1.020156860351562
461,-0.0499267578125,-0.047119140625,-1.0218505859375
462,-0.057373046875,-0.0522003173828125,-1.0230712890625
463,-0.0643463134765625,-0.055206298828125,-1.02301025390625
464,-0.068084716796875,-0.0571441650390625,-1.027908325195312
465,-0.0754547119140625,-0.05694580078125,-1.020599365234375
466,-0.0738372802734375,-0.043304443359375,-1.012847900390625
467,-0.0787811279296875,-0.0509490966796875,-1.010818481445312
468,-0.0605926513671875,-0.038116455078125,-1.012741088867188
469,-0.0538482666015625,-0.0391387939453125,-1.015304565429688
470,-0.0568389892578125,-0.0395050048828125,-1.012969970703125
471,-0.05908203125,-0.0397491455078125,-1.01318359375
472,-0.0581512451171875,-0.0402069091796875,-1.009521484375
473,-0.0633544921875,-0.0389404296875,-0.999481201171875
474,-0.0810394287109375,-0.0383148193359375,-0.9989013671875
475,-0.0972442626953125,-0.041351318359375,-1.007980346679688
476,-0.10205078125,-0.0404815673828125,-1.01531982421875
477,-0.0982208251953125,-0.0456390380859375,-1.022232055664062
478,-0.0922088623046875,-0.044525146484375,-1.029159545898438
479,-0.09405517578125,-0.0496673583984375,-1.032516479492188
480,-0.103179931640625,-0.05841064453125,-1.02825927734375
481,-0.106689453125,-0.0602569580078125,-1.028778076171875
482,-0.1035919189453125,-0.0603179931640625,-1.030303955078125
483,-0.1013641357421875,-0.05938720703125,-1.0313720703125
484,-0.10223388671875,-0.05841064453125,-1.03326416015625
485,-0.096282958984375,-0.0544586181640625,-1.033065795898438
486,-0.0893707275390625,-0.0504302978515625,-1.029586791992188
487,-0.09271240234375,-0.04791259765625,-1.01873779296875
488,-0.1017303466796875,-0.0443267822265625,-1.012771606445312
489,-0.109039306640625,-0.0416717529296875,-1.009902954101562
490,-0.1134796142578125,-0.0410308837890625,-1.004730224609375
491,-0.11846923828125,-0.0426483154296875,-1.009307861328125
492,-0.118255615234375,-0.0422821044921875,-1.012252807617188
493,-0.1105194091796875,-0.0433349609375,-1.006988525390625
494,-0.1103363037109375,-0.0495452880859375,-1.0089111328125
495,-0.12091064453125,-0.0555877685546875,-1.002761840820312
496,-0.13067626953125,-0.0555877685546875,-0.99566650390625
497,-0.1393585205078125,-0.052703857421875,-0.9935455322265624
498,-0.1448516845703125,-0.05145263671875,-0.9967498779296876
499,-0.1498565673828125,-0.0472564697265625,-0.9982452392578124
500,-0.153594970703125,-0.04339599609375,-0.9942626953125
501,-0.1590423583984375,-0.04205322265625,-0.98406982421875
502,-0.16253662109375,-0.039398193359375,-0.981292724609375
503,-0.1586151123046875,-0.0388641357421875,-0.9913482666015624
504,-0.1517333984375,-0.0372772216796875,-0.994903564453125
505,-0.141357421875,-0.0289154052734375,-0.9882965087890624
506,-0.1295166015625,-0.0239105224609375,-0.9912109375
507,-0.1155548095703125,-0.0167388916015625,-0.9908599853515624
508,-0.1000213623046875,-0.00799560546875,-0.9924468994140624
509,-0.096405029296875,-0.007568359375,-0.9853363037109376
510,-0.10284423828125,-0.0105133056640625,-0.974365234375
511,-0.1146697998046875,-0.0135345458984375,-0.970794677734375
512,-0.1226654052734375,-0.019378662109375,-0.9749755859375
513,-0.1244354248046875,-0.0228118896484375,-0.9833984375
514,-0.1228179931640625,-0.0281982421875,-0.987396240234375
515,-0.12445068359375,-0.039520263671875,-0.989654541015625
516,-0.125091552734375,-0.045623779296875,-1.002914428710938
517,-0.1179962158203125,-0.0493011474609375,-1.023712158203125
518,-0.1140594482421875,-0.049835205078125,-1.03521728515625
519,-0.1171875,-0.0473785400390625,-1.03143310546875
520,-0.112548828125,-0.042266845703125,-1.012237548828125
521,-0.097442626953125,-0.0338592529296875,-0.989044189453125
522,-0.0841217041015625,-0.023345947265625,-0.9706573486328124
523,-0.0732421875,-0.017974853515625,-0.956878662109375
524,-0.07110595703125,-0.02044677734375,-0.9415435791015624
525,-0.0770111083984375,-0.0275726318359375,-0.93572998046875
526,-0.0960235595703125,-0.03643798828125,-0.944793701171875
527,-0.1199951171875,-0.0443572998046875,-0.97235107421875
528,-0.1284637451171875,-0.04498291015625,-1.00054931640625
529,-0.1334686279296875,-0.0480194091796875,-1.00787353515625
530,-0.146636962890625,-0.0560760498046875,-0.9959716796875
531,-0.1501007080078125,-0.0585479736328125,-0.976593017578125
532,-0.1483612060546875,-0.060546875,-0.9620361328125
533,-0.1470489501953125,-0.0630035400390625,-0.963714599609375
534,-0.145294189453125,-0.0653076171875,-0.9655914306640624
535,-0.1418304443359375,-0.067779541015625,-0.9709625244140624
536,-0.13287353515625,-0.062713623046875,-0.96636962890625
537,-0.1126556396484375,-0.0463104248046875,-0.96734619140625
538,-0.1064453125,-0.0360870361328125,-0.977813720703125
539,-0.110992431640625,-0.0300750732421875,-0.9835662841796876
540,-0.1210479736328125,-0.0317535400390625,-0.98699951171875
541,-0.1322021484375,-0.0372772216796875,-0.97991943359375
542,-0.1347808837890625,-0.040435791015625,-0.9672393798828124
543,-0.13372802734375,-0.0414886474609375,-0.95556640625
544,-0.1296234130859375,-0.04010009765625,-0.959869384765625
545,-0.1187286376953125,-0.0375213623046875,-0.9716796875
546,-0.1099853515625,-0.0338592529296875,-0.9847259521484376
547,-0.100494384765625,-0.03076171875,-0.99267578125
548,-0.091461181640625,-0.02801513671875,-0.9944610595703124
549,-0.088043212890625,-0.0290679931640625,-0.9947357177734376
550,-0.0941314697265625,-0.0367431640625,-0.9865264892578124
551,-0.1075592041015625,-0.0491790771484375,-0.970794677734375
552,-0.11907958984375,-0.0615081787109375,-0.9609375
553,-0.1234893798828125,-0.06549072265625,-0.978759765625
554,-0.1232757568359375,-0.06707763671875,-1.008132934570312
555,-0.1212310791015625,-0.0641326904296875,-1.02191162109375
556,-0.1140594482421875,-0.059417724609375,-1.018386840820312
557,-0.108367919921875,-0.0587310791015625,-1.002792358398438
558,-0.1029205322265625,-0.053558349609375,-0.980865478515625
559,-0.0961151123046875,-0.04791259765625,-0.9710235595703124
560,-0.0934906005859375,-0.046966552734375,-0.961181640625
561,-0.0995025634765625,-0.050537109375,-0.945709228515625
562,-0.111572265625,-0.05731201171875,-0.93780517578125
563,-0.128143310546875,-0.0642547607421875,-0.9544830322265624
564,-0.1428985595703125,-0.07159423828125,-0.9819183349609376
565,-0.1464080810546875,-0.073455810546875,-1.00750732421875
566,-0.141754150390625,-0.0694732666015625,-1.027145385742188
567,-0.1323699951171875,-0.0606842041015625,-1.037368774414062
568,-0.120697021484375,-0.051239013671875,-1.031265258789062
569,-0.1111907958984375,-0.044769287109375,-1.01806640625
570,-0.10052490234375,-0.03460693359375,-1.002731323242188
571,-0.0909881591796875,-0.03131103515625,-0.9938201904296876
572,-0.0833282470703125,-0.0323486328125,-0.9872283935546876
573,-0.0789642333984375,-0.02935791015625,-0.984832763671875
574,-0.0801239013671875,-0.0287017822265625,-0.984649658203125
575,-0.0920562744140625,-0.0308074951171875,-0.978515625
576,-0.1109161376953125,-0.0355682373046875,-0.978424072265625
577,-0.1317901611328125,-0.0427093505859375,-0.98663330078125
578,-0.15057373046875,-0.0517425537109375,-0.9915771484375
579,-0.1642608642578125,-0.0582275390625,-0.992767333984375
580,-0.169921875,-0.0605316162109375,-0.9968109130859376
581,-0.171234130859375,-0.057769775390625,-0.9996795654296876
582,-0.16656494140625,-0.0515289306640625,-1.004638671875
583,-0.15673828125,-0.0472564697265625,-1.006912231445312
584,-0.1378173828125,-0.041046142578125,-0.99749755859375
585,-0.114959716796875,-0.035888671875,-0.992950439453125
586,-0.103790283203125,-0.03570556640625,-1.000457763671875
587,-0.109619140625,-0.0341949462890625,-1.005813598632812
588,-0.1191558837890625,-0.0328521728515625,-1.014205932617188
589,-0.118133544921875,-0.02777099609375,-1.022476196289062
590,-0.1202392578125,-0.0252227783203125,-1.023941040039062
591,-0.1259613037109375,-0.022857666015625,-1.012863159179688
592,-0.1301116943359375,-0.01702880859375,-0.9962310791015624
593,-0.130157470703125,-0.0167083740234375,-0.9798126220703124
594,-0.1262664794921875,-0.0222015380859375,-0.9691009521484376
595,-0.12774658203125,-0.0222625732421875,-0.962921142578125
596,-0.130828857421875,-0.0210418701171875,-0.964202880859375
597,-0.13934326171875,-0.0265655517578125,-0.9675445556640624
598,-0.15234375,-0.0316925048828125,-0.9683837890625
599,-0.15667724609375,-0.033843994140625,-0.9763336181640624
600,-0.16064453125,-0.0383758544921875,-0.98223876953125
601,-0.1715545654296875,-0.0417327880859375,-0.98382568359375
602,-0.1756591796875,-0.0410308837890625,-0.982391357421875
603,-0.1737518310546875,-0.0399017333984375,-0.9847869873046876
604,-0.1660308837890625,-0.0345001220703125,-0.9806671142578124
605,-0.1566162109375,-0.0248565673828125,-0.973968505859375
606,-0.151519775390625,-0.01885986328125,-0.970703125
607,-0.1452789306640625,-0.0141754150390625,-0.97027587890625
608,-0.1353912353515625,-0.0074615478515625,-0.9725494384765624
609,-0.1272125244140625,-0.003753662109375,-0.9748687744140624
610,-0.128387451171875,-0.0067596435546875,-0.9813232421875
611,-0.131744384765625,-0.0115814208984375,-0.9889068603515624
612,-0.1336669921875,-0.0124359130859375,-1.001129150390625
613,-0.1357574462890625,-0.0127716064453125,-1.00927734375
614,-0.1384429931640625,-0.0080108642578125,-1.01226806640625
615,-0.13861083984375,-0.011016845703125,-1.01055908203125
616,-0.1363677978515625,-0.004241943359375,-1.016403198242188
617,-0.1303863525390625,-0.00384521484375,-1.01690673828125
618,-0.12158203125,-0.00341796875,-1.0123291015625
619,-0.118743896484375,-0.0058441162109375,-1.0103759765625
620,-0.1215972900390625,-0.01080322265625,-1.011337280273438
621,-0.128570556640625,-0.01422119140625,-1.015960693359375
622,-0.1392669677734375,-0.0194854736328125,-1.02276611328125
623,-0.147552490234375,-0.022674560546875,-1.027313232421875
624,-0.1476287841796875,-0.0176544189453125,-1.0252685546875
625,-0.141510009765625,-0.0167388916015625,-1.01611328125
626,-0.1288604736328125,-0.01910400390625,-0.9957733154296876
627,-0.116302490234375,-0.0202178955078125,-0.9836578369140624
628,-0.1111907958984375,-0.0160369873046875,-0.9849853515625
629,-0.1124725341796875,-0.0142974853515625,-0.9964752197265624
630,-0.112884521484375,-0.01092529296875,-0.9972991943359376
631,-0.110076904296875,-0.0044403076171875,-0.9952850341796876
632,-0.1120147705078125,-0.0031280517578125,-1.00164794921875
633,-0.11407470703125,-0.005706787109375,-1.008331298828125
634,-0.10601806640625,-0.0091400146484375,-1.00555419921875
635,-0.0925750732421875,-0.0148468017578125,-0.999542236328125
636,-0.0914459228515625,-0.02471923828125,-0.98931884765625
637,-0.091033935546875,-0.0301361083984375,-0.982025146484375
638,-0.08837890625,-0.032501220703125,-0.9808502197265624
639,-0.0834808349609375,-0.032440185546875,-0.98211669921875
640,-0.0811767578125,-0.0355224609375,-0.9807586669921876
641,-0.0737457275390625,-0.040008544921875,-0.9818115234375
642,-0.06414794921875,-0.0370941162109375,-0.98748779296875
643,-0.0604248046875,-0.03887939453125,-0.997711181640625
644,-0.0692901611328125,-0.0448455810546875,-1.0076904296875
645,-0.07525634765625,-0.0453033447265625,-1.007904052734375
646,-0.074859619140625,-0.0447998046875,-1.0072021484375
647,-0.075042724609375,-0.0487213134765625,-1.017074584960938
648,-0.0764312744140625,-0.052825927734375,-1.024368286132812
649,-0.0692138671875,-0.0526885986328125,-1.01336669921875
650,-0.0599822998046875,-0.04541015625,-0.993133544921875
651,-0.052978515625,-0.039215087890625,-0.97637939453125
652,-0.0531158447265625,-0.032501220703125,-0.965728759765625
653,-0.0585174560546875,-0.02923583984375,-0.9617462158203124
654,-0.0691375732421875,-0.02508544921875,-0.9622802734375
655,-0.0778961181640625,-0.0220947265625,-0.9731903076171876
656,-0.084014892578125,-0.0240020751953125,-0.991485595703125
657,-0.0863494873046875,-0.027801513671875,-1.009246826171875
658,-0.088348388671875,-0.0326080322265625,-1.015274047851562
659,-0.0859832763671875,-0.0352630615234375,-1.004806518554688
660,-0.0779876708984375,-0.031524658203125,-0.996795654296875
661,-0.069915771484375,-0.0269927978515625,-0.9919891357421876
662,-0.0691986083984375,-0.024658203125,-0.994384765625
663,-0.0748138427734375,-0.0230712890625,-1.000137329101562
664,-0.0818939208984375,-0.0266265869140625,-0.9998931884765624
665,-0.0836944580078125,-0.0294342041015625,-0.996307373046875
666,-0.07159423828125,-0.03094482421875,-0.996429443359375
667,-0.058013916015625,-0.0367584228515625,-1.00665283203125
668,-0.056671142578125,-0.044158935546875,-1.013198852539062
669,-0.06146240234375,-0.0504913330078125,-1.030517578125
670,-0.0693206787109375,-0.0572509765625,-1.026962280273438
671,-0.071502685546875,-0.059661865234375,-1.011917114257812
672,-0.07269287109375,-0.0591583251953125,-0.9940643310546876
673,-0.072265625,-0.057769775390625,-0.978607177734375
674,-0.0772705078125,-0.056365966796875,-0.9654998779296876
675,-0.0817718505859375,-0.05853271484375,-0.97613525390625
676,-0.07977294921875,-0.0590362548828125,-0.9806976318359376
677,-0.076751708984375,-0.051605224609375,-0.981842041015625
678,-0.0793609619140625,-0.0476837158203125,-0.9854583740234376
679,-0.0810699462890625,-0.0455322265625,-0.9979705810546876
680,-0.0857391357421875,-0.04229736328125,-0.9958953857421876
681,-0.08721923828125,-0.0364990234375,-0.9832763671875
682,-0.093963623046875,-0.034698486328125,-0.97906494140625
683,-0.103912353515625,-0.03497314453125,-0.9789276123046876
684,-0.1103973388671875,-0.032379150390625,-0.9833526611328124
685,-0.1080780029296875,-0.0259246826171875,-0.989105224609375
686,-0.1028289794921875,-0.018157958984375,-1.000717163085938
687,-0.0978851318359375,-0.011444091796875,-1.005157470703125
688,-0.092010498046875,-0.005706787109375,-1.01263427734375
689,-0.092498779296875,-0.001495361328125,-1.009521484375
690,-0.0948333740234375,0.0045928955078125,-1.005081176757812
691,-0.0941925048828125,0.0101318359375,-1.003326416015625
692,-0.0906982421875,0.013702392578125,-1.002182006835938
693,-0.0864105224609375,0.0199432373046875,-1.000228881835938
694,-0.0929107666015625,0.0195159912109375,-0.9970855712890624
695,-0.099395751953125,0.0176849365234375,-1.000457763671875
696,-0.099212646484375,0.0183258056640625,-1.004501342773438
697,-0.0981292724609375,0.01812744140625,-1.005828857421875
698,-0.1053466796875,0.015716552734375,-1.003707885742188
699,-0.1142120361328125,0.0098419189453125,-1.00628662109375
700,-0.12054443359375,0.0059814453125,-1.00787353515625
701,-0.126129150390625,0.002044677734375,-1.000534057617188
702,-0.124481201171875,0.000396728515625,-0.9976348876953124
703,-0.116790771484375,0.0012359619140625,-0.993133544921875
704,-0.107666015625,0.0029754638671875,-0.992156982421875
705,-0.1006927490234375,0.0051422119140625,-0.9967041015625
706,-0.0960235595703125,0.00726318359375,-1.002731323242188
707,-0.0994720458984375,0.0059356689453125,-1.01019287109375
708,-0.1054840087890625,0.00341796875,-1.006866455078125
709,-0.11083984375,0.000946044921875,-1.003219604492188
710,-0.116180419921875,-0.0035247802734375,-0.998779296875
711,-0.1178436279296875,-0.0040130615234375,-0.989501953125
712,-0.1170196533203125,-0.00189208984375,-0.982879638671875
713,-0.1144256591796875,-0.0022735595703125,-0.9752044677734376
714,-0.1093902587890625,-0.000762939453125,-0.9756011962890624
715,-0.1112823486328125,0.0033111572265625,-0.9868621826171876
716,-0.1175994873046875,0.00213623046875,-1.000442504882812
717,-0.12567138671875,-0.002197265625,-1.005874633789062
718,-0.127593994140625,-0.002166748046875,-1.001663208007812
719,-0.123870849609375,0.001251220703125,-0.99493408203125
720,-0.1201629638671875,0.004425048828125,-0.9935302734375
721,-0.11541748046875,0.0074005126953125,-1.001434326171875
722,-0.115692138671875,0.010589599609375,-0.99493408203125
723,-0.1126861572265625,0.0131378173828125,-0.9946136474609376
724,-0.1108245849609375,0.0118408203125,-0.9941864013671876
725,-0.1124114990234375,0.010650634765625,-0.9983062744140624
726,-0.11505126953125,0.007720947265625,-0.997283935546875
727,-0.1126251220703125,0.0086669921875,-1.003585815429688
728,-0.110504150390625,0.01019287109375,-1.011459350585938
729,-0.1160888671875,0.011260986328125,-1.004165649414062
730,-0.12335205078125,0.0117645263671875,-1.00079345703125
731,-0.125091552734375,0.0137176513671875,-0.99932861328125
732,-0.1275787353515625,0.0141143798828125,-0.9913787841796876
733,-0.1287841796875,0.0153656005859375,-0.980072021484375
734,-0.1251220703125,0.01971435546875,-0.96771240234375
735,-0.1167144775390625,0.0217742919921875,-0.95782470703125
736,-0.1099700927734375,0.0195770263671875,-0.9571990966796876
737,-0.1077117919921875,0.015655517578125,-0.9662933349609376
738,-0.110321044921875,0.009063720703125,-0.9802398681640624
739,-0.1181640625,0.00299072265625,-0.9957427978515624
740,-0.134124755859375,-0.003448486328125,-1.00018310546875
741,-0.142486572265625,-0.0081787109375,-0.9995574951171876
742,-0.1454010009765625,-0.0103759765625,-0.9931182861328124
743,-0.14398193359375,-0.0080413818359375,-0.989471435546875
744,-0.1372833251953125,-0.0044708251953125,-0.9921722412109376
745,-0.13018798828125,-0.0031280517578125,-0.98565673828125
746,-0.1199493408203125,0.000823974609375,-0.98345947265625
747,-0.1143951416015625,0.0042266845703125,-0.9814453125
748,-0.1132049560546875,0.0047149658203125,-0.9822998046875
749,-0.1150360107421875,0.0060882568359375,-0.9898529052734376
750,-0.1206207275390625,0.0067291259765625,-0.993743896484375
751,-0.126556396484375,0.0081024169921875,-0.9959869384765624
752,-0.1275634765625,0.009613037109375,-0.99554443359375
753,-0.1278228759765625,0.011444091796875,-0.9949493408203124
754,-0.1246185302734375,0.01416015625,-0.9986724853515624
755,-0.11798095703125,0.014404296875,-0.9956207275390624
756,-0.1165618896484375,0.0166168212890625,-0.9883880615234376
757,-0.1158905029296875,0.017578125,-0.994354248046875
758,-0.11358642578125,0.015899658203125,-0.99652099609375
759,-0.115081787109375,0.016845703125,-0.9964141845703124
760,-0.118194580078125,0.015899658203125,-0.9937286376953124
761,-0.120452880859375,0.014617919921875,-0.9897613525390624
762,-0.1241302490234375,0.0156707763671875,-0.991729736328125
763,-0.1226654052734375,0.0156707763671875,-0.995208740234375
764,-0.116058349609375,0.0182647705078125,-0.9958343505859376
765,-0.11199951171875,0.0239715576171875,-0.996826171875
766,-0.11138916015625,0.0228424072265625,-1.002090454101562
767,-0.11419677734375,0.020050048828125,-1.00604248046875
768,-0.1142425537109375,0.0158538818359375,-1.001754760742188
769,-0.1151885986328125,0.015106201171875,-0.9978179931640624
770,-0.1176300048828125,0.016937255859375,-1.001373291015625
771,-0.123046875,0.014923095703125,-1.003494262695312
772,-0.1284332275390625,0.014862060546875,-1.001800537109375
773,-0.1320037841796875,0.0159759521484375,-1.003204345703125
774,-0.1318817138671875,0.0143585205078125,-1.000335693359375
775,-0.13275146484375,0.015106201171875,-1.003311157226562
776,-0.12738037109375,0.0128173828125,-0.9984893798828124
777,-0.126007080078125,0.0125885009765625,-0.9934234619140624
778,-0.127655029296875,0.0130157470703125,-0.9884185791015624
779,-0.1304168701171875,0.0131378173828125,-0.9875640869140624
780,-0.13177490234375,0.0143890380859375,-0.98779296875
781,-0.130401611328125,0.0164337158203125,-0.99005126953125
782,-0.1338348388671875,0.0147247314453125,-0.985626220703125
783,-0.1368408203125,0.0082244873046875,-0.9803314208984376
784,-0.131561279296875,-0.0010223388671875,-0.96673583984375
785,-0.133575439453125,-0.00555419921875,-0.898162841796875
786,-0.120361328125,0.00592041015625,-0.943206787109375
787,-0.10009765625,-0.005889892578125,-0.984954833984375
788,-0.0973358154296875,-0.0062255859375,-0.97711181640625
789,-0.0920867919921875,-0.00286865234375,-0.9881439208984376
790,-0.0909576416015625,-0.0027313232421875,-0.981292724609375
791,-0.0847930908203125,-0.0020751953125,-1.017547607421875
792,-0.0946807861328125,-0.000732421875,-1.01129150390625
793,-0.089508056640625,0.0002899169921875,-1.0238037109375
794,-0.08941650390625,0.0026397705078125,-1.033187866210938
795,-0.0907135009765625,0.0059814453125,-1.036880493164062
796,-0.0894927978515625,0.0084686279296875,-1.025390625
797,-0.089874267578125,0.0131988525390625,-1.0059814453125
798,-0.0908050537109375,0.016387939453125,-1.003814697265625
799,-0.1002349853515625,0.015594482421875,-0.993255615234375
800,-0.10430908203125,0.0165557861328125,-0.989288330078125
801,-0.108489990234375,0.0199432373046875,-0.9782257080078124
802,-0.1085968017578125,0.0198974609375,-0.9780731201171876
803,-0.1109619140625,0.019989013671875,-0.9764862060546876
804,-0.111419677734375,0.01971435546875,-0.9821014404296876
805,-0.1180267333984375,0.016265869140625,-0.9990081787109376
806,-0.1231689453125,0.0131378173828125,-1.01165771484375
807,-0.1160736083984375,0.0108642578125,-1.016098022460938
808,-0.104736328125,0.01318359375,-1.012710571289062
809,-0.097381591796875,0.0146942138671875,-1.009048461914062
810,-0.0935516357421875,0.0164337158203125,-1.005752563476562
811,-0.088470458984375,0.015350341796875,-1.001754760742188
812,-0.0899658203125,0.014373779296875,-0.9962005615234376
813,-0.0977020263671875,0.0116119384765625,-0.9972076416015624
814,-0.1061859130859375,0.007049560546875,-1.002883911132812
815,-0.1049041748046875,0.0070037841796875,-1.012283325195312
816,-0.1115264892578125,0.0034637451171875,-1.018325805664062
817,-0.1109619140625,0.0025482177734375,-1.014892578125
818,-0.1079864501953125,0.001373291015625,-1.002639770507812
819,-0.103790283203125,0.0021820068359375,-0.9936065673828124
820,-0.1005401611328125,0.0007476806640625,-0.990386962890625
821,-0.099761962890625,-9.1552734375e-05,-0.9862060546875
822,-0.099151611328125,0.000946044921875,-0.986968994140625
823,-0.0982208251953125,-0.0009765625,-0.99298095703125
824,-0.0946197509765625,-0.0003814697265625,-0.994964599609375
825,-0.0883636474609375,0.002655029296875,-0.9942626953125
826,-0.0909423828125,-0.0007171630859375,-1.001708984375
827,-0.0959930419921875,-0.0017852783203125,-1.0037841796875
828,-0.092559814453125,-0.00128173828125,-1.007034301757812
829,-0.09014892578125,-0.0027923583984375,-1.006118774414062
830,-0.0838775634765625,-0.0009765625,-1.00433349609375
831,-0.0778961181640625,0.002166748046875,-0.997283935546875
832,-0.07818603515625,0.0023651123046875,-0.99383544921875
833,-0.0793304443359375,0.000823974609375,-0.98992919921875
834,-0.0824432373046875,0.00311279296875,-0.988006591796875
835,-0.088836669921875,0.0003509521484375,-0.987396240234375
836,-0.0924224853515625,-0.0018463134765625,-0.985809326171875
837,-0.0892333984375,0.0001983642578125,-0.984466552734375
838,-0.087371826171875,0.000244140625,-0.9845733642578124
839,-0.093231201171875,-0.0006561279296875,-0.98724365234375
840,-0.0962371826171875,-0.0033111572265625,-0.99200439453125
841,-0.0935211181640625,-0.0030517578125,-0.9891815185546876
842,-0.0895538330078125,-0.0021820068359375,-0.9863128662109376
843,-0.08642578125,-0.0029144287109375,-0.981048583984375
844,-0.0814056396484375,-0.0046234130859375,-0.9783782958984376
845,-0.05816650390625,0.0026397705078125,-0.988189697265625
846,-0.0530853271484375,0.020233154296875,-0.948028564453125
847,-0.0963592529296875,0.0166778564453125,-0.9127349853515624
848,-0.07952880859375,0.0083465576171875,-0.9587860107421876
849,-0.0775146484375,-0.0068206787109375,-1.011550903320312
850,-0.084136962890625,-0.0095062255859375,-1.0028076171875
851,-0.0792388916015625,-0.005767822265625,-0.9958038330078124
852,-0.084320068359375,-0.0112457275390625,-0.9981842041015624
853,-0.0856170654296875,-0.015533447265625,-0.9833831787109376
854,-0.0722503662109375,-0.0124053955078125,-0.9873199462890624
855,-0.06689453125,-0.0080413818359375,-0.9481048583984376
856,-0.063262939453125,-0.010955810546875,-0.993499755859375
857,-0.0612945556640625,0.0037689208984375,-0.9828948974609376
858,-0.0441741943359375,-0.004730224609375,-1.025558471679688
859,-0.0474090576171875,-0.00311279296875,-1.009017944335938
860,-0.052978515625,0.00634765625,-0.9757232666015624
861,-0.058868408203125,0.00018310546875,-0.963104248046875
862,-0.063507080078125,0.002197265625,-0.96490478515625
863,-0.069976806640625,0.0011749267578125,-0.9824066162109376
864,-0.0815582275390625,-0.0015716552734375,-0.9841766357421876
865,-0.0937042236328125,0.0001068115234375,-0.9714508056640624
866,-0.0944366455078125,0.006195068359375,-0.97418212890625
867,-0.0956268310546875,0.00762939453125,-0.980865478515625
868,-0.094757080078125,0.00830078125,-0.9922637939453124
869,-0.092071533203125,0.014373779296875,-0.9809112548828124
870,-0.1056671142578125,0.0163421630859375,-0.94903564453125
871,-0.0799560546875,0.0234832763671875,-1.022171020507812
872,-0.0856170654296875,0.01580810546875,-1.014999389648438
873,-0.0805206298828125,0.0257568359375,-1.012100219726562
874,-0.0814666748046875,0.0276947021484375,-1.039459228515625
875,-0.086029052734375,0.0280609130859375,-1.0435791015625
876,-0.087677001953125,0.0336761474609375,-1.0531005859375
877,-0.095977783203125,0.036285400390625,-1.062942504882812
878,-0.1051177978515625,0.034759521484375,-1.0723876953125
879,-0.1036224365234375,0.0331573486328125,-1.069290161132812
880,-0.094818115234375,0.0347900390625,-1.048614501953125
881,-0.0890960693359375,0.03314208984375,-1.029830932617188
882,-0.08367919921875,0.0330657958984375,-1.014328002929688
883,-0.080413818359375,0.033355712890625,-1.003143310546875
884,-0.08148193359375,0.031494140625,-0.990020751953125
885,-0.0849456787109375,0.0290374755859375,-0.9800567626953124
886,-0.083526611328125,0.0285186767578125,-0.9762725830078124
887,-0.076080322265625,0.02862548828125,-0.9835052490234376
888,-0.07061767578125,0.026641845703125,-0.996490478515625
889,-0.0683441162109375,0.022125244140625,-1.002578735351562
890,-0.066741943359375,0.0176544189453125,-1.004241943359375
891,-0.0660247802734375,0.014923095703125,-1.003250122070312
892,-0.0603790283203125,0.0146331787109375,-0.997528076171875
893,-0.0570220947265625,0.0116119384765625,-1.0
894,-0.0695648193359375,0.0,-1.008163452148438
895,-0.079803466796875,-0.01031494140625,-1.012680053710938
896,-0.073516845703125,-0.0112152099609375,-1.010360717773438
897,-0.0647735595703125,-0.0100250244140625,-1.007720947265625
898,-0.055450439453125,-0.011932373046875,-1.00836181640625
899,-0.0514678955078125,-0.0124359130859375,-1.003662109375
900,-0.053802490234375,-0.0118255615234375,-0.9964752197265624
901,-0.0577239990234375,-0.0107421875,-0.993438720703125
902,-0.0584716796875,-0.0072479248046875,-0.9983062744140624
903,-0.057464599609375,-0.0055389404296875,-0.99951171875
904,-0.058013916015625,-0.0023651123046875,-1.000534057617188
905,-0.0562896728515625,0.004150390625,-1.00164794921875
906,-0.051300048828125,0.0083160400390625,-1.005523681640625
907,-0.049530029296875,0.011199951171875,-1.010757446289062
908,-0.049713134765625,0.0120391845703125,-1.010543823242188
909,-0.047393798828125,0.0121612548828125,-1.005264282226562
910,-0.04364013671875,0.0114288330078125,-1.003448486328125
911,-0.046630859375,0.00958251953125,-1.00067138671875
912,-0.0496063232421875,0.0064849853515625,-1.005340576171875
913,-0.0483245849609375,0.002838134765625,-1.014053344726562
914,-0.050201416015625,-0.00018310546875,-1.022232055664062
915,-0.056396484375,0.001800537109375,-1.024139404296875
916,-0.0591888427734375,0.0002899169921875,-1.020751953125
917,-0.0545501708984375,0.0011138916015625,-1.016021728515625
918,-0.0537261962890625,0.0037841796875,-1.00225830078125
919,-0.053558349609375,0.0059814453125,-0.98748779296875
920,-0.0539703369140625,0.0084991455078125,-0.9893035888671876
921,-0.0556182861328125,0.009063720703125,-0.957611083984375
922,-0.0615997314453125,0.0101776123046875,-1.01336669921875
923,-0.0682220458984375,-0.004302978515625,-1.011245727539062
924,-0.0572509765625,-0.00164794921875,-1.028045654296875
925,-0.0646514892578125,0.0031585693359375,-0.9881591796875
926,-0.064788818359375,-0.000274658203125,-1.014968872070312
927,-0.0595550537109375,-0.0011138916015625,-1.0146484375
928,-0.05828857421875,0.004425048828125,-1.00604248046875
929,-0.060943603515625,0.009368896484375,-0.97344970703125
930,-0.0593414306640625,0.0114288330078125,-0.96917724609375
931,-0.0619659423828125,0.0077362060546875,-0.9807586669921876
932,-0.066619873046875,0.00335693359375,-0.994140625
933,-0.0738067626953125,-0.0072174072265625,-0.9569549560546876
934,-0.069427490234375,-0.0089263916015625,-0.9554901123046876
935,-0.055877685546875,-0.00360107421875,-1.003631591796875
936,-0.05108642578125,-0.004241943359375,-1.049789428710938
937,-0.0573883056640625,-0.005615234375,-1.041732788085938
938,-0.060028076171875,0.0011444091796875,-1.023880004882812
939,-0.0560150146484375,0.003936767578125,-1.022369384765625
940,-0.0548858642578125,0.0051116943359375,-1.014984130859375
941,-0.0523834228515625,0.008148193359375,-1.008575439453125
942,-0.05682373046875,0.0066375732421875,-1.001068115234375
943,-0.06854248046875,0.0046844482421875,-0.9980621337890624
944,-0.07830810546875,0.0024566650390625,-0.997100830078125
945,-0.0817413330078125,0.0011444091796875,-0.9946441650390624
946,-0.08148193359375,0.0032806396484375,-0.99395751953125
947,-0.0791778564453125,0.0028228759765625,-0.9956207275390624
948,-0.0767974853515625,0.00469970703125,-0.993377685546875
949,-0.06884765625,0.0079193115234375,-0.9948883056640624
950,-0.061920166015625,0.0081939697265625,-1.002044677734375
951,-0.05963134765625,0.007904052734375,-1.004226684570312
952,-0.0592193603515625,0.0089263916015625,-1.010635375976562
953,-0.0590362548828125,0.009735107421875,-1.018661499023438
954,-0.06072998046875,0.0110931396484375,-1.0238037109375
955,-0.06317138671875,0.012237548828125,-1.022964477539062
956,-0.067352294921875,0.0129241943359375,-1.013534545898438
957,-0.0663604736328125,0.0145416259765625,-1.007095336914062
958,-0.0619354248046875,0.0169525146484375,-0.9980621337890624
959,-0.05145263671875,0.0178375244140625,-0.9871978759765624
960,-0.04791259765625,0.0165557861328125,-0.9841156005859376
961,-0.049163818359375,0.0127105712890625,-0.984619140625
962,-0.0423583984375,0.0107421875,-0.987823486328125
963,-0.0402069091796875,0.0075836181640625,-0.9936065673828124
964,-0.047607421875,0.0005950927734375,-1.0
965,-0.0523681640625,-0.0037078857421875,-1.004486083984375
966,-0.0505523681640625,-0.004119873046875,-1.003936767578125
967,-0.05078125,-0.00604248046875,-1.002853393554688
968,-0.0541229248046875,-0.0086822509765625,-1.00201416015625
969,-0.0526275634765625,-0.0058441162109375,-0.9994964599609376
970,-0.0516510009765625,-0.002838134765625,-0.994964599609375
971,-0.0491180419921875,-0.0007781982421875,-0.9894866943359376
972,-0.043731689453125,0.0056304931640625,-0.9815216064453124
973,-0.03863525390625,0.007904052734375,-0.9737701416015624
974,-0.042205810546875,0.0077362060546875,-0.981048583984375
975,-0.048095703125,0.0092010498046875,-0.9932861328125
976,-0.05377197265625,0.0085296630859375,-1.000686645507812
977,-0.061492919921875,0.009429931640625,-1.002166748046875
978,-0.0643310546875,0.008758544921875,-0.998687744140625
979,-0.0621490478515625,0.01116943359375,-0.9931488037109376
980,-0.0594329833984375,0.0142669677734375,-0.9911346435546876
981,-0.0585479736328125,0.010833740234375,-0.995819091796875
982,-0.052276611328125,0.008697509765625,-1.000579833984375
983,-0.04144287109375,0.0059967041015625,-0.999053955078125
984,-0.033233642578125,0.0061187744140625,-1.006851196289062
985,-0.02911376953125,0.0006561279296875,-1.00048828125
986,-0.0357513427734375,-0.0069580078125,-1.006103515625
987,-0.044342041015625,-0.012969970703125,-0.9854583740234376
988,-0.0400390625,-0.0162506103515625,-0.99896240234375
989,-0.044708251953125,-0.0220184326171875,-0.99383544921875
990,-0.0438232421875,-0.0229644775390625,-0.996856689453125
991,-0.0390167236328125,-0.02532958984375,-0.994873046875
992,-0.032745361328125,-0.02545166015625,-0.9914703369140624
993,-0.0308837890625,-0.02972412109375,-1.002609252929688
994,-0.042510986328125,-0.042205810546875,-1.007415771484375
995,-0.0498809814453125,-0.045806884765625,-1.005783081054688
996,-0.0489349365234375,-0.04571533203125,-0.9896697998046876
997,-0.0436859130859375,-0.0416412353515625,-0.998260498046875
998,-0.048492431640625,-0.0446014404296875,-0.988861083984375
999,-0.051849365234375,-0.045440673828125,-0.9941558837890624
1000,-0.058685302734375,-0.04730224609375,-0.985015869140625
1001,-0.0664520263671875,-0.0542755126953125,-0.983612060546875
1002,-0.0757598876953125,-0.063629150390625,-0.9809112548828124
1003,-0.0923004150390625,-0.07391357421875,-0.971893310546875
1004,-0.1077880859375,-0.08367919921875,-0.974884033203125
1005,-0.1247711181640625,-0.0942840576171875,-0.9933319091796876
1006,-0.1331024169921875,-0.101409912109375,-1.006118774414062
1007,-0.12982177734375,-0.1020355224609375,-1.00335693359375
1008,-0.12652587890625,-0.1023101806640625,-1.002853393554688
1009,-0.121337890625,-0.1024627685546875,-1.005416870117188
1010,-0.118988037109375,-0.0941009521484375,-1.008712768554688
1011,-0.1214752197265625,-0.0843658447265625,-1.005874633789062
1012,-0.119720458984375,-0.078521728515625,-1.004318237304688
1013,-0.1228179931640625,-0.07073974609375,-1.008499145507812
1014,-0.1306915283203125,-0.0604705810546875,-1.007339477539062
1015,-0.1266021728515625,-0.0508270263671875,-1.004867553710938
1016,-0.123443603515625,-0.0518341064453125,-1.002426147460938
1017,-0.1211395263671875,-0.043975830078125,-0.9993438720703124
1018,-0.1159820556640625,-0.0324859619140625,-1.004837036132812
1019,-0.111602783203125,-0.0240020751953125,-1.011764526367188
1020,-0.112335205078125,-0.014923095703125,-1.019515991210938
1021,-0.113555908203125,-0.0053558349609375,-1.01641845703125
1022,-0.11102294921875,0.0034942626953125,-1.0233154296875
1023,-0.1165924072265625,-0.0020599365234375,-1.034805297851562
1024,-0.128173828125,-0.00347900390625,-1.044082641601562
1025,-0.131561279296875,0.000579833984375,-1.040054321289062
1026,-0.1230926513671875,0.0063018798828125,-1.026321411132812
1027,-0.1132049560546875,0.0157928466796875,-1.006744384765625
1028,-0.103302001953125,0.0262603759765625,-0.98382568359375
1029,-0.089202880859375,0.0361175537109375,-0.9853363037109376
1030,-0.07177734375,0.04302978515625,-1.010040283203125
1031,-0.06524658203125,0.0461883544921875,-0.996734619140625
1032,-0.069854736328125,0.051025390625,-0.9841156005859376
1033,-0.0764617919921875,0.0485076904296875,-1.00006103515625
1034,-0.083648681640625,0.042327880859375,-1.013046264648438
1035,-0.0902252197265625,0.03955078125,-1.015167236328125
1036,-0.0981292724609375,0.037384033203125,-1.015289306640625
1037,-0.089447021484375,0.03424072265625,-1.027740478515625
1038,-0.0745849609375,0.029510498046875,-1.010818481445312
1039,-0.06060791015625,0.0289306640625,-0.988525390625
1040,-0.055694580078125,0.02374267578125,-0.983123779296875
1041,-0.0622406005859375,0.0198211669921875,-0.98431396484375
1042,-0.0662689208984375,0.017791748046875,-0.9866790771484376
1043,-0.068450927734375,0.015228271484375,-0.9812469482421876
1044,-0.07568359375,0.012481689453125,-0.9779510498046876
1045,-0.0807342529296875,0.0060577392578125,-0.979339599609375
1046,-0.0816497802734375,0.0014190673828125,-0.97930908203125
1047,-0.0728759765625,-0.0013275146484375,-0.9805755615234376
1048,-0.0659332275390625,-0.008941650390625,-0.9864044189453124
1049,-0.06683349609375,-0.018341064453125,-0.9939727783203124
1050,-0.0688323974609375,-0.025665283203125,-0.997528076171875
1051,-0.0666961669921875,-0.0315399169921875,-1.000503540039062
1052,-0.066314697265625,-0.0330352783203125,-0.9994659423828124
1053,-0.0665435791015625,-0.0360107421875,-0.9965972900390624
1054,-0.065277099609375,-0.0361480712890625,-0.9904022216796876
1055,-0.0591888427734375,-0.032745361328125,-0.983917236328125
1056,-0.0535888671875,-0.03326416015625,-0.982666015625
1057,-0.060638427734375,-0.0421905517578125,-0.9747772216796876
1058,-0.06817626953125,-0.0481719970703125,-0.964385986328125
1059,-0.075042724609375,-0.055145263671875,-0.965911865234375
1060,-0.081024169921875,-0.060791015625,-0.9753265380859376
1061,-0.0889129638671875,-0.0644073486328125,-0.986541748046875
1062,-0.093963623046875,-0.0663604736328125,-1.001861572265625
1063,-0.0941925048828125,-0.0621795654296875,-1.009613037109375
1064,-0.08575439453125,-0.0521240234375,-1.01043701171875
1065,-0.073150634765625,-0.0418853759765625,-1.007659912109375
1066,-0.0619964599609375,-0.0312652587890625,-1.00714111328125
1067,-0.058013916015625,-0.02752685546875,-1.004913330078125
1068,-0.059417724609375,-0.027557373046875,-1.006179809570312
1069,-0.0606689453125,-0.0267181396484375,-1.008468627929688
1070,-0.0626983642578125,-0.0249786376953125,-1.0050048828125
1071,-0.0670928955078125,-0.0255279541015625,-0.997955322265625
1072,-0.0706329345703125,-0.021575927734375,-0.9951629638671876
1073,-0.0669708251953125,-0.0137176513671875,-0.99151611328125
1074,-0.0604095458984375,-0.006439208984375,-0.9852447509765624
1075,-0.0568084716796875,-0.0046844482421875,-0.9850311279296876
1076,-0.0586090087890625,-0.0125274658203125,-0.985198974609375
1077,-0.060760498046875,-0.020233154296875,-0.98455810546875
1078,-0.0640411376953125,-0.0294189453125,-0.9771881103515624
1079,-0.071990966796875,-0.0388336181640625,-0.98126220703125
1080,-0.086578369140625,-0.048553466796875,-0.982696533203125
1081,-0.0935516357421875,-0.0514373779296875,-0.9825286865234376
1082,-0.0958709716796875,-0.050384521484375,-0.9760894775390624
1083,-0.0943450927734375,-0.0468902587890625,-0.9708099365234376
1084,-0.090484619140625,-0.04656982421875,-0.9655609130859376
1085,-0.092376708984375,-0.04827880859375,-0.9639892578125
1086,-0.0898590087890625,-0.0508880615234375,-0.9741973876953124
1087,-0.0879669189453125,-0.052886962890625,-0.9849853515625
1088,-0.0863800048828125,-0.053436279296875,-0.9859771728515624
1089,-0.08221435546875,-0.04949951171875,-0.978790283203125
1090,-0.075897216796875,-0.04229736328125,-0.97967529296875
1091,-0.0725250244140625,-0.0382080078125,-0.9879150390625
1092,-0.075927734375,-0.0372161865234375,-1.000137329101562
1093,-0.0786590576171875,-0.037322998046875,-1.005050659179688
1094,-0.0792388916015625,-0.037322998046875,-1.002548217773438
1095,-0.0823516845703125,-0.0389404296875,-0.997802734375
1096,-0.0895538330078125,-0.042755126953125,-0.9922027587890624
1097,-0.0954742431640625,-0.0445709228515625,-0.9891815185546876
1098,-0.099945068359375,-0.0456390380859375,-0.993316650390625
1099,-0.1021575927734375,-0.043792724609375,-1.001754760742188
1100,-0.1006622314453125,-0.04351806640625,-1.009002685546875
1101,-0.0937347412109375,-0.042266845703125,-1.01416015625
1102,-0.0851287841796875,-0.0419158935546875,-1.014083862304688
1103,-0.0803375244140625,-0.0432891845703125,-1.010345458984375
1104,-0.083526611328125,-0.047943115234375,-1.007843017578125
1105,-0.08160400390625,-0.048675537109375,-1.005462646484375
1106,-0.078338623046875,-0.0481414794921875,-1.002197265625
1107,-0.07635498046875,-0.0496826171875,-1.00445556640625
1108,-0.0724945068359375,-0.049774169921875,-1.008026123046875
1109,-0.0715484619140625,-0.0509490966796875,-1.009811401367188
1110,-0.071929931640625,-0.051116943359375,-1.0074462890625
1111,-0.0732879638671875,-0.0502471923828125,-1.006301879882812
1112,-0.07275390625,-0.048370361328125,-1.010910034179688
1113,-0.0748138427734375,-0.04522705078125,-1.004867553710938
1114,-0.0780487060546875,-0.044525146484375,-1.016403198242188
1115,-0.0822906494140625,-0.0473480224609375,-1.016937255859375
1116,-0.0827178955078125,-0.0461273193359375,-0.997467041015625
1117,-0.0758819580078125,-0.04217529296875,-0.971588134765625
1118,-0.0631256103515625,-0.0365447998046875,-0.971923828125
1119,-0.05767822265625,-0.0347747802734375,-0.976348876953125
1120,-0.06298828125,-0.0338592529296875,-0.982818603515625
1121,-0.0683746337890625,-0.0340423583984375,-0.99163818359375
1122,-0.073333740234375,-0.037384033203125,-1.008392333984375
1123,-0.0743255615234375,-0.038482666015625,-1.019500732421875
1124,-0.073699951171875,-0.038726806640625,-1.026016235351562
1125,-0.0725250244140625,-0.03472900390625,-1.027511596679688
1126,-0.0702667236328125,-0.032867431640625,-1.02484130859375
1127,-0.0692291259765625,-0.030487060546875,-1.02056884765625
1128,-0.0753173828125,-0.0279388427734375,-1.013214111328125
1129,-0.0797119140625,-0.0263214111328125,-1.00299072265625
1130,-0.0792236328125,-0.0235595703125,-1.001739501953125
1131,-0.0774993896484375,-0.0242767333984375,-1.00506591796875
1132,-0.0865936279296875,-0.022552490234375,-0.996307373046875
1133,-0.0959320068359375,-0.0195770263671875,-1.000167846679688
1134,-0.10186767578125,-0.0191650390625,-1.012557983398438
1135,-0.10089111328125,-0.0152740478515625,-1.01824951171875
1136,-0.0885009765625,-0.0095977783203125,-1.011215209960938
1137,-0.0720977783203125,-0.007354736328125,-1.00665283203125
1138,-0.0632781982421875,-0.00927734375,-1.004669189453125
1139,-0.058502197265625,-0.012237548828125,-1.006637573242188
1140,-0.05914306640625,-0.01409912109375,-1.022506713867188
1141,-0.0606231689453125,-0.015045166015625,-1.044296264648438
1142,-0.0583343505859375,-0.0143280029296875,-1.061279296875
1143,-0.051116943359375,-0.012969970703125,-1.078750610351562
1144,-0.04248046875,-0.0139617919921875,-1.086166381835938
1145,-0.032989501953125,-0.0099639892578125,-1.08135986328125
1146,-0.02667236328125,-0.0070953369140625,-1.066925048828125
1147,-0.0231475830078125,-0.000518798828125,-1.047317504882812
1148,-0.020904541015625,0.0056610107421875,-1.02960205078125
1149,-0.0188446044921875,0.0118560791015625,-1.006515502929688
1150,-0.01470947265625,0.0181884765625,-0.98468017578125
1151,-0.01751708984375,0.020172119140625,-0.979095458984375
1152,-0.0244293212890625,0.0144195556640625,-0.968658447265625
1153,-0.02777099609375,0.013427734375,-0.95361328125
1154,-0.024261474609375,0.0124359130859375,-0.9483642578125
1155,-0.0263824462890625,0.0060272216796875,-0.95562744140625
1156,-0.0318756103515625,-0.0023651123046875,-0.9625244140625
1157,-0.0380401611328125,-0.0062713623046875,-0.9662322998046876
1158,-0.0452880859375,-0.010467529296875,-0.9739532470703124
1159,-0.050872802734375,-0.0154571533203125,-0.9869537353515624
1160,-0.04254150390625,-0.0144805908203125,-0.994232177734375
1161,-0.0317840576171875,-0.0110931396484375,-0.9930419921875
1162,-0.029815673828125,-0.0107421875,-0.99468994140625
1163,-0.03173828125,-0.010284423828125,-0.99871826171875
1164,-0.0323333740234375,-0.0076446533203125,-1.003662109375
1165,-0.0310821533203125,-0.0041656494140625,-1.012313842773438
1166,-0.0255584716796875,0.002044677734375,-1.01580810546875
1167,-0.0196533203125,0.0075225830078125,-1.012542724609375
1168,-0.0173797607421875,0.011444091796875,-1.008560180664062
1169,-0.0149383544921875,0.0178375244140625,-1.002410888671875
1170,-0.01025390625,0.0200347900390625,-0.995635986328125
1171,-0.006805419921875,0.0196685791015625,-0.9893035888671876
1172,-0.01409912109375,0.0175323486328125,-0.9857635498046876
1173,-0.01519775390625,0.011993408203125,-0.9890289306640624
1174,-0.0121612548828125,0.007843017578125,-0.990447998046875
1175,-0.0137939453125,0.0046844482421875,-0.9927520751953124
1176,-0.0144195556640625,0.0009613037109375,-0.996795654296875
1177,-0.0142822265625,-0.0045013427734375,-0.9961395263671876
1178,-0.0101318359375,-0.0079193115234375,-0.991668701171875
1179,-0.00616455078125,-0.0132293701171875,-0.989013671875
1180,-0.0052032470703125,-0.0172576904296875,-0.9851837158203124
1181,-0.0040283203125,-0.0209197998046875,-0.9834136962890624
1182,-0.001708984375,-0.0244140625,-0.9831390380859376
1183,0.000946044921875,-0.027740478515625,-0.986175537109375
1184,0.00177001953125,-0.0305938720703125,-0.9844818115234376
1185,0.0058135986328125,-0.0324249267578125,-0.985260009765625
1186,0.0061492919921875,-0.0355682373046875,-0.99066162109375
1187,0.002349853515625,-0.0384674072265625,-0.996673583984375
1188,0.0028228759765625,-0.0385589599609375,-0.9993743896484376
1189,0.0027313232421875,-0.0386199951171875,-0.9952392578125
1190,0.00445556640625,-0.0387420654296875,-0.9948577880859376
1191,0.011749267578125,-0.039642333984375,-0.9997406005859376
1192,0.0139617919921875,-0.040191650390625,-1.000350952148438
1193,0.017425537109375,-0.039031982421875,-1.001235961914062
1194,0.019866943359375,-0.040802001953125,-1.002792358398438
1195,0.0187835693359375,-0.043182373046875,-1.005844116210938
1196,0.01220703125,-0.0423583984375,-1.009857177734375
1197,0.0057220458984375,-0.04205322265625,-1.010147094726562
1198,0.000823974609375,-0.041107177734375,-1.005783081054688
1199,-0.002288818359375,-0.037384033203125,-1.002792358398438
1200,-0.00518798828125,-0.0344085693359375,-1.002105712890625
1201,-0.0042724609375,-0.0306243896484375,-1.001083374023438
1202,-0.000213623046875,-0.0252838134765625,-1.004196166992188
1203,0.0023956298828125,-0.0236358642578125,-1.001205444335938
1204,0.001861572265625,-0.0219879150390625,-1.001220703125
1205,-0.001220703125,-0.0207061767578125,-1.001983642578125
1206,-0.004669189453125,-0.0185546875,-0.9962005615234376
1207,-0.0059661865234375,-0.01531982421875,-0.9939117431640624
1208,-0.005828857421875,-0.0096893310546875,-0.9932098388671876
1209,-0.006683349609375,-0.0070648193359375,-0.99615478515625
1210,-0.0101776123046875,-0.0054931640625,-0.9969329833984376
1211,-0.0129547119140625,-0.00579833984375,-0.99566650390625
1212,-0.0150299072265625,-0.00616455078125,-0.9984588623046876
1213,-0.0172271728515625,-0.008880615234375,-1.002059936523438
1214,-0.0209808349609375,-0.0106658935546875,-1.00811767578125
1215,-0.019744873046875,-0.0114593505859375,-1.0064697265625
1216,-0.0186614990234375,-0.0112152099609375,-0.9999847412109376
1217,-0.021240234375,-0.0106353759765625,-0.99407958984375
1218,-0.024810791015625,-0.013580322265625,-0.992095947265625
1219,-0.0222320556640625,-0.01409912109375,-0.989776611328125
1220,-0.0196990966796875,-0.0146942138671875,-0.989044189453125
1221,-0.020294189453125,-0.0176544189453125,-0.990570068359375
1222,-0.0205841064453125,-0.0214996337890625,-0.9886474609375
1223,-0.0187530517578125,-0.02392578125,-0.9854278564453124
1224,-0.0204620361328125,-0.028961181640625,-0.9891510009765624
1225,-0.0243988037109375,-0.0354766845703125,-0.99951171875
1226,-0.0207672119140625,-0.0381317138671875,-1.003463745117188
1227,-0.0091094970703125,-0.0347747802734375,-1.007537841796875
1228,-0.0012054443359375,-0.0309600830078125,-1.007766723632812
1229,0.0035552978515625,-0.0276336669921875,-1.001602172851562
1230,0.001861572265625,-0.03009033203125,-1.00433349609375
1231,-0.0010223388671875,-0.032501220703125,-1.006591796875
1232,-0.0010223388671875,-0.03118896484375,-1.00555419921875
1233,-0.0045623779296875,-0.032501220703125,-1.007095336914062
1234,-0.0079193115234375,-0.034637451171875,-1.009872436523438
1235,-0.0075531005859375,-0.035003662109375,-1.009017944335938
1236,-0.0061798095703125,-0.0359954833984375,-1.007080078125
1237,-0.0023956298828125,-0.03436279296875,-1.0089111328125
1238,-0.00128173828125,-0.03131103515625,-1.011703491210938
1239,-0.0008392333984375,-0.0331268310546875,-1.008819580078125
1240,0.002288818359375,-0.030426025390625,-1.0
1241,0.0069122314453125,-0.027801513671875,-0.990509033203125
1242,0.0075531005859375,-0.0299224853515625,-0.98577880859375
1243,0.0041656494140625,-0.03179931640625,-0.984344482421875
1244,0.00103759765625,-0.034088134765625,-0.986480712890625
1245,-0.0056304931640625,-0.037750244140625,-1.000564575195312
1246,-0.014068603515625,-0.04248046875,-1.011947631835938
1247,-0.0116119384765625,-0.042572021484375,-1.012771606445312
1248,-0.007598876953125,-0.0400238037109375,-1.004608154296875
1249,-0.0086822509765625,-0.0384368896484375,-0.9965362548828124
1250,-0.0090789794921875,-0.03863525390625,-0.9935150146484376
1251,-0.0080108642578125,-0.037872314453125,-0.99249267578125
1252,-0.0048675537109375,-0.037109375,-0.9942626953125
1253,-0.0025482177734375,-0.0367584228515625,-0.992950439453125
1254,-3.0517578125e-05,-0.037261962890625,-0.9929351806640624
1255,0.0021209716796875,-0.038238525390625,-0.9953155517578124
1256,-0.000274658203125,-0.039581298828125,-0.998687744140625
1257,-0.00372314453125,-0.040863037109375,-1.002700805664062
1258,-0.0055389404296875,-0.04364013671875,-1.009521484375
1259,-0.0055999755859375,-0.045867919921875,-1.013961791992188
1260,-0.0018768310546875,-0.0445556640625,-1.010055541992188
1261,-0.0002593994140625,-0.0435943603515625,-1.002944946289062
1262,-0.0001983642578125,-0.0399627685546875,-0.9993743896484376
1263,0.003082275390625,-0.0380096435546875,-1.001419067382812
1264,0.005706787109375,-0.035797119140625,-1.00201416015625
1265,0.0032806396484375,-0.0370330810546875,-1.001937866210938
1266,0.0020751953125,-0.036163330078125,-1.007766723632812
1267,0.00286865234375,-0.03521728515625,-1.01348876953125
1268,0.0034332275390625,-0.034576416015625,-1.014877319335938
1269,0.0057830810546875,-0.034332275390625,-1.011474609375
1270,0.0035552978515625,-0.033538818359375,-1.008956909179688
1271,0.00146484375,-0.034912109375,-1.00775146484375
1272,-0.0025634765625,-0.035430908203125,-1.006637573242188
1273,-0.0019073486328125,-0.0328521728515625,-1.0030517578125
1274,0.001251220703125,-0.031005859375,-0.9985504150390624
1275,0.0012969970703125,-0.0334014892578125,-0.9947509765625
1276,-0.00079345703125,-0.0358734130859375,-0.991424560546875
1277,-0.0024566650390625,-0.03826904296875,-0.991485595703125
1278,-0.006988525390625,-0.043182373046875,-0.9973907470703124
1279,-0.013519287109375,-0.0457763671875,-0.999969482421875
1280,-0.015106201171875,-0.0467376708984375,-1.00616455078125
1281,-0.013641357421875,-0.0444488525390625,-1.006744384765625
1282,-0.0108642578125,-0.0371246337890625,-1.003280639648438
1283,-0.0081329345703125,-0.0376739501953125,-1.0018310546875
1284,-0.01129150390625,-0.039215087890625,-1.000961303710938
1285,-0.0093994140625,-0.0388946533203125,-1.001693725585938
1286,-0.006011962890625,-0.0393218994140625,-1.004806518554688
1287,0.0026702880859375,-0.0093536376953125,-1.010650634765625
1288,-0.0001678466796875,0.00946044921875,-1.013778686523438
1289,-0.0411834716796875,-0.035186767578125,-1.0028076171875
1290,-0.041046142578125,-0.0552520751953125,-1.068756103515625
1291,-0.0434722900390625,-0.06890869140625,-1.04827880859375
1292,-0.0325469970703125,-0.036468505859375,-1.015274047851562
1293,-0.03594970703125,-0.019500732421875,-0.98333740234375
1294,-0.044952392578125,-0.029052734375,-1.007247924804688
1295,-0.057281494140625,-0.05560302734375,-1.029800415039062
1296,-0.0635223388671875,-0.0996551513671875,-1.054046630859375
1297,-0.035308837890625,-0.0900726318359375,-0.991455078125
1298,-0.0186004638671875,-0.073394775390625,-0.9615478515625
1299,-0.0275726318359375,-0.066864013671875,-0.9532470703125
1300,-0.028167724609375,-0.0676727294921875,-0.987396240234375
1301,-0.02557373046875,-0.0633392333984375,-0.98138427734375
1302,-0.02435302734375,-0.0520172119140625,-0.9603271484375
1303,-0.0218353271484375,-0.047271728515625,-0.9686126708984376
1304,-0.0268402099609375,-0.047821044921875,-0.9932708740234376
1305,-0.034149169921875,-0.044952392578125,-1.00518798828125
1306,-0.034423828125,-0.038604736328125,-0.9996337890625
1307,-0.0285491943359375,-0.0308837890625,-0.9882049560546876
1308,-0.0217742919921875,-0.027740478515625,-0.97845458984375
1309,-0.0196533203125,-0.024749755859375,-0.9692230224609376
1310,-0.0227813720703125,-0.0235595703125,-0.9659271240234376
1311,-0.0355072021484375,-0.02838134765625,-0.968353271484375
1312,-0.041412353515625,-0.033050537109375,-0.9767303466796876
1313,-0.0473785400390625,-0.0349578857421875,-0.985382080078125
1314,-0.058837890625,-0.0378875732421875,-0.9936370849609376
1315,-0.0637359619140625,-0.04449462890625,-1.001068115234375
1316,-0.069976806640625,-0.0479736328125,-1.002899169921875
1317,-0.0714263916015625,-0.047393798828125,-1.004013061523438
1318,-0.0582122802734375,-0.041168212890625,-0.999176025390625
1319,-0.038482666015625,-0.03448486328125,-0.981719970703125
1320,-0.030120849609375,-0.031646728515625,-0.97064208984375
1321,-0.032806396484375,-0.037841796875,-0.9679412841796876
1322,-0.031005859375,-0.0351715087890625,-0.9718475341796876
1323,-0.031158447265625,-0.0370025634765625,-0.97845458984375
1324,-0.0289459228515625,-0.0389404296875,-0.9959716796875
1325,-0.026580810546875,-0.038177490234375,-1.0142822265625
1326,-0.022674560546875,-0.038543701171875,-1.042694091796875
1327,-0.024322509765625,-0.040802001953125,-1.041793823242188
1328,-0.028900146484375,-0.04241943359375,-1.035324096679688
1329,-0.0228729248046875,-0.042266845703125,-1.022201538085938
1330,-0.011077880859375,-0.0410308837890625,-1.013519287109375
1331,-0.0108795166015625,-0.04248046875,-1.008956909179688
1332,-0.020172119140625,-0.0462188720703125,-1.001235961914062
1333,-0.0288543701171875,-0.0465240478515625,-0.9967193603515624
1334,-0.0284881591796875,-0.0449066162109375,-1.000381469726562
1335,-0.02362060546875,-0.0424957275390625,-1.010116577148438
1336,-0.0239715576171875,-0.0430450439453125,-1.014419555664062
1337,-0.0249481201171875,-0.0432586669921875,-1.013916015625
1338,-0.0211944580078125,-0.044677734375,-1.010665893554688
1339,-0.015411376953125,-0.0431060791015625,-1.00177001953125
1340,-0.01055908203125,-0.0417938232421875,-0.996795654296875
1341,-0.013214111328125,-0.0446319580078125,-1.000076293945312
1342,-0.0118865966796875,-0.0431671142578125,-0.997802734375
1343,-0.0125885009765625,-0.0439910888671875,-1.00732421875
1344,-0.0162811279296875,-0.043609619140625,-1.011611938476562
1345,-0.018310546875,-0.045745849609375,-1.012924194335938
1346,-0.017181396484375,-0.0464935302734375,-1.00885009765625
1347,-0.013671875,-0.0455474853515625,-1.004653930664062
1348,-0.009429931640625,-0.0463714599609375,-0.999237060546875
1349,-0.0157928466796875,-0.0499420166015625,-0.9961395263671876
1350,-0.0277099609375,-0.0534515380859375,-0.9993133544921876
1351,-0.025909423828125,-0.0529937744140625,-0.9976043701171876
1352,-0.0183868408203125,-0.0551300048828125,-0.996673583984375
1353,-0.01837158203125,-0.050750732421875,-0.9745635986328124
1354,-0.0200042724609375,-0.045135498046875,-0.9819183349609376
1355,-0.0128631591796875,-0.044891357421875,-0.9966278076171876
1356,-0.0120086669921875,-0.0436859130859375,-1.009124755859375
1357,-0.0144195556640625,-0.045166015625,-1.004150390625
1358,-0.01666259765625,-0.046630859375,-1.003936767578125
1359,-0.02313232421875,-0.0472869873046875,-0.999359130859375
1360,-0.030059814453125,-0.045684814453125,-0.9996795654296876
1361,-0.033447265625,-0.0427398681640625,-1.00469970703125
1362,-0.03228759765625,-0.04095458984375,-0.9999237060546876
1363,-0.0332183837890625,-0.039947509765625,-0.9859771728515624
1364,-0.0334014892578125,-0.038299560546875,-0.975982666015625
1365,-0.025390625,-0.0354461669921875,-0.979156494140625
1366,-0.0210113525390625,-0.037506103515625,-0.9789276123046876
1367,-0.0216064453125,-0.038299560546875,-0.9743804931640624
1368,-0.0283355712890625,-0.0413665771484375,-0.977325439453125
1369,-0.0376739501953125,-0.0447540283203125,-0.9778900146484376
1370,-0.045501708984375,-0.0471954345703125,-0.97955322265625
1371,-0.0526275634765625,-0.04791259765625,-0.980133056640625
1372,-0.0516815185546875,-0.044403076171875,-0.9807281494140624
1373,-0.0396728515625,-0.0385894775390625,-0.978302001953125
1374,-0.0271148681640625,-0.033050537109375,-0.9767608642578124
1375,-0.021392822265625,-0.03094482421875,-0.9761962890625
1376,-0.0195770263671875,-0.034576416015625,-0.98663330078125
1377,-0.0188140869140625,-0.0370330810546875,-0.994842529296875
1378,-0.0161285400390625,-0.0376434326171875,-0.991912841796875
1379,-0.0159912109375,-0.0356903076171875,-0.989105224609375
1380,-0.01531982421875,-0.03515625,-0.98828125
1381,-0.015350341796875,-0.0352630615234375,-0.988525390625
1382,-0.0168304443359375,-0.0353240966796875,-0.984954833984375
1383,-0.020355224609375,-0.0391082763671875,-0.9803466796875
1384,-0.0234832763671875,-0.0437774658203125,-0.976348876953125
1385,-0.0298614501953125,-0.0483551025390625,-0.9833984375
1386,-0.0364227294921875,-0.055908203125,-0.998291015625
1387,-0.037445068359375,-0.058685302734375,-1.009201049804688
1388,-0.0319671630859375,-0.058074951171875,-1.006576538085938
1389,-0.0214996337890625,-0.0549774169921875,-1.002120971679688
1390,-0.0155487060546875,-0.054779052734375,-1.005905151367188
1391,-0.0208587646484375,-0.0572509765625,-1.012405395507812
1392,-0.0246429443359375,-0.05804443359375,-1.019515991210938
1393,-0.0181427001953125,-0.055877685546875,-1.02105712890625
1394,-0.00921630859375,-0.052093505859375,-1.019088745117188
1395,-0.0052642822265625,-0.049835205078125,-1.0118408203125
1396,-0.001495361328125,-0.047271728515625,-1.00738525390625
1397,-0.001556396484375,-0.0447845458984375,-1.001632690429688
1398,-0.0028076171875,-0.0430450439453125,-1.009078979492188
1399,-0.005645751953125,-0.04217529296875,-1.009689331054688
1400,-0.0123443603515625,-0.043701171875,-1.019683837890625
1401,-0.0102386474609375,-0.03643798828125,-1.018173217773438
1402,-0.017120361328125,-0.0415496826171875,-1.017257690429688
1403,-0.002349853515625,-0.0314178466796875,-1.016082763671875
1404,-0.0015869140625,-0.0271759033203125,-1.007736206054688
1405,-0.00079345703125,-0.023345947265625,-1.007675170898438
1406,0.000213623046875,-0.022003173828125,-1.012344360351562
1407,-0.003448486328125,-0.02142333984375,-1.01483154296875
1408,-0.0069732666015625,-0.0170440673828125,-1.007980346679688
1409,-0.0077056884765625,-0.012481689453125,-1.033401489257812
1410,-0.0070648193359375,-0.0095672607421875,-1.028152465820312
1411,-0.0099334716796875,-0.0042877197265625,-1.021514892578125
1412,-0.0154266357421875,-0.004425048828125,-1.015472412109375
1413,-0.016448974609375,-0.0047760009765625,-1.017578125
1414,-0.012176513671875,-0.0028076171875,-1.011306762695312
1415,-0.0139923095703125,-0.00384521484375,-1.006179809570312
1416,-0.0166168212890625,-0.0088348388671875,-1.001144409179688
1417,-0.018035888671875,-0.0139617919921875,-0.9954986572265624
1418,-0.0216827392578125,-0.01904296875,-0.9896240234375
1419,-0.0233612060546875,-0.0236053466796875,-0.9922027587890624
1420,-0.0265960693359375,-0.028594970703125,-0.99468994140625
1421,-0.0396881103515625,-0.039886474609375,-0.995880126953125
1422,-0.0353240966796875,-0.034881591796875,-0.9936370849609376
1423,-0.039337158203125,-0.0424652099609375,-0.9950408935546876
1424,-0.034820556640625,-0.041839599609375,-0.9904327392578124
1425,-0.0312347412109375,-0.0402374267578125,-0.9870758056640624
1426,-0.026092529296875,-0.040069580078125,-0.9854888916015624
1427,-0.021759033203125,-0.040283203125,-0.986663818359375
1428,-0.0252685546875,-0.0434417724609375,-0.982757568359375
1429,-0.032379150390625,-0.0493927001953125,-0.9883880615234376
1430,-0.041717529296875,-0.0539093017578125,-0.9985198974609376
1431,-0.04327392578125,-0.0539093017578125,-1.003707885742188
1432,-0.0374908447265625,-0.051055908203125,-1.00555419921875
1433,-0.031524658203125,-0.045623779296875,-1.005569458007812
1434,-0.0279083251953125,-0.041534423828125,-1.0010986328125
1435,-0.0275421142578125,-0.0405120849609375,-0.995758056640625
1436,-0.0241241455078125,-0.037811279296875,-0.9903717041015624
1437,-0.024078369140625,-0.03997802734375,-0.9876251220703124
1438,-0.0291290283203125,-0.0475921630859375,-0.991485595703125
1439,-0.030029296875,-0.05047607421875,-0.997467041015625
1440,-0.0279693603515625,-0.0532073974609375,-1.006561279296875
1441,-0.028594970703125,-0.05615234375,-1.00787353515625
1442,-0.0295562744140625,-0.0547637939453125,-1.010040283203125
1443,-0.0287933349609375,-0.0522918701171875,-1.008804321289062
1444,-0.031707763671875,-0.0517425537109375,-1.007080078125
1445,-0.03570556640625,-0.0516357421875,-0.9978179931640624
1446,-0.0350341796875,-0.04986572265625,-0.9882049560546876
1447,-0.032928466796875,-0.048065185546875,-0.981903076171875
1448,-0.0283355712890625,-0.046783447265625,-0.98138427734375
1449,-0.0289764404296875,-0.04803466796875,-0.9925079345703124
1450,-0.027130126953125,-0.046783447265625,-0.98455810546875
1451,-0.031646728515625,-0.048797607421875,-1.001434326171875
1452,-0.0331268310546875,-0.0496063232421875,-1.003936767578125
1453,-0.0332489013671875,-0.0494232177734375,-0.9990997314453124
1454,-0.037078857421875,-0.051116943359375,-0.998565673828125
1455,-0.0407562255859375,-0.0522308349609375,-0.9938812255859376
1456,-0.0394439697265625,-0.053558349609375,-0.98944091796875
1457,-0.0329437255859375,-0.0530853271484375,-0.9999847412109376
1458,-0.0361480712890625,-0.0532379150390625,-0.989654541015625
1459,-0.0326080322265625,-0.053009033203125,-1.010604858398438
1460,-0.0312042236328125,-0.0548248291015625,-1.018722534179688
1461,-0.02679443359375,-0.05352783203125,-1.015579223632812
1462,-0.0218505859375,-0.050811767578125,-1.011383056640625
1463,-0.023040771484375,-0.050506591796875,-1.004608154296875
1464,-0.02203369140625,-0.044097900390625,-0.9901580810546876
1465,-0.021148681640625,-0.0389862060546875,-1.018539428710938
1466,-0.0280303955078125,-0.0451812744140625,-1.036544799804688
1467,-0.025604248046875,-0.040313720703125,-1.030868530273438
1468,-0.036895751953125,-0.0383758544921875,-0.999176025390625
1469,-0.041259765625,-0.0388336181640625,-1.001785278320312
1470,-0.0352325439453125,-0.0420684814453125,-1.00567626953125
1471,-0.02850341796875,-0.0425567626953125,-1.002609252929688
1472,-0.0267181396484375,-0.04107666015625,-0.9936676025390624
1473,-0.028289794921875,-0.0435028076171875,-0.98779296875
1474,-0.0308074951171875,-0.0422515869140625,-0.9814300537109376
1475,-0.0313720703125,-0.0419769287109375,-0.980987548828125
1476,-0.032073974609375,-0.0460205078125,-0.978790283203125
1477,-0.0319671630859375,-0.04840087890625,-0.994537353515625
1478,-0.0295257568359375,-0.053924560546875,-1.006378173828125
1479,-0.033050537109375,-0.0581817626953125,-1.001693725585938
1480,-0.03619384765625,-0.062744140625,-0.999237060546875
1481,-0.041748046875,-0.0701446533203125,-0.989471435546875
1482,-0.0495758056640625,-0.071807861328125,-0.99188232421875
1483,-0.0570526123046875,-0.069549560546875,-0.99530029296875
1484,-0.053375244140625,-0.0659027099609375,-1.001312255859375
1485,-0.0485076904296875,-0.0641021728515625,-0.9970703125
1486,-0.03887939453125,-0.0626678466796875,-0.98309326171875
1487,-0.035675048828125,-0.0617523193359375,-0.9666900634765624
1488,-0.0366973876953125,-0.0610504150390625,-0.961029052734375
1489,-0.0400848388671875,-0.0666961669921875,-0.9697113037109376
1490,-0.042449951171875,-0.0722503662109375,-0.97918701171875
1491,-0.04400634765625,-0.076263427734375,-0.9841461181640624
1492,-0.0465545654296875,-0.0810089111328125,-0.9905242919921876
1493,-0.045623779296875,-0.0868377685546875,-0.9998779296875
1494,-0.04931640625,-0.0886383056640625,-1.001998901367188
1495,-0.0524444580078125,-0.091064453125,-0.9996337890625
1496,-0.049591064453125,-0.0888519287109375,-0.996917724609375
1497,-0.0449066162109375,-0.0876312255859375,-0.993408203125
1498,-0.043243408203125,-0.08642578125,-0.99127197265625
1499,-0.043670654296875,-0.0840606689453125,-0.9911651611328124
1500,-0.0428924560546875,-0.0828094482421875,-0.989776611328125
1501,-0.0436859130859375,-0.084136962890625,-0.99127197265625
1502,-0.04571533203125,-0.0875244140625,-0.9971160888671876
1503,-0.0446014404296875,-0.087677001953125,-1.009902954101562
1504,-0.0471343994140625,-0.0890045166015625,-1.022552490234375
1505,-0.0540008544921875,-0.0914459228515625,-1.027008056640625
1506,-0.0571136474609375,-0.09014892578125,-1.021408081054688
1507,-0.046051025390625,-0.0798187255859375,-1.013656616210938
1508,-0.036651611328125,-0.0696258544921875,-1.007781982421875
1509,-0.046234130859375,-0.0653076171875,-1.002197265625
1510,-0.041595458984375,-0.0662078857421875,-1.003829956054688
1511,-0.0458984375,-0.0620574951171875,-1.003768920898438
1512,-0.04510498046875,-0.0579376220703125,-1.008392333984375
1513,-0.0454254150390625,-0.058135986328125,-1.011032104492188
1514,-0.047698974609375,-0.06134033203125,-1.001556396484375
1515,-0.051116943359375,-0.0637054443359375,-0.9933624267578124
1516,-0.0535888671875,-0.0661468505859375,-0.9872894287109376
1517,-0.0504302978515625,-0.0648345947265625,-0.993865966796875
1518,-0.05084228515625,-0.066375732421875,-0.9972381591796876
1519,-0.049652099609375,-0.068817138671875,-0.99560546875
1520,-0.0449676513671875,-0.066375732421875,-0.9892578125
1521,-0.03973388671875,-0.0656280517578125,-0.983489990234375
1522,-0.036834716796875,-0.067535400390625,-0.9860992431640624
1523,-0.03546142578125,-0.0700225830078125,-0.988433837890625
1524,-0.0354766845703125,-0.07147216796875,-0.9890289306640624
1525,-0.0340118408203125,-0.0720977783203125,-0.9903717041015624
1526,-0.031951904296875,-0.074615478515625,-0.9952545166015624
1527,-0.03082275390625,-0.0748443603515625,-0.994049072265625
1528,-0.0330657958984375,-0.0703887939453125,-0.9966888427734376
1529,-0.0403594970703125,-0.068695068359375,-0.9986724853515624
1530,-0.0354461669921875,-0.0704498291015625,-0.999237060546875
1531,-0.0377044677734375,-0.0662078857421875,-0.9916839599609376
1532,-0.0290069580078125,-0.0633392333984375,-0.985443115234375
1533,-0.0286102294921875,-0.0621795654296875,-0.9863739013671876
1534,-0.03106689453125,-0.0628814697265625,-0.987640380859375
1535,-0.0312042236328125,-0.0624237060546875,-0.9922943115234376
1536,-0.034637451171875,-0.062835693359375,-1.0010986328125
1537,-0.03692626953125,-0.064544677734375,-1.005905151367188
1538,-0.0391998291015625,-0.0665130615234375,-1.007278442382812
1539,-0.0430908203125,-0.0683135986328125,-1.003997802734375
1540,-0.044219970703125,-0.0687255859375,-1.004165649414062
1541,-0.0431976318359375,-0.06756591796875,-1.003555297851562
1542,-0.038055419921875,-0.065643310546875,-1.00146484375
1543,-0.0337371826171875,-0.06658935546875,-0.997955322265625
1544,-0.0310516357421875,-0.0649871826171875,-0.9989166259765624
1545,-0.02978515625,-0.0648345947265625,-1.006729125976562
1546,-0.0333099365234375,-0.0678558349609375,-1.017471313476562
1547,-0.0377655029296875,-0.06640625,-1.02764892578125
1548,-0.0354461669921875,-0.0649871826171875,-1.030288696289062
1549,-0.0271453857421875,-0.062042236328125,-1.009613037109375
1550,-0.029022216796875,-0.0634918212890625,-1.020553588867188
1551,-0.0335540771484375,-0.066497802734375,-1.003082275390625
1552,-0.04071044921875,-0.06744384765625,-0.9963836669921876
1553,-0.039703369140625,-0.06427001953125,-1.002151489257812
1554,-0.0376434326171875,-0.058074951171875,-1.018661499023438
1555,-0.039825439453125,-0.055145263671875,-1.015914916992188
1556,-0.041748046875,-0.0540008544921875,-1.00433349609375
1557,-0.0413970947265625,-0.050323486328125,-0.9893798828125
1558,-0.0367889404296875,-0.0465240478515625,-0.9958648681640624
1559,-0.029327392578125,-0.0477294921875,-0.9908599853515624
1560,-0.0270538330078125,-0.0517730712890625,-0.971771240234375
1561,-0.033721923828125,-0.0548858642578125,-0.9620513916015624
1562,-0.0398712158203125,-0.0627899169921875,-0.963775634765625
1563,-0.041259765625,-0.07275390625,-0.9794921875
1564,-0.0411834716796875,-0.0764923095703125,-0.9893035888671876
1565,-0.0340576171875,-0.075836181640625,-0.9964752197265624
1566,-0.0316619873046875,-0.0752410888671875,-1.003555297851562
1567,-0.0304718017578125,-0.074462890625,-1.01043701171875
1568,-0.028717041015625,-0.0712738037109375,-1.011184692382812
1569,-0.0182647705078125,-0.0623016357421875,-1.001052856445312
1570,-0.0222625732421875,-0.066314697265625,-1.007095336914062
1571,-0.014373779296875,-0.0603790283203125,-0.999603271484375
1572,-0.0084228515625,-0.05670166015625,-1.0020751953125
1573,-0.0094757080078125,-0.0536956787109375,-1.003524780273438
1574,-0.0153656005859375,-0.0546875,-1.008865356445312
1575,-0.01715087890625,-0.053802490234375,-1.009628295898438
1576,-0.0190887451171875,-0.0499725341796875,-1.008071899414062
1577,-0.0238494873046875,-0.048583984375,-1.005767822265625
1578,-0.0299835205078125,-0.0489044189453125,-1.009140014648438
1579,-0.0372161865234375,-0.0473175048828125,-1.005874633789062
1580,-0.0384063720703125,-0.0446319580078125,-0.99896240234375
1581,-0.0327606201171875,-0.04315185546875,-0.9962921142578124
1582,-0.02593994140625,-0.0438690185546875,-0.9929962158203124
1583,-0.0189208984375,-0.044464111328125,-0.9895477294921876
1584,-0.0152587890625,-0.046875,-0.99462890625
1585,-0.0180511474609375,-0.0524444580078125,-0.9976806640625
1586,-0.02545166015625,-0.0577545166015625,-0.9962310791015624
1587,-0.02691650390625,-0.060333251953125,-0.99078369140625
1588,-0.0307159423828125,-0.062286376953125,-0.9889678955078124
1589,-0.0342864990234375,-0.06573486328125,-0.986297607421875
1590,-0.038360595703125,-0.0681304931640625,-0.98394775390625
1591,-0.0362548828125,-0.06634521484375,-0.9835662841796876
1592,-0.0305328369140625,-0.0660400390625,-0.98944091796875
1593,-0.0350341796875,-0.066558837890625,-0.9959564208984376
1594,-0.0370025634765625,-0.064453125,-1.001129150390625
1595,-0.033935546875,-0.0608367919921875,-1.002822875976562
1596,-0.032196044921875,-0.05743408203125,-0.9959869384765624
1597,-0.03167724609375,-0.0545196533203125,-0.9927825927734376
1598,-0.0316619873046875,-0.0518646240234375,-0.9936065673828124
1599,-0.031280517578125,-0.0525665283203125,-0.9965057373046876
1600,-0.031219482421875,-0.052032470703125,-0.99993896484375
1601,-0.029632568359375,-0.05126953125,-1.00006103515625
1602,-0.0306549072265625,-0.0538787841796875,-1.000320434570312
1603,-0.0319061279296875,-0.0566864013671875,-0.9958953857421876
1604,-0.03045654296875,-0.0600433349609375,-0.992401123046875
1605,-0.026824951171875,-0.0625152587890625,-0.994903564453125
1606,-0.025482177734375,-0.06787109375,-0.9996795654296876
1607,-0.0265045166015625,-0.0732269287109375,-1.002761840820312
1608,-0.022491455078125,-0.0751953125,-1.005279541015625
1609,-0.0181427001953125,-0.0776824951171875,-1.00250244140625
1610,-0.0151214599609375,-0.0792083740234375,-0.999755859375
1611,-0.0162200927734375,-0.0821990966796875,-1.001190185546875
1612,-0.015655517578125,-0.0819854736328125,-1.002716064453125
1613,-0.014404296875,-0.079986572265625,-1.003692626953125
1614,-0.0126800537109375,-0.0744171142578125,-1.0068359375
1615,-0.011383056640625,-0.0676422119140625,-1.012115478515625
1616,-0.011688232421875,-0.062042236328125,-1.008987426757812
1617,-0.014495849609375,-0.0548553466796875,-1.006500244140625
1618,-0.0164337158203125,-0.0504608154296875,-1.006057739257812
1619,-0.019439697265625,-0.0470123291015625,-1.00567626953125
1620,-0.0244140625,-0.0451507568359375,-1.006332397460938
1621,-0.0254364013671875,-0.0428009033203125,-1.00897216796875
1622,-0.0232086181640625,-0.0388641357421875,-1.0086669921875
1623,-0.0257110595703125,-0.03851318359375,-1.005966186523438
1624,-0.0277862548828125,-0.0385894775390625,-1.004913330078125
1625,-0.0341644287109375,-0.0401153564453125,-1.00372314453125
1626,-0.0431671142578125,-0.038726806640625,-0.960205078125
1627,-0.0343017578125,-0.0416107177734375,-1.002960205078125
1628,-0.0405731201171875,-0.058837890625,-1.030807495117188
1629,-0.0452423095703125,-0.0641937255859375,-0.9733123779296876
1630,-0.0363311767578125,-0.0667572021484375,-1.028961181640625
1631,-0.0464935302734375,-0.064056396484375,-0.972564697265625
1632,-0.044830322265625,-0.0697174072265625,-0.979949951171875
1633,-0.0381622314453125,-0.07025146484375,-0.9780731201171876
1634,-0.031402587890625,-0.069366455078125,-0.9802093505859376
1635,-0.0283660888671875,-0.0744476318359375,-0.9872589111328124
1636,-0.0291290283203125,-0.08099365234375,-0.9981231689453124
1637,-0.026702880859375,-0.0819091796875,-0.995391845703125
1638,-0.0278778076171875,-0.0811920166015625,-1.002273559570312
1639,-0.0331573486328125,-0.085540771484375,-1.014022827148438
1640,-0.03564453125,-0.085357666015625,-1.010482788085938
1641,-0.03472900390625,-0.080474853515625,-0.9969635009765624
1642,-0.0350799560546875,-0.0740203857421875,-0.9902496337890624
1643,-0.0357208251953125,-0.0692138671875,-0.9902496337890624
1644,-0.0332489013671875,-0.06622314453125,-0.984832763671875
1645,-0.0320892333984375,-0.0630035400390625,-0.98760986328125
1646,-0.02886962890625,-0.06103515625,-0.994537353515625
1647,-0.02288818359375,-0.05999755859375,-1.005828857421875
1648,-0.0264129638671875,-0.0635223388671875,-1.01031494140625
1649,-0.0369110107421875,-0.068450927734375,-1.007720947265625
1650,-0.0345306396484375,-0.067596435546875,-1.007675170898438
1651,-0.0378875732421875,-0.069427490234375,-1.007598876953125
1652,-0.04095458984375,-0.06927490234375,-1.001632690429688
1653,-0.040557861328125,-0.066650390625,-0.9942779541015624
1654,-0.0377960205078125,-0.0637359619140625,-0.9943389892578124
1655,-0.034088134765625,-0.0620880126953125,-1.00006103515625
1656,-0.033843994140625,-0.0605316162109375,-1.00677490234375
1657,-0.0327911376953125,-0.0613555908203125,-1.012557983398438
1658,-0.03179931640625,-0.0622406005859375,-1.013168334960938
1659,-0.0266876220703125,-0.0606842041015625,-1.008560180664062
1660,-0.02288818359375,-0.0630340576171875,-0.9992523193359376
1661,-0.0217742919921875,-0.064849853515625,-0.99371337890625
1662,-0.0253143310546875,-0.0675506591796875,-0.9944915771484376
1663,-0.0264434814453125,-0.0715179443359375,-0.9927978515625
1664,-0.0289154052734375,-0.0746917724609375,-0.994842529296875
1665,-0.032073974609375,-0.0766754150390625,-0.99493408203125
1666,-0.0316009521484375,-0.0778045654296875,-0.9970550537109376
1667,-0.0312957763671875,-0.0794677734375,-0.9998779296875
1668,-0.02789306640625,-0.07861328125,-1.001251220703125
1669,-0.01751708984375,-0.0759124755859375,-1.000045776367188
1670,-0.020050048828125,-0.0735321044921875,-0.99859619140625
1671,-0.0204315185546875,-0.0771636962890625,-1.002899169921875
1672,-0.0204620361328125,-0.07806396484375,-1.004776000976562
1673,-0.02630615234375,-0.079437255859375,-1.002593994140625
1674,-0.03143310546875,-0.0811614990234375,-1.004104614257812
1675,-0.0370635986328125,-0.0802001953125,-1.008392333984375
1676,-0.041839599609375,-0.0794830322265625,-1.0052490234375
1677,-0.0430450439453125,-0.0774993896484375,-0.9982452392578124
1678,-0.0442657470703125,-0.072845458984375,-0.9959869384765624
1679,-0.0428466796875,-0.0676727294921875,-0.999786376953125
1680,-0.039703369140625,-0.06005859375,-0.9982452392578124
1681,-0.03826904296875,-0.051483154296875,-1.000274658203125
1682,-0.040802001953125,-0.04730224609375,-0.9981842041015624
1683,-0.043212890625,-0.04522705078125,-0.99456787109375
1684,-0.0455322265625,-0.0428314208984375,-0.9914093017578124
1685,-0.0461578369140625,-0.0430450439453125,-0.989990234375
1686,-0.043914794921875,-0.0420684814453125,-0.9961700439453124
1687,-0.04376220703125,-0.0428009033203125,-0.995391845703125
1688,-0.0483856201171875,-0.0505828857421875,-1.000869750976562
1689,-0.0458984375,-0.0584716796875,-1.0029296875
1690,-0.050201416015625,-0.0553741455078125,-1.006301879882812
1691,-0.0409088134765625,-0.0618743896484375,-1.001632690429688
1692,-0.033172607421875,-0.06268310546875,-0.99285888671875
1693,-0.0239105224609375,-0.063232421875,-0.9855194091796876
1694,-0.0209503173828125,-0.06390380859375,-0.984710693359375
1695,-0.021209716796875,-0.066497802734375,-0.993255615234375
1696,-0.025054931640625,-0.0719451904296875,-0.9999237060546876
1697,-0.02813720703125,-0.073577880859375,-1.005661010742188
1698,-0.0289459228515625,-0.07373046875,-1.008636474609375
1699,-0.0297088623046875,-0.0726470947265625,-1.009597778320312
1700,-0.027008056640625,-0.0709991455078125,-1.009811401367188
1701,-0.024139404296875,-0.0679168701171875,-1.006683349609375
1702,-0.0225372314453125,-0.0631256103515625,-1.0030517578125
1703,-0.021240234375,-0.061767578125,-1.002731323242188
1704,-0.020782470703125,-0.0612030029296875,-1.006988525390625
1705,-0.0236663818359375,-0.0621337890625,-1.005294799804688
1706,-0.0274658203125,-0.0643157958984375,-1.0054931640625
1707,-0.0286102294921875,-0.06597900390625,-1.006805419921875
1708,-0.030029296875,-0.0667877197265625,-1.007415771484375
1709,-0.0302886962890625,-0.066009521484375,-1.0030517578125
1710,-0.0286712646484375,-0.0622100830078125,-0.9975738525390624
1711,-0.02838134765625,-0.057891845703125,-0.9974517822265624
1712,-0.034271240234375,-0.0593109130859375,-1.003631591796875
1713,-0.0407562255859375,-0.063323974609375,-1.007156372070312
1714,-0.0354461669921875,-0.0637359619140625,-1.008102416992188
1715,-0.03302001953125,-0.0616455078125,-1.006683349609375
1716,-0.0303497314453125,-0.0619049072265625,-1.00958251953125
1717,-0.0258331298828125,-0.060699462890625,-1.00653076171875
1718,-0.0222625732421875,-0.0591278076171875,-1.003799438476562
1719,-0.024017333984375,-0.0604095458984375,-0.9932403564453124
1720,-0.026641845703125,-0.06353759765625,-0.9847412109375
1721,-0.0261077880859375,-0.068145751953125,-0.9816741943359376
1722,-0.0298614501953125,-0.0739593505859375,-0.993743896484375
1723,-0.0299530029296875,-0.0802154541015625,-1.001800537109375
1724,-0.0266571044921875,-0.0792083740234375,-1.003433227539062
1725,-0.023590087890625,-0.0799560546875,-1.006637573242188
1726,-0.0267181396484375,-0.0826873779296875,-1.00311279296875
1727,-0.0286102294921875,-0.0821533203125,-0.99981689453125
1728,-0.0260162353515625,-0.078277587890625,-0.9948272705078124
1729,-0.0258026123046875,-0.0717315673828125,-0.991973876953125
1730,-0.024505615234375,-0.067230224609375,-0.9919281005859376
1731,-0.0242156982421875,-0.0631103515625,-0.9914398193359376
1732,-0.0290985107421875,-0.06201171875,-0.9951324462890624
1733,-0.0298919677734375,-0.062103271484375,-0.9987640380859376
1734,-0.0308074951171875,-0.0640411376953125,-1.000381469726562
1735,-0.0323333740234375,-0.065216064453125,-0.9958038330078124
1736,-0.033355712890625,-0.066436767578125,-0.998291015625
1737,-0.034515380859375,-0.0673675537109375,-0.995849609375
1738,-0.0350341796875,-0.0673065185546875,-0.9933319091796876
1739,-0.0321807861328125,-0.067291259765625,-0.9918365478515624
1740,-0.0300445556640625,-0.0680999755859375,-0.991607666015625
1741,-0.0269622802734375,-0.0682525634765625,-0.990875244140625
1742,-0.0231781005859375,-0.069061279296875,-0.9929656982421876
1743,-0.02069091796875,-0.07208251953125,-0.99359130859375
1744,-0.01751708984375,-0.0727996826171875,-0.9961090087890624
1745,-0.0190277099609375,-0.07513427734375,-1.003250122070312
1746,-0.0227508544921875,-0.0760040283203125,-1.007919311523438
1747,-0.0247650146484375,-0.0766448974609375,-1.004302978515625
1748,-0.0247955322265625,-0.075439453125,-1.00018310546875
1749,-0.0283660888671875,-0.073944091796875,-0.997955322265625
1750,-0.0260009765625,-0.07574462890625,-0.997222900390625
1751,-0.029022216796875,-0.0735931396484375,-1.000457763671875
1752,-0.029632568359375,-0.072906494140625,-0.999847412109375
1753,-0.030303955078125,-0.0680084228515625,-0.9981842041015624
1754,-0.0346527099609375,-0.0645294189453125,-1.004257202148438
1755,-0.0389862060546875,-0.063201904296875,-1.006759643554688
1756,-0.0378570556640625,-0.0563507080078125,-1.003097534179688
1757,-0.0333251953125,-0.0521697998046875,-1.001449584960938
1758,-0.0320281982421875,-0.052001953125,-1.003494262695312
1759,-0.0325469970703125,-0.05224609375,-1.006561279296875
1760,-0.0312347412109375,-0.052093505859375,-1.009445190429688
1761,-0.0300445556640625,-0.0557403564453125,-1.011260986328125
1762,-0.02740478515625,-0.0558319091796875,-1.009063720703125
1763,-0.0247802734375,-0.057891845703125,-1.0069580078125
1764,-0.0239105224609375,-0.06170654296875,-1.005889892578125
1765,-0.0228271484375,-0.0655059814453125,-1.004745483398438
1766,-0.0229339599609375,-0.070526123046875,-1.00299072265625
1767,-0.0222625732421875,-0.0723114013671875,-1.001861572265625
1768,-0.02386474609375,-0.0739593505859375,-1.003097534179688
1769,-0.0245819091796875,-0.0787506103515625,-0.993499755859375
1770,-0.02325439453125,-0.0783843994140625,-0.9964752197265624
1771,-0.0226287841796875,-0.080047607421875,-0.9879608154296876
1772,-0.0209808349609375,-0.078857421875,-0.9840850830078124
1773,-0.022674560546875,-0.077667236328125,-0.9860382080078124
1774,-0.0274200439453125,-0.07843017578125,-0.9932403564453124
1775,-0.0278472900390625,-0.0783233642578125,-0.9937744140625
1776,-0.028656005859375,-0.0758819580078125,-0.990875244140625
1777,-0.02789306640625,-0.0739593505859375,-0.9889068603515624
1778,-0.0292816162109375,-0.073822021484375,-0.9863128662109376
1779,-0.0290069580078125,-0.071746826171875,-0.9858245849609376
1780,-0.0277099609375,-0.071014404296875,-0.98779296875
1781,-0.025787353515625,-0.0679779052734375,-0.9880828857421876
1782,-0.027069091796875,-0.0679473876953125,-0.992095947265625
1783,-0.0308990478515625,-0.0697021484375,-0.996826171875
1784,-0.0326995849609375,-0.07135009765625,-0.9973907470703124
1785,-0.0323944091796875,-0.0711212158203125,-0.995758056640625
1786,-0.0326995849609375,-0.0721588134765625,-0.9964141845703124
1787,-0.0316162109375,-0.0727691650390625,-0.9945831298828124
1788,-0.0302276611328125,-0.0718994140625,-0.9947967529296876
1789,-0.034881591796875,-0.0732421875,-1.002655029296875
1790,-0.031463623046875,-0.0719757080078125,-0.99468994140625
1791,-0.0358428955078125,-0.070953369140625,-1.0087890625
1792,-0.0340423583984375,-0.0680694580078125,-1.0087890625
1793,-0.0341644287109375,-0.07012939453125,-1.00567626953125
1794,-0.0313873291015625,-0.0662078857421875,-1.002059936523438
1795,-0.029510498046875,-0.0631103515625,-0.9982757568359376
1796,-0.027587890625,-0.060882568359375,-0.9970550537109376
1797,-0.028350830078125,-0.060089111328125,-1.000274658203125
1798,-0.026580810546875,-0.0592193603515625,-1.00311279296875
1799,-0.02783203125,-0.060302734375,-1.004104614257812
1800,-0.0311431884765625,-0.0623016357421875,-1.006057739257812
1801,-0.027679443359375,-0.06512451171875,-1.011306762695312
1802,-0.02618408203125,-0.0675048828125,-1.0147705078125
1803,-0.02972412109375,-0.071441650390625,-1.012908935546875
1804,-0.029327392578125,-0.0726470947265625,-1.008865356445312
1805,-0.027374267578125,-0.069854736328125,-1.006500244140625
1806,-0.028045654296875,-0.06927490234375,-1.00286865234375
1807,-0.029022216796875,-0.0686798095703125,-1.004913330078125
1808,-0.0286712646484375,-0.0702056884765625,-1.005813598632812
1809,-0.0272369384765625,-0.0699310302734375,-1.003952026367188
1810,-0.02862548828125,-0.072662353515625,-1.001846313476562
1811,-0.0294189453125,-0.075225830078125,-0.999176025390625
1812,-0.0287628173828125,-0.07562255859375,-1.000259399414062
1813,-0.02783203125,-0.075775146484375,-0.9998016357421876
1814,-0.029815673828125,-0.073028564453125,-0.9971466064453124
1815,-0.030029296875,-0.071136474609375,-0.9934539794921876
1816,-0.0280303955078125,-0.06610107421875,-0.9942779541015624
1817,-0.0286712646484375,-0.06182861328125,-0.9918975830078124
1818,-0.0306549072265625,-0.059844970703125,-0.99053955078125
1819,-0.03240966796875,-0.0599365234375,-0.993682861328125
1820,-0.03076171875,-0.0621795654296875,-0.9956817626953124
1821,-0.0301666259765625,-0.063446044921875,-0.9957122802734376
1822,-0.0306854248046875,-0.066497802734375,-0.9979095458984376
1823,-0.03350830078125,-0.0700836181640625,-1.006027221679688
1824,-0.03143310546875,-0.0695953369140625,-1.0037841796875
1825,-0.03173828125,-0.0712432861328125,-1.001953125
1826,-0.0336761474609375,-0.073883056640625,-1.008438110351562
1827,-0.0327911376953125,-0.0674285888671875,-0.9990234375
1828,-0.027862548828125,-0.0631103515625,-0.9890289306640624
1829,-0.02630615234375,-0.0641632080078125,-0.99981689453125
1830,-0.0348358154296875,-0.0673065185546875,-0.99664306640625
1831,-0.0359039306640625,-0.0638427734375,-0.98382568359375
1832,-0.0257568359375,-0.0577239990234375,-0.990020751953125
1833,-0.0312042236328125,-0.0677337646484375,-0.990203857421875
1834,-0.0527801513671875,-0.079864501953125,-0.9769134521484376
1835,-0.050048828125,-0.084228515625,-0.979827880859375
1836,-0.036590576171875,-0.086669921875,-0.99273681640625
1837,-0.0370941162109375,-0.092315673828125,-1.001922607421875
1838,-0.035064697265625,-0.0950469970703125,-1.019821166992188
1839,-0.0300140380859375,-0.0921783447265625,-1.011734008789062
1840,-0.0323944091796875,-0.089630126953125,-0.9998626708984376
1841,-0.0354156494140625,-0.089111328125,-0.995697021484375
1842,-0.03387451171875,-0.08843994140625,-0.9850006103515624
1843,-0.0328216552734375,-0.0872344970703125,-0.992401123046875
1844,-0.030914306640625,-0.0864410400390625,-1.001541137695312
1845,-0.0264892578125,-0.0815887451171875,-0.99652099609375
1846,-0.02398681640625,-0.0771942138671875,-0.99176025390625
1847,-0.022796630859375,-0.0729522705078125,-0.9843597412109376
1848,-0.025909423828125,-0.069244384765625,-0.9817962646484376
1849,-0.0304107666015625,-0.0616607666015625,-0.9970855712890624
1850,-0.0298004150390625,-0.06500244140625,-0.987945556640625
1851,-0.0321197509765625,-0.0558929443359375,-0.9968109130859376
1852,-0.038604736328125,-0.05572509765625,-1.007339477539062
1853,-0.0423126220703125,-0.0557403564453125,-1.024002075195312
1854,-0.0375213623046875,-0.0472564697265625,-1.016921997070312
1855,-0.0394744873046875,-0.0460662841796875,-1.005157470703125
1856,-0.042388916015625,-0.042449951171875,-1.0006103515625
1857,-0.0407867431640625,-0.0390472412109375,-0.9891204833984376
1858,-0.0326690673828125,-0.032928466796875,-0.9818572998046876
1859,-0.0292205810546875,-0.033599853515625,-0.9842987060546876
1860,-0.03765869140625,-0.0393218994140625,-0.98443603515625
1861,-0.0424041748046875,-0.0414581298828125,-0.9910125732421876
1862,-0.043609619140625,-0.0462799072265625,-0.9982452392578124
1863,-0.044769287109375,-0.0500640869140625,-1.009445190429688
1864,-0.0445404052734375,-0.051666259765625,-1.013137817382812
1865,-0.0463714599609375,-0.0518798828125,-1.009170532226562
1866,-0.043792724609375,-0.0509033203125,-0.999481201171875
1867,-0.0396728515625,-0.0475921630859375,-0.9964599609375
1868,-0.0391998291015625,-0.0462646484375,-0.9884185791015624
1869,-0.043426513671875,-0.04608154296875,-0.98931884765625
1870,-0.0507354736328125,-0.0493011474609375,-0.9982452392578124
1871,-0.056396484375,-0.0555419921875,-0.997650146484375
1872,-0.0574798583984375,-0.063232421875,-1.004486083984375
1873,-0.0611114501953125,-0.0672760009765625,-1.008941650390625
1874,-0.0611114501953125,-0.066436767578125,-1.00921630859375
1875,-0.0616912841796875,-0.0637054443359375,-1.009201049804688
1876,-0.06146240234375,-0.0717926025390625,-1.012405395507812
1877,-0.0642242431640625,-0.07586669921875,-1.010879516601562
1878,-0.0767669677734375,-0.077789306640625,-1.00531005859375
1879,-0.0773162841796875,-0.069000244140625,-1.003753662109375
1880,-0.07196044921875,-0.0575103759765625,-1.007003784179688
1881,-0.067596435546875,-0.052642822265625,-1.011062622070312
1882,-0.0660858154296875,-0.0562286376953125,-1.009445190429688
1883,-0.065673828125,-0.056671142578125,-1.002273559570312
1884,-0.0629425048828125,-0.0519561767578125,-0.99688720703125
1885,-0.0602874755859375,-0.04998779296875,-0.9947509765625
1886,-0.0633392333984375,-0.050994873046875,-1.0030517578125
1887,-0.07012939453125,-0.052734375,-1.015151977539062
1888,-0.0659027099609375,-0.0540924072265625,-1.020263671875
1889,-0.0584259033203125,-0.051483154296875,-1.018280029296875
1890,-0.0484619140625,-0.0391082763671875,-1.011764526367188
1891,-0.0423583984375,-0.0377349853515625,-1.014312744140625
1892,-0.0468597412109375,-0.0423736572265625,-1.00726318359375
1893,-0.05255126953125,-0.048675537109375,-1.002471923828125
1894,-0.052703857421875,-0.0500946044921875,-0.993316650390625
1895,-0.0564117431640625,-0.0529327392578125,-0.98870849609375
1896,-0.060302734375,-0.0599822998046875,-0.9884490966796876
1897,-0.0597381591796875,-0.0591888427734375,-0.9983062744140624
1898,-0.0611572265625,-0.0570068359375,-1.005523681640625
1899,-0.0629119873046875,-0.0619354248046875,-1.002731323242188
1900,-0.0585479736328125,-0.0661163330078125,-0.990814208984375
1901,-0.046234130859375,-0.0654144287109375,-0.984130859375
1902,-0.040985107421875,-0.0687408447265625,-0.9798736572265624
1903,-0.040252685546875,-0.0644378662109375,-0.973968505859375
1904,-0.0367584228515625,-0.06195068359375,-0.97161865234375
1905,-0.0362548828125,-0.0576629638671875,-0.9717559814453124
1906,-0.0319366455078125,-0.050445556640625,-0.976318359375
1907,-0.0292816162109375,-0.043975830078125,-0.969268798828125
1908,-0.030120849609375,-0.0438995361328125,-0.96795654296875
1909,-0.0336151123046875,-0.0507659912109375,-0.971038818359375
1910,-0.02716064453125,-0.0525665283203125,-0.980438232421875
1911,-0.0284423828125,-0.0617218017578125,-0.988555908203125
1912,-0.0339202880859375,-0.072998046875,-1.004867553710938
1913,-0.0335540771484375,-0.0735321044921875,-1.01416015625
1914,-0.0315704345703125,-0.078033447265625,-1.0211181640625
1915,-0.032196044921875,-0.0759735107421875,-1.021148681640625
1916,-0.03314208984375,-0.0788726806640625,-1.018020629882812
1917,-0.029571533203125,-0.0860443115234375,-1.006973266601562
1918,-0.0374298095703125,-0.0876007080078125,-0.9937896728515624
1919,-0.0397491455078125,-0.0832977294921875,-1.006607055664062
1920,-0.0344696044921875,-0.07257080078125,-1.01080322265625
1921,-0.035125732421875,-0.0745086669921875,-1.000198364257812
1922,-0.033721923828125,-0.0790863037109375,-0.991973876953125
1923,-0.0253143310546875,-0.0625152587890625,-0.994537353515625
1924,-0.035003662109375,-0.0646820068359375,-0.9972076416015624
1925,-0.03790283203125,-0.06414794921875,-1.007614135742188
1926,-0.0338592529296875,-0.055023193359375,-1.020339965820312
1927,-0.03277587890625,-0.0441436767578125,-1.023330688476562
1928,-0.0319061279296875,-0.0397491455078125,-1.015396118164062
1929,-0.028717041015625,-0.0426177978515625,-1.01654052734375
1930,-0.02587890625,-0.0524749755859375,-1.025070190429688
1931,-0.025543212890625,-0.065216064453125,-1.03204345703125
1932,-0.0230865478515625,-0.0666351318359375,-1.019393920898438
1933,-0.0193328857421875,-0.0716400146484375,-1.009963989257812
1934,-0.0066070556640625,-0.0784454345703125,-1.01092529296875
1935,-0.004913330078125,-0.09478759765625,-1.009201049804688
1936,-0.0086517333984375,-0.1089630126953125,-1.008865356445312
1937,-0.016845703125,-0.1175537109375,-1.00677490234375
1938,-0.0209808349609375,-0.12255859375,-1.005233764648438
1939,-0.0262603759765625,-0.129608154296875,-1.01495361328125
1940,-0.036102294921875,-0.1343994140625,-1.0162353515625
1941,-0.038787841796875,-0.1332550048828125,-1.012802124023438
1942,-0.036407470703125,-0.1305084228515625,-0.9999847412109376
1943,-0.026336669921875,-0.1229400634765625,-0.9871368408203124
1944,-0.0177764892578125,-0.10919189453125,-0.98046875
1945,-0.01806640625,-0.104705810546875,-0.9745635986328124
1946,-0.0229949951171875,-0.1041107177734375,-0.9656524658203124
1947,-0.025177001953125,-0.0959625244140625,-0.9630279541015624
1948,-0.0196380615234375,-0.0822906494140625,-0.9737396240234376
1949,-0.01861572265625,-0.0779571533203125,-0.9832763671875
1950,-0.020721435546875,-0.0863800048828125,-0.9923858642578124
1951,-0.023101806640625,-0.0931549072265625,-1.004714965820312
1952,-0.01336669921875,-0.087921142578125,-1.01287841796875
1953,-0.019012451171875,-0.106109619140625,-1.010025024414062
1954,-0.02117919921875,-0.11181640625,-1.007064819335938
1955,-0.008697509765625,-0.1032867431640625,-1.009857177734375
1956,0.01129150390625,-0.09613037109375,-1.022125244140625
1957,0.009735107421875,-0.0996856689453125,-1.023239135742188
1958,0.00390625,-0.0996246337890625,-1.031387329101562
1959,0.003082275390625,-0.086700439453125,-1.029052734375
1960,0.0012359619140625,-0.0721435546875,-1.01873779296875
1961,-0.0011444091796875,-0.0715789794921875,-1.0267333984375
1962,-0.005218505859375,-0.07672119140625,-1.035263061523438
1963,-0.0108642578125,-0.081451416015625,-1.03594970703125
