time_idx,accelerometerAccelerationX(G),accelerometerAccelerationY(G),accelerometerAccelerationZ(G)
300000,0.7360992431640625,-0.2859954833984375,0.070404052734375
300001,0.7060546875,-0.349853515625,0.095458984375
300002,0.704010009765625,-0.408538818359375,0.102783203125
300003,0.706451416015625,-0.478973388671875,0.0834808349609375
300004,0.702789306640625,-0.550445556640625,0.0757293701171875
300005,0.7523193359375,-0.5870361328125,0.090057373046875
300006,0.8372344970703125,-0.6320648193359375,0.12408447265625
300007,0.9206695556640624,-0.68194580078125,0.2111968994140625
300008,0.9708099365234376,-0.7339019775390625,0.2935333251953125
300009,0.9677276611328124,-0.80560302734375,0.3448333740234375
300010,0.8998870849609375,-0.87298583984375,0.41754150390625
300011,0.765045166015625,-0.90478515625,0.47381591796875
300012,0.589324951171875,-0.87615966796875,0.4795379638671875
300013,0.4343719482421875,-0.7757568359375,0.4364471435546875
300014,0.353271484375,-0.67962646484375,0.3689422607421875
300015,0.3418121337890625,-0.6448822021484375,0.27960205078125
300016,0.35870361328125,-0.641265869140625,0.2024993896484375
300017,0.3903350830078125,-0.643157958984375,0.1748199462890625
300018,0.436004638671875,-0.638092041015625,0.208282470703125
300019,0.49725341796875,-0.6203460693359375,0.291168212890625
300020,0.5711669921875,-0.5859375,0.387603759765625
300021,0.648223876953125,-0.554473876953125,0.4700927734375
300022,0.7240447998046875,-0.547027587890625,0.5233154296875
300023,0.7819061279296875,-0.5765533447265625,0.520477294921875
300024,0.806488037109375,-0.6410369873046875,0.448089599609375
300025,0.78289794921875,-0.7274322509765625,0.3497772216796875
300026,0.714935302734375,-0.788726806640625,0.2821502685546875
300027,0.62615966796875,-0.7953643798828125,0.2445831298828125
300028,0.543731689453125,-0.77459716796875,0.2121124267578125
300029,0.48486328125,-0.7538909912109375,0.197723388671875
300030,0.4585418701171875,-0.7276611328125,0.1821746826171875
300031,0.457672119140625,-0.6947784423828125,0.140472412109375
300032,0.4741668701171875,-0.6689300537109375,0.0842132568359375
300033,0.5012664794921875,-0.6552581787109375,0.038665771484375
300034,0.5227508544921875,-0.65887451171875,0.0071258544921875
300035,0.5308074951171875,-0.6788177490234375,0.0108642578125
300036,0.5324249267578125,-0.70526123046875,0.06109619140625
300037,0.542999267578125,-0.7295379638671875,0.140045166015625
300038,0.5684967041015625,-0.748046875,0.205535888671875
300039,0.6050567626953125,-0.7659912109375,0.25018310546875
300040,0.665313720703125,-0.7837677001953125,0.300567626953125
300041,0.7419586181640625,-0.807403564453125,0.3778228759765625
300042,0.814453125,-0.8383941650390625,0.43658447265625
300043,0.862701416015625,-0.865081787109375,0.4492950439453125
300044,0.8734130859375,-0.8759613037109375,0.4411163330078125
300045,0.8462371826171875,-0.864532470703125,0.44378662109375
300046,0.7890625,-0.82843017578125,0.4416351318359375
300047,0.7194976806640625,-0.7758941650390625,0.4286041259765625
300048,0.666015625,-0.729217529296875,0.4156951904296875
300049,0.643646240234375,-0.703704833984375,0.4007568359375
300050,0.64617919921875,-0.6894683837890625,0.3858795166015625
300051,0.6672821044921875,-0.6664581298828125,0.35211181640625
300052,0.7050628662109375,-0.6284027099609375,0.283599853515625
300053,0.75537109375,-0.5764312744140625,0.1961822509765625
300054,0.819305419921875,-0.510833740234375,0.1160888671875
300055,0.8893280029296875,-0.4370269775390625,0.0603179931640625
300056,0.96612548828125,-0.3670806884765625,0.0339813232421875
300057,1.03558349609375,-0.3087158203125,0.02862548828125
300058,1.077301025390625,-0.2671051025390625,0.0220489501953125
300059,1.082168579101562,-0.2362060546875,-0.0048980712890625
300060,1.042510986328125,-0.219482421875,-0.0353240966796875
300061,0.963653564453125,-0.2193145751953125,-0.0632476806640625
300062,0.8736724853515625,-0.22845458984375,-0.0726470947265625
300063,0.8383331298828125,-0.221771240234375,-0.0587158203125
300064,0.8480072021484375,-0.203155517578125,-0.0281982421875
300065,0.8770904541015625,-0.18096923828125,-0.001556396484375
300066,0.9178009033203124,-0.1710205078125,0.0196990966796875
300067,0.9742889404296876,-0.1991119384765625,0.0533447265625
300068,1.04486083984375,-0.2945709228515625,0.109405517578125
300069,1.1114501953125,-0.410491943359375,0.1708221435546875
300070,1.164337158203125,-0.524627685546875,0.2136688232421875
300071,1.184158325195312,-0.6392669677734375,0.2265167236328125
300072,1.1700439453125,-0.7273712158203125,0.2303466796875
300073,1.101409912109375,-0.792938232421875,0.240875244140625
300074,0.977996826171875,-0.829986572265625,0.2394256591796875
300075,0.8340606689453125,-0.8418426513671875,0.21923828125
300076,0.69818115234375,-0.856658935546875,0.218780517578125
300077,0.5782012939453125,-0.8864898681640625,0.253631591796875
300078,0.4627532958984375,-0.9105682373046876,0.3036041259765625
300079,0.3422088623046875,-0.908416748046875,0.3482208251953125
300080,0.232696533203125,-0.8705291748046875,0.3665771484375
300081,0.164703369140625,-0.8019866943359375,0.349853515625
300082,0.157806396484375,-0.713653564453125,0.29193115234375
300083,0.20916748046875,-0.6295013427734375,0.1931304931640625
300084,0.3171234130859375,-0.568084716796875,0.0717620849609375
300085,0.4524993896484375,-0.5366668701171875,0.0059051513671875
300086,0.5925750732421875,-0.5468292236328125,0.042388916015625
300087,0.7366180419921875,-0.58447265625,0.14349365234375
300088,0.8723907470703125,-0.6229705810546875,0.28033447265625
300089,0.9850311279296876,-0.64453125,0.441680908203125
300090,1.067413330078125,-0.6526947021484375,0.60235595703125
300091,1.11895751953125,-0.6688385009765625,0.6896209716796875
300092,1.128036499023438,-0.68878173828125,0.6746368408203125
300093,1.06988525390625,-0.7067108154296875,0.6181182861328125
300094,0.95684814453125,-0.7370147705078125,0.52740478515625
300095,0.817138671875,-0.7656402587890625,0.422210693359375
300096,0.665924072265625,-0.774444580078125,0.3641815185546875
300097,0.525665283203125,-0.7731475830078125,0.347198486328125
300098,0.4140472412109375,-0.7664794921875,0.3473663330078125
300099,0.328704833984375,-0.76214599609375,0.3829803466796875
300100,0.2930755615234375,-0.7721710205078125,0.43927001953125
300101,0.3173980712890625,-0.796142578125,0.4866943359375
300102,0.3750457763671875,-0.8215789794921875,0.5336761474609375
300103,0.4439849853515625,-0.838287353515625,0.5751953125
300104,0.503265380859375,-0.8517913818359375,0.582977294921875
300105,0.5363006591796875,-0.8640594482421875,0.54541015625
300106,0.535369873046875,-0.8673858642578125,0.4883270263671875
300107,0.5076141357421875,-0.8609619140625,0.435211181640625
300108,0.47650146484375,-0.8446807861328125,0.379241943359375
300109,0.4662933349609375,-0.8101806640625,0.30755615234375
300110,0.4954376220703125,-0.7520294189453125,0.222686767578125
300111,0.56793212890625,-0.6739044189453125,0.158935546875
300112,0.672515869140625,-0.601531982421875,0.1080169677734375
300113,0.800079345703125,-0.5610504150390625,0.0692138671875
300114,0.9398956298828124,-0.5491180419921875,0.060638427734375
300115,1.080581665039062,-0.5527191162109375,0.0765838623046875
300116,1.2115478515625,-0.53759765625,0.07672119140625
300117,1.311325073242188,-0.4949188232421875,0.032501220703125
300118,1.3648681640625,-0.430999755859375,-0.032073974609375
300119,1.386260986328125,-0.3510894775390625,-0.0891265869140625
300120,1.3941650390625,-0.2645721435546875,-0.132568359375
300121,1.367691040039062,-0.195098876953125,-0.1508636474609375
300122,1.297515869140625,-0.144073486328125,-0.148895263671875
300123,1.1820068359375,-0.1094970703125,-0.1320037841796875
300124,1.039596557617188,-0.10009765625,-0.0910797119140625
300125,0.915557861328125,-0.1225738525390625,-0.04840087890625
300126,0.8256378173828125,-0.175445556640625,-0.008880615234375
300127,0.7658538818359375,-0.2325439453125,0.0174407958984375
300128,0.7327423095703125,-0.283538818359375,0.0424346923828125
300129,0.7286834716796875,-0.3361053466796875,0.079803466796875
300130,0.76129150390625,-0.3903350830078125,0.10626220703125
300131,0.8295135498046875,-0.4487152099609375,0.1168212890625
300132,0.9200592041015624,-0.50836181640625,0.12152099609375
300133,0.9764556884765624,-0.5955657958984375,0.116546630859375
300134,1.038467407226562,-0.6512298583984375,0.1309051513671875
300135,1.112411499023438,-0.6932525634765625,0.20001220703125
300136,1.120285034179688,-0.752105712890625,0.2787628173828125
300137,1.043899536132812,-0.8018341064453125,0.3283538818359375
300138,0.9018402099609376,-0.849822998046875,0.3567962646484375
300139,0.720458984375,-0.885467529296875,0.4328460693359375
300140,0.531951904296875,-0.8643798828125,0.51171875
300141,0.3683013916015625,-0.7930450439453125,0.54107666015625
300142,0.2694091796875,-0.71734619140625,0.52557373046875
300143,0.2408599853515625,-0.67987060546875,0.4577178955078125
300144,0.263427734375,-0.6614990234375,0.3550872802734375
300145,0.327239990234375,-0.639862060546875,0.2667999267578125
300146,0.4136505126953125,-0.610260009765625,0.23944091796875
300147,0.500762939453125,-0.57275390625,0.276763916015625
300148,0.585479736328125,-0.528472900390625,0.373138427734375
300149,0.6627655029296875,-0.4912872314453125,0.4850616455078125
300150,0.72576904296875,-0.482940673828125,0.541717529296875
300151,0.763458251953125,-0.512908935546875,0.5169219970703125
300152,0.7578887939453125,-0.576202392578125,0.420562744140625
300153,0.70166015625,-0.6605224609375,0.29534912109375
300154,0.6129302978515625,-0.7264556884765625,0.2142181396484375
300155,0.5234222412109375,-0.7449798583984375,0.18890380859375
300156,0.4604949951171875,-0.73602294921875,0.2008514404296875
300157,0.4346771240234375,-0.720245361328125,0.2259063720703125
300158,0.444000244140625,-0.702301025390625,0.24462890625
300159,0.4738922119140625,-0.6919403076171875,0.24737548828125
300160,0.5112457275390625,-0.68878173828125,0.2266998291015625
300161,0.5499267578125,-0.692291259765625,0.1855316162109375
300162,0.5765838623046875,-0.7066650390625,0.1573638916015625
300163,0.5880126953125,-0.73468017578125,0.14031982421875
300164,0.584625244140625,-0.7662506103515625,0.1432952880859375
300165,0.561920166015625,-0.79730224609375,0.1890106201171875
300166,0.54022216796875,-0.817535400390625,0.248138427734375
300167,0.5401153564453125,-0.8188629150390625,0.29638671875
300168,0.569244384765625,-0.80908203125,0.3357696533203125
300169,0.615875244140625,-0.796875,0.3580169677734375
300170,0.6608428955078125,-0.7911376953125,0.3695220947265625
300171,0.6965484619140625,-0.7874755859375,0.391021728515625
300172,0.7122344970703125,-0.78118896484375,0.411041259765625
300173,0.7152557373046875,-0.7662200927734375,0.42999267578125
300174,0.7176666259765625,-0.73614501953125,0.4437408447265625
300175,0.736175537109375,-0.6903839111328125,0.44451904296875
300176,0.779754638671875,-0.639862060546875,0.4326629638671875
300177,0.8365478515625,-0.597930908203125,0.4033966064453125
300178,0.894927978515625,-0.5633697509765625,0.350799560546875
300179,0.93524169921875,-0.53692626953125,0.2871856689453125
300180,0.9534149169921876,-0.5164031982421875,0.2213897705078125
300181,0.9495086669921876,-0.491119384765625,0.1669769287109375
300182,0.9323883056640624,-0.447296142578125,0.115509033203125
300183,0.9151611328125,-0.382568359375,0.05267333984375
300184,0.90887451171875,-0.306396484375,-0.0126495361328125
300185,0.91455078125,-0.2430419921875,-0.0526885986328125
300186,0.936614990234375,-0.20672607421875,-0.056427001953125
300187,0.9753875732421876,-0.1909942626953125,-0.0374603271484375
300188,1.018386840820312,-0.187225341796875,-0.0099334716796875
300189,1.049301147460938,-0.198638916015625,0.016143798828125
300190,1.076034545898438,-0.224578857421875,0.0280609130859375
300191,1.096420288085938,-0.2647552490234375,0.0287933349609375
300192,1.106155395507812,-0.3106689453125,0.0398712158203125
300193,1.09967041015625,-0.363128662109375,0.062774658203125
300194,1.068832397460938,-0.423919677734375,0.099700927734375
300195,1.026397705078125,-0.496978759765625,0.15277099609375
300196,0.9873046875,-0.57159423828125,0.2236480712890625
300197,0.9620208740234376,-0.6272125244140625,0.284912109375
300198,0.9401397705078124,-0.672821044921875,0.3222198486328125
300199,0.9024658203125,-0.7230072021484375,0.3348541259765625
300200,0.8388519287109375,-0.7757415771484375,0.3394927978515625
300201,0.7612457275390625,-0.824249267578125,0.3375091552734375
300202,0.6730194091796875,-0.861236572265625,0.3333892822265625
300203,0.5796661376953125,-0.8796539306640625,0.3268890380859375
300204,0.4928436279296875,-0.88006591796875,0.3237457275390625
300205,0.42462158203125,-0.85809326171875,0.3228607177734375
300206,0.386810302734375,-0.817901611328125,0.3011474609375
300207,0.383636474609375,-0.764068603515625,0.2444305419921875
300208,0.419281005859375,-0.6957244873046875,0.1656341552734375
300209,0.4972381591796875,-0.622406005859375,0.088409423828125
300210,0.6013031005859375,-0.5515899658203125,0.0311737060546875
300211,0.7085113525390625,-0.4928741455078125,0.0127105712890625
300212,0.8131103515625,-0.4546356201171875,0.0316925048828125
300213,0.91558837890625,-0.4395599365234375,0.0772705078125
300214,0.9953765869140624,-0.446380615234375,0.1457061767578125
300215,1.033203125,-0.46466064453125,0.2219085693359375
300216,1.018051147460938,-0.4899749755859375,0.28192138671875
300217,0.9886627197265624,-0.51324462890625,0.320953369140625
300218,0.9530487060546876,-0.5311431884765625,0.3387908935546875
300219,0.88482666015625,-0.5406341552734375,0.341339111328125
300220,0.803131103515625,-0.5407257080078125,0.356903076171875
300221,0.7352142333984375,-0.5511627197265625,0.4239654541015625
300222,0.695892333984375,-0.5901947021484375,0.5070037841796875
300223,0.6767730712890625,-0.6590728759765625,0.5502166748046875
300224,0.655426025390625,-0.7442779541015625,0.566558837890625
300225,0.62127685546875,-0.8294525146484375,0.577667236328125
300226,0.5703887939453125,-0.9012908935546876,0.5619659423828125
300227,0.4999542236328125,-0.9411468505859376,0.52459716796875
300228,0.4276885986328125,-0.9557342529296876,0.519439697265625
300229,0.3710784912109375,-0.959747314453125,0.5181732177734375
300230,0.342132568359375,-0.956787109375,0.49615478515625
300231,0.3372955322265625,-0.952178955078125,0.479248046875
300232,0.354461669921875,-0.939453125,0.4785919189453125
300233,0.3715057373046875,-0.921478271484375,0.4869842529296875
300234,0.367584228515625,-0.89935302734375,0.484710693359375
300235,0.3454742431640625,-0.869903564453125,0.4617919921875
300236,0.31585693359375,-0.8292236328125,0.418426513671875
300237,0.3016357421875,-0.783477783203125,0.3540802001953125
300238,0.3294830322265625,-0.7305145263671875,0.27423095703125
300239,0.4004364013671875,-0.671875,0.197784423828125
300240,0.499725341796875,-0.625946044921875,0.1304168701171875
300241,0.6269989013671875,-0.6037139892578125,0.0899810791015625
300242,0.784637451171875,-0.597442626953125,0.0935211181640625
300243,0.9642486572265624,-0.6009521484375,0.1275634765625
300244,1.141876220703125,-0.5960235595703125,0.12939453125
300245,1.292495727539062,-0.56396484375,0.0805816650390625
300246,1.390792846679688,-0.5056610107421875,0.0209503173828125
300247,1.433074951171875,-0.430816650390625,-0.03314208984375
300248,1.4356689453125,-0.3377838134765625,-0.0612335205078125
300249,1.4200439453125,-0.2263336181640625,-0.090911865234375
300250,1.377532958984375,-0.119415283203125,-0.136962890625
300251,1.2889404296875,-0.059112548828125,-0.1684722900390625
300252,1.162399291992188,-0.0552978515625,-0.1800689697265625
300253,1.024032592773438,-0.09234619140625,-0.1573944091796875
300254,0.9073333740234376,-0.1710052490234375,-0.0929107666015625
300255,0.8401336669921875,-0.25592041015625,-0.0121002197265625
300256,0.8173980712890625,-0.3408050537109375,0.07757568359375
300257,0.8251953125,-0.4371490478515625,0.14727783203125
300258,0.8630523681640625,-0.52569580078125,0.1893768310546875
300259,0.9172210693359376,-0.60321044921875,0.2076263427734375
300260,0.9754180908203124,-0.670074462890625,0.1771240234375
300261,1.024948120117188,-0.7170867919921875,0.145233154296875
300262,1.044342041015625,-0.746978759765625,0.15228271484375
300263,1.017822265625,-0.76861572265625,0.17431640625
300264,0.9428253173828124,-0.77978515625,0.2139434814453125
300265,0.824615478515625,-0.7808990478515625,0.27874755859375
300266,0.6869964599609375,-0.765960693359375,0.362060546875
300267,0.55438232421875,-0.7289886474609375,0.4241485595703125
300268,0.426055908203125,-0.678680419921875,0.4319000244140625
300269,0.3220367431640625,-0.64471435546875,0.4101104736328125
300270,0.263916015625,-0.64178466796875,0.3795166015625
300271,0.2663116455078125,-0.654205322265625,0.332000732421875
300272,0.317779541015625,-0.66278076171875,0.294036865234375
300273,0.398193359375,-0.6566009521484375,0.2852935791015625
300274,0.491546630859375,-0.6332855224609375,0.29278564453125
300275,0.585052490234375,-0.5825347900390625,0.3209991455078125
300276,0.68365478515625,-0.513916015625,0.3738861083984375
300277,0.7885284423828125,-0.450347900390625,0.4295196533203125
300278,0.880035400390625,-0.41778564453125,0.4515533447265625
300279,0.92071533203125,-0.4308929443359375,0.420867919921875
300280,0.892333984375,-0.4971923828125,0.3457183837890625
300281,0.798004150390625,-0.597991943359375,0.251434326171875
300282,0.67572021484375,-0.669830322265625,0.1878204345703125
300283,0.568756103515625,-0.710601806640625,0.142822265625
300284,0.48504638671875,-0.736602783203125,0.1217498779296875
300285,0.430511474609375,-0.7490386962890625,0.12158203125
300286,0.4162139892578125,-0.75482177734375,0.14013671875
300287,0.4417572021484375,-0.7668304443359375,0.1652984619140625
300288,0.490753173828125,-0.7799224853515625,0.1749267578125
300289,0.535400390625,-0.7853240966796875,0.173309326171875
300290,0.5640411376953125,-0.7789764404296875,0.164337158203125
300291,0.579071044921875,-0.7735137939453125,0.167816162109375
300292,0.588775634765625,-0.78045654296875,0.2103424072265625
300293,0.5961761474609375,-0.7979888916015625,0.2755889892578125
300294,0.61053466796875,-0.8186492919921875,0.3189239501953125
300295,0.6387176513671875,-0.8336639404296875,0.3254547119140625
300296,0.6735382080078125,-0.8409576416015625,0.315765380859375
300297,0.6972808837890625,-0.84283447265625,0.30908203125
300298,0.6961822509765625,-0.8440399169921875,0.3153839111328125
300299,0.6764373779296875,-0.83917236328125,0.3371124267578125
300300,0.64508056640625,-0.8217926025390625,0.3580780029296875
300301,0.6121978759765625,-0.7866363525390625,0.3665924072265625
300302,0.58905029296875,-0.7326812744140625,0.3661651611328125
300303,0.5894012451171875,-0.676483154296875,0.366912841796875
300304,0.629608154296875,-0.635101318359375,0.367279052734375
300305,0.7143096923828125,-0.6131744384765625,0.3553466796875
300306,0.82525634765625,-0.6044921875,0.3556060791015625
300307,0.924285888671875,-0.59820556640625,0.3699951171875
300308,0.9840087890625,-0.588897705078125,0.350799560546875
300309,0.9822998046875,-0.5637664794921875,0.2663421630859375
300310,0.9220733642578124,-0.517608642578125,0.1547088623046875
300311,0.852020263671875,-0.4509124755859375,0.061737060546875
300312,0.8111419677734375,-0.3686370849609375,0.009857177734375
300313,0.8025360107421875,-0.28448486328125,-0.0147857666015625
300314,0.816162109375,-0.20794677734375,-0.02386474609375
300315,0.8450927734375,-0.1509857177734375,-0.017852783203125
300316,0.8760528564453125,-0.1215972900390625,-0.003936767578125
300317,0.908599853515625,-0.12164306640625,0.0174102783203125
300318,0.954803466796875,-0.153167724609375,0.0520172119140625
300319,1.013778686523438,-0.2108612060546875,0.091644287109375
300320,1.07391357421875,-0.27911376953125,0.126007080078125
300321,1.126754760742188,-0.356414794921875,0.150665283203125
300322,1.158340454101562,-0.44415283203125,0.1723785400390625
300323,1.155258178710938,-0.53253173828125,0.2010650634765625
300324,1.122543334960938,-0.615875244140625,0.230682373046875
300325,1.079330444335938,-0.6862945556640625,0.25262451171875
300326,1.02679443359375,-0.7370452880859375,0.2600555419921875
300327,0.9598541259765624,-0.77264404296875,0.263031005859375
300328,0.87835693359375,-0.8013916015625,0.26580810546875
300329,0.789825439453125,-0.82818603515625,0.2593536376953125
300330,0.7003021240234375,-0.844970703125,0.2559967041015625
300331,0.619842529296875,-0.852447509765625,0.2523193359375
300332,0.5554351806640625,-0.848541259765625,0.24078369140625
300333,0.51043701171875,-0.8288726806640625,0.227294921875
300334,0.4896240234375,-0.796630859375,0.1968536376953125
300335,0.4891204833984375,-0.7486572265625,0.1549224853515625
300336,0.5040130615234375,-0.689483642578125,0.11322021484375
300337,0.540069580078125,-0.6215667724609375,0.075408935546875
300338,0.6036529541015625,-0.551971435546875,0.04412841796875
300339,0.69085693359375,-0.4902191162109375,0.0265655517578125
300340,0.7919921875,-0.4438629150390625,0.030914306640625
300341,0.892822265625,-0.417816162109375,0.06005859375
300342,0.96038818359375,-0.4198150634765625,0.1203460693359375
300343,0.9738616943359376,-0.4561004638671875,0.1845245361328125
300344,0.941375732421875,-0.5128631591796875,0.23193359375
300345,0.8953857421875,-0.560089111328125,0.2634735107421875
300346,0.839385986328125,-0.5825958251953125,0.298492431640625
300347,0.77679443359375,-0.59027099609375,0.3277435302734375
300348,0.717254638671875,-0.602142333984375,0.3751220703125
300349,0.674041748046875,-0.623992919921875,0.4714202880859375
300350,0.6473846435546875,-0.66607666015625,0.553497314453125
300351,0.6179962158203125,-0.732513427734375,0.5714263916015625
300352,0.5790557861328125,-0.812530517578125,0.5518035888671875
300353,0.5343017578125,-0.8804931640625,0.5489349365234375
300354,0.4871826171875,-0.92303466796875,0.543670654296875
300355,0.4432220458984375,-0.940948486328125,0.5128326416015625
300356,0.4026031494140625,-0.9510345458984376,0.48162841796875
300357,0.379119873046875,-0.962066650390625,0.479949951171875
300358,0.37969970703125,-0.967559814453125,0.4965972900390625
300359,0.4012603759765625,-0.9611663818359376,0.5153045654296875
300360,0.4386444091796875,-0.9466094970703124,0.5252532958984375
300361,0.467926025390625,-0.9260101318359376,0.5276641845703125
300362,0.477325439453125,-0.8997802734375,0.5181427001953125
300363,0.4629364013671875,-0.869384765625,0.496429443359375
300364,0.43524169921875,-0.835723876953125,0.459625244140625
300365,0.417694091796875,-0.79534912109375,0.3988189697265625
300366,0.4433746337890625,-0.7449951171875,0.315032958984375
300367,0.51123046875,-0.6850128173828125,0.242156982421875
300368,0.6024932861328125,-0.629638671875,0.1854248046875
300369,0.716522216796875,-0.5977630615234375,0.13739013671875
300370,0.8445281982421875,-0.585205078125,0.1064910888671875
300371,0.97088623046875,-0.5789794921875,0.103240966796875
300372,1.084259033203125,-0.5589141845703125,0.0843048095703125
300373,1.186248779296875,-0.5150604248046875,0.0301666259765625
300374,1.271392822265625,-0.455841064453125,-0.0125579833984375
300375,1.334564208984375,-0.383880615234375,-0.0410614013671875
300376,1.3729248046875,-0.3047943115234375,-0.083343505859375
300377,1.38104248046875,-0.23577880859375,-0.1305389404296875
300378,1.371719360351562,-0.1775665283203125,-0.1453704833984375
300379,1.340621948242188,-0.1173553466796875,-0.1585540771484375
300380,1.240280151367188,-0.057342529296875,-0.1527252197265625
300381,1.084564208984375,-0.0349578857421875,-0.115081787109375
300382,0.9468536376953124,-0.1058807373046875,-0.052825927734375
300383,0.8621063232421875,-0.2119140625,0.0237579345703125
300384,0.7993927001953125,-0.310211181640625,0.092376708984375
300385,0.7585601806640625,-0.4217071533203125,0.13092041015625
300386,0.762420654296875,-0.5162353515625,0.146148681640625
300387,0.8003692626953125,-0.580657958984375,0.1242218017578125
300388,0.850189208984375,-0.6205902099609375,0.0857086181640625
300389,0.908294677734375,-0.6543731689453125,0.0410308837890625
300390,0.966796875,-0.69219970703125,0.05181884765625
300391,1.020050048828125,-0.7340850830078125,0.090118408203125
300392,1.042984008789062,-0.77545166015625,0.158294677734375
300393,1.006027221679688,-0.80718994140625,0.2595977783203125
300394,0.896728515625,-0.8211669921875,0.35333251953125
300395,0.733856201171875,-0.8079376220703125,0.4456329345703125
300396,0.5628814697265625,-0.7627410888671875,0.50592041015625
300397,0.42486572265625,-0.695953369140625,0.501220703125
300398,0.353790283203125,-0.6512908935546875,0.4339141845703125
300399,0.3381195068359375,-0.648956298828125,0.341827392578125
300400,0.353302001953125,-0.654815673828125,0.2703399658203125
300401,0.38775634765625,-0.6540985107421875,0.24835205078125
300402,0.4348297119140625,-0.639312744140625,0.2807464599609375
300403,0.4898223876953125,-0.6076812744140625,0.35235595703125
300404,0.553985595703125,-0.5545806884765625,0.43927001953125
300405,0.6241302490234375,-0.4989776611328125,0.5153961181640625
300406,0.6879425048828125,-0.469818115234375,0.5494384765625
300407,0.73297119140625,-0.4829864501953125,0.523468017578125
300408,0.745819091796875,-0.5401458740234375,0.4308013916015625
300409,0.7137908935546875,-0.6307525634765625,0.3184967041015625
300410,0.6355743408203125,-0.707427978515625,0.2494659423828125
300411,0.5454254150390625,-0.737762451171875,0.2254638671875
300412,0.4679718017578125,-0.739501953125,0.2321014404296875
300413,0.4182586669921875,-0.730316162109375,0.243804931640625
300414,0.40673828125,-0.7145538330078125,0.2453155517578125
300415,0.4234466552734375,-0.69708251953125,0.236663818359375
300416,0.4506378173828125,-0.6869964599609375,0.2021942138671875
300417,0.4876556396484375,-0.685882568359375,0.152587890625
300418,0.52685546875,-0.6930389404296875,0.1207733154296875
300419,0.56475830078125,-0.7108154296875,0.106201171875
300420,0.593536376953125,-0.735870361328125,0.122650146484375
300421,0.6140594482421875,-0.7641754150390625,0.1688385009765625
300422,0.6376953125,-0.7853546142578125,0.220855712890625
300423,0.666900634765625,-0.7896575927734375,0.2701416015625
300424,0.7002105712890625,-0.781585693359375,0.3127899169921875
300425,0.73321533203125,-0.7742919921875,0.3303985595703125
300426,0.75494384765625,-0.774749755859375,0.3438568115234375
300427,0.765625,-0.7783355712890625,0.364349365234375
300428,0.76275634765625,-0.7839202880859375,0.378448486328125
300429,0.75323486328125,-0.7811279296875,0.381195068359375
300430,0.749267578125,-0.763946533203125,0.387451171875
300431,0.75897216796875,-0.7302703857421875,0.39910888671875
300432,0.778961181640625,-0.6866455078125,0.3980560302734375
300433,0.8082122802734375,-0.6399688720703125,0.387451171875
300434,0.8475189208984375,-0.5988616943359375,0.3866424560546875
300435,0.87432861328125,-0.5691986083984375,0.3856353759765625
300436,0.8858642578125,-0.550048828125,0.357147216796875
300437,0.88330078125,-0.5272674560546875,0.2920379638671875
300438,0.8590850830078125,-0.497039794921875,0.2091827392578125
300439,0.82611083984375,-0.4538421630859375,0.1282806396484375
300440,0.79974365234375,-0.3988037109375,0.0780487060546875
300441,0.79217529296875,-0.3404693603515625,0.0600433349609375
300442,0.78570556640625,-0.2913360595703125,0.071929931640625
300443,0.7745819091796875,-0.2651214599609375,0.0690765380859375
300444,0.7671051025390625,-0.258636474609375,0.0617828369140625
300445,0.77471923828125,-0.26715087890625,0.0702362060546875
300446,0.8009033203125,-0.27862548828125,0.0760345458984375
300447,0.835479736328125,-0.285614013671875,0.087127685546875
300448,0.8787994384765625,-0.2936248779296875,0.12078857421875
300449,0.9363250732421876,-0.3093109130859375,0.1617584228515625
300450,1.004623413085938,-0.3419952392578125,0.2004241943359375
300451,1.0660400390625,-0.39593505859375,0.2146759033203125
300452,1.098800659179688,-0.46148681640625,0.217529296875
300453,1.08807373046875,-0.5341339111328125,0.24151611328125
300454,1.047012329101562,-0.61163330078125,0.273895263671875
300455,0.99188232421875,-0.687652587890625,0.2988739013671875
300456,0.9273681640625,-0.7484588623046875,0.326507568359375
300457,0.853363037109375,-0.79638671875,0.348388671875
300458,0.7690277099609375,-0.830078125,0.3487701416015625
300459,0.67816162109375,-0.8541259765625,0.333770751953125
300460,0.588134765625,-0.8679656982421875,0.3072052001953125
300461,0.5119171142578125,-0.8693695068359375,0.28094482421875
300462,0.459991455078125,-0.857208251953125,0.2469482421875
300463,0.43414306640625,-0.826080322265625,0.2104949951171875
300464,0.43060302734375,-0.775482177734375,0.1725006103515625
300465,0.452056884765625,-0.7109375,0.1352386474609375
300466,0.5060882568359375,-0.6353607177734375,0.10504150390625
300467,0.585296630859375,-0.55877685546875,0.09173583984375
300468,0.6847686767578125,-0.498992919921875,0.093017578125
300469,0.793731689453125,-0.4764556884765625,0.108673095703125
300470,0.90032958984375,-0.4895172119140625,0.1492462158203125
300471,0.9910888671875,-0.5210723876953125,0.210418701171875
300472,1.041915893554688,-0.5577545166015625,0.268341064453125
300473,1.046035766601562,-0.58587646484375,0.30975341796875
300474,1.010025024414062,-0.5969085693359375,0.34228515625
300475,0.953216552734375,-0.589263916015625,0.351715087890625
300476,0.8938751220703125,-0.5880279541015625,0.3668212890625
300477,0.8433990478515625,-0.6065216064453125,0.3957366943359375
300478,0.80615234375,-0.643829345703125,0.4185333251953125
300479,0.76873779296875,-0.6883697509765625,0.4351959228515625
300480,0.7141876220703125,-0.7265167236328125,0.434417724609375
300481,0.637115478515625,-0.7499847412109375,0.4272613525390625
300482,0.5522003173828125,-0.7669830322265625,0.4409637451171875
300483,0.476531982421875,-0.7851104736328125,0.4627838134765625
300484,0.4251708984375,-0.806610107421875,0.480224609375
300485,0.39324951171875,-0.8287353515625,0.5064697265625
300486,0.378509521484375,-0.848785400390625,0.5316314697265625
300487,0.382049560546875,-0.8682861328125,0.54229736328125
300488,0.4046630859375,-0.887725830078125,0.54681396484375
300489,0.433319091796875,-0.8981475830078125,0.5540771484375
300490,0.445709228515625,-0.8892669677734375,0.5439910888671875
300491,0.42999267578125,-0.8600616455078125,0.506134033203125
300492,0.4079132080078125,-0.812286376953125,0.4471893310546875
300493,0.4066009521484375,-0.7545166015625,0.37969970703125
300494,0.4381866455078125,-0.69573974609375,0.307830810546875
300495,0.4946441650390625,-0.6479034423828125,0.2365264892578125
300496,0.5798797607421875,-0.6131744384765625,0.1748809814453125
300497,0.70306396484375,-0.5898284912109375,0.1423492431640625
300498,0.853607177734375,-0.568572998046875,0.1297760009765625
300499,1.012649536132812,-0.5426483154296875,0.0828704833984375
300500,1.163711547851562,-0.5069580078125,0.0111846923828125
300501,1.288406372070312,-0.4685516357421875,-0.048583984375
300502,1.360931396484375,-0.4263763427734375,-0.0941314697265625
300503,1.366317749023438,-0.3777008056640625,-0.1119384765625
300504,1.337661743164062,-0.3133544921875,-0.08795166015625
300505,1.31341552734375,-0.2376556396484375,-0.0598907470703125
300506,1.289230346679688,-0.183380126953125,-0.0549468994140625
300507,1.229995727539062,-0.1609649658203125,-0.089630126953125
300508,1.118133544921875,-0.1807861328125,-0.130096435546875
300509,0.9987335205078124,-0.2370758056640625,-0.1272735595703125
300510,0.898223876953125,-0.29534912109375,-0.0677642822265625
300511,0.8312835693359375,-0.3574981689453125,-0.001861572265625
300512,0.7908477783203125,-0.4221954345703125,0.0445556640625
300513,0.773712158203125,-0.486480712890625,0.072784423828125
300514,0.78533935546875,-0.5464630126953125,0.08770751953125
300515,0.8214874267578125,-0.5972137451171875,0.0880279541015625
300516,0.8653411865234375,-0.6396484375,0.0748138427734375
300517,0.9121856689453124,-0.67523193359375,0.0720977783203125
300518,0.96783447265625,-0.6993408203125,0.1475677490234375
300519,0.9906158447265624,-0.7313690185546875,0.2508392333984375
300520,0.9498443603515624,-0.77178955078125,0.3365325927734375
300521,0.860748291015625,-0.817169189453125,0.40887451171875
300522,0.753021240234375,-0.8512420654296875,0.4240875244140625
300523,0.6535491943359375,-0.838775634765625,0.3702850341796875
300524,0.58258056640625,-0.775146484375,0.2998046875
300525,0.55108642578125,-0.7120361328125,0.258880615234375
300526,0.546478271484375,-0.6707763671875,0.2528839111328125
300527,0.55438232421875,-0.639495849609375,0.259368896484375
300528,0.558380126953125,-0.61224365234375,0.2788543701171875
300529,0.5552978515625,-0.583526611328125,0.315643310546875
300530,0.5545654296875,-0.551483154296875,0.3564910888671875
300531,0.553985595703125,-0.5223541259765625,0.3648834228515625
300532,0.5535125732421875,-0.4963531494140625,0.34228515625
300533,0.5536651611328125,-0.4749603271484375,0.321502685546875
300534,0.559783935546875,-0.4736175537109375,0.3164825439453125
300535,0.5706939697265625,-0.506500244140625,0.304229736328125
300536,0.576446533203125,-0.5669708251953125,0.2869873046875
300537,0.577545166015625,-0.64862060546875,0.2889251708984375
300538,0.57135009765625,-0.7384796142578125,0.2987213134765625
300539,0.5520782470703125,-0.797027587890625,0.30889892578125
300540,0.5278167724609375,-0.8020477294921875,0.3134613037109375
300541,0.5108184814453125,-0.7731475830078125,0.2985687255859375
300542,0.50506591796875,-0.7306976318359375,0.2564697265625
300543,0.514801025390625,-0.701019287109375,0.18621826171875
300544,0.529876708984375,-0.6885986328125,0.1276397705078125
300545,0.5446624755859375,-0.6805572509765625,0.1022491455078125
300546,0.5493316650390625,-0.680145263671875,0.1027984619140625
300547,0.54180908203125,-0.7030792236328125,0.12359619140625
300548,0.5223388671875,-0.7447509765625,0.1626739501953125
300549,0.5062408447265625,-0.787261962890625,0.21563720703125
300550,0.50408935546875,-0.8163299560546875,0.276214599609375
300551,0.5227203369140625,-0.82318115234375,0.3134307861328125
300552,0.5531005859375,-0.812957763671875,0.315155029296875
300553,0.592620849609375,-0.79376220703125,0.3028564453125
300554,0.6348419189453125,-0.7761383056640625,0.2928619384765625
300555,0.665374755859375,-0.7649688720703125,0.297576904296875
300556,0.6820831298828125,-0.7550201416015625,0.3094329833984375
300557,0.6917724609375,-0.74615478515625,0.32135009765625
300558,0.7137298583984375,-0.733673095703125,0.345672607421875
300559,0.7631988525390625,-0.713287353515625,0.375885009765625
300560,0.8380279541015625,-0.689910888671875,0.4029693603515625
300561,0.9212646484375,-0.663482666015625,0.4106292724609375
300562,0.9879150390625,-0.63037109375,0.3871002197265625
300563,1.019378662109375,-0.5852508544921875,0.3329010009765625
300564,1.016281127929688,-0.5372772216796875,0.2412261962890625
300565,0.9885711669921876,-0.482574462890625,0.1202239990234375
300566,0.951019287109375,-0.416229248046875,0.0048980712890625
300567,0.924896240234375,-0.3415374755859375,-0.0773468017578125
300568,0.92626953125,-0.26507568359375,-0.1298828125
300569,0.9463043212890624,-0.1957244873046875,-0.1266021728515625
300570,0.99444580078125,-0.1484222412109375,-0.0764617919921875
300571,1.06298828125,-0.1296539306640625,-0.017822265625
300572,1.13079833984375,-0.1433563232421875,0.0229949951171875
300573,1.184921264648438,-0.1808013916015625,0.055938720703125
300574,1.211288452148438,-0.231201171875,0.089111328125
300575,1.212249755859375,-0.2975311279296875,0.097747802734375
300576,1.186355590820312,-0.3688507080078125,0.0818634033203125
300577,1.12774658203125,-0.439666748046875,0.0642242431640625
300578,1.03564453125,-0.5123138427734375,0.07861328125
300579,0.935028076171875,-0.589019775390625,0.134124755859375
300580,0.8520050048828125,-0.6558685302734375,0.21038818359375
300581,0.7945098876953125,-0.7059478759765625,0.27386474609375
300582,0.75091552734375,-0.745819091796875,0.307830810546875
300583,0.7101593017578125,-0.775726318359375,0.327484130859375
300584,0.675048828125,-0.8015594482421875,0.33294677734375
300585,0.64056396484375,-0.8240966796875,0.330047607421875
300586,0.5971832275390625,-0.8363494873046875,0.331756591796875
300587,0.5527801513671875,-0.8337860107421875,0.339996337890625
300588,0.517120361328125,-0.8310394287109375,0.3451690673828125
300589,0.498321533203125,-0.8331756591796875,0.3325653076171875
300590,0.491851806640625,-0.818939208984375,0.2939300537109375
300591,0.4884033203125,-0.7841339111328125,0.220947265625
300592,0.503265380859375,-0.7368621826171875,0.11895751953125
300593,0.55194091796875,-0.6822509765625,0.01947021484375
300594,0.6296844482421875,-0.624664306640625,-0.0455169677734375
300595,0.7117156982421875,-0.5684661865234375,-0.0463104248046875
300596,0.7669830322265625,-0.520904541015625,0.0113525390625
300597,0.7935791015625,-0.4910736083984375,0.09954833984375
300598,0.80108642578125,-0.48040771484375,0.1932373046875
300599,0.799560546875,-0.482177734375,0.26324462890625
300600,0.7794342041015625,-0.4935455322265625,0.2961578369140625
300601,0.7472686767578125,-0.512237548828125,0.300750732421875
300602,0.7269439697265625,-0.535308837890625,0.2938995361328125
300603,0.721832275390625,-0.5549468994140625,0.3096771240234375
300604,0.72967529296875,-0.5780181884765625,0.3677215576171875
300605,0.7555694580078125,-0.613983154296875,0.4695892333984375
300606,0.78619384765625,-0.668853759765625,0.57666015625
300607,0.791473388671875,-0.735595703125,0.628448486328125
300608,0.748260498046875,-0.8062591552734375,0.61383056640625
300609,0.6436004638671875,-0.8601837158203125,0.574188232421875
300610,0.5043487548828125,-0.88385009765625,0.5446624755859375
300611,0.3655548095703125,-0.8868560791015625,0.514007568359375
300612,0.2577972412109375,-0.8874969482421875,0.48980712890625
300613,0.20953369140625,-0.8969879150390625,0.47625732421875
300614,0.2214508056640625,-0.9106292724609376,0.486663818359375
300615,0.2718048095703125,-0.924896240234375,0.52362060546875
300616,0.340606689453125,-0.9345855712890624,0.5526580810546875
300617,0.4033050537109375,-0.9359588623046876,0.534423828125
300618,0.447235107421875,-0.922576904296875,0.4835968017578125
300619,0.4789276123046875,-0.89495849609375,0.420440673828125
300620,0.5164642333984375,-0.860931396484375,0.353729248046875
300621,0.5727691650390625,-0.8209381103515625,0.285186767578125
300622,0.65557861328125,-0.7767333984375,0.2113494873046875
300623,0.766876220703125,-0.7346954345703125,0.1671295166015625
300624,0.898468017578125,-0.70001220703125,0.156219482421875
300625,1.039260864257812,-0.6689453125,0.1495361328125
300626,1.1636962890625,-0.625,0.12481689453125
300627,1.25823974609375,-0.5628204345703125,0.0582427978515625
300628,1.318557739257812,-0.4835357666015625,-0.0259857177734375
300629,1.339523315429688,-0.3885498046875,-0.0948638916015625
300630,1.34088134765625,-0.2815093994140625,-0.15118408203125
300631,1.353286743164062,-0.1595306396484375,-0.174285888671875
300632,1.36944580078125,-0.042083740234375,-0.1565399169921875
300633,1.336868286132812,-0.010162353515625,-0.139068603515625
300634,1.211502075195312,-0.0502471923828125,-0.128021240234375
300635,1.038848876953125,-0.103668212890625,-0.1011810302734375
300636,0.89971923828125,-0.2076263427734375,-0.0537567138671875
300637,0.8113250732421875,-0.311981201171875,0.0090789794921875
300638,0.769622802734375,-0.386077880859375,0.06011962890625
300639,0.7660369873046875,-0.4652252197265625,0.1215972900390625
300640,0.778045654296875,-0.5472869873046875,0.17718505859375
300641,0.7918701171875,-0.6154937744140625,0.19415283203125
300642,0.80780029296875,-0.672393798828125,0.200469970703125
300643,0.822601318359375,-0.7231597900390625,0.221832275390625
300644,0.8347625732421875,-0.7638397216796875,0.2493896484375
300645,0.8367156982421875,-0.80047607421875,0.265380859375
300646,0.81256103515625,-0.82958984375,0.2897186279296875
300647,0.7592620849609375,-0.849884033203125,0.3237152099609375
300648,0.6900634765625,-0.8561859130859375,0.339447021484375
300649,0.6090240478515625,-0.8358306884765625,0.3382110595703125
300650,0.5377960205078125,-0.77728271484375,0.3106842041015625
300651,0.493011474609375,-0.6977691650390625,0.2617340087890625
300652,0.4827423095703125,-0.6389923095703125,0.226531982421875
300653,0.4975128173828125,-0.6143035888671875,0.2386627197265625
300654,0.5284271240234375,-0.60845947265625,0.30609130859375
300655,0.5716400146484375,-0.6074371337890625,0.39794921875
300656,0.6181640625,-0.60064697265625,0.477294921875
300657,0.6521453857421875,-0.584930419921875,0.5222625732421875
300658,0.6608428955078125,-0.5638885498046875,0.5140838623046875
300659,0.641204833984375,-0.543182373046875,0.4647674560546875
300660,0.59442138671875,-0.53167724609375,0.4098358154296875
300661,0.5343475341796875,-0.5326690673828125,0.370330810546875
300662,0.4756317138671875,-0.550811767578125,0.3430938720703125
300663,0.433258056640625,-0.595550537109375,0.3082275390625
300664,0.4113616943359375,-0.651641845703125,0.2715911865234375
300665,0.3985595703125,-0.6941070556640625,0.25439453125
300666,0.389495849609375,-0.716705322265625,0.2503814697265625
300667,0.381195068359375,-0.729644775390625,0.24346923828125
300668,0.38092041015625,-0.7385711669921875,0.2297821044921875
300669,0.3989105224609375,-0.7490997314453125,0.226287841796875
300670,0.4369354248046875,-0.757354736328125,0.23858642578125
300671,0.477386474609375,-0.762725830078125,0.22113037109375
300672,0.50921630859375,-0.77459716796875,0.1484222412109375
300673,0.5330810546875,-0.8088226318359375,0.05462646484375
300674,0.5464019775390625,-0.85968017578125,0.01055908203125
300675,0.550018310546875,-0.9077911376953124,0.0431976318359375
300676,0.560089111328125,-0.9306793212890624,0.132110595703125
300677,0.591339111328125,-0.9252777099609376,0.2407379150390625
300678,0.6390838623046875,-0.8953704833984375,0.3297119140625
300679,0.6863861083984375,-0.8528289794921875,0.3728485107421875
300680,0.7258148193359375,-0.82080078125,0.3859405517578125
300681,0.751800537109375,-0.808441162109375,0.374237060546875
300682,0.763458251953125,-0.8130645751953125,0.3258056640625
300683,0.7604522705078125,-0.806854248046875,0.2574462890625
300684,0.764495849609375,-0.7753753662109375,0.2194976806640625
300685,0.802703857421875,-0.7241973876953125,0.235992431640625
300686,0.878692626953125,-0.67193603515625,0.3221435546875
300687,0.9702911376953124,-0.630462646484375,0.4517059326171875
300688,1.052047729492188,-0.604095458984375,0.5382537841796875
300689,1.098526000976562,-0.5800628662109375,0.5236358642578125
300690,1.092498779296875,-0.5510711669921875,0.4139556884765625
300691,1.043701171875,-0.5148468017578125,0.2510223388671875
300692,0.97320556640625,-0.4638824462890625,0.092254638671875
300693,0.904693603515625,-0.394561767578125,-0.0153350830078125
300694,0.848052978515625,-0.317901611328125,-0.055572509765625
300695,0.805908203125,-0.2505035400390625,-0.0644073486328125
300696,0.7909698486328125,-0.205352783203125,-0.0502777099609375
300697,0.8038482666015625,-0.1913604736328125,-0.0217742919921875
300698,0.83642578125,-0.2065277099609375,-0.003204345703125
300699,0.8753204345703125,-0.229644775390625,0.014801025390625
300700,0.91693115234375,-0.2523956298828125,0.0300140380859375
300701,0.968597412109375,-0.280731201171875,0.04486083984375
300702,1.036117553710938,-0.3260498046875,0.069610595703125
300703,1.101593017578125,-0.3957977294921875,0.087066650390625
300704,1.13043212890625,-0.4845733642578125,0.091796875
300705,1.097824096679688,-0.5693206787109375,0.1130828857421875
300706,1.016555786132812,-0.63677978515625,0.16033935546875
300707,0.92242431640625,-0.67901611328125,0.202728271484375
300708,0.8375701904296875,-0.6963653564453125,0.2349090576171875
300709,0.7755126953125,-0.7010040283203125,0.2646636962890625
300710,0.726806640625,-0.708465576171875,0.2917327880859375
300711,0.6734466552734375,-0.7235870361328125,0.300537109375
300712,0.603515625,-0.7485809326171875,0.296295166015625
300713,0.526824951171875,-0.7833404541015625,0.286865234375
300714,0.4660186767578125,-0.8218841552734375,0.2757415771484375
300715,0.4296112060546875,-0.8516082763671875,0.274383544921875
300716,0.4124755859375,-0.8545684814453125,0.273651123046875
300717,0.4075927734375,-0.8296661376953125,0.2646942138671875
300718,0.4197540283203125,-0.7862548828125,0.2506866455078125
300719,0.458770751953125,-0.7336578369140625,0.22674560546875
300720,0.524169921875,-0.6780242919921875,0.1896514892578125
300721,0.6040496826171875,-0.618072509765625,0.1323394775390625
300722,0.6855316162109375,-0.5619964599609375,0.0645599365234375
300723,0.7645416259765625,-0.5249176025390625,0.024078369140625
300724,0.835357666015625,-0.52001953125,0.039276123046875
300725,0.87408447265625,-0.544586181640625,0.097442626953125
300726,0.8831024169921875,-0.5911407470703125,0.1696929931640625
300727,0.880279541015625,-0.6298065185546875,0.243743896484375
300728,0.880584716796875,-0.64300537109375,0.32550048828125
300729,0.872650146484375,-0.6381988525390625,0.3957366943359375
300730,0.8439788818359375,-0.630645751953125,0.440765380859375
300731,0.7945709228515625,-0.6312408447265625,0.4770965576171875
300732,0.7476806640625,-0.650238037109375,0.517730712890625
300733,0.719757080078125,-0.6808013916015625,0.5621337890625
300734,0.6971435546875,-0.7190399169921875,0.57574462890625
300735,0.66156005859375,-0.7584228515625,0.542572021484375
300736,0.616058349609375,-0.788421630859375,0.51080322265625
300737,0.5722503662109375,-0.8048553466796875,0.5019683837890625
300738,0.535430908203125,-0.8138275146484375,0.4896392822265625
300739,0.49859619140625,-0.8186492919921875,0.482025146484375
300740,0.461761474609375,-0.8229522705078125,0.4897308349609375
300741,0.4404144287109375,-0.831024169921875,0.4830780029296875
300742,0.43817138671875,-0.837493896484375,0.4671478271484375
300743,0.4549560546875,-0.8339385986328125,0.4685516357421875
300744,0.485260009765625,-0.8174591064453125,0.472991943359375
300745,0.516143798828125,-0.794769287109375,0.4583587646484375
300746,0.537445068359375,-0.767913818359375,0.4237213134765625
300747,0.5506744384765625,-0.737518310546875,0.37579345703125
300748,0.5637969970703125,-0.7091217041015625,0.3383331298828125
300749,0.598602294921875,-0.6798553466796875,0.31243896484375
300750,0.6609954833984375,-0.652252197265625,0.27044677734375
300751,0.7429656982421875,-0.6317901611328125,0.201141357421875
300752,0.838043212890625,-0.621124267578125,0.13916015625
300753,0.94512939453125,-0.6204681396484375,0.1041412353515625
300754,1.06341552734375,-0.6156463623046875,0.090362548828125
300755,1.179153442382812,-0.5915069580078125,0.0824737548828125
300756,1.272140502929688,-0.5491790771484375,0.07830810546875
300757,1.323898315429688,-0.4996185302734375,0.0638275146484375
300758,1.330490112304688,-0.4458160400390625,0.0343017578125
300759,1.30218505859375,-0.3878631591796875,0.01324462890625
300760,1.25146484375,-0.3277435302734375,0.00665283203125
300761,1.183258056640625,-0.2761077880859375,-0.00048828125
300762,1.094741821289062,-0.250762939453125,-0.0190277099609375
300763,0.990478515625,-0.25537109375,-0.0346832275390625
300764,0.8879547119140625,-0.2837371826171875,-0.03289794921875
300765,0.797607421875,-0.3191986083984375,0.001007080078125
300766,0.7339935302734375,-0.356842041015625,0.0518035888671875
300767,0.7108001708984375,-0.3997802734375,0.10284423828125
300768,0.7235870361328125,-0.44293212890625,0.152618408203125
300769,0.7488555908203125,-0.475982666015625,0.1767578125
300770,0.7808380126953125,-0.4971466064453125,0.1862640380859375
300771,0.82568359375,-0.5199127197265625,0.1861724853515625
300772,0.8869171142578125,-0.561981201171875,0.1788330078125
300773,0.9546966552734376,-0.61590576171875,0.179473876953125
300774,1.016372680664062,-0.6730194091796875,0.2077789306640625
300775,1.044570922851562,-0.722900390625,0.2433319091796875
300776,1.013565063476562,-0.7626495361328125,0.276824951171875
300777,0.9297637939453124,-0.788238525390625,0.312591552734375
300778,0.8156280517578125,-0.7987518310546875,0.3221282958984375
300779,0.6916961669921875,-0.7722320556640625,0.29949951171875
300780,0.5904998779296875,-0.6975860595703125,0.2663421630859375
300781,0.5321502685546875,-0.62554931640625,0.244964599609375
300782,0.4995269775390625,-0.5875244140625,0.233551025390625
300783,0.475067138671875,-0.564483642578125,0.2420654296875
300784,0.460052490234375,-0.557586669921875,0.2669677734375
300785,0.45697021484375,-0.5603790283203125,0.2977142333984375
300786,0.463104248046875,-0.5620880126953125,0.32269287109375
300787,0.4803466796875,-0.5567779541015625,0.347869873046875
300788,0.5001373291015625,-0.545806884765625,0.3708953857421875
300789,0.511505126953125,-0.5298309326171875,0.3883819580078125
300790,0.515380859375,-0.5130462646484375,0.40704345703125
300791,0.5251922607421875,-0.510406494140625,0.426116943359375
300792,0.5504302978515625,-0.533233642578125,0.4505157470703125
300793,0.5819244384765625,-0.5781097412109375,0.457275390625
300794,0.6051483154296875,-0.6576385498046875,0.401458740234375
300795,0.597503662109375,-0.754150390625,0.3389739990234375
300796,0.559478759765625,-0.8009490966796875,0.308074951171875
300797,0.51593017578125,-0.7969207763671875,0.297882080078125
300798,0.488616943359375,-0.779754638671875,0.3130340576171875
300799,0.484161376953125,-0.769500732421875,0.315948486328125
300800,0.500213623046875,-0.770172119140625,0.279754638671875
300801,0.5361480712890625,-0.772216796875,0.2296295166015625
300802,0.5810089111328125,-0.7622528076171875,0.190673828125
300803,0.6253204345703125,-0.7402496337890625,0.1701202392578125
300804,0.6575469970703125,-0.7104339599609375,0.1780242919921875
300805,0.6699371337890625,-0.685394287109375,0.20947265625
300806,0.6617889404296875,-0.6790771484375,0.2470245361328125
300807,0.6388397216796875,-0.690673828125,0.2808074951171875
300808,0.61322021484375,-0.708831787109375,0.312164306640625
300809,0.6035308837890625,-0.7196807861328125,0.3336029052734375
300810,0.6130523681640625,-0.7153778076171875,0.3184661865234375
300811,0.631988525390625,-0.7003326416015625,0.2709197998046875
300812,0.64788818359375,-0.678680419921875,0.2373809814453125
300813,0.659942626953125,-0.6566009521484375,0.2332611083984375
300814,0.667633056640625,-0.639892578125,0.266937255859375
300815,0.68206787109375,-0.63812255859375,0.3236846923828125
300816,0.7117767333984375,-0.64215087890625,0.3656158447265625
300817,0.7572479248046875,-0.642974853515625,0.37457275390625
300818,0.8193511962890625,-0.6299591064453125,0.3494720458984375
300819,0.8989410400390625,-0.6042633056640625,0.3104095458984375
300820,0.991424560546875,-0.57525634765625,0.2670135498046875
300821,1.079238891601562,-0.55279541015625,0.2176513671875
300822,1.132644653320312,-0.532928466796875,0.1782684326171875
300823,1.133773803710938,-0.5086669921875,0.136474609375
300824,1.087783813476562,-0.477630615234375,0.0882415771484375
300825,1.022415161132812,-0.4421234130859375,0.0578765869140625
300826,0.96502685546875,-0.4118804931640625,0.052459716796875
300827,0.926025390625,-0.387939453125,0.067230224609375
300828,0.9010772705078124,-0.3746337890625,0.0838470458984375
300829,0.8849639892578125,-0.371490478515625,0.1114654541015625
300830,0.876861572265625,-0.38189697265625,0.136077880859375
300831,0.8783721923828125,-0.396087646484375,0.146697998046875
300832,0.8865509033203125,-0.414520263671875,0.1520233154296875
300833,0.894439697265625,-0.4356842041015625,0.1595916748046875
300834,0.8968658447265625,-0.4559326171875,0.1693267822265625
300835,0.8917236328125,-0.469024658203125,0.1859130859375
300836,0.8868560791015625,-0.47283935546875,0.2196044921875
300837,0.8881072998046875,-0.478302001953125,0.2647857666015625
300838,0.898162841796875,-0.4935302734375,0.3035125732421875
300839,0.90771484375,-0.518096923828125,0.32501220703125
300840,0.9055023193359376,-0.55926513671875,0.3349609375
300841,0.884490966796875,-0.6127777099609375,0.3360137939453125
300842,0.8414306640625,-0.6667938232421875,0.320892333984375
300843,0.7794342041015625,-0.7003631591796875,0.2943267822265625
300844,0.7129364013671875,-0.7081451416015625,0.2798614501953125
300845,0.6561279296875,-0.7050018310546875,0.277313232421875
300846,0.610137939453125,-0.7037200927734375,0.2635955810546875
300847,0.5755615234375,-0.7054595947265625,0.2407989501953125
300848,0.5585784912109375,-0.7089996337890625,0.2220611572265625
300849,0.5590057373046875,-0.70989990234375,0.1942901611328125
300850,0.573211669921875,-0.7021636962890625,0.1552276611328125
300851,0.596038818359375,-0.683135986328125,0.1244659423828125
300852,0.6292266845703125,-0.6530303955078125,0.1061248779296875
300853,0.66973876953125,-0.613800048828125,0.1008148193359375
300854,0.7148590087890625,-0.5741729736328125,0.11346435546875
300855,0.76397705078125,-0.5458221435546875,0.13739013671875
300856,0.80975341796875,-0.5345916748046875,0.1827392578125
300857,0.839202880859375,-0.5405120849609375,0.2552642822265625
300858,0.852142333984375,-0.553802490234375,0.3266143798828125
300859,0.848419189453125,-0.5622711181640625,0.3936767578125
300860,0.831787109375,-0.5648345947265625,0.452392578125
300861,0.8062896728515625,-0.5708465576171875,0.479461669921875
300862,0.7772064208984375,-0.59210205078125,0.491424560546875
300863,0.754730224609375,-0.6276092529296875,0.51239013671875
300864,0.739288330078125,-0.6700592041015625,0.538116455078125
300865,0.7080535888671875,-0.7026824951171875,0.5375213623046875
300866,0.6455841064453125,-0.71533203125,0.5056610107421875
300867,0.5597381591796875,-0.7088165283203125,0.468536376953125
300868,0.4782867431640625,-0.7039642333984375,0.439727783203125
300869,0.421173095703125,-0.714019775390625,0.4235382080078125
300870,0.38934326171875,-0.737030029296875,0.42279052734375
300871,0.382537841796875,-0.7637786865234375,0.4448699951171875
300872,0.40972900390625,-0.7925567626953125,0.4820404052734375
300873,0.4707794189453125,-0.812774658203125,0.530364990234375
300874,0.5487823486328125,-0.8235626220703125,0.5752716064453125
300875,0.6124725341796875,-0.827301025390625,0.589141845703125
300876,0.641632080078125,-0.824066162109375,0.5544891357421875
300877,0.6310577392578125,-0.8151092529296875,0.4985198974609375
300878,0.5973968505859375,-0.7982940673828125,0.4414825439453125
300879,0.5750885009765625,-0.77130126953125,0.3673858642578125
300880,0.5853424072265625,-0.7330780029296875,0.2859039306640625
300881,0.628173828125,-0.6863555908203125,0.2160797119140625
300882,0.6926116943359375,-0.64447021484375,0.1682586669921875
300883,0.76947021484375,-0.623321533203125,0.14990234375
300884,0.855438232421875,-0.619232177734375,0.151611328125
300885,0.948516845703125,-0.614013671875,0.1530609130859375
300886,1.047500610351562,-0.59014892578125,0.13006591796875
300887,1.146530151367188,-0.5440521240234375,0.0728607177734375
300888,1.236328125,-0.478118896484375,-0.0037384033203125
300889,1.309906005859375,-0.4066925048828125,-0.064117431640625
300890,1.36724853515625,-0.3327178955078125,-0.093658447265625
300891,1.387466430664062,-0.2820587158203125,-0.0935516357421875
300892,1.339340209960938,-0.2502593994140625,-0.09088134765625
300893,1.257431030273438,-0.1815032958984375,-0.0835418701171875
300894,1.155593872070312,-0.1132965087890625,-0.061676025390625
300895,1.0263671875,-0.1076202392578125,-0.0236663818359375
300896,0.910064697265625,-0.161651611328125,0.0232391357421875
300897,0.84344482421875,-0.2391357421875,0.06573486328125
300898,0.809356689453125,-0.3101043701171875,0.104705810546875
300899,0.7827606201171875,-0.37274169921875,0.1374359130859375
300900,0.75970458984375,-0.4254302978515625,0.15093994140625
300901,0.76116943359375,-0.473388671875,0.1473388671875
300902,0.80548095703125,-0.520782470703125,0.13519287109375
300903,0.8881988525390625,-0.570556640625,0.1245269775390625
300904,0.981719970703125,-0.6157684326171875,0.1716766357421875
300905,1.036849975585938,-0.662689208984375,0.23779296875
300906,1.023910522460938,-0.7147979736328125,0.3029632568359375
300907,0.9343414306640624,-0.7682952880859375,0.38958740234375
300908,0.790740966796875,-0.8039093017578125,0.457061767578125
300909,0.62982177734375,-0.7958984375,0.49420166015625
300910,0.4920501708984375,-0.7365264892578125,0.481292724609375
300911,0.41534423828125,-0.667510986328125,0.413970947265625
300912,0.390289306640625,-0.62554931640625,0.3369903564453125
300913,0.3908538818359375,-0.6070709228515625,0.2853851318359375
300914,0.404998779296875,-0.6013641357421875,0.2910003662109375
300915,0.4257659912109375,-0.596954345703125,0.355072021484375
300916,0.4461212158203125,-0.5815277099609375,0.4322357177734375
300917,0.46783447265625,-0.5574493408203125,0.48699951171875
300918,0.4970245361328125,-0.536834716796875,0.496490478515625
300919,0.535247802734375,-0.532318115234375,0.4627838134765625
300920,0.5786285400390625,-0.547698974609375,0.3854522705078125
300921,0.6239471435546875,-0.5775909423828125,0.2912750244140625
300922,0.6656951904296875,-0.6162872314453125,0.2122955322265625
300923,0.69720458984375,-0.662322998046875,0.17681884765625
300924,0.70672607421875,-0.7182769775390625,0.21575927734375
300925,0.6983489990234375,-0.7537384033203125,0.3021087646484375
300926,0.68511962890625,-0.7548675537109375,0.3672332763671875
300927,0.6784820556640625,-0.74072265625,0.382568359375
300928,0.682525634765625,-0.7296905517578125,0.347412109375
300929,0.69403076171875,-0.7249755859375,0.259735107421875
300930,0.7037506103515625,-0.71710205078125,0.1508331298828125
300931,0.6953125,-0.707275390625,0.074310302734375
300932,0.6623382568359375,-0.7073211669921875,0.04351806640625
300933,0.6097412109375,-0.7188262939453125,0.06671142578125
300934,0.5475616455078125,-0.733795166015625,0.14373779296875
300935,0.497222900390625,-0.744964599609375,0.2191314697265625
300936,0.482208251953125,-0.74969482421875,0.2530670166015625
300937,0.509002685546875,-0.746551513671875,0.2662506103515625
300938,0.55401611328125,-0.7515716552734375,0.2642059326171875
300939,0.59197998046875,-0.768951416015625,0.2602996826171875
300940,0.6193695068359375,-0.796173095703125,0.2855377197265625
300941,0.6384429931640625,-0.826904296875,0.3480072021484375
300942,0.659881591796875,-0.849395751953125,0.4294891357421875
300943,0.6994781494140625,-0.8492889404296875,0.5128021240234375
300944,0.7703094482421875,-0.82196044921875,0.5745086669921875
300945,0.85614013671875,-0.7734832763671875,0.5792999267578125
300946,0.922332763671875,-0.7146148681640625,0.51824951171875
300947,0.9563446044921876,-0.6478271484375,0.415496826171875
300948,0.9595794677734376,-0.573486328125,0.3229522705078125
300949,0.9351348876953124,-0.50384521484375,0.239654541015625
300950,0.8941192626953125,-0.4430389404296875,0.1388702392578125
300951,0.848968505859375,-0.3927764892578125,0.0556793212890625
300952,0.806976318359375,-0.3482513427734375,0.02032470703125
300953,0.78765869140625,-0.3031005859375,0.007659912109375
300954,0.79962158203125,-0.2559661865234375,0.0113525390625
300955,0.83953857421875,-0.2127838134765625,0.0306243896484375
300956,0.891448974609375,-0.182037353515625,0.0351409912109375
300957,0.93353271484375,-0.1670684814453125,0.0277557373046875
300958,0.9520721435546876,-0.1729736328125,0.020751953125
300959,0.9473876953125,-0.1982269287109375,0.035003662109375
300960,0.928955078125,-0.23846435546875,0.0676727294921875
300961,0.9110260009765624,-0.288360595703125,0.1131744384765625
300962,0.8998260498046875,-0.3453521728515625,0.167938232421875
300963,0.8959197998046875,-0.415740966796875,0.1934814453125
300964,0.8905487060546875,-0.50018310546875,0.187286376953125
300965,0.88507080078125,-0.5915679931640625,0.202423095703125
300966,0.8954925537109375,-0.6753082275390625,0.2356719970703125
300967,0.921600341796875,-0.73614501953125,0.2657318115234375
300968,0.9349212646484376,-0.778228759765625,0.2793731689453125
300969,0.915924072265625,-0.8079376220703125,0.2830047607421875
300970,0.861846923828125,-0.820068359375,0.286163330078125
300971,0.8006439208984375,-0.8182373046875,0.2688751220703125
300972,0.75201416015625,-0.8087921142578125,0.2314605712890625
300973,0.71551513671875,-0.7969970703125,0.18756103515625
300974,0.68463134765625,-0.7841339111328125,0.1468048095703125
300975,0.658966064453125,-0.763702392578125,0.11767578125
300976,0.63812255859375,-0.733917236328125,0.104888916015625
300977,0.626007080078125,-0.693084716796875,0.085113525390625
300978,0.6337432861328125,-0.64337158203125,0.057769775390625
300979,0.66009521484375,-0.590606689453125,0.0330810546875
300980,0.709716796875,-0.5397796630859375,0.0270233154296875
300981,0.771636962890625,-0.493896484375,0.048126220703125
300982,0.8276214599609375,-0.467529296875,0.0960845947265625
300983,0.8623504638671875,-0.4733428955078125,0.1636810302734375
300984,0.8680419921875,-0.509063720703125,0.24420166015625
300985,0.8499908447265625,-0.55609130859375,0.304962158203125
300986,0.8159332275390625,-0.5849456787109375,0.3541717529296875
300987,0.7764434814453125,-0.590087890625,0.4115447998046875
300988,0.736724853515625,-0.59881591796875,0.44061279296875
300989,0.7074737548828125,-0.62451171875,0.4734954833984375
300990,0.6916961669921875,-0.668548583984375,0.54052734375
300991,0.6777191162109375,-0.72784423828125,0.60809326171875
300992,0.6490325927734375,-0.794708251953125,0.6358184814453125
300993,0.6002655029296875,-0.8497314453125,0.6369171142578125
300994,0.538604736328125,-0.88348388671875,0.623687744140625
300995,0.480926513671875,-0.900146484375,0.5795745849609375
300996,0.4380340576171875,-0.9154205322265624,0.5323028564453125
300997,0.408111572265625,-0.9298248291015624,0.50128173828125
300998,0.3999786376953125,-0.9372406005859376,0.5008544921875
300999,0.4227752685546875,-0.9391326904296876,0.528472900390625
301000,0.4653472900390625,-0.936248779296875,0.55450439453125
301001,0.497314453125,-0.9305877685546876,0.5465850830078125
301002,0.5005035400390625,-0.919464111328125,0.5086822509765625
301003,0.480133056640625,-0.8941192626953125,0.457244873046875
301004,0.4551239013671875,-0.8561248779296875,0.395416259765625
301005,0.45196533203125,-0.8075408935546875,0.32171630859375
301006,0.4737548828125,-0.7569122314453125,0.24261474609375
301007,0.5168609619140625,-0.713043212890625,0.1829681396484375
301008,0.5903472900390625,-0.67669677734375,0.1685791015625
301009,0.6958160400390625,-0.646453857421875,0.189849853515625
301010,0.82989501953125,-0.610931396484375,0.193634033203125
301011,0.9688720703125,-0.55975341796875,0.1558074951171875
301012,1.095809936523438,-0.4962158203125,0.0740509033203125
301013,1.184890747070312,-0.4273529052734375,-0.01812744140625
301014,1.227493286132812,-0.3642578125,-0.05908203125
301015,1.236831665039062,-0.310211181640625,-0.04931640625
301016,1.242538452148438,-0.247650146484375,-0.029510498046875
301017,1.248977661132812,-0.177734375,-0.02642822265625
301018,1.239089965820312,-0.1288909912109375,-0.046051025390625
301019,1.176681518554688,-0.1255340576171875,-0.0877685546875
301020,1.060455322265625,-0.167694091796875,-0.11968994140625
301021,0.936309814453125,-0.23193359375,-0.109344482421875
301022,0.839019775390625,-0.299468994140625,-0.0620880126953125
301023,0.7830963134765625,-0.3650970458984375,-0.0016326904296875
301024,0.7610626220703125,-0.426788330078125,0.068603515625
301025,0.769012451171875,-0.478302001953125,0.1397705078125
301026,0.7987518310546875,-0.5199127197265625,0.18560791015625
301027,0.8448944091796875,-0.5634918212890625,0.1880645751953125
301028,0.8915863037109375,-0.6182403564453125,0.17840576171875
301029,0.9378509521484376,-0.6826019287109375,0.1766357421875
301030,0.9810791015625,-0.7408905029296875,0.2064666748046875
301031,0.9827117919921876,-0.786285400390625,0.2664031982421875
301032,0.9217376708984376,-0.8203277587890625,0.3351898193359375
301033,0.8217010498046875,-0.8357696533203125,0.405029296875
301034,0.70599365234375,-0.82037353515625,0.4445953369140625
301035,0.5948486328125,-0.755950927734375,0.4185638427734375
301036,0.509765625,-0.66839599609375,0.3512725830078125
301037,0.4607391357421875,-0.61749267578125,0.2769012451171875
301038,0.4439697265625,-0.6050567626953125,0.2286529541015625
301039,0.4572906494140625,-0.6072845458984375,0.2320404052734375
301040,0.494873046875,-0.6066436767578125,0.288726806640625
301041,0.5496063232421875,-0.596343994140625,0.365997314453125
301042,0.606231689453125,-0.57891845703125,0.4342041015625
301043,0.6566009521484375,-0.549468994140625,0.4750213623046875
301044,0.6961669921875,-0.519805908203125,0.4903717041015625
301045,0.720672607421875,-0.5025787353515625,0.476654052734375
301046,0.7281646728515625,-0.508697509765625,0.4439849853515625
301047,0.7178192138671875,-0.544891357421875,0.3905792236328125
301048,0.680023193359375,-0.598114013671875,0.32525634765625
301049,0.60699462890625,-0.6559295654296875,0.2669219970703125
301050,0.506622314453125,-0.693817138671875,0.2414398193359375
301051,0.39923095703125,-0.7036590576171875,0.2415618896484375
301052,0.3022918701171875,-0.700347900390625,0.2551422119140625
301053,0.23486328125,-0.69891357421875,0.2622528076171875
301054,0.22064208984375,-0.7125091552734375,0.2458038330078125
301055,0.2518768310546875,-0.7353668212890625,0.2191314697265625
301056,0.323333740234375,-0.758819580078125,0.1741180419921875
301057,0.4242401123046875,-0.7725830078125,0.1337738037109375
301058,0.535400390625,-0.771881103515625,0.1305999755859375
301059,0.626220703125,-0.767425537109375,0.15087890625
301060,0.682159423828125,-0.7689208984375,0.194915771484375
301061,0.713653564453125,-0.7796630859375,0.2754364013671875
301062,0.7325592041015625,-0.7938995361328125,0.351837158203125
301063,0.74566650390625,-0.7967071533203125,0.3627777099609375
301064,0.743316650390625,-0.7841339111328125,0.3049163818359375
301065,0.723358154296875,-0.770751953125,0.2408294677734375
301066,0.69647216796875,-0.77044677734375,0.20709228515625
301067,0.6766815185546875,-0.782562255859375,0.2100830078125
301068,0.6716461181640625,-0.7905731201171875,0.247802734375
301069,0.6912078857421875,-0.7826690673828125,0.3010711669921875
301070,0.7530975341796875,-0.754669189453125,0.3559112548828125
301071,0.8541107177734375,-0.7086639404296875,0.40753173828125
301072,0.97283935546875,-0.6594696044921875,0.42523193359375
301073,1.07293701171875,-0.61956787109375,0.3956756591796875
301074,1.118499755859375,-0.5868072509765625,0.3359375
301075,1.099349975585938,-0.5527801513671875,0.2678375244140625
301076,1.032012939453125,-0.5179595947265625,0.2004241943359375
301077,0.947265625,-0.4760589599609375,0.123870849609375
301078,0.8796844482421875,-0.4228973388671875,0.0542449951171875
301079,0.841094970703125,-0.36846923828125,0.0056610107421875
301080,0.828216552734375,-0.3223876953125,-0.03070068359375
301081,0.8225555419921875,-0.2871856689453125,-0.0411376953125
301082,0.815460205078125,-0.2643890380859375,-0.0178680419921875
301083,0.8176422119140625,-0.25555419921875,0.021636962890625
301084,0.830810546875,-0.2574920654296875,0.072021484375
301085,0.857452392578125,-0.2696533203125,0.1186981201171875
301086,0.89129638671875,-0.29132080078125,0.1436767578125
301087,0.9235382080078124,-0.32403564453125,0.14398193359375
301088,0.94439697265625,-0.36834716796875,0.1401824951171875
301089,0.9471893310546876,-0.420623779296875,0.1490020751953125
301090,0.9314727783203124,-0.4789886474609375,0.1757965087890625
301091,0.8970794677734375,-0.5451202392578125,0.22064208984375
301092,0.8462066650390625,-0.6153411865234375,0.27691650390625
301093,0.7970428466796875,-0.689605712890625,0.3437347412109375
301094,0.77838134765625,-0.75616455078125,0.4036712646484375
301095,0.785491943359375,-0.803497314453125,0.4271392822265625
301096,0.7810516357421875,-0.834381103515625,0.391357421875
301097,0.7503204345703125,-0.85296630859375,0.30511474609375
301098,0.71319580078125,-0.8584136962890625,0.2347869873046875
301099,0.6900787353515625,-0.8470306396484375,0.199737548828125
301100,0.687896728515625,-0.825164794921875,0.190521240234375
301101,0.6900787353515625,-0.798583984375,0.1960601806640625
301102,0.6849365234375,-0.7626495361328125,0.1986541748046875
301103,0.674346923828125,-0.717193603515625,0.1752471923828125
301104,0.6680450439453125,-0.662811279296875,0.1186370849609375
301105,0.6718902587890625,-0.6064605712890625,0.050537109375
301106,0.688018798828125,-0.5572052001953125,-0.0010986328125
301107,0.70806884765625,-0.521209716796875,-0.019805908203125
301108,0.7288360595703125,-0.500152587890625,0.0169219970703125
301109,0.75360107421875,-0.4958343505859375,0.10931396484375
301110,0.78106689453125,-0.51275634765625,0.221282958984375
301111,0.8161468505859375,-0.5384368896484375,0.3243865966796875
301112,0.8636474609375,-0.5493621826171875,0.443756103515625
301113,0.917724609375,-0.563568115234375,0.5499114990234375
301114,0.9672088623046876,-0.598114013671875,0.5589752197265625
301115,0.98529052734375,-0.639862060546875,0.5659027099609375
301116,0.9448699951171876,-0.685943603515625,0.6246795654296875
301117,0.837310791015625,-0.728668212890625,0.6277008056640625
301118,0.67938232421875,-0.759033203125,0.569366455078125
301119,0.5043182373046875,-0.7646484375,0.5307464599609375
301120,0.3462982177734375,-0.763092041015625,0.513031005859375
301121,0.2193450927734375,-0.763519287109375,0.5037841796875
301122,0.143402099609375,-0.7710418701171875,0.50811767578125
301123,0.139312744140625,-0.79248046875,0.51763916015625
301124,0.213623046875,-0.80902099609375,0.538604736328125
301125,0.336883544921875,-0.8262481689453125,0.5640411376953125
301126,0.4607086181640625,-0.8521881103515625,0.5614776611328125
301127,0.5482330322265625,-0.876739501953125,0.5255279541015625
301128,0.59320068359375,-0.8896331787109375,0.482666015625
301129,0.6031646728515625,-0.886962890625,0.4371337890625
301130,0.5918121337890625,-0.8646697998046875,0.3762359619140625
301131,0.5831298828125,-0.825836181640625,0.306182861328125
301132,0.5943145751953125,-0.7797698974609375,0.24017333984375
301133,0.62567138671875,-0.73345947265625,0.177886962890625
301134,0.6715240478515625,-0.692108154296875,0.13909912109375
301135,0.7281036376953125,-0.6571197509765625,0.1318511962890625
301136,0.796905517578125,-0.624786376953125,0.13446044921875
301137,0.8767242431640625,-0.592926025390625,0.12548828125
301138,0.9632110595703124,-0.559661865234375,0.1096038818359375
301139,1.056060791015625,-0.5257720947265625,0.0845184326171875
301140,1.1478271484375,-0.485748291015625,0.0353851318359375
301141,1.224105834960938,-0.4329376220703125,-0.0322113037109375
301142,1.269561767578125,-0.363311767578125,-0.0812835693359375
301143,1.276290893554688,-0.2853240966796875,-0.0936126708984375
301144,1.243728637695312,-0.214385986328125,-0.0864105224609375
301145,1.172805786132812,-0.1697845458984375,-0.0633544921875
301146,1.070327758789062,-0.159332275390625,-0.037353515625
301147,0.9660491943359376,-0.1927642822265625,-0.0202484130859375
301148,0.8963470458984375,-0.2638092041015625,0.0010223388671875
301149,0.8684844970703125,-0.336822509765625,0.005157470703125
301150,0.8681182861328125,-0.410552978515625,-0.0109100341796875
301151,0.8915863037109375,-0.48980712890625,-0.00421142578125
301152,0.938507080078125,-0.568603515625,0.0127410888671875
301153,0.991119384765625,-0.6440887451171875,0.02044677734375
301154,1.021224975585938,-0.7142791748046875,0.0326690673828125
301155,1.025711059570312,-0.772430419921875,0.0679473876953125
301156,1.020599365234375,-0.80682373046875,0.1608734130859375
301157,1.01129150390625,-0.812347412109375,0.2823028564453125
301158,0.9807586669921876,-0.8057861328125,0.365997314453125
301159,0.901885986328125,-0.789825439453125,0.395721435546875
301160,0.76336669921875,-0.7638397216796875,0.400604248046875
301161,0.596435546875,-0.727996826171875,0.41741943359375
301162,0.4565277099609375,-0.6792755126953125,0.4682464599609375
301163,0.3526458740234375,-0.637176513671875,0.5257568359375
301164,0.292816162109375,-0.61285400390625,0.5301361083984375
301165,0.266448974609375,-0.595367431640625,0.501129150390625
301166,0.2462615966796875,-0.591094970703125,0.439788818359375
301167,0.244384765625,-0.5959625244140625,0.3344573974609375
301168,0.261749267578125,-0.601959228515625,0.2889251708984375
301169,0.304534912109375,-0.6139068603515625,0.30841064453125
301170,0.3834686279296875,-0.6360015869140625,0.324554443359375
301171,0.4888763427734375,-0.6640472412109375,0.341461181640625
301172,0.6082916259765625,-0.6809539794921875,0.353973388671875
301173,0.7156524658203125,-0.6842041015625,0.3183135986328125
301174,0.78564453125,-0.6815185546875,0.2260894775390625
301175,0.81500244140625,-0.660552978515625,0.1399688720703125
301176,0.771881103515625,-0.627685546875,0.0993499755859375
301177,0.65740966796875,-0.6177520751953125,0.0724334716796875
301178,0.53570556640625,-0.64471435546875,0.093963623046875
301179,0.4757537841796875,-0.6888275146484375,0.1901397705078125
301180,0.494140625,-0.7391510009765625,0.253326416015625
301181,0.5650482177734375,-0.804473876953125,0.2181854248046875
301182,0.6563873291015625,-0.864501953125,0.1617584228515625
301183,0.758209228515625,-0.900146484375,0.16778564453125
301184,0.8596649169921875,-0.8968658447265625,0.2303009033203125
301185,0.938751220703125,-0.841552734375,0.2987213134765625
301186,0.938262939453125,-0.7373199462890625,0.336883544921875
301187,0.8000640869140625,-0.6378631591796875,0.3197479248046875
301188,0.5705108642578125,-0.583892822265625,0.27166748046875
301189,0.318328857421875,-0.595977783203125,0.252044677734375
301190,0.1288909912109375,-0.6838836669921875,0.2794647216796875
301191,0.1137542724609375,-0.8274688720703125,0.3919219970703125
301192,0.2393951416015625,-0.97686767578125,0.6027374267578125
301193,0.452789306640625,-1.068939208984375,0.64654541015625
301194,0.693878173828125,-1.054000854492188,0.5322113037109375
301195,0.90545654296875,-0.9754180908203124,0.515533447265625
301196,1.095809936523438,-0.863555908203125,0.554534912109375
301197,1.234909057617188,-0.73541259765625,0.49371337890625
301198,1.278488159179688,-0.6103515625,0.3156585693359375
301199,1.169754028320312,-0.4631805419921875,0.155609130859375
301200,0.8822174072265625,-0.3148040771484375,0.0413970947265625
301201,0.5158233642578125,-0.2207183837890625,-0.1057891845703125
301202,0.2158050537109375,-0.20684814453125,-0.15777587890625
301203,0.04144287109375,-0.275299072265625,-0.0673065185546875
301204,0.07080078125,-0.3305206298828125,0.027618408203125
301205,0.2846832275390625,-0.3216552734375,0.191802978515625
301206,0.5890655517578125,-0.297119140625,0.3279266357421875
301207,0.9918060302734376,-0.261993408203125,0.3501434326171875
301208,1.513824462890625,-0.2362213134765625,0.387237548828125
301209,2.164688110351562,-0.297882080078125,0.2154083251953125
301210,2.764984130859375,-0.505523681640625,-0.11688232421875
301211,2.79022216796875,-0.5588531494140625,-0.0859832763671875
301212,2.082672119140625,-0.4140472412109375,0.1033172607421875
301213,1.223876953125,-0.346435546875,0.1489105224609375
301214,0.5444183349609375,-0.343017578125,0.1457672119140625
301215,0.0690460205078125,-0.35284423828125,0.1202850341796875
301216,-0.1558990478515625,-0.3787841796875,0.1198272705078125
301217,-0.179534912109375,-0.4407806396484375,0.2067108154296875
301218,-0.138397216796875,-0.5456695556640625,0.257080078125
301219,-0.058258056640625,-0.6837615966796875,0.29815673828125
301220,0.1486358642578125,-0.862518310546875,0.3323211669921875
301221,0.4471435546875,-1.0428466796875,0.37066650390625
301222,0.76556396484375,-1.181838989257812,0.264862060546875
301223,1.05242919921875,-1.242767333984375,0.101837158203125
301224,1.25189208984375,-1.175521850585938,0.1783905029296875
301225,1.274826049804688,-0.974090576171875,0.3945159912109375
301226,1.085830688476562,-0.750762939453125,0.5408172607421875
301227,0.7676239013671875,-0.58636474609375,0.590972900390625
301228,0.43341064453125,-0.4703369140625,0.5108795166015625
301229,0.1838226318359375,-0.420562744140625,0.31640625
301230,0.0502777099609375,-0.420440673828125,0.1439056396484375
301231,-0.012908935546875,-0.450714111328125,0.177825927734375
301232,0.0088348388671875,-0.5207672119140625,0.282470703125
301233,0.16534423828125,-0.6303863525390625,0.422027587890625
301234,0.4786529541015625,-0.73004150390625,0.7473602294921875
301235,0.878662109375,-0.80865478515625,1.0252685546875
301236,1.247116088867188,-0.899688720703125,0.9021148681640624
301237,1.495468139648438,-0.9432525634765624,0.5595703125
301238,1.452239990234375,-0.8935546875,0.47216796875
301239,1.056549072265625,-0.7336273193359375,0.4330291748046875
301240,0.59234619140625,-0.5914306640625,0.3760833740234375
301241,0.2532501220703125,-0.48333740234375,0.3501434326171875
301242,0.0306243896484375,-0.401153564453125,0.2901763916015625
301243,-0.1219329833984375,-0.4079132080078125,0.274078369140625
301244,-0.163604736328125,-0.511505126953125,0.3871612548828125
301245,-0.1132965087890625,-0.6439971923828125,0.569610595703125
301246,0.0576629638671875,-0.8016204833984375,0.6674346923828125
301247,0.3343963623046875,-0.966400146484375,0.78900146484375
301248,0.6561279296875,-1.092529296875,0.8423919677734375
301249,0.96832275390625,-1.159011840820312,0.5915985107421875
301250,1.179885864257812,-1.153839111328125,0.2891082763671875
301251,1.240631103515625,-1.030197143554688,0.164520263671875
301252,1.162353515625,-0.8161163330078125,0.1729583740234375
301253,1.039962768554688,-0.628692626953125,0.18389892578125
301254,0.924957275390625,-0.4745941162109375,0.128631591796875
301255,0.81561279296875,-0.3641815185546875,0.0994110107421875
301256,0.71221923828125,-0.29833984375,0.078338623046875
301257,0.6092681884765625,-0.27252197265625,0.0430755615234375
301258,0.530426025390625,-0.3075408935546875,0.0843963623046875
301259,0.5049285888671875,-0.3759307861328125,0.198272705078125
301260,0.5412445068359375,-0.449951171875,0.2688446044921875
301261,0.6715087890625,-0.51861572265625,0.40045166015625
301262,0.88818359375,-0.56097412109375,0.4229736328125
301263,1.131942749023438,-0.5510711669921875,0.206268310546875
301264,1.315811157226562,-0.4883880615234375,0.087982177734375
301265,1.419830322265625,-0.39862060546875,0.0936737060546875
301266,1.441177368164062,-0.2973175048828125,0.09222412109375
301267,1.3426513671875,-0.249603271484375,0.0943450927734375
301268,1.112258911132812,-0.25408935546875,0.125701904296875
301269,0.80535888671875,-0.2953948974609375,0.134124755859375
301270,0.5657958984375,-0.3919830322265625,0.0695648193359375
301271,0.4313507080078125,-0.501617431640625,0.0330810546875
301272,0.377288818359375,-0.619476318359375,-0.018798828125
301273,0.4078826904296875,-0.716094970703125,0.0362396240234375
301274,0.49761962890625,-0.80194091796875,0.1103668212890625
301275,0.6580352783203125,-0.90753173828125,0.120819091796875
301276,0.8638458251953125,-0.999298095703125,0.26971435546875
301277,1.083282470703125,-1.090545654296875,0.4002227783203125
301278,1.220108032226562,-1.151565551757812,0.3640594482421875
301279,1.172256469726562,-1.1282958984375,0.376495361328125
301280,0.94891357421875,-0.9652557373046876,0.5091705322265625
301281,0.694366455078125,-0.736541748046875,0.657684326171875
301282,0.4973297119140625,-0.5674896240234375,0.68463134765625
301283,0.3510894775390625,-0.4847259521484375,0.5609283447265625
301284,0.2276458740234375,-0.48199462890625,0.345916748046875
301285,0.2247314453125,-0.50592041015625,0.2425079345703125
301286,0.2120361328125,-0.54058837890625,0.1542205810546875
301287,0.165740966796875,-0.60272216796875,0.05023193359375
301288,0.204559326171875,-0.6597442626953125,0.1981658935546875
301289,0.365325927734375,-0.7081298828125,0.4206390380859375
301290,0.5777435302734375,-0.7442626953125,0.4505767822265625
301291,0.7693023681640625,-0.716827392578125,0.343170166015625
301292,0.900909423828125,-0.6520843505859375,0.2132110595703125
301293,0.9844207763671876,-0.6048431396484375,0.062530517578125
301294,0.9972076416015624,-0.57269287109375,-0.0351715087890625
301295,0.90155029296875,-0.5364990234375,-0.0177001953125
301296,0.7365875244140625,-0.5039520263671875,0.029693603515625
301297,0.552642822265625,-0.4906463623046875,0.043365478515625
301298,0.3965301513671875,-0.503265380859375,0.024566650390625
301299,0.3098602294921875,-0.531280517578125,0.0267181396484375
301300,0.311492919921875,-0.5632476806640625,0.06060791015625
301301,0.36651611328125,-0.5853271484375,0.127716064453125
301302,0.44940185546875,-0.60797119140625,0.2063140869140625
301303,0.5539398193359375,-0.63427734375,0.283935546875
301304,0.6706085205078125,-0.662353515625,0.3912506103515625
301305,0.775665283203125,-0.69244384765625,0.475006103515625
301306,0.8551483154296875,-0.72186279296875,0.5035858154296875
301307,0.91107177734375,-0.7464141845703125,0.5106353759765625
301308,0.95294189453125,-0.7589569091796875,0.50384521484375
301309,0.9697418212890624,-0.7495574951171875,0.4536895751953125
301310,0.9543609619140624,-0.715179443359375,0.4374847412109375
301311,0.929718017578125,-0.6976470947265625,0.4487762451171875
301312,0.9076690673828124,-0.68621826171875,0.4268798828125
301313,0.8857574462890625,-0.66461181640625,0.4053497314453125
301314,0.8762359619140625,-0.63983154296875,0.3613128662109375
301315,0.8681488037109375,-0.613800048828125,0.285430908203125
301316,0.844085693359375,-0.5830841064453125,0.2095794677734375
301317,0.817626953125,-0.5537261962890625,0.160247802734375
301318,0.8004150390625,-0.53253173828125,0.1475067138671875
301319,0.8040771484375,-0.5236358642578125,0.1333465576171875
301320,0.8294830322265625,-0.512939453125,0.116668701171875
301321,0.8730010986328125,-0.4955902099609375,0.1179351806640625
301322,0.9267730712890624,-0.4794464111328125,0.116363525390625
301323,0.9462738037109376,-0.4868927001953125,0.109832763671875
301324,0.9392242431640624,-0.5364990234375,0.1018829345703125
301325,0.976470947265625,-0.59722900390625,0.19085693359375
301326,1.080902099609375,-0.646331787109375,0.3260498046875
301327,1.215576171875,-0.69580078125,0.33734130859375
301328,1.288650512695312,-0.745269775390625,0.31121826171875
301329,1.281326293945312,-0.779449462890625,0.327850341796875
301330,1.221420288085938,-0.7697601318359375,0.359619140625
301331,1.054855346679688,-0.7503814697265625,0.2579345703125
301332,0.84393310546875,-0.724609375,0.17626953125
301333,0.693328857421875,-0.6750640869140625,0.2891082763671875
301334,0.5446624755859375,-0.6364288330078125,0.218719482421875
301335,0.4529876708984375,-0.6179656982421875,0.1258087158203125
301336,0.3388519287109375,-0.58123779296875,0.169769287109375
301337,0.282867431640625,-0.558868408203125,0.0665130615234375
301338,0.263031005859375,-0.5278778076171875,0.021728515625
301339,0.322052001953125,-0.5086517333984375,0.0279693603515625
301340,0.443206787109375,-0.5124664306640625,0.0303955078125
301341,0.613128662109375,-0.5185546875,0.066436767578125
301342,0.78143310546875,-0.5245513916015625,0.122161865234375
301343,0.944061279296875,-0.5177154541015625,0.153472900390625
301344,1.095794677734375,-0.4957122802734375,0.1908111572265625
301345,1.194534301757812,-0.4766082763671875,0.2674102783203125
301346,1.212203979492188,-0.4703826904296875,0.27838134765625
301347,1.096023559570312,-0.478118896484375,0.31982421875
301348,0.92559814453125,-0.4983673095703125,0.39178466796875
301349,0.759613037109375,-0.522125244140625,0.45880126953125
301350,0.64337158203125,-0.5706634521484375,0.4789886474609375
301351,0.5701141357421875,-0.6370391845703125,0.5008544921875
301352,0.5251312255859375,-0.718414306640625,0.4945220947265625
301353,0.4828643798828125,-0.7893829345703125,0.44219970703125
301354,0.4291534423828125,-0.8141021728515625,0.3816070556640625
301355,0.3734893798828125,-0.79095458984375,0.361297607421875
301356,0.3276824951171875,-0.74871826171875,0.3843994140625
301357,0.2966156005859375,-0.71826171875,0.447540283203125
301358,0.2833404541015625,-0.713592529296875,0.5364990234375
301359,0.3095550537109375,-0.738922119140625,0.61541748046875
301360,0.3864593505859375,-0.7862701416015625,0.68487548828125
301361,0.504608154296875,-0.834442138671875,0.714874267578125
301362,0.631134033203125,-0.8792572021484375,0.6589813232421875
301363,0.7296905517578125,-0.9162750244140624,0.557403564453125
301364,0.7890625,-0.92852783203125,0.452239990234375
301365,0.8065032958984375,-0.9037322998046876,0.3708953857421875
301366,0.7863006591796875,-0.84063720703125,0.30706787109375
301367,0.742706298828125,-0.7607421875,0.27239990234375
301368,0.69512939453125,-0.685821533203125,0.269317626953125
301369,0.667694091796875,-0.638092041015625,0.263458251953125
301370,0.672210693359375,-0.6195526123046875,0.2577362060546875
301371,0.7182159423828125,-0.6223297119140625,0.2565155029296875
301372,0.7935638427734375,-0.6306610107421875,0.247802734375
301373,0.87884521484375,-0.6302032470703125,0.2238006591796875
301374,0.9541168212890624,-0.6115264892578125,0.20111083984375
301375,1.009719848632812,-0.5677642822265625,0.189666748046875
301376,1.04364013671875,-0.4958648681640625,0.1827850341796875
301377,1.0657958984375,-0.4045562744140625,0.1695709228515625
301378,1.082687377929688,-0.3088226318359375,0.138519287109375
301379,1.079544067382812,-0.2158966064453125,0.0796051025390625
301380,1.029937744140625,-0.13916015625,0.0151214599609375
301381,0.9327239990234376,-0.09881591796875,-0.040771484375
301382,0.816680908203125,-0.0976104736328125,-0.0593109130859375
301383,0.72381591796875,-0.136993408203125,-0.027618408203125
301384,0.69610595703125,-0.2178955078125,0.024749755859375
301385,0.7399749755859375,-0.332550048828125,0.0598297119140625
301386,0.815277099609375,-0.4343719482421875,0.0682373046875
301387,0.9031219482421876,-0.514068603515625,0.070037841796875
301388,1.011337280273438,-0.5922393798828125,0.0768280029296875
301389,1.127731323242188,-0.67279052734375,0.091766357421875
301390,1.21221923828125,-0.7487030029296875,0.0982666015625
301391,1.22216796875,-0.8064727783203125,0.129730224609375
301392,1.137832641601562,-0.8354949951171875,0.214141845703125
301393,0.9681243896484376,-0.8468780517578125,0.304229736328125
301394,0.7597503662109375,-0.8456573486328125,0.3497467041015625
301395,0.602264404296875,-0.824127197265625,0.3868255615234375
301396,0.5050506591796875,-0.7939453125,0.4425201416015625
301397,0.39483642578125,-0.779998779296875,0.386016845703125
301398,0.2848052978515625,-0.76202392578125,0.3513641357421875
301399,0.2233123779296875,-0.74658203125,0.4455718994140625
301400,0.253173828125,-0.7470550537109375,0.4918212890625
301401,0.337371826171875,-0.72247314453125,0.478851318359375
301402,0.4135894775390625,-0.6610565185546875,0.4441986083984375
301403,0.49066162109375,-0.5814666748046875,0.3636932373046875
301404,0.5575103759765625,-0.4942474365234375,0.30902099609375
301405,0.61505126953125,-0.421295166015625,0.280548095703125
301406,0.6670379638671875,-0.3811492919921875,0.2742919921875
301407,0.708038330078125,-0.386444091796875,0.27227783203125
301408,0.7376708984375,-0.427978515625,0.240020751953125
301409,0.7462310791015625,-0.50030517578125,0.2133636474609375
301410,0.733612060546875,-0.579986572265625,0.1842498779296875
301411,0.7086181640625,-0.6111297607421875,0.1236419677734375
301412,0.6906280517578125,-0.5950775146484375,0.0664825439453125
301413,0.6660614013671875,-0.57086181640625,0.0477142333984375
301414,0.6287841796875,-0.5645599365234375,0.028778076171875
301415,0.568084716796875,-0.573333740234375,0.016571044921875
301416,0.486175537109375,-0.5998992919921875,0.0300445556640625
301417,0.4158782958984375,-0.644500732421875,0.059844970703125
301418,0.4003753662109375,-0.710052490234375,0.1059417724609375
301419,0.434295654296875,-0.7752685546875,0.1744842529296875
301420,0.4913787841796875,-0.83428955078125,0.243743896484375
301421,0.550445556640625,-0.8824615478515625,0.3379974365234375
301422,0.6042633056640625,-0.9173736572265624,0.4738311767578125
301423,0.655181884765625,-0.9515838623046876,0.617095947265625
301424,0.7141571044921875,-0.9803619384765624,0.6948394775390625
301425,0.7738494873046875,-0.99920654296875,0.66571044921875
301426,0.8184814453125,-1.017990112304688,0.550628662109375
301427,0.8257598876953125,-1.036849975585938,0.4113922119140625
301428,0.794036865234375,-1.040863037109375,0.310089111328125
301429,0.7671051025390625,-1.0028076171875,0.273590087890625
301430,0.7792510986328125,-0.929779052734375,0.30242919921875
301431,0.81439208984375,-0.858184814453125,0.3376617431640625
301432,0.852081298828125,-0.7954254150390625,0.3408203125
301433,0.8852386474609375,-0.7342681884765625,0.31475830078125
301434,0.9087982177734376,-0.6675262451171875,0.2675323486328125
301435,0.9252777099609376,-0.5920562744140625,0.217987060546875
301436,0.935546875,-0.5134735107421875,0.16595458984375
301437,0.9391632080078124,-0.442901611328125,0.1022491455078125
301438,0.9268035888671876,-0.3865814208984375,0.041259765625
301439,0.8974151611328125,-0.34710693359375,-0.0066375732421875
301440,0.8625640869140625,-0.3208770751953125,-0.022552490234375
301441,0.83526611328125,-0.3052215576171875,-0.0149688720703125
301442,0.8192596435546875,-0.2952880859375,-0.0013275146484375
301443,0.8256683349609375,-0.29107666015625,0.0238494873046875
301444,0.8612060546875,-0.2924652099609375,0.06719970703125
301445,0.920318603515625,-0.300933837890625,0.1207733154296875
301446,0.9844970703125,-0.32183837890625,0.158935546875
301447,1.039642333984375,-0.3596954345703125,0.1910552978515625
301448,1.082061767578125,-0.4129638671875,0.2427215576171875
301449,1.090240478515625,-0.4738616943359375,0.2859954833984375
301450,1.037673950195312,-0.52996826171875,0.303497314453125
301451,0.92620849609375,-0.5800933837890625,0.3162078857421875
301452,0.7805938720703125,-0.620697021484375,0.3206634521484375
301453,0.6422576904296875,-0.653778076171875,0.30517578125
301454,0.5281982421875,-0.6743621826171875,0.26910400390625
301455,0.4422454833984375,-0.68048095703125,0.22991943359375
301456,0.391387939453125,-0.66619873046875,0.2018585205078125
301457,0.3768310546875,-0.642791748046875,0.1986541748046875
301458,0.4023895263671875,-0.625457763671875,0.1958465576171875
301459,0.464508056640625,-0.6107025146484375,0.182403564453125
301460,0.5549468994140625,-0.5876312255859375,0.16998291015625
301461,0.6574249267578125,-0.55810546875,0.1656036376953125
301462,0.7628173828125,-0.5397796630859375,0.1687164306640625
301463,0.8634796142578125,-0.5401611328125,0.191497802734375
301464,0.947296142578125,-0.5596160888671875,0.236358642578125
301465,1.00823974609375,-0.5904541015625,0.2776031494140625
301466,1.0528564453125,-0.6068878173828125,0.3092041015625
301467,1.061386108398438,-0.5997467041015625,0.392608642578125
301468,1.015350341796875,-0.5858917236328125,0.4645233154296875
301469,0.9176177978515624,-0.5782318115234375,0.468505859375
301470,0.7976226806640625,-0.5894012451171875,0.510833740234375
301471,0.6917572021484375,-0.625823974609375,0.5733642578125
301472,0.60107421875,-0.6830291748046875,0.61016845703125
301473,0.5091705322265625,-0.740203857421875,0.6202545166015625
301474,0.42529296875,-0.7803497314453125,0.6197357177734375
301475,0.37786865234375,-0.7993011474609375,0.6404266357421875
301476,0.391815185546875,-0.8023681640625,0.6758270263671875
301477,0.4612884521484375,-0.7919921875,0.6964874267578125
301478,0.5490264892578125,-0.7908935546875,0.694061279296875
301479,0.6334075927734375,-0.8066864013671875,0.685638427734375
301480,0.7038421630859375,-0.8246917724609375,0.6645050048828125
301481,0.7415771484375,-0.8287353515625,0.641387939453125
301482,0.744537353515625,-0.812408447265625,0.6203460693359375
301483,0.72662353515625,-0.7803955078125,0.583251953125
301484,0.70086669921875,-0.7396392822265625,0.5335693359375
301485,0.6696319580078125,-0.70074462890625,0.47796630859375
301486,0.6315460205078125,-0.667449951171875,0.414642333984375
301487,0.5930938720703125,-0.6395111083984375,0.3680267333984375
301488,0.569976806640625,-0.614471435546875,0.347747802734375
301489,0.571807861328125,-0.5914764404296875,0.3291015625
301490,0.603790283203125,-0.5701751708984375,0.304351806640625
301491,0.6645660400390625,-0.549163818359375,0.27783203125
301492,0.7482147216796875,-0.5352935791015625,0.253692626953125
301493,0.841461181640625,-0.5289306640625,0.225433349609375
301494,0.9253387451171876,-0.52392578125,0.200225830078125
301495,0.9875335693359376,-0.514556884765625,0.17254638671875
301496,1.019927978515625,-0.500762939453125,0.14093017578125
301497,1.020706176757812,-0.4805450439453125,0.1098175048828125
301498,0.9993438720703124,-0.4512481689453125,0.0931243896484375
301499,0.9766998291015624,-0.42047119140625,0.086761474609375
301500,0.9674072265625,-0.393524169921875,0.081329345703125
301501,0.97271728515625,-0.3723297119140625,0.063873291015625
301502,0.9873809814453124,-0.35748291015625,0.0388031005859375
301503,1.001022338867188,-0.3519134521484375,0.0143890380859375
301504,0.9949493408203124,-0.3525238037109375,0.0151824951171875
301505,0.95501708984375,-0.368194580078125,0.03985595703125
301506,0.897064208984375,-0.3959808349609375,0.0826263427734375
301507,0.83685302734375,-0.4213409423828125,0.1387786865234375
301508,0.78466796875,-0.4471588134765625,0.183013916015625
301509,0.7404937744140625,-0.473846435546875,0.20037841796875
301510,0.69744873046875,-0.5031890869140625,0.208831787109375
301511,0.660858154296875,-0.5353240966796875,0.2220306396484375
301512,0.634368896484375,-0.5672760009765625,0.23480224609375
301513,0.614715576171875,-0.599395751953125,0.247894287109375
301514,0.6138458251953125,-0.631103515625,0.256744384765625
301515,0.6386566162109375,-0.6582183837890625,0.279693603515625
301516,0.668609619140625,-0.6837158203125,0.3063507080078125
301517,0.686370849609375,-0.703277587890625,0.304840087890625
301518,0.679840087890625,-0.7096710205078125,0.3018951416015625
301519,0.65582275390625,-0.7075347900390625,0.3070526123046875
301520,0.6248016357421875,-0.698516845703125,0.305816650390625
301521,0.5994873046875,-0.6863250732421875,0.2927093505859375
301522,0.578155517578125,-0.674896240234375,0.2943267822265625
301523,0.5610504150390625,-0.6675262451171875,0.3116302490234375
301524,0.5465087890625,-0.6654205322265625,0.3308868408203125
301525,0.542938232421875,-0.6613311767578125,0.361175537109375
301526,0.56298828125,-0.653656005859375,0.3993377685546875
301527,0.6072235107421875,-0.6532440185546875,0.419769287109375
301528,0.6750335693359375,-0.666473388671875,0.4368896484375
301529,0.7583770751953125,-0.690887451171875,0.4603729248046875
301530,0.8482513427734375,-0.7267608642578125,0.4677581787109375
301531,0.922149658203125,-0.77593994140625,0.463714599609375
301532,0.9571075439453124,-0.8170623779296875,0.4575347900390625
301533,0.9429931640625,-0.81658935546875,0.4315948486328125
301534,0.887481689453125,-0.7771453857421875,0.3773345947265625
301535,0.8206634521484375,-0.7156829833984375,0.3043670654296875
301536,0.7651824951171875,-0.65814208984375,0.2310638427734375
301537,0.7219085693359375,-0.6264190673828125,0.1719818115234375
301538,0.68890380859375,-0.6185760498046875,0.128814697265625
301539,0.6705322265625,-0.61419677734375,0.09356689453125
301540,0.6699371337890625,-0.6102752685546875,0.0800628662109375
301541,0.685302734375,-0.6090087890625,0.076171875
301542,0.703826904296875,-0.6172943115234375,0.0691680908203125
301543,0.6997222900390625,-0.630889892578125,0.0696563720703125
301544,0.661163330078125,-0.6487579345703125,0.0844268798828125
301545,0.6036529541015625,-0.6639556884765625,0.12542724609375
301546,0.5633087158203125,-0.669921875,0.1832427978515625
301547,0.5612030029296875,-0.6696319580078125,0.22052001953125
301548,0.584197998046875,-0.6667022705078125,0.2266082763671875
301549,0.6074371337890625,-0.6626739501953125,0.21624755859375
301550,0.62261962890625,-0.6639251708984375,0.19903564453125
301551,0.6278228759765625,-0.678131103515625,0.212615966796875
301552,0.6273345947265625,-0.69873046875,0.2707366943359375
301553,0.630462646484375,-0.7207183837890625,0.346160888671875
301554,0.6392364501953125,-0.737152099609375,0.419342041015625
301555,0.6572418212890625,-0.738250732421875,0.478515625
301556,0.6898040771484375,-0.7303619384765625,0.50274658203125
301557,0.7324371337890625,-0.7104034423828125,0.48162841796875
301558,0.7761688232421875,-0.678741455078125,0.4207611083984375
301559,0.8118133544921875,-0.65008544921875,0.3412322998046875
301560,0.83587646484375,-0.626373291015625,0.2622833251953125
301561,0.8491058349609375,-0.60333251953125,0.194549560546875
301562,0.8539581298828125,-0.572235107421875,0.135711669921875
301563,0.8534088134765625,-0.5321044921875,0.080291748046875
301564,0.8486785888671875,-0.4879913330078125,0.0199737548828125
301565,0.8469696044921875,-0.4533538818359375,-0.0229034423828125
301566,0.8450775146484375,-0.4313201904296875,-0.0196685791015625
301567,0.837646484375,-0.4210357666015625,-0.0054473876953125
301568,0.8142547607421875,-0.4215850830078125,0.005279541015625
301569,0.7734222412109375,-0.427520751953125,0.018524169921875
301570,0.74072265625,-0.43634033203125,0.02276611328125
301571,0.7317047119140625,-0.4445343017578125,0.0084381103515625
301572,0.73828125,-0.4488983154296875,-0.0114898681640625
301573,0.751800537109375,-0.454193115234375,-0.0193328857421875
301574,0.779815673828125,-0.46002197265625,-0.0113067626953125
301575,0.8258819580078125,-0.47088623046875,0.0300445556640625
301576,0.885894775390625,-0.4968109130859375,0.112579345703125
301577,0.965728759765625,-0.5419464111328125,0.205535888671875
301578,1.039382934570312,-0.5917816162109375,0.2918853759765625
301579,1.070266723632812,-0.6341400146484375,0.3468017578125
301580,1.033981323242188,-0.66937255859375,0.352752685546875
301581,0.9390869140625,-0.7110443115234375,0.32452392578125
301582,0.819732666015625,-0.75335693359375,0.27288818359375
301583,0.7047576904296875,-0.7810821533203125,0.215911865234375
301584,0.611114501953125,-0.7915191650390625,0.170989990234375
301585,0.5443878173828125,-0.7912750244140625,0.143890380859375
301586,0.50079345703125,-0.77178955078125,0.1329803466796875
301587,0.47943115234375,-0.735260009765625,0.129486083984375
301588,0.49969482421875,-0.688201904296875,0.1127471923828125
301589,0.5689239501953125,-0.630401611328125,0.0921478271484375
301590,0.67047119140625,-0.5704803466796875,0.087371826171875
301591,0.7881622314453125,-0.5326995849609375,0.0988311767578125
301592,0.9027557373046876,-0.5217742919921875,0.125335693359375
301593,0.9903717041015624,-0.5421295166015625,0.181671142578125
301594,1.042709350585938,-0.5834808349609375,0.2507171630859375
301595,1.06365966796875,-0.612548828125,0.3152008056640625
301596,1.055130004882812,-0.6121063232421875,0.4002532958984375
301597,1.001602172851562,-0.6069183349609375,0.46881103515625
301598,0.9045257568359376,-0.6109466552734375,0.46710205078125
301599,0.794281005859375,-0.635833740234375,0.485107421875
301600,0.7020416259765625,-0.682830810546875,0.5429534912109375
301601,0.639190673828125,-0.74090576171875,0.57183837890625
301602,0.5880126953125,-0.7906341552734375,0.582244873046875
301603,0.531219482421875,-0.818695068359375,0.588958740234375
301604,0.483367919921875,-0.8309173583984375,0.58441162109375
301605,0.45428466796875,-0.834991455078125,0.57586669921875
301606,0.4485015869140625,-0.83099365234375,0.5561370849609375
301607,0.4629669189453125,-0.8252410888671875,0.53912353515625
301608,0.5100860595703125,-0.8262176513671875,0.5346221923828125
301609,0.581329345703125,-0.837127685546875,0.5403900146484375
301610,0.6585845947265625,-0.8500823974609375,0.5507965087890625
301611,0.716461181640625,-0.8446807861328125,0.55010986328125
301612,0.7468414306640625,-0.8112640380859375,0.53570556640625
301613,0.7463836669921875,-0.762420654296875,0.498565673828125
301614,0.71435546875,-0.7126007080078125,0.4355010986328125
301615,0.6609344482421875,-0.6712188720703125,0.3635711669921875
301616,0.60650634765625,-0.6414794921875,0.307830810546875
301617,0.57635498046875,-0.6249847412109375,0.2733001708984375
301618,0.578338623046875,-0.6248626708984375,0.2430419921875
301619,0.6114501953125,-0.6292724609375,0.2149658203125
301620,0.6744384765625,-0.626312255859375,0.20391845703125
301621,0.765869140625,-0.6123504638671875,0.2063446044921875
301622,0.8782501220703125,-0.5924530029296875,0.206298828125
301623,0.9989776611328124,-0.567962646484375,0.1922607421875
301624,1.104293823242188,-0.539764404296875,0.1609649658203125
301625,1.178359985351562,-0.5118560791015625,0.1104583740234375
301626,1.207870483398438,-0.4868316650390625,0.05157470703125
301627,1.19036865234375,-0.459564208984375,0.0062713623046875
301628,1.14739990234375,-0.426483154296875,-0.01898193359375
301629,1.098068237304688,-0.3867034912109375,-0.023284912109375
301630,1.050338745117188,-0.341278076171875,-0.0161285400390625
301631,1.000152587890625,-0.296234130859375,-0.0022735595703125
301632,0.9447021484375,-0.259613037109375,0.01806640625
301633,0.879913330078125,-0.236785888671875,0.035186767578125
301634,0.8111724853515625,-0.2323760986328125,0.0533447265625
301635,0.742950439453125,-0.2495574951171875,0.0914154052734375
301636,0.6861724853515625,-0.28045654296875,0.1276702880859375
301637,0.643890380859375,-0.3160247802734375,0.148223876953125
301638,0.6130523681640625,-0.35479736328125,0.1751251220703125
301639,0.5943450927734375,-0.3973846435546875,0.2062225341796875
301640,0.598846435546875,-0.44573974609375,0.2237091064453125
301641,0.63677978515625,-0.49945068359375,0.2306060791015625
301642,0.7033538818359375,-0.5539093017578125,0.2535400390625
301643,0.78594970703125,-0.6111297607421875,0.2727508544921875
301644,0.8697967529296875,-0.6730804443359375,0.282623291015625
301645,0.930450439453125,-0.7333831787109375,0.3007659912109375
301646,0.9533843994140624,-0.7831878662109375,0.299102783203125
301647,0.93603515625,-0.8212432861328125,0.275909423828125
301648,0.8802947998046875,-0.8329620361328125,0.2560577392578125
301649,0.79656982421875,-0.8129119873046875,0.227813720703125
301650,0.70166015625,-0.7629241943359375,0.201812744140625
301651,0.6211395263671875,-0.7020416259765625,0.2027587890625
301652,0.5730743408203125,-0.6688995361328125,0.2215728759765625
301653,0.5498504638671875,-0.65643310546875,0.2569732666015625
301654,0.5468902587890625,-0.64837646484375,0.3095855712890625
301655,0.5633544921875,-0.6370849609375,0.35577392578125
301656,0.5923309326171875,-0.61358642578125,0.3808441162109375
301657,0.6333160400390625,-0.5772552490234375,0.3802490234375
301658,0.68548583984375,-0.53302001953125,0.3610382080078125
301659,0.7492828369140625,-0.4834136962890625,0.341583251953125
301660,0.82159423828125,-0.4422760009765625,0.332000732421875
301661,0.89581298828125,-0.4255828857421875,0.33551025390625
301662,0.955322265625,-0.4443359375,0.3419036865234375
301663,0.98150634765625,-0.5072479248046875,0.329742431640625
301664,0.94793701171875,-0.60589599609375,0.295623779296875
301665,0.8559112548828125,-0.68487548828125,0.258697509765625
301666,0.7559967041015625,-0.726287841796875,0.2234039306640625
301667,0.6728515625,-0.735687255859375,0.19647216796875
301668,0.60955810546875,-0.725372314453125,0.1792144775390625
301669,0.5739593505859375,-0.7079315185546875,0.159149169921875
301670,0.562744140625,-0.6972808837890625,0.1494140625
301671,0.563568115234375,-0.69598388671875,0.1330718994140625
301672,0.571929931640625,-0.70147705078125,0.0855865478515625
301673,0.58734130859375,-0.7095489501953125,0.0463409423828125
301674,0.592864990234375,-0.7197265625,0.065185546875
301675,0.5778656005859375,-0.7266845703125,0.1392974853515625
301676,0.5435943603515625,-0.7281646728515625,0.2227325439453125
301677,0.4961395263671875,-0.7204132080078125,0.3023834228515625
301678,0.4617462158203125,-0.7047576904296875,0.360198974609375
301679,0.4647674560546875,-0.6880645751953125,0.386444091796875
301680,0.50042724609375,-0.67388916015625,0.386688232421875
301681,0.53955078125,-0.6631927490234375,0.3619384765625
301682,0.5656890869140625,-0.6567230224609375,0.32891845703125
301683,0.5829925537109375,-0.6601104736328125,0.3087921142578125
301684,0.596710205078125,-0.666595458984375,0.310791015625
301685,0.609619140625,-0.67193603515625,0.3366241455078125
301686,0.639495849609375,-0.666168212890625,0.3787841796875
301687,0.7069091796875,-0.64569091796875,0.43743896484375
301688,0.8077392578125,-0.62542724609375,0.4898223876953125
301689,0.9215240478515624,-0.615325927734375,0.48870849609375
301690,1.011260986328125,-0.60711669921875,0.43701171875
301691,1.043426513671875,-0.5920562744140625,0.3469390869140625
301692,1.013702392578125,-0.5709228515625,0.2451019287109375
301693,0.936920166015625,-0.542327880859375,0.1594390869140625
301694,0.8463592529296875,-0.504791259765625,0.1032257080078125
301695,0.76202392578125,-0.46966552734375,0.07940673828125
301696,0.702301025390625,-0.4421234130859375,0.0748443603515625
301697,0.672088623046875,-0.4282989501953125,0.1142578125
301698,0.6769256591796875,-0.4300994873046875,0.1765899658203125
301699,0.718048095703125,-0.442779541015625,0.2115936279296875
301700,0.7927093505859375,-0.4558868408203125,0.222198486328125
301701,0.894012451171875,-0.470245361328125,0.2337493896484375
301702,1.0107421875,-0.4885711669921875,0.23858642578125
301703,1.125320434570312,-0.5105133056640625,0.2252655029296875
301704,1.208236694335938,-0.5257415771484375,0.2186431884765625
301705,1.235336303710938,-0.52587890625,0.24163818359375
301706,1.199325561523438,-0.5155181884765625,0.2942047119140625
301707,1.114608764648438,-0.513397216796875,0.34942626953125
301708,1.00653076171875,-0.529022216796875,0.363677978515625
301709,0.89837646484375,-0.5623626708984375,0.33795166015625
301710,0.809814453125,-0.6025543212890625,0.295989990234375
301711,0.7513275146484375,-0.63238525390625,0.2532501220703125
301712,0.7116546630859375,-0.65447998046875,0.2128753662109375
301713,0.6853179931640625,-0.6709136962890625,0.17633056640625
301714,0.6665802001953125,-0.6817626953125,0.1666412353515625
301715,0.6486053466796875,-0.6892242431640625,0.175384521484375
301716,0.6348724365234375,-0.691131591796875,0.1862030029296875
301717,0.622406005859375,-0.6862945556640625,0.2086944580078125
301718,0.617950439453125,-0.671722412109375,0.22308349609375
301719,0.626495361328125,-0.6453399658203125,0.220916748046875
301720,0.66009521484375,-0.6036376953125,0.1969451904296875
301721,0.7277374267578125,-0.5507965087890625,0.148773193359375
301722,0.815460205078125,-0.4958953857421875,0.0893402099609375
301723,0.9042205810546876,-0.4533843994140625,0.0421905517578125
301724,0.9702606201171876,-0.4312286376953125,0.0219573974609375
301725,0.9974365234375,-0.428375244140625,0.0323486328125
301726,0.9890289306640624,-0.44305419921875,0.076812744140625
301727,0.9708251953125,-0.4547576904296875,0.1495513916015625
301728,0.9473419189453124,-0.4708251953125,0.2330780029296875
301729,0.9098663330078124,-0.491485595703125,0.2949981689453125
301730,0.8549652099609375,-0.509765625,0.3336181640625
301731,0.7861785888671875,-0.5353240966796875,0.367218017578125
301732,0.70477294921875,-0.5785064697265625,0.3839874267578125
301733,0.6302337646484375,-0.6339874267578125,0.422119140625
301734,0.5867919921875,-0.70367431640625,0.4915008544921875
301735,0.5803375244140625,-0.7837982177734375,0.5352783203125
301736,0.59356689453125,-0.8614501953125,0.5560455322265625
301737,0.6110382080078125,-0.896392822265625,0.55426025390625
301738,0.62518310546875,-0.8634490966796875,0.50213623046875
301739,0.61590576171875,-0.792694091796875,0.447296142578125
301740,0.5725860595703125,-0.745941162109375,0.37908935546875
301741,0.5228118896484375,-0.73809814453125,0.2870635986328125
301742,0.4534912109375,-0.7407684326171875,0.25909423828125
301743,0.3933258056640625,-0.7535400390625,0.2702178955078125
301744,0.3663177490234375,-0.7747802734375,0.27099609375
301745,0.357086181640625,-0.7965087890625,0.3029327392578125
301746,0.364166259765625,-0.81158447265625,0.369354248046875
301747,0.3891448974609375,-0.81414794921875,0.449310302734375
301748,0.422576904296875,-0.809600830078125,0.5321044921875
301749,0.4649810791015625,-0.797760009765625,0.5599517822265625
301750,0.50653076171875,-0.7786407470703125,0.506011962890625
301751,0.5443267822265625,-0.7490234375,0.4200286865234375
301752,0.5931854248046875,-0.7107391357421875,0.316864013671875
301753,0.6661834716796875,-0.667388916015625,0.21929931640625
301754,0.756927490234375,-0.622650146484375,0.1377105712890625
301755,0.853912353515625,-0.586944580078125,0.071533203125
301756,0.956390380859375,-0.564849853515625,0.04620361328125
301757,1.064987182617188,-0.55194091796875,0.068359375
301758,1.169921875,-0.5378875732421875,0.071868896484375
301759,1.256683349609375,-0.5110321044921875,0.0294952392578125
301760,1.317733764648438,-0.4680023193359375,-0.0155792236328125
301761,1.353607177734375,-0.412506103515625,-0.0524749755859375
301762,1.367507934570312,-0.3437347412109375,-0.073028564453125
301763,1.34722900390625,-0.277923583984375,-0.0841217041015625
301764,1.262466430664062,-0.2498626708984375,-0.087646484375
301765,1.14788818359375,-0.23065185546875,-0.0789947509765625
301766,1.05517578125,-0.2310333251953125,-0.0507659912109375
301767,0.9746551513671876,-0.265533447265625,-0.020782470703125
301768,0.9105072021484376,-0.3200836181640625,0.0112152099609375
301769,0.8714141845703125,-0.37530517578125,0.0456695556640625
301770,0.8466339111328125,-0.434326171875,0.073089599609375
301771,0.824188232421875,-0.4940948486328125,0.0796051025390625
301772,0.80926513671875,-0.5402679443359375,0.05523681640625
301773,0.7995758056640625,-0.57373046875,0.022216796875
301774,0.815460205078125,-0.60333251953125,0.0125579833984375
301775,0.867584228515625,-0.63720703125,0.04034423828125
301776,0.939544677734375,-0.6793212890625,0.08807373046875
301777,0.984619140625,-0.7260894775390625,0.126678466796875
301778,0.9818267822265624,-0.7708282470703125,0.1788330078125
301779,0.931610107421875,-0.8069000244140625,0.238433837890625
301780,0.84405517578125,-0.8200836181640625,0.2647705078125
301781,0.7362213134765625,-0.7976531982421875,0.26123046875
301782,0.63763427734375,-0.7395477294921875,0.258270263671875
301783,0.5588531494140625,-0.6878662109375,0.2577056884765625
301784,0.4969635009765625,-0.665008544921875,0.2514801025390625
301785,0.454803466796875,-0.65765380859375,0.2652435302734375
301786,0.4366607666015625,-0.651275634765625,0.294769287109375
301787,0.4430084228515625,-0.6406707763671875,0.3226776123046875
301788,0.462432861328125,-0.6210479736328125,0.3417205810546875
301789,0.482696533203125,-0.5914764404296875,0.3404693603515625
301790,0.50115966796875,-0.5488128662109375,0.3394317626953125
301791,0.5224151611328125,-0.50164794921875,0.3453216552734375
301792,0.5510101318359375,-0.4622344970703125,0.3385162353515625
301793,0.58746337890625,-0.4377288818359375,0.310211181640625
301794,0.6348876953125,-0.43585205078125,0.2742156982421875
301795,0.688507080078125,-0.464996337890625,0.241943359375
301796,0.738037109375,-0.530303955078125,0.20806884765625
301797,0.7685546875,-0.6220855712890625,0.1753997802734375
301798,0.7623291015625,-0.7033843994140625,0.1573638916015625
301799,0.7176055908203125,-0.7293701171875,0.1688232421875
301800,0.6496734619140625,-0.720794677734375,0.192657470703125
301801,0.5784149169921875,-0.7141571044921875,0.20068359375
301802,0.528533935546875,-0.7165374755859375,0.186767578125
301803,0.5050048828125,-0.71917724609375,0.1619873046875
301804,0.503448486328125,-0.7198638916015625,0.117645263671875
301805,0.51300048828125,-0.718994140625,0.0609893798828125
301806,0.52008056640625,-0.7245025634765625,0.029632568359375
301807,0.52734375,-0.7391204833984375,0.055908203125
301808,0.5402069091796875,-0.7596893310546875,0.1492767333984375
301809,0.564697265625,-0.780181884765625,0.2743682861328125
301810,0.6148681640625,-0.7984771728515625,0.3603515625
301811,0.677093505859375,-0.805145263671875,0.3931121826171875
301812,0.73516845703125,-0.8049468994140625,0.3810272216796875
301813,0.7672576904296875,-0.8092803955078125,0.3415069580078125
301814,0.76031494140625,-0.8232879638671875,0.3025970458984375
301815,0.72589111328125,-0.840087890625,0.2796173095703125
301816,0.6779327392578125,-0.84869384765625,0.2767181396484375
301817,0.6319427490234375,-0.8419342041015625,0.2908935546875
301818,0.617034912109375,-0.8176422119140625,0.32781982421875
301819,0.6558837890625,-0.781280517578125,0.373321533203125
301820,0.73712158203125,-0.7410736083984375,0.403472900390625
301821,0.8281097412109375,-0.705230712890625,0.3991241455078125
301822,0.90106201171875,-0.66363525390625,0.3489532470703125
301823,0.9431610107421876,-0.61639404296875,0.27777099609375
301824,0.955902099609375,-0.566986083984375,0.1812591552734375
301825,0.9481353759765624,-0.51092529296875,0.08251953125
301826,0.9406890869140624,-0.448822021484375,0.0008087158203125
301827,0.940460205078125,-0.384735107421875,-0.0518798828125
301828,0.9397125244140624,-0.3274078369140625,-0.0560302734375
301829,0.93780517578125,-0.2835845947265625,-0.032928466796875
301830,0.9416351318359376,-0.2567596435546875,0.0016021728515625
301831,0.951629638671875,-0.2472991943359375,0.0301971435546875
301832,0.9656829833984376,-0.252960205078125,0.03790283203125
301833,0.986907958984375,-0.277587890625,0.0390625
301834,1.019454956054688,-0.31549072265625,0.0440673828125
301835,1.053192138671875,-0.366241455078125,0.048065185546875
301836,1.0797119140625,-0.418975830078125,0.051055908203125
301837,1.100494384765625,-0.4728240966796875,0.0661163330078125
301838,1.113174438476562,-0.5302276611328125,0.105224609375
301839,1.109542846679688,-0.5852813720703125,0.152801513671875
301840,1.078094482421875,-0.63336181640625,0.1858978271484375
301841,1.008010864257812,-0.66351318359375,0.194488525390625
301842,0.904327392578125,-0.6841278076171875,0.1802978515625
301843,0.7920074462890625,-0.6981201171875,0.145172119140625
301844,0.679718017578125,-0.710235595703125,0.1156158447265625
301845,0.5834808349609375,-0.7178192138671875,0.1150970458984375
301846,0.51239013671875,-0.7253875732421875,0.1380767822265625
301847,0.467529296875,-0.7385406494140625,0.16497802734375
301848,0.4467010498046875,-0.74920654296875,0.1722564697265625
301849,0.4456024169921875,-0.754302978515625,0.155975341796875
301850,0.4698028564453125,-0.7502899169921875,0.125152587890625
301851,0.5178680419921875,-0.73260498046875,0.1031036376953125
301852,0.5779571533203125,-0.70745849609375,0.11151123046875
301853,0.6411285400390625,-0.6759490966796875,0.1313629150390625
301854,0.694244384765625,-0.6396942138671875,0.1528472900390625
301855,0.737640380859375,-0.60107421875,0.1691436767578125
301856,0.7682037353515625,-0.5709381103515625,0.1750030517578125
301857,0.7759552001953125,-0.5577850341796875,0.1759185791015625
301858,0.766815185546875,-0.561553955078125,0.1733245849609375
301859,0.757781982421875,-0.57659912109375,0.179168701171875
301860,0.7637939453125,-0.5869903564453125,0.2139892578125
301861,0.78753662109375,-0.5838165283203125,0.28271484375
301862,0.805694580078125,-0.5749053955078125,0.36273193359375
301863,0.803863525390625,-0.5752410888671875,0.4456024169921875
301864,0.7890625,-0.592193603515625,0.5328216552734375
301865,0.7807464599609375,-0.6267547607421875,0.601409912109375
301866,0.784698486328125,-0.67926025390625,0.6183624267578125
301867,0.768524169921875,-0.742462158203125,0.5795745849609375
301868,0.7150115966796875,-0.7973480224609375,0.49725341796875
301869,0.6300506591796875,-0.8287200927734375,0.423980712890625
301870,0.533782958984375,-0.8336639404296875,0.3980560302734375
301871,0.4474029541015625,-0.828338623046875,0.402679443359375
301872,0.386505126953125,-0.8203582763671875,0.4269256591796875
301873,0.36236572265625,-0.8214263916015625,0.45635986328125
301874,0.381805419921875,-0.8341064453125,0.4822845458984375
301875,0.43548583984375,-0.8446197509765625,0.497283935546875
301876,0.49676513671875,-0.848968505859375,0.49951171875
301877,0.54754638671875,-0.8535003662109375,0.4770965576171875
301878,0.577392578125,-0.8601837158203125,0.443450927734375
301879,0.5861663818359375,-0.8648529052734375,0.4036712646484375
301880,0.5855865478515625,-0.8621063232421875,0.3579254150390625
301881,0.59930419921875,-0.843994140625,0.303680419921875
301882,0.6513671875,-0.8054351806640625,0.239776611328125
301883,0.7508544921875,-0.7506256103515625,0.178436279296875
301884,0.8724822998046875,-0.69671630859375,0.1274871826171875
301885,0.9964599609375,-0.660125732421875,0.08856201171875
301886,1.113449096679688,-0.6390228271484375,0.0650787353515625
301887,1.206085205078125,-0.61309814453125,0.043792724609375
301888,1.258575439453125,-0.5616912841796875,-0.012176513671875
301889,1.26922607421875,-0.49053955078125,-0.1001739501953125
301890,1.257431030273438,-0.4025115966796875,-0.1777191162109375
301891,1.2396240234375,-0.3033447265625,-0.212890625
301892,1.231735229492188,-0.21630859375,-0.2067108154296875
301893,1.235687255859375,-0.1561737060546875,-0.1800994873046875
301894,1.227523803710938,-0.117462158203125,-0.1659698486328125
301895,1.188812255859375,-0.1014251708984375,-0.162994384765625
301896,1.111541748046875,-0.112579345703125,-0.15167236328125
301897,1.009033203125,-0.1472320556640625,-0.117645263671875
301898,0.9048919677734376,-0.199005126953125,-0.07830810546875
301899,0.8207244873046875,-0.255340576171875,-0.0407257080078125
301900,0.7545623779296875,-0.302459716796875,-0.006103515625
301901,0.7069854736328125,-0.3475189208984375,0.0253143310546875
301902,0.68499755859375,-0.3880615234375,0.055084228515625
301903,0.6874847412109375,-0.4283905029296875,0.0689849853515625
301904,0.7277069091796875,-0.4610595703125,0.0596466064453125
301905,0.7972412109375,-0.49127197265625,0.0710296630859375
301906,0.8468475341796875,-0.5592041015625,0.0832061767578125
301907,0.86651611328125,-0.6500396728515625,0.0980377197265625
301908,0.9011077880859376,-0.7195892333984375,0.195709228515625
301909,0.8997344970703125,-0.800018310546875,0.32025146484375
301910,0.843109130859375,-0.8533172607421875,0.4100341796875
301911,0.7605133056640625,-0.8769989013671875,0.43902587890625
301912,0.6637115478515625,-0.8842010498046875,0.4793548583984375
301913,0.54681396484375,-0.851593017578125,0.5445404052734375
301914,0.422088623046875,-0.792266845703125,0.562652587890625
301915,0.3330841064453125,-0.7443389892578125,0.52081298828125
301916,0.305572509765625,-0.7226409912109375,0.4454345703125
301917,0.3169708251953125,-0.709503173828125,0.377471923828125
301918,0.345367431640625,-0.6809234619140625,0.3387603759765625
301919,0.3885955810546875,-0.6392364501953125,0.3389739990234375
301920,0.443572998046875,-0.58795166015625,0.39117431640625
301921,0.509979248046875,-0.539276123046875,0.46392822265625
301922,0.59405517578125,-0.5102996826171875,0.50445556640625
301923,0.6925201416015625,-0.51141357421875,0.4864501953125
301924,0.786590576171875,-0.5394134521484375,0.4150390625
301925,0.841064453125,-0.5815887451171875,0.299468994140625
301926,0.837066650390625,-0.6283416748046875,0.19927978515625
301927,0.7734222412109375,-0.675079345703125,0.18011474609375
301928,0.6772613525390625,-0.704803466796875,0.222869873046875
301929,0.59161376953125,-0.7124176025390625,0.2733612060546875
301930,0.5399017333984375,-0.7122955322265625,0.2939300537109375
301931,0.532501220703125,-0.704833984375,0.275909423828125
301932,0.553741455078125,-0.6958770751953125,0.2170867919921875
301933,0.5877532958984375,-0.685394287109375,0.1432647705078125
301934,0.624359130859375,-0.6718902587890625,0.0909576416015625
301935,0.657684326171875,-0.6640777587890625,0.0820465087890625
301936,0.676483154296875,-0.6707611083984375,0.09619140625
