time_idx,accelerometerAccelerationX(G),accelerometerAccelerationY(G),accelerometerAccelerationZ(G)
40000,0.15850830078125,-0.948211669921875,-0.050140380859375
40001,0.1698455810546875,-0.9501190185546876,-0.0450286865234375
40002,0.18365478515625,-0.9609832763671876,-0.0399932861328125
40003,0.196502685546875,-0.9757080078125,-0.0317840576171875
40004,0.206390380859375,-0.9878997802734376,-0.0290679931640625
40005,0.2122955322265625,-0.9989166259765624,-0.0286712646484375
40006,0.2115020751953125,-1.00543212890625,-0.0272674560546875
40007,0.2073822021484375,-1.011444091796875,-0.0255889892578125
40008,0.2023773193359375,-1.013809204101562,-0.023529052734375
40009,0.196319580078125,-1.016921997070312,-0.0267486572265625
40010,0.188751220703125,-1.019805908203125,-0.030548095703125
40011,0.1840057373046875,-1.01806640625,-0.0357666015625
40012,0.1793212890625,-1.015090942382812,-0.0399322509765625
40013,0.175384521484375,-1.00531005859375,-0.0384674072265625
40014,0.16748046875,-0.9931182861328124,-0.039825439453125
40015,0.1576385498046875,-0.982574462890625,-0.0412445068359375
40016,0.1460113525390625,-0.9752044677734376,-0.042205810546875
40017,0.1343536376953125,-0.97125244140625,-0.04302978515625
40018,0.1234893798828125,-0.9714813232421876,-0.0467681884765625
40019,0.112762451171875,-0.9718475341796876,-0.0509796142578125
40020,0.103607177734375,-0.9724884033203124,-0.053680419921875
40021,0.0941009521484375,-0.9732666015625,-0.0532379150390625
40022,0.08538818359375,-0.9782562255859376,-0.0531005859375
40023,0.0788421630859375,-0.9858856201171876,-0.052398681640625
40024,0.074493408203125,-0.9957733154296876,-0.0490264892578125
40025,0.07379150390625,-1.0048828125,-0.047393798828125
40026,0.077392578125,-1.008041381835938,-0.048248291015625
40027,0.08355712890625,-1.006118774414062,-0.047149658203125
40028,0.0901947021484375,-1.00006103515625,-0.040679931640625
40029,0.09783935546875,-0.98968505859375,-0.0350341796875
40030,0.107177734375,-0.98187255859375,-0.02960205078125
40031,0.118621826171875,-0.9738922119140624,-0.0281829833984375
40032,0.130523681640625,-0.967437744140625,-0.027557373046875
40033,0.139984130859375,-0.9639739990234376,-0.0243988037109375
40034,0.1476287841796875,-0.9636688232421876,-0.0258331298828125
40035,0.15240478515625,-0.9660797119140624,-0.0308685302734375
40036,0.156036376953125,-0.968231201171875,-0.0348968505859375
40037,0.158447265625,-0.9707183837890624,-0.0399932861328125
40038,0.1610870361328125,-0.9745941162109376,-0.04559326171875
40039,0.1636962890625,-0.9809722900390624,-0.0509490966796875
40040,0.1688995361328125,-0.9868011474609376,-0.051666259765625
40041,0.1750640869140625,-0.9914398193359376,-0.056488037109375
40042,0.182891845703125,-0.9939117431640624,-0.062530517578125
40043,0.192962646484375,-0.994110107421875,-0.0699615478515625
40044,0.205108642578125,-0.990478515625,-0.0741729736328125
40045,0.216766357421875,-0.9877471923828124,-0.0737457275390625
40046,0.2273101806640625,-0.988983154296875,-0.07122802734375
40047,0.2396240234375,-0.990997314453125,-0.0698394775390625
40048,0.2480621337890625,-0.9910430908203124,-0.069061279296875
40049,0.2535400390625,-0.989959716796875,-0.06365966796875
40050,0.2590789794921875,-0.992156982421875,-0.0529937744140625
40051,0.2705078125,-0.9994049072265624,-0.0479583740234375
40052,0.2861175537109375,-1.005584716796875,-0.0469207763671875
40053,0.3054962158203125,-1.007598876953125,-0.0464324951171875
40054,0.3312835693359375,-1.010208129882812,-0.04937744140625
40055,0.353759765625,-1.001556396484375,-0.0522613525390625
40056,0.36932373046875,-0.985382080078125,-0.0608673095703125
40057,0.3739013671875,-0.9648284912109376,-0.0614013671875
40058,0.3677520751953125,-0.943084716796875,-0.0536651611328125
40059,0.3647613525390625,-0.9269866943359376,-0.0528106689453125
40060,0.361602783203125,-0.909149169921875,-0.0568389892578125
40061,0.36285400390625,-0.89166259765625,-0.0640869140625
40062,0.369903564453125,-0.8836822509765625,-0.0700225830078125
40063,0.3704833984375,-0.8789825439453125,-0.071319580078125
40064,0.36456298828125,-0.8800201416015625,-0.0634918212890625
40065,0.3574371337890625,-0.8929290771484375,-0.0458221435546875
40066,0.3531341552734375,-0.9214019775390624,-0.031097412109375
40067,0.35137939453125,-0.953369140625,-0.036773681640625
40068,0.3518829345703125,-0.9752197265625,-0.0501251220703125
40069,0.34954833984375,-0.995574951171875,-0.0594329833984375
40070,0.32861328125,-1.022903442382812,-0.0589599609375
40071,0.2816009521484375,-1.042434692382812,-0.057159423828125
40072,0.2285308837890625,-1.049301147460938,-0.0663909912109375
40073,0.1927947998046875,-1.0467529296875,-0.088531494140625
40074,0.177825927734375,-1.035964965820312,-0.117218017578125
40075,0.172821044921875,-1.012725830078125,-0.1333160400390625
40076,0.1655731201171875,-0.98760986328125,-0.1346893310546875
40077,0.156982421875,-0.967071533203125,-0.123016357421875
40078,0.15338134765625,-0.951263427734375,-0.1088104248046875
40079,0.15863037109375,-0.9389801025390624,-0.0938873291015625
40080,0.1810455322265625,-0.924102783203125,-0.0844573974609375
40081,0.2193145751953125,-0.9119873046875,-0.09039306640625
40082,0.263641357421875,-0.9074859619140624,-0.109832763671875
40083,0.3008270263671875,-0.9130096435546876,-0.126220703125
40084,0.3163909912109375,-0.918365478515625,-0.1085205078125
40085,0.311737060546875,-0.9110870361328124,-0.0681915283203125
40086,0.290435791015625,-0.89178466796875,-0.0442047119140625
40087,0.27081298828125,-0.8643646240234375,-0.06610107421875
40088,0.2608489990234375,-0.843841552734375,-0.113739013671875
40089,0.256622314453125,-0.8404998779296875,-0.163421630859375
40090,0.2606658935546875,-0.8451385498046875,-0.1893157958984375
40091,0.2730560302734375,-0.84637451171875,-0.199432373046875
40092,0.291717529296875,-0.8542327880859375,-0.1993255615234375
40093,0.3084259033203125,-0.871612548828125,-0.18951416015625
40094,0.31787109375,-0.89434814453125,-0.173065185546875
40095,0.316131591796875,-0.9154815673828124,-0.1531982421875
40096,0.306060791015625,-0.9286346435546876,-0.14154052734375
40097,0.29534912109375,-0.937774658203125,-0.1413421630859375
40098,0.2874755859375,-0.940704345703125,-0.1498260498046875
40099,0.2900238037109375,-0.9391937255859376,-0.1656646728515625
40100,0.2992095947265625,-0.9471435546875,-0.177398681640625
40101,0.3079681396484375,-0.97808837890625,-0.1817626953125
40102,0.3162994384765625,-1.011428833007812,-0.1965484619140625
40103,0.3235626220703125,-1.032241821289062,-0.2116851806640625
40104,0.3271484375,-1.049209594726562,-0.204833984375
40105,0.32354736328125,-1.075302124023438,-0.1800384521484375
40106,0.321197509765625,-1.116409301757812,-0.1618804931640625
40107,0.324066162109375,-1.160537719726562,-0.17584228515625
40108,0.31854248046875,-1.190109252929688,-0.20294189453125
40109,0.2865447998046875,-1.177169799804688,-0.2131805419921875
40110,0.220611572265625,-1.12103271484375,-0.1982269287109375
40111,0.1267852783203125,-1.050552368164062,-0.1811981201171875
40112,0.02374267578125,-0.9946441650390624,-0.1772003173828125
40113,-0.04803466796875,-0.94512939453125,-0.1768798828125
40114,-0.0568695068359375,-0.8950347900390625,-0.16748046875
40115,-0.004486083984375,-0.8548583984375,-0.153533935546875
40116,0.0631256103515625,-0.8437957763671875,-0.150482177734375
40117,0.10101318359375,-0.874053955078125,-0.165283203125
40118,0.1094970703125,-0.927947998046875,-0.173675537109375
40119,0.1021728515625,-0.9684295654296876,-0.179656982421875
40120,0.0877685546875,-0.988739013671875,-0.183380126953125
40121,0.076934814453125,-0.997711181640625,-0.1846923828125
40122,0.0777587890625,-1.003890991210938,-0.191802978515625
40123,0.09307861328125,-1.018203735351562,-0.204498291015625
40124,0.1277313232421875,-1.041000366210938,-0.205841064453125
40125,0.16510009765625,-1.06134033203125,-0.1942138671875
40126,0.177215576171875,-1.06451416015625,-0.1812286376953125
40127,0.1580657958984375,-1.041412353515625,-0.1866455078125
40128,0.12603759765625,-1.001556396484375,-0.21429443359375
40129,0.0936126708984375,-0.964691162109375,-0.259429931640625
40130,0.06597900390625,-0.94598388671875,-0.3061981201171875
40131,0.0408172607421875,-0.9446258544921876,-0.3306884765625
40132,0.01654052734375,-0.95916748046875,-0.337249755859375
40133,-0.0049591064453125,-0.972442626953125,-0.3360137939453125
40134,-0.0165252685546875,-0.9801177978515624,-0.3284454345703125
40135,-0.014678955078125,-0.9856414794921876,-0.31671142578125
40136,0.0047607421875,-0.9962921142578124,-0.2966461181640625
40137,0.0353240966796875,-1.008590698242188,-0.2669219970703125
40138,0.068603515625,-1.016952514648438,-0.23846435546875
40139,0.0974578857421875,-1.021896362304688,-0.2185211181640625
40140,0.1143951416015625,-1.022613525390625,-0.2121734619140625
40141,0.121124267578125,-1.00885009765625,-0.215972900390625
40142,0.1195831298828125,-0.9841461181640624,-0.2246246337890625
40143,0.118133544921875,-0.9597015380859376,-0.238555908203125
40144,0.1191558837890625,-0.940155029296875,-0.255615234375
40145,0.116302490234375,-0.927398681640625,-0.2706451416015625
40146,0.108612060546875,-0.9216766357421876,-0.2806243896484375
40147,0.1016082763671875,-0.9236297607421876,-0.287811279296875
40148,0.09552001953125,-0.9305267333984376,-0.29437255859375
40149,0.0967864990234375,-0.937957763671875,-0.301300048828125
40150,0.1057891845703125,-0.9445037841796876,-0.2995147705078125
40151,0.11767578125,-0.9503021240234376,-0.29168701171875
40152,0.1264495849609375,-0.955657958984375,-0.2808685302734375
40153,0.1302490234375,-0.9625396728515624,-0.272369384765625
40154,0.1279754638671875,-0.967987060546875,-0.265777587890625
40155,0.1227264404296875,-0.9730377197265624,-0.2620086669921875
40156,0.1180267333984375,-0.9786529541015624,-0.26141357421875
40157,0.11346435546875,-0.978057861328125,-0.2646636962890625
40158,0.1116180419921875,-0.97332763671875,-0.268890380859375
40159,0.1123046875,-0.9619293212890624,-0.270538330078125
40160,0.1097259521484375,-0.945343017578125,-0.2714385986328125
40161,0.1032257080078125,-0.927001953125,-0.2711029052734375
40162,0.09552001953125,-0.9163818359375,-0.27545166015625
40163,0.0843963623046875,-0.9211578369140624,-0.27764892578125
40164,0.0632781982421875,-0.9387054443359376,-0.2743072509765625
40165,0.0359954833984375,-0.9655914306640624,-0.2669830322265625
40166,0.012115478515625,-0.995269775390625,-0.26007080078125
40167,-0.0005645751953125,-1.018325805664062,-0.2501220703125
40168,-7.62939453125e-05,-1.032821655273438,-0.2342529296875
40169,0.0046844482421875,-1.049407958984375,-0.2101287841796875
40170,0.00457763671875,-1.076675415039062,-0.178863525390625
40171,-0.0052032470703125,-1.110366821289062,-0.141937255859375
40172,-0.0227203369140625,-1.142654418945312,-0.098175048828125
40173,-0.0439300537109375,-1.167984008789062,-0.0572509765625
40174,-0.054107666015625,-1.17340087890625,-0.0249176025390625
40175,-0.0457763671875,-1.154693603515625,-0.003936767578125
40176,-0.0144195556640625,-1.118392944335938,0.011016845703125
40177,0.03057861328125,-1.07830810546875,0.02410888671875
40178,0.0756683349609375,-1.04278564453125,0.0447845458984375
40179,0.119415283203125,-1.012176513671875,0.06524658203125
40180,0.1654510498046875,-0.9827880859375,0.064239501953125
40181,0.2102203369140625,-0.95330810546875,0.0212860107421875
40182,0.2516021728515625,-0.922332763671875,-0.051239013671875
40183,0.292449951171875,-0.8897705078125,-0.1067352294921875
40184,0.323577880859375,-0.8595428466796875,-0.12652587890625
40185,0.3390045166015625,-0.8415069580078125,-0.1318511962890625
40186,0.3560791015625,-0.8484039306640625,-0.156768798828125
40187,0.3865509033203125,-0.8794097900390625,-0.195831298828125
40188,0.42657470703125,-0.9217529296875,-0.2214508056640625
40189,0.45684814453125,-0.9680938720703124,-0.2051849365234375
40190,0.46533203125,-1.022628784179688,-0.145233154296875
40191,0.450531005859375,-1.071807861328125,-0.049652099609375
40192,0.43206787109375,-1.0841064453125,0.0357513427734375
40193,0.4263153076171875,-1.060409545898438,0.07708740234375
40194,0.423065185546875,-1.007904052734375,0.091766357421875
40195,0.41314697265625,-0.9436187744140624,0.1047210693359375
40196,0.392822265625,-0.8921356201171875,0.117706298828125
40197,0.366973876953125,-0.8614044189453125,0.111419677734375
40198,0.3442230224609375,-0.850250244140625,0.0730133056640625
40199,0.3224639892578125,-0.8469390869140625,0.0286407470703125
40200,0.2952728271484375,-0.8464202880859375,-7.62939453125e-05
40201,0.2623748779296875,-0.853973388671875,-0.028045654296875
40202,0.2117919921875,-0.86260986328125,-0.051727294921875
40203,0.1410980224609375,-0.8803863525390625,-0.0762481689453125
40204,0.0667724609375,-0.907012939453125,-0.0895233154296875
40205,-0.0012359619140625,-0.9297332763671876,-0.080169677734375
40206,-0.048583984375,-0.94720458984375,-0.0653533935546875
40207,-0.0589599609375,-0.9663848876953124,-0.06134033203125
40208,-0.0274505615234375,-0.97918701171875,-0.0874786376953125
40209,0.028350830078125,-0.984375,-0.1298370361328125
40210,0.088134765625,-0.985198974609375,-0.1611480712890625
40211,0.138427734375,-0.9833984375,-0.1596832275390625
40212,0.163787841796875,-1.000732421875,-0.12176513671875
40213,0.164703369140625,-1.025863647460938,-0.0802764892578125
40214,0.145172119140625,-1.036331176757812,-0.070404052734375
40215,0.123779296875,-1.021377563476562,-0.0904083251953125
40216,0.1175384521484375,-1.001998901367188,-0.101470947265625
40217,0.12103271484375,-0.997161865234375,-0.090972900390625
40218,0.128814697265625,-1.009475708007812,-0.0734405517578125
40219,0.1520233154296875,-1.019195556640625,-0.0724334716796875
40220,0.2140960693359375,-1.013397216796875,-0.0858612060546875
40221,0.3173065185546875,-0.99444580078125,-0.0921173095703125
40222,0.42950439453125,-0.9787750244140624,-0.07281494140625
40223,0.5142364501953125,-0.974151611328125,-0.0277557373046875
40224,0.5410919189453125,-0.974029541015625,0.021270751953125
40225,0.4990997314453125,-0.9654083251953124,0.0350341796875
40226,0.4205474853515625,-0.940582275390625,0.0144195556640625
40227,0.3691253662109375,-0.919525146484375,-0.00921630859375
40228,0.350067138671875,-0.9093475341796876,-0.023468017578125
40229,0.3358612060546875,-0.9064178466796876,-0.0318756103515625
40230,0.3116607666015625,-0.8989410400390625,-0.039337158203125
40231,0.2844085693359375,-0.8783721923828125,-0.046295166015625
40232,0.261138916015625,-0.853515625,-0.0484466552734375
40233,0.2424774169921875,-0.83868408203125,-0.047088623046875
40234,0.2313385009765625,-0.83587646484375,-0.0495147705078125
40235,0.229461669921875,-0.8452606201171875,-0.055389404296875
40236,0.2349700927734375,-0.866973876953125,-0.059814453125
40237,0.244415283203125,-0.8903961181640625,-0.0580596923828125
40238,0.2605133056640625,-0.9076690673828124,-0.0582733154296875
40239,0.277984619140625,-0.911041259765625,-0.0584564208984375
40240,0.2917327880859375,-0.9041290283203124,-0.059844970703125
40241,0.2946319580078125,-0.8829345703125,-0.05938720703125
40242,0.287811279296875,-0.850250244140625,-0.0588531494140625
40243,0.2747650146484375,-0.8238677978515625,-0.0561065673828125
40244,0.26385498046875,-0.819488525390625,-0.047943115234375
40245,0.2617034912109375,-0.842559814453125,-0.038970947265625
40246,0.273529052734375,-0.88446044921875,-0.0337677001953125
40247,0.3068084716796875,-0.942626953125,-0.0326690673828125
40248,0.359832763671875,-1.00592041015625,-0.0367584228515625
40249,0.413360595703125,-1.071929931640625,-0.0529632568359375
40250,0.4427642822265625,-1.11328125,-0.0626373291015625
40251,0.4346160888671875,-1.115188598632812,-0.041351318359375
40252,0.3995361328125,-1.07958984375,-0.0035552978515625
40253,0.361572265625,-1.03033447265625,0.022674560546875
40254,0.3465423583984375,-0.9926300048828124,0.028106689453125
40255,0.36126708984375,-0.97027587890625,0.019134521484375
40256,0.4002532958984375,-0.957000732421875,-0.0015716552734375
40257,0.4474029541015625,-0.9467010498046876,-0.032928466796875
40258,0.48675537109375,-0.9394683837890624,-0.0583648681640625
40259,0.5089569091796875,-0.9361572265625,-0.066680908203125
40260,0.5102386474609375,-0.9353790283203124,-0.0588226318359375
40261,0.50115966796875,-0.9338531494140624,-0.0461578369140625
40262,0.495147705078125,-0.926971435546875,-0.0346832275390625
40263,0.496337890625,-0.917327880859375,-0.0317535400390625
40264,0.5018157958984375,-0.90252685546875,-0.0475311279296875
40265,0.5030975341796875,-0.88690185546875,-0.065521240234375
40266,0.4885711669921875,-0.8758392333984375,-0.0787353515625
40267,0.4557647705078125,-0.87091064453125,-0.0831451416015625
40268,0.4154052734375,-0.8741455078125,-0.0792999267578125
40269,0.384124755859375,-0.887847900390625,-0.0745849609375
40270,0.37060546875,-0.917755126953125,-0.0726776123046875
40271,0.3716583251953125,-0.9586181640625,-0.0690155029296875
40272,0.3815155029296875,-0.9968109130859376,-0.0633544921875
40273,0.394622802734375,-1.026901245117188,-0.0584869384765625
40274,0.41168212890625,-1.05242919921875,-0.06817626953125
40275,0.431396484375,-1.066680908203125,-0.08538818359375
40276,0.4478912353515625,-1.068023681640625,-0.098663330078125
40277,0.4525909423828125,-1.048370361328125,-0.1075592041015625
40278,0.4478607177734375,-1.013885498046875,-0.09942626953125
40279,0.4380645751953125,-0.973236083984375,-0.0912017822265625
40280,0.4330596923828125,-0.9399261474609376,-0.087432861328125
40281,0.4380950927734375,-0.914886474609375,-0.0814971923828125
40282,0.4578857421875,-0.8946685791015625,-0.083709716796875
40283,0.49737548828125,-0.8789215087890625,-0.087158203125
40284,0.5486297607421875,-0.8714141845703125,-0.087158203125
40285,0.5961456298828125,-0.874542236328125,-0.0878143310546875
40286,0.6223602294921875,-0.88916015625,-0.0894775390625
40287,0.619903564453125,-0.9080963134765624,-0.0912322998046875
40288,0.592437744140625,-0.923919677734375,-0.097808837890625
40289,0.5486297607421875,-0.9320220947265624,-0.111358642578125
40290,0.499542236328125,-0.924346923828125,-0.12548828125
40291,0.4543609619140625,-0.9053802490234376,-0.1344757080078125
40292,0.4226531982421875,-0.8806304931640625,-0.1357269287109375
40293,0.410888671875,-0.8553314208984375,-0.1331787109375
40294,0.4145050048828125,-0.839263916015625,-0.1251220703125
40295,0.4251556396484375,-0.8357086181640625,-0.113067626953125
40296,0.436981201171875,-0.8430023193359375,-0.096832275390625
40297,0.4484710693359375,-0.8574676513671875,-0.0785064697265625
40298,0.458587646484375,-0.8744049072265625,-0.0629730224609375
40299,0.4642791748046875,-0.892120361328125,-0.048736572265625
40300,0.4682159423828125,-0.9121246337890624,-0.03765869140625
40301,0.471221923828125,-0.931915283203125,-0.0319366455078125
40302,0.4723663330078125,-0.9575653076171876,-0.026702880859375
40303,0.4651641845703125,-0.986358642578125,-0.0167694091796875
40304,0.45135498046875,-1.013168334960938,-0.0032196044921875
40305,0.4315032958984375,-1.0306396484375,0.007659912109375
40306,0.41180419921875,-1.0352783203125,0.012298583984375
40307,0.3925628662109375,-1.027938842773438,0.011383056640625
40308,0.374420166015625,-1.01483154296875,0.00897216796875
40309,0.360992431640625,-1.005218505859375,0.0142669677734375
40310,0.3519134521484375,-1.002349853515625,0.0343475341796875
40311,0.3541412353515625,-1.00628662109375,0.0593109130859375
40312,0.3708038330078125,-1.016586303710938,0.0789947509765625
40313,0.38726806640625,-1.027114868164062,0.0946197509765625
40314,0.3972015380859375,-1.033157348632812,0.110321044921875
40315,0.4012603759765625,-1.034774780273438,0.1273193359375
40316,0.3983917236328125,-1.021392822265625,0.1385498046875
40317,0.3906402587890625,-0.9791717529296876,0.135955810546875
40318,0.38079833984375,-0.910308837890625,0.119110107421875
40319,0.374176025390625,-0.851898193359375,0.09039306640625
40320,0.37139892578125,-0.8231048583984375,0.0669708251953125
40321,0.377532958984375,-0.811065673828125,0.0540313720703125
40322,0.3997039794921875,-0.80908203125,0.0333404541015625
40323,0.43157958984375,-0.80859375,-0.0125732421875
40324,0.4720306396484375,-0.805450439453125,-0.0687103271484375
40325,0.514251708984375,-0.8074951171875,-0.1080322265625
40326,0.548583984375,-0.8187103271484375,-0.1181640625
40327,0.5826263427734375,-0.836395263671875,-0.115234375
40328,0.5955352783203125,-0.863800048828125,-0.0749359130859375
40329,0.56402587890625,-0.8984222412109375,-0.002288818359375
40330,0.4886322021484375,-0.9306488037109376,0.058746337890625
40331,0.392120361328125,-0.9593353271484376,0.1102294921875
40332,0.29400634765625,-0.9802703857421876,0.1572723388671875
40333,0.213653564453125,-0.9918060302734376,0.18548583984375
40334,0.1573944091796875,-0.992218017578125,0.175750732421875
40335,0.122406005859375,-0.9739990234375,0.1463623046875
40336,0.11383056640625,-0.9517822265625,0.12298583984375
40337,0.1274261474609375,-0.941650390625,0.116180419921875
40338,0.1565093994140625,-0.9529266357421876,0.1105804443359375
40339,0.192596435546875,-0.9770050048828124,0.1065216064453125
40340,0.233062744140625,-0.996185302734375,0.1226348876953125
40341,0.2777557373046875,-1.00189208984375,0.151641845703125
40342,0.32281494140625,-0.997772216796875,0.17822265625
40343,0.3594512939453125,-0.9823150634765624,0.19464111328125
40344,0.37652587890625,-0.9605712890625,0.2061920166015625
40345,0.376220703125,-0.931640625,0.1971893310546875
40346,0.367828369140625,-0.9077606201171876,0.178131103515625
40347,0.3570556640625,-0.8867340087890625,0.1527099609375
40348,0.338531494140625,-0.8654937744140625,0.1211700439453125
40349,0.322845458984375,-0.8501739501953125,0.0981903076171875
40350,0.3174591064453125,-0.8359527587890625,0.084259033203125
40351,0.322784423828125,-0.8209991455078125,0.0888824462890625
40352,0.330718994140625,-0.8099365234375,0.116790771484375
40353,0.33685302734375,-0.8088531494140625,0.1530914306640625
40354,0.34136962890625,-0.8089447021484375,0.1713714599609375
40355,0.353668212890625,-0.7953033447265625,0.164764404296875
40356,0.3786773681640625,-0.7725830078125,0.1545562744140625
40357,0.403564453125,-0.7532501220703125,0.154052734375
40358,0.4207916259765625,-0.7452239990234375,0.178131103515625
40359,0.428497314453125,-0.7460174560546875,0.2108154296875
40360,0.4332122802734375,-0.752532958984375,0.243011474609375
40361,0.440093994140625,-0.7637786865234375,0.2587432861328125
40362,0.4580230712890625,-0.76763916015625,0.2666015625
40363,0.4969635009765625,-0.76141357421875,0.274169921875
40364,0.560302734375,-0.7455291748046875,0.2609405517578125
40365,0.6298065185546875,-0.7220306396484375,0.2256927490234375
40366,0.65924072265625,-0.6847381591796875,0.2179718017578125
40367,0.6107635498046875,-0.651885986328125,0.238616943359375
40368,0.5110626220703125,-0.6464080810546875,0.2126617431640625
40369,0.4234619140625,-0.6953887939453125,0.1533203125
40370,0.356048583984375,-0.777557373046875,0.1221771240234375
40371,0.2791748046875,-0.8727264404296875,0.068359375
40372,0.19769287109375,-0.9868011474609376,0.0431365966796875
40373,0.1511077880859375,-1.116241455078125,0.033172607421875
40374,0.23065185546875,-1.272201538085938,0.04888916015625
40375,0.485321044921875,-1.524612426757812,0.1688079833984375
40376,0.8161773681640625,-1.902694702148438,0.32611083984375
40377,0.99188232421875,-2.187530517578125,0.373199462890625
40378,0.6685791015625,-2.038955688476562,0.22088623046875
40379,0.069183349609375,-1.422439575195312,0.0076446533203125
40380,-0.409912109375,-0.931610107421875,-0.049774169921875
40381,-0.7359161376953125,-0.6043548583984375,-0.20263671875
40382,-0.7643890380859375,-0.3688201904296875,-0.4143524169921875
40383,-0.41552734375,-0.267303466796875,-0.472381591796875
40384,0.0090179443359375,-0.459686279296875,-0.419830322265625
40385,0.262908935546875,-0.773101806640625,-0.3763275146484375
40386,0.3778228759765625,-1.052963256835938,-0.3382568359375
40387,0.3873138427734375,-1.316360473632812,-0.3113861083984375
40388,0.3387451171875,-1.500213623046875,-0.3010406494140625
40389,0.295684814453125,-1.516342163085938,-0.3066864013671875
40390,0.264007568359375,-1.289199829101562,-0.3046112060546875
40391,0.233367919921875,-1.024322509765625,-0.2877349853515625
40392,0.2026519775390625,-0.866546630859375,-0.273223876953125
40393,0.17840576171875,-0.7944183349609375,-0.26397705078125
40394,0.1612701416015625,-0.7899322509765625,-0.2496795654296875
40395,0.150360107421875,-0.8313446044921875,-0.2391357421875
40396,0.1388092041015625,-0.8928985595703125,-0.24371337890625
40397,0.12744140625,-0.9391021728515624,-0.2585296630859375
40398,0.136627197265625,-0.953887939453125,-0.2711639404296875
40399,0.1847686767578125,-0.943206787109375,-0.2803497314453125
40400,0.258758544921875,-0.9189605712890624,-0.2852783203125
40401,0.3287506103515625,-0.895599365234375,-0.292633056640625
40402,0.3830108642578125,-0.8789215087890625,-0.300079345703125
40403,0.4111328125,-0.8660736083984375,-0.3147430419921875
40404,0.4066162109375,-0.8538818359375,-0.332763671875
40405,0.379150390625,-0.837677001953125,-0.34197998046875
40406,0.3373870849609375,-0.826904296875,-0.341552734375
40407,0.292938232421875,-0.8276214599609375,-0.3484954833984375
40408,0.26324462890625,-0.8379974365234375,-0.3529052734375
40409,0.251251220703125,-0.862579345703125,-0.3284149169921875
40410,0.243011474609375,-0.9065704345703124,-0.261627197265625
40411,0.22967529296875,-0.962493896484375,-0.1623077392578125
40412,0.2195892333984375,-1.02044677734375,-0.0792999267578125
40413,0.2234039306640625,-1.070755004882812,-0.0423583984375
40414,0.2398223876953125,-1.106979370117188,-0.0393829345703125
40415,0.250885009765625,-1.128936767578125,-0.059600830078125
40416,0.23980712890625,-1.121322631835938,-0.0964202880859375
40417,0.20684814453125,-1.074752807617188,-0.1519012451171875
40418,0.1677093505859375,-0.998687744140625,-0.2345733642578125
40419,0.1424713134765625,-0.91241455078125,-0.325592041015625
40420,0.1447906494140625,-0.8372955322265625,-0.392364501953125
40421,0.1782684326171875,-0.7882080078125,-0.4097442626953125
40422,0.2320709228515625,-0.7733306884765625,-0.3825225830078125
40423,0.285125732421875,-0.7900238037109375,-0.338043212890625
40424,0.3255615234375,-0.82769775390625,-0.306549072265625
40425,0.3567657470703125,-0.8759613037109375,-0.2756195068359375
40426,0.3807830810546875,-0.92681884765625,-0.216552734375
40427,0.393218994140625,-0.9756317138671876,-0.1420440673828125
40428,0.3944244384765625,-1.022964477539062,-0.0875244140625
40429,0.3806915283203125,-1.05780029296875,-0.0633087158203125
40430,0.34442138671875,-1.077529907226562,-0.0738677978515625
40431,0.28057861328125,-1.07086181640625,-0.11651611328125
40432,0.2072906494140625,-1.04443359375,-0.1556549072265625
40433,0.1373748779296875,-1.015869140625,-0.1758270263671875
40434,0.0722808837890625,-0.9921112060546876,-0.1923675537109375
40435,0.021453857421875,-0.9705657958984376,-0.21685791015625
40436,-0.0073699951171875,-0.9546966552734376,-0.2422027587890625
40437,-0.010223388671875,-0.944244384765625,-0.264251708984375
40438,0.0118560791015625,-0.94061279296875,-0.27020263671875
40439,0.0497589111328125,-0.9457550048828124,-0.2687225341796875
40440,0.096588134765625,-0.9591217041015624,-0.271148681640625
40441,0.1465606689453125,-0.97589111328125,-0.263702392578125
40442,0.1912384033203125,-0.9958038330078124,-0.2519378662109375
40443,0.222015380859375,-1.0106201171875,-0.237823486328125
40444,0.2346649169921875,-1.018264770507812,-0.2296905517578125
40445,0.23272705078125,-1.01654052734375,-0.2349853515625
40446,0.2228851318359375,-1.005599975585938,-0.2506256103515625
40447,0.210052490234375,-0.9912567138671876,-0.261383056640625
40448,0.1927337646484375,-0.9741058349609376,-0.25982666015625
40449,0.18255615234375,-0.959320068359375,-0.26226806640625
40450,0.18414306640625,-0.95037841796875,-0.2777862548828125
40451,0.193695068359375,-0.9434814453125,-0.2942047119140625
40452,0.2035064697265625,-0.9354095458984376,-0.30963134765625
40453,0.2104034423828125,-0.9309234619140624,-0.3141021728515625
40454,0.2136688232421875,-0.9322967529296876,-0.3008270263671875
40455,0.2128448486328125,-0.93499755859375,-0.2802276611328125
40456,0.212921142578125,-0.94122314453125,-0.26519775390625
40457,0.217010498046875,-0.9472198486328124,-0.2514190673828125
40458,0.2228851318359375,-0.9535369873046876,-0.2336273193359375
40459,0.22467041015625,-0.958648681640625,-0.22216796875
40460,0.224945068359375,-0.957244873046875,-0.2378692626953125
40461,0.22662353515625,-0.950469970703125,-0.259368896484375
40462,0.2274169921875,-0.9443511962890624,-0.273193359375
40463,0.2205963134765625,-0.93951416015625,-0.2801361083984375
40464,0.20697021484375,-0.9316864013671876,-0.279876708984375
40465,0.1907806396484375,-0.9231109619140624,-0.2774810791015625
40466,0.1840667724609375,-0.9141693115234376,-0.2745819091796875
40467,0.1999359130859375,-0.9021148681640624,-0.2707061767578125
40468,0.2318115234375,-0.8943023681640625,-0.2638397216796875
40469,0.255859375,-0.8999481201171875,-0.25469970703125
40470,0.2502593994140625,-0.913818359375,-0.257080078125
40471,0.2173919677734375,-0.929595947265625,-0.2719879150390625
40472,0.1803436279296875,-0.936614990234375,-0.286468505859375
40473,0.1467437744140625,-0.941497802734375,-0.300384521484375
40474,0.11041259765625,-0.9529571533203124,-0.3185882568359375
40475,0.0725250244140625,-0.970428466796875,-0.3104248046875
40476,0.0393524169921875,-0.9923095703125,-0.2826385498046875
40477,0.0118255615234375,-1.009307861328125,-0.2698516845703125
40478,-0.0062713623046875,-1.013351440429688,-0.275238037109375
40479,-0.016387939453125,-1.002120971679688,-0.2971343994140625
40480,-0.0212860107421875,-0.9839630126953124,-0.32806396484375
40481,-0.01708984375,-0.9687652587890624,-0.346160888671875
40482,-0.0046539306640625,-0.95660400390625,-0.343902587890625
40483,0.0044708251953125,-0.9490203857421876,-0.3306427001953125
40484,0.008636474609375,-0.9504547119140624,-0.3144073486328125
40485,0.0062408447265625,-0.9603271484375,-0.30279541015625
40486,-0.00274658203125,-0.9717254638671876,-0.2970733642578125
40487,-0.01397705078125,-0.9888916015625,-0.2869415283203125
40488,-0.025848388671875,-1.00799560546875,-0.2829742431640625
40489,-0.0349273681640625,-1.01739501953125,-0.2865447998046875
40490,-0.0430145263671875,-1.028472900390625,-0.298583984375
40491,-0.0544586181640625,-1.052520751953125,-0.3081817626953125
40492,-0.0693511962890625,-1.077301025390625,-0.316192626953125
40493,-0.08099365234375,-1.08941650390625,-0.32147216796875
40494,-0.087310791015625,-1.091995239257812,-0.31689453125
40495,-0.09002685546875,-1.093841552734375,-0.3104400634765625
40496,-0.0931549072265625,-1.09222412109375,-0.3133544921875
40497,-0.09442138671875,-1.087799072265625,-0.3147125244140625
40498,-0.0898284912109375,-1.09234619140625,-0.3116302490234375
40499,-0.0789337158203125,-1.119064331054688,-0.31793212890625
40500,-0.0483551025390625,-1.1605224609375,-0.3302459716796875
40501,0.018646240234375,-1.202499389648438,-0.3260040283203125
40502,0.105133056640625,-1.234054565429688,-0.3088836669921875
40503,0.1784515380859375,-1.247970581054688,-0.2892608642578125
40504,0.2276763916015625,-1.25164794921875,-0.274017333984375
40505,0.2547760009765625,-1.253326416015625,-0.281768798828125
40506,0.2625274658203125,-1.238571166992188,-0.273773193359375
40507,0.252838134765625,-1.203125,-0.242919921875
40508,0.23394775390625,-1.174148559570312,-0.226165771484375
40509,0.208038330078125,-1.13482666015625,-0.2133636474609375
40510,0.1884918212890625,-1.07342529296875,-0.2052001953125
40511,0.203277587890625,-1.01666259765625,-0.19854736328125
40512,0.26531982421875,-0.990997314453125,-0.18463134765625
40513,0.354583740234375,-1.023361206054688,-0.1536102294921875
40514,0.4276580810546875,-1.068283081054688,-0.124481201171875
40515,0.474639892578125,-1.086685180664062,-0.109619140625
40516,0.495697021484375,-1.09051513671875,-0.1204833984375
40517,0.482666015625,-1.084976196289062,-0.1545257568359375
40518,0.4478759765625,-1.064697265625,-0.182281494140625
40519,0.409881591796875,-1.03656005859375,-0.2149810791015625
40520,0.389862060546875,-1.015625,-0.2612762451171875
40521,0.401397705078125,-1.005783081054688,-0.31597900390625
40522,0.42803955078125,-1.000015258789062,-0.39251708984375
40523,0.4375457763671875,-0.9854278564453124,-0.4512176513671875
40524,0.435272216796875,-0.977203369140625,-0.436767578125
40525,0.423675537109375,-1.0054931640625,-0.347076416015625
40526,0.38934326171875,-1.0770263671875,-0.2188720703125
40527,0.331634521484375,-1.166595458984375,-0.1077880859375
40528,0.27764892578125,-1.230178833007812,-0.0783538818359375
40529,0.287933349609375,-1.239639282226562,-0.1634521484375
40530,0.3538665771484375,-1.219467163085938,-0.2900390625
40531,0.4091949462890625,-1.194793701171875,-0.332916259765625
40532,0.42547607421875,-1.18011474609375,-0.301300048828125
40533,0.41046142578125,-1.17620849609375,-0.226470947265625
40534,0.36376953125,-1.187469482421875,-0.1457366943359375
40535,0.29730224609375,-1.209991455078125,-0.0998382568359375
40536,0.2321929931640625,-1.235824584960938,-0.1053009033203125
40537,0.1905517578125,-1.246551513671875,-0.1624908447265625
40538,0.1603851318359375,-1.249130249023438,-0.2269287109375
40539,0.1383209228515625,-1.229461669921875,-0.247802734375
40540,0.1290283203125,-1.190017700195312,-0.262298583984375
40541,0.1488037109375,-1.131576538085938,-0.2664794921875
40542,0.22625732421875,-1.072860717773438,-0.257080078125
40543,0.3422393798828125,-1.043121337890625,-0.2369232177734375
40544,0.453277587890625,-1.029525756835938,-0.2136688232421875
40545,0.5511932373046875,-0.991302490234375,-0.2055206298828125
40546,0.6294403076171875,-0.9529571533203124,-0.15802001953125
40547,0.66070556640625,-0.9367523193359376,-0.08514404296875
40548,0.645263671875,-0.9368896484375,-0.0269927978515625
40549,0.59228515625,-0.923980712890625,-0.0125885009765625
40550,0.5286865234375,-0.8984375,-0.029876708984375
40551,0.46820068359375,-0.863250732421875,-0.0522613525390625
40552,0.4112091064453125,-0.8266143798828125,-0.073272705078125
40553,0.3659210205078125,-0.7984619140625,-0.0761566162109375
40554,0.32708740234375,-0.7668914794921875,-0.086700439453125
40555,0.2769775390625,-0.7285919189453125,-0.1382904052734375
40556,0.2078094482421875,-0.678070068359375,-0.1757659912109375
40557,0.131683349609375,-0.6187591552734375,-0.173919677734375
40558,0.0630645751953125,-0.54473876953125,-0.1755523681640625
40559,0.01214599609375,-0.4631500244140625,-0.2097320556640625
40560,-0.0303192138671875,-0.3874053955078125,-0.2322235107421875
40561,-0.0631256103515625,-0.31231689453125,-0.214874267578125
40562,-0.0734405517578125,-0.243988037109375,-0.188446044921875
40563,-0.047210693359375,-0.1967620849609375,-0.1787872314453125
40564,0.01422119140625,-0.159088134765625,-0.1878509521484375
40565,0.1060638427734375,-0.14007568359375,-0.1971282958984375
40566,0.2156982421875,-0.151885986328125,-0.1699066162109375
40567,0.3223419189453125,-0.1836395263671875,-0.117340087890625
40568,0.423919677734375,-0.2313995361328125,-0.097381591796875
40569,0.5069122314453125,-0.29736328125,-0.1236572265625
40570,0.5572509765625,-0.369171142578125,-0.1949310302734375
40571,0.565643310546875,-0.4349212646484375,-0.3024444580078125
40572,0.55206298828125,-0.5128631591796875,-0.376617431640625
40573,0.53607177734375,-0.60430908203125,-0.3681182861328125
40574,0.5222320556640625,-0.7005157470703125,-0.3395843505859375
40575,0.5376739501953125,-0.754669189453125,-0.276702880859375
40576,0.682861328125,-0.738525390625,-0.0935211181640625
40577,0.9119110107421876,-0.7953033447265625,-0.0544891357421875
40578,1.03076171875,-1.0506591796875,-0.1920318603515625
40579,1.050262451171875,-1.335678100585938,-0.19146728515625
40580,1.101608276367188,-1.52685546875,-0.179046630859375
40581,1.180343627929688,-1.642166137695312,-0.14190673828125
40582,1.248489379882812,-1.720870971679688,-0.24505615234375
40583,1.30169677734375,-1.738479614257812,-0.4300994873046875
40584,1.33551025390625,-1.602127075195312,-0.41156005859375
40585,1.181121826171875,-1.38311767578125,-0.02166748046875
40586,0.8214111328125,-1.195510864257812,0.2550048828125
40587,0.46368408203125,-0.9869537353515624,0.1200103759765625
40588,0.2727508544921875,-0.7257537841796875,-0.1402130126953125
40589,0.2836456298828125,-0.4728546142578125,-0.229705810546875
40590,0.4559783935546875,-0.31622314453125,-0.211639404296875
40591,0.6302490234375,-0.3361663818359375,-0.0992431640625
40592,0.63232421875,-0.4847259521484375,0.0257110595703125
40593,0.4698333740234375,-0.60089111328125,0.0173492431640625
40594,0.3326263427734375,-0.617919921875,-0.150726318359375
40595,0.317413330078125,-0.6265411376953125,-0.27264404296875
40596,0.3746490478515625,-0.673095703125,-0.254364013671875
40597,0.45526123046875,-0.7638702392578125,-0.203460693359375
40598,0.518280029296875,-0.8727569580078125,-0.1783294677734375
40599,0.563690185546875,-0.9686431884765624,-0.150634765625
40600,0.60601806640625,-1.034759521484375,-0.118377685546875
40601,0.6419830322265625,-1.0504150390625,-0.0755157470703125
40602,0.6539306640625,-1.01812744140625,-0.045867919921875
40603,0.6323394775390625,-0.9609375,-0.0537261962890625
40604,0.581817626953125,-0.89837646484375,-0.08123779296875
40605,0.5088958740234375,-0.8479156494140625,-0.1021270751953125
40606,0.426177978515625,-0.8153076171875,-0.1387939453125
40607,0.356719970703125,-0.796905517578125,-0.1762542724609375
40608,0.306121826171875,-0.795654296875,-0.2234649658203125
40609,0.27398681640625,-0.8033294677734375,-0.268646240234375
40610,0.2559051513671875,-0.8211669921875,-0.2949371337890625
40611,0.247711181640625,-0.8406219482421875,-0.3189697265625
40612,0.245849609375,-0.8619537353515625,-0.3444061279296875
40613,0.2512664794921875,-0.8807830810546875,-0.35174560546875
40614,0.2626190185546875,-0.89495849609375,-0.34552001953125
40615,0.276092529296875,-0.903289794921875,-0.33624267578125
40616,0.2917633056640625,-0.89691162109375,-0.3303375244140625
40617,0.310028076171875,-0.8779754638671875,-0.32940673828125
40618,0.3290557861328125,-0.8549346923828125,-0.314605712890625
40619,0.3376617431640625,-0.8371429443359375,-0.2850799560546875
40620,0.335723876953125,-0.8300628662109375,-0.2613983154296875
40621,0.325531005859375,-0.8238983154296875,-0.23626708984375
40622,0.3089447021484375,-0.825927734375,-0.2122802734375
40623,0.29107666015625,-0.834320068359375,-0.19476318359375
40624,0.2644500732421875,-0.8442230224609375,-0.1889190673828125
40625,0.234710693359375,-0.8450927734375,-0.1972198486328125
40626,0.218170166015625,-0.842254638671875,-0.2312164306640625
40627,0.219390869140625,-0.8464813232421875,-0.25274658203125
40628,0.222900390625,-0.8592987060546875,-0.24993896484375
40629,0.2108154296875,-0.875335693359375,-0.2430572509765625
40630,0.190093994140625,-0.8900146484375,-0.254119873046875
40631,0.176177978515625,-0.9018402099609376,-0.265106201171875
40632,0.1728973388671875,-0.910125732421875,-0.26690673828125
40633,0.1703033447265625,-0.9176177978515624,-0.2624969482421875
40634,0.166229248046875,-0.920562744140625,-0.255035400390625
40635,0.163726806640625,-0.918792724609375,-0.2408599853515625
40636,0.1652984619140625,-0.916168212890625,-0.2182159423828125
40637,0.1694488525390625,-0.9142303466796876,-0.1991424560546875
40638,0.1817626953125,-0.911102294921875,-0.202056884765625
40639,0.2045440673828125,-0.9062042236328124,-0.211761474609375
40640,0.239166259765625,-0.90667724609375,-0.216583251953125
40641,0.2694549560546875,-0.9179229736328124,-0.2086181640625
40642,0.2861328125,-0.9373321533203124,-0.19976806640625
40643,0.2866058349609375,-0.9542694091796876,-0.20867919921875
40644,0.2838897705078125,-0.96209716796875,-0.2292938232421875
40645,0.281463623046875,-0.9652862548828124,-0.2465667724609375
40646,0.2747955322265625,-0.96484375,-0.2555999755859375
40647,0.256103515625,-0.9604644775390624,-0.2698822021484375
40648,0.226837158203125,-0.95703125,-0.279632568359375
40649,0.189483642578125,-0.9544830322265624,-0.255401611328125
40650,0.14227294921875,-0.95123291015625,-0.2042388916015625
40651,0.0914306640625,-0.9455108642578124,-0.1693267822265625
40652,0.0523681640625,-0.9362945556640624,-0.157745361328125
40653,0.03228759765625,-0.9197540283203124,-0.1612396240234375
40654,0.02777099609375,-0.9020843505859376,-0.1749420166015625
40655,0.0326080322265625,-0.88958740234375,-0.202056884765625
40656,0.0502166748046875,-0.881317138671875,-0.225341796875
40657,0.0778961181640625,-0.876190185546875,-0.2346343994140625
40658,0.1028594970703125,-0.8755340576171875,-0.2538299560546875
40659,0.1338043212890625,-0.87713623046875,-0.2865142822265625
40660,0.18109130859375,-0.902557373046875,-0.307861328125
40661,0.2285919189453125,-0.9663848876953124,-0.2941131591796875
40662,0.246612548828125,-1.051132202148438,-0.2544097900390625
40663,0.226287841796875,-1.117813110351562,-0.209197998046875
40664,0.190032958984375,-1.154998779296875,-0.185943603515625
40665,0.175933837890625,-1.15533447265625,-0.1789093017578125
40666,0.18023681640625,-1.136260986328125,-0.1951904296875
40667,0.1748809814453125,-1.104751586914062,-0.2066650390625
40668,0.147369384765625,-1.049514770507812,-0.20501708984375
40669,0.118072509765625,-0.978424072265625,-0.18328857421875
40670,0.101531982421875,-0.912017822265625,-0.1780242919921875
40671,0.0958709716796875,-0.8621368408203125,-0.204193115234375
40672,0.097625732421875,-0.8353118896484375,-0.2559356689453125
40673,0.10552978515625,-0.84539794921875,-0.3026580810546875
40674,0.1150360107421875,-0.893707275390625,-0.330718994140625
40675,0.1235809326171875,-0.95037841796875,-0.336700439453125
40676,0.1274871826171875,-0.9888916015625,-0.3260040283203125
40677,0.1276092529296875,-1.010772705078125,-0.3047027587890625
40678,0.12579345703125,-1.018508911132812,-0.2757110595703125
40679,0.12579345703125,-1.004852294921875,-0.240570068359375
40680,0.1301727294921875,-0.9755401611328124,-0.2105255126953125
40681,0.1429443359375,-0.955474853515625,-0.188018798828125
40682,0.1663818359375,-0.9488372802734376,-0.1725006103515625
40683,0.1926727294921875,-0.948394775390625,-0.1678466796875
40684,0.2152862548828125,-0.94744873046875,-0.174896240234375
40685,0.22509765625,-0.9420166015625,-0.189910888671875
40686,0.2220306396484375,-0.9324188232421876,-0.2050323486328125
40687,0.2078857421875,-0.9160919189453124,-0.2155914306640625
40688,0.186676025390625,-0.8948974609375,-0.214447021484375
40689,0.165130615234375,-0.8752288818359375,-0.2097930908203125
40690,0.1468353271484375,-0.86346435546875,-0.2037811279296875
40691,0.132232666015625,-0.86871337890625,-0.2048187255859375
40692,0.1222381591796875,-0.8908233642578125,-0.21630859375
40693,0.1187591552734375,-0.925750732421875,-0.2330780029296875
40694,0.1222381591796875,-0.96673583984375,-0.249176025390625
40695,0.1241912841796875,-1.011871337890625,-0.25836181640625
40696,0.12872314453125,-1.051101684570312,-0.2606964111328125
40697,0.137908935546875,-1.07373046875,-0.2638092041015625
40698,0.1527557373046875,-1.06292724609375,-0.2595367431640625
40699,0.1600494384765625,-1.015899658203125,-0.258331298828125
40700,0.1488800048828125,-0.950469970703125,-0.2547454833984375
40701,0.1209869384765625,-0.9077606201171876,-0.2371978759765625
40702,0.0777435302734375,-0.8986968994140625,-0.2077484130859375
40703,0.022430419921875,-0.908050537109375,-0.1742401123046875
40704,-0.04022216796875,-0.91949462890625,-0.14935302734375
40705,-0.09857177734375,-0.93438720703125,-0.1476593017578125
40706,-0.128814697265625,-0.959991455078125,-0.16876220703125
40707,-0.12451171875,-0.9930572509765624,-0.199432373046875
40708,-0.0972747802734375,-1.020721435546875,-0.229400634765625
40709,-0.0643768310546875,-1.033828735351562,-0.2455902099609375
40710,-0.0387420654296875,-1.034088134765625,-0.23687744140625
40711,-0.019744873046875,-1.022994995117188,-0.2052764892578125
40712,-0.0075531005859375,-1.00665283203125,-0.16461181640625
40713,-0.00048828125,-0.9830169677734376,-0.132476806640625
40714,0.02044677734375,-0.9592132568359376,-0.1060333251953125
40715,0.0393524169921875,-0.9938812255859376,-0.09375
40716,0.0489501953125,-1.059173583984375,-0.087554931640625
40717,0.031005859375,-1.11785888671875,-0.1016845703125
40718,-0.0141754150390625,-1.145736694335938,-0.1452178955078125
40719,-0.0621337890625,-1.138504028320312,-0.1877899169921875
40720,-0.0973358154296875,-1.113693237304688,-0.20428466796875
40721,-0.1155548095703125,-1.083770751953125,-0.2095794677734375
40722,-0.1088104248046875,-1.040359497070312,-0.2123565673828125
40723,-0.0845184326171875,-0.988037109375,-0.214202880859375
40724,-0.04656982421875,-0.94427490234375,-0.2147216796875
40725,0.0071563720703125,-0.9186553955078124,-0.211029052734375
40726,0.0712890625,-0.911224365234375,-0.2073211669921875
40727,0.1443939208984375,-0.9214324951171876,-0.204010009765625
40728,0.216949462890625,-0.9439697265625,-0.196441650390625
40729,0.27911376953125,-0.9476470947265624,-0.1891021728515625
40730,0.321502685546875,-0.9234466552734376,-0.1863861083984375
40731,0.343048095703125,-0.890167236328125,-0.190765380859375
40732,0.3416748046875,-0.8741607666015625,-0.2096099853515625
40733,0.3194427490234375,-0.88568115234375,-0.2392425537109375
40734,0.281707763671875,-0.9068603515625,-0.2626190185546875
40735,0.2338104248046875,-0.9152679443359376,-0.27935791015625
40736,0.1884918212890625,-0.924560546875,-0.2922821044921875
40737,0.1555938720703125,-0.94903564453125,-0.302093505859375
40738,0.1358642578125,-0.977203369140625,-0.294281005859375
40739,0.115020751953125,-0.9895477294921876,-0.2635040283203125
40740,0.0856781005859375,-0.986541748046875,-0.21240234375
40741,0.0475616455078125,-0.98211669921875,-0.157806396484375
40742,0.0245208740234375,-0.99774169921875,-0.1225128173828125
40743,0.0320281982421875,-1.03497314453125,-0.1239013671875
40744,0.058074951171875,-1.069015502929688,-0.145233154296875
40745,0.07647705078125,-1.080764770507812,-0.1773681640625
40746,0.0695953369140625,-1.077423095703125,-0.2175750732421875
40747,0.036590576171875,-1.065643310546875,-0.2550048828125
40748,-9.1552734375e-05,-1.045516967773438,-0.284881591796875
40749,-0.01116943359375,-1.020538330078125,-0.305999755859375
40750,0.0013885498046875,-0.993255615234375,-0.3183135986328125
40751,0.008453369140625,-0.971893310546875,-0.316619873046875
40752,-0.010223388671875,-0.963409423828125,-0.3079986572265625
40753,-0.046844482421875,-0.9521331787109376,-0.287353515625
40754,-0.0701141357421875,-0.9375152587890624,-0.2537689208984375
40755,-0.0552825927734375,-0.9305419921875,-0.2163238525390625
40756,1.52587890625e-05,-0.9404754638671876,-0.1804656982421875
40757,0.06707763671875,-0.9566802978515624,-0.1634521484375
40758,0.1014404296875,-0.9607086181640624,-0.1667633056640625
40759,0.0964813232421875,-0.9591064453125,-0.1925048828125
40760,0.0735626220703125,-0.970184326171875,-0.23162841796875
40761,0.03607177734375,-1.009933471679688,-0.2756805419921875
40762,-0.0096282958984375,-1.059783935546875,-0.308013916015625
40763,-0.05706787109375,-1.080963134765625,-0.3242034912109375
40764,-0.0935821533203125,-1.06689453125,-0.3209075927734375
40765,-0.108154296875,-1.03765869140625,-0.331207275390625
40766,-0.103607177734375,-1.007171630859375,-0.362457275390625
40767,-0.087249755859375,-0.9840087890625,-0.388031005859375
40768,-0.06158447265625,-0.9703826904296876,-0.386810302734375
40769,-0.0277252197265625,-0.9647369384765624,-0.36529541015625
40770,0.00445556640625,-0.9561614990234376,-0.3404541015625
40771,0.0301513671875,-0.9477081298828124,-0.3129730224609375
40772,0.049346923828125,-0.9420318603515624,-0.2868499755859375
40773,0.060089111328125,-0.9378662109375,-0.263031005859375
40774,0.06597900390625,-0.9376983642578124,-0.2369384765625
40775,0.077301025390625,-0.9385986328125,-0.21368408203125
40776,0.0940704345703125,-0.9486083984375,-0.211578369140625
40777,0.099884033203125,-0.9644012451171876,-0.2064056396484375
40778,0.089599609375,-0.96734619140625,-0.2160186767578125
40779,0.0918731689453125,-0.9670257568359376,-0.2359161376953125
40780,0.1216278076171875,-0.9704132080078124,-0.2530517578125
40781,0.163330078125,-0.97271728515625,-0.2621612548828125
40782,0.1873321533203125,-0.9538116455078124,-0.27777099609375
40783,0.1830596923828125,-0.9289398193359376,-0.2921600341796875
40784,0.16363525390625,-0.909088134765625,-0.2989044189453125
40785,0.14483642578125,-0.9081573486328124,-0.303375244140625
40786,0.12652587890625,-0.9360809326171876,-0.2960968017578125
40787,0.113311767578125,-0.9698638916015624,-0.2831268310546875
40788,0.1080322265625,-0.9827117919921876,-0.2714691162109375
40789,0.1060943603515625,-0.9881744384765624,-0.26904296875
40790,0.1041259765625,-0.9848785400390624,-0.27203369140625
40791,0.101287841796875,-0.961151123046875,-0.27154541015625
40792,0.0954132080078125,-0.925445556640625,-0.2501983642578125
40793,0.0905303955078125,-0.9022979736328124,-0.2215576171875
40794,0.0708160400390625,-0.9043426513671876,-0.20697021484375
40795,0.0356903076171875,-0.9149169921875,-0.20404052734375
40796,-0.0004730224609375,-0.92840576171875,-0.2029571533203125
40797,-0.025054931640625,-0.9501953125,-0.2081451416015625
40798,-0.044403076171875,-0.9740753173828124,-0.2206878662109375
40799,-0.063140869140625,-0.9894561767578124,-0.2273712158203125
40800,-0.07952880859375,-0.9967803955078124,-0.220733642578125
40801,-0.09393310546875,-0.977325439453125,-0.2164764404296875
40802,-0.1105804443359375,-0.9340667724609376,-0.2154388427734375
40803,-0.1209869384765625,-0.90533447265625,-0.214080810546875
40804,-0.1161651611328125,-0.920013427734375,-0.219146728515625
40805,-0.0961761474609375,-0.9623565673828124,-0.252166748046875
40806,-0.0810699462890625,-0.9983673095703124,-0.30340576171875
40807,-0.0757904052734375,-1.022293090820312,-0.3445892333984375
40808,-0.0706024169921875,-1.031387329101562,-0.362945556640625
40809,-0.0551910400390625,-1.006866455078125,-0.3710784912109375
40810,-0.020751953125,-0.9692840576171876,-0.3751983642578125
40811,0.027435302734375,-0.9505767822265624,-0.3619232177734375
40812,0.0831146240234375,-0.9436798095703124,-0.34161376953125
40813,0.140960693359375,-0.93511962890625,-0.31390380859375
40814,0.1920013427734375,-0.924835205078125,-0.2890472412109375
40815,0.240875244140625,-0.9203643798828124,-0.3021240234375
40816,0.276519775390625,-0.91656494140625,-0.3264007568359375
40817,0.280242919921875,-0.9219818115234376,-0.3292388916015625
40818,0.2489166259765625,-0.9510650634765624,-0.311279296875
40819,0.1876373291015625,-0.9942779541015624,-0.280548095703125
40820,0.106719970703125,-1.021759033203125,-0.25390625
40821,0.03118896484375,-1.022445678710938,-0.2295989990234375
40822,-0.0235443115234375,-1.016693115234375,-0.2073974609375
40823,-0.0554046630859375,-1.016006469726562,-0.1887054443359375
40824,-0.071868896484375,-1.01129150390625,-0.1688232421875
40825,-0.07916259765625,-1.001083374023438,-0.1609039306640625
40826,-0.0825347900390625,-0.9913482666015624,-0.1708984375
40827,-0.0800628662109375,-0.976409912109375,-0.1940460205078125
40828,-0.0641021728515625,-0.95709228515625,-0.216796875
40829,-0.03558349609375,-0.9414520263671876,-0.2303466796875
40830,-0.013671875,-0.9308929443359376,-0.2380218505859375
40831,0.0021514892578125,-0.9307403564453124,-0.23748779296875
40832,0.0208892822265625,-0.941253662109375,-0.2324981689453125
40833,0.034210205078125,-0.958251953125,-0.230194091796875
40834,0.03369140625,-0.96868896484375,-0.2230987548828125
40835,0.0325927734375,-0.973114013671875,-0.21392822265625
40836,0.047760009765625,-0.9744873046875,-0.21087646484375
40837,0.0722198486328125,-0.966552734375,-0.2126617431640625
40838,0.0942840576171875,-0.95208740234375,-0.2130126953125
40839,0.1082916259765625,-0.9405975341796876,-0.2183990478515625
40840,0.103759765625,-0.9357147216796876,-0.2288818359375
40841,0.07904052734375,-0.9445037841796876,-0.2371063232421875
40842,0.0535888671875,-0.964111328125,-0.2529296875
40843,0.0453033447265625,-0.975830078125,-0.269256591796875
40844,0.057373046875,-0.976470947265625,-0.2763519287109375
40845,0.076934814453125,-0.9856414794921876,-0.279876708984375
40846,0.08917236328125,-0.9994049072265624,-0.281707763671875
40847,0.084259033203125,-1.003890991210938,-0.2772216796875
40848,0.06085205078125,-1.002349853515625,-0.2639007568359375
40849,0.040740966796875,-1.006515502929688,-0.2488250732421875
40850,0.0396270751953125,-1.0128173828125,-0.2482147216796875
40851,0.055419921875,-1.006027221679688,-0.252471923828125
40852,0.0789947509765625,-0.999847412109375,-0.24688720703125
40853,0.0923614501953125,-1.01092529296875,-0.24224853515625
40854,0.08795166015625,-1.025283813476562,-0.2278594970703125
40855,0.077667236328125,-1.048294067382812,-0.2277984619140625
40856,0.0754547119140625,-1.07513427734375,-0.263092041015625
40857,0.0716705322265625,-1.086639404296875,-0.2886810302734375
40858,0.0479736328125,-1.084732055664062,-0.293548583984375
40859,0.0201873779296875,-1.07598876953125,-0.30255126953125
40860,0.0130157470703125,-1.067413330078125,-0.31829833984375
40861,0.0228424072265625,-1.06390380859375,-0.330413818359375
40862,0.039764404296875,-1.061386108398438,-0.3319854736328125
40863,0.0590667724609375,-1.048828125,-0.3288421630859375
40864,0.079833984375,-1.025222778320312,-0.3192138671875
40865,0.10723876953125,-0.9916229248046876,-0.3061370849609375
40866,0.1419830322265625,-0.9537200927734376,-0.3048248291015625
40867,0.1851959228515625,-0.9190521240234376,-0.323089599609375
40868,0.23309326171875,-0.893310546875,-0.376953125
40869,0.2664947509765625,-0.8684844970703125,-0.428741455078125
40870,0.2687225341796875,-0.83062744140625,-0.409912109375
40871,0.2507781982421875,-0.7841644287109375,-0.36517333984375
40872,0.224151611328125,-0.736419677734375,-0.3282623291015625
40873,0.1989898681640625,-0.693756103515625,-0.287750244140625
40874,0.18243408203125,-0.652557373046875,-0.2578887939453125
40875,0.1693267822265625,-0.596527099609375,-0.2728424072265625
40876,0.1528778076171875,-0.519195556640625,-0.326416015625
40877,0.1473541259765625,-0.428680419921875,-0.339019775390625
40878,0.1714324951171875,-0.3411712646484375,-0.2854461669921875
40879,0.208251953125,-0.26922607421875,-0.1975555419921875
40880,0.239654541015625,-0.21197509765625,-0.1516876220703125
40881,0.2551116943359375,-0.15478515625,-0.1890716552734375
40882,0.2237091064453125,-0.0901031494140625,-0.228424072265625
40883,0.1439056396484375,-0.0446014404296875,-0.2068328857421875
40884,0.081756591796875,-0.0709381103515625,-0.10833740234375
40885,0.1087493896484375,-0.224517822265625,0.053070068359375
40886,0.16229248046875,-0.5335693359375,0.110809326171875
40887,0.02947998046875,-0.944976806640625,-0.2177581787109375
40888,-0.181549072265625,-1.180953979492188,-0.5999908447265625
40889,-0.2710723876953125,-1.285186767578125,-0.6427001953125
40890,-0.28955078125,-1.545150756835938,-0.492156982421875
40891,-0.337066650390625,-1.941162109375,-0.3052520751953125
40892,-0.3920440673828125,-2.318328857421875,-0.3795013427734375
40893,-0.463409423828125,-2.5771484375,-0.5726776123046875
40894,-0.507904052734375,-2.633209228515625,-0.9376068115234376
40895,-0.4183502197265625,-2.507736206054688,-1.040771484375
40896,-0.221160888671875,-2.464035034179688,-1.093887329101562
40897,-0.0301666259765625,-2.590057373046875,-1.128890991210938
40898,0.0933990478515625,-2.746871948242188,-1.213516235351562
40899,0.0139312744140625,-2.749908447265625,-1.459915161132812
40900,-0.2782440185546875,-2.496322631835938,-1.703140258789062
40901,-0.5524444580078125,-2.206192016601562,-1.674270629882812
40902,-0.627166748046875,-2.05548095703125,-1.477493286132812
40903,-0.4923248291015625,-1.952743530273438,-1.28558349609375
40904,-0.1943817138671875,-1.858139038085938,-0.94439697265625
40905,0.2023773193359375,-1.815383911132812,-0.420257568359375
40906,0.4734649658203125,-1.760726928710938,0.0600738525390625
40907,0.44482421875,-1.44854736328125,0.15863037109375
40908,0.2806549072265625,-0.816131591796875,-0.0025634765625
40909,0.3353729248046875,-0.3752899169921875,-0.3050384521484375
40910,0.783782958984375,-0.1873931884765625,-0.48956298828125
40911,1.3779296875,-0.195404052734375,-0.3743896484375
40912,1.72344970703125,-0.4431304931640625,-0.2325897216796875
40913,1.554901123046875,-0.7487030029296875,-0.57757568359375
40914,1.094573974609375,-0.6689300537109375,-0.5857086181640625
40915,0.7476654052734375,-0.561614990234375,-0.10809326171875
40916,0.502044677734375,-0.6549530029296875,-0.0150604248046875
40917,0.282928466796875,-0.6866912841796875,-0.206451416015625
40918,0.112091064453125,-0.6722412109375,-0.3386993408203125
40919,0.0087127685546875,-0.64764404296875,-0.323211669921875
40920,-0.09112548828125,-0.636260986328125,-0.159271240234375
40921,-0.185882568359375,-0.6414642333984375,-0.0815582275390625
40922,-0.2071685791015625,-0.6500091552734375,-0.165496826171875
40923,-0.159912109375,-0.6735076904296875,-0.3266448974609375
40924,-0.096893310546875,-0.692718505859375,-0.45294189453125
40925,-0.05474853515625,-0.70159912109375,-0.529083251953125
40926,-0.0575103759765625,-0.7156219482421875,-0.5939178466796875
40927,-0.1085968017578125,-0.7389373779296875,-0.6480255126953125
40928,-0.184295654296875,-0.760955810546875,-0.6576690673828125
40929,-0.251556396484375,-0.7773590087890625,-0.5923919677734375
40930,-0.2918853759765625,-0.79022216796875,-0.48236083984375
40931,-0.32025146484375,-0.8044891357421875,-0.377960205078125
40932,-0.3500823974609375,-0.817718505859375,-0.3034210205078125
40933,-0.3764495849609375,-0.8238525390625,-0.27130126953125
40934,-0.381378173828125,-0.8355255126953125,-0.267333984375
40935,-0.3734283447265625,-0.8609619140625,-0.303436279296875
40936,-0.3793182373046875,-0.897247314453125,-0.3947601318359375
40937,-0.40692138671875,-0.933746337890625,-0.50213623046875
40938,-0.440093994140625,-0.9703521728515624,-0.578582763671875
40939,-0.476837158203125,-1.0078125,-0.6005401611328125
40940,-0.5250396728515625,-1.026641845703125,-0.5742645263671875
40941,-0.5744476318359375,-1.01519775390625,-0.5151519775390625
40942,-0.59906005859375,-0.9732513427734376,-0.4490509033203125
40943,-0.5935516357421875,-0.91644287109375,-0.3979644775390625
40944,-0.5646514892578125,-0.872955322265625,-0.378631591796875
40945,-0.5279541015625,-0.8578948974609375,-0.3715972900390625
40946,-0.4899749755859375,-0.8654937744140625,-0.3670501708984375
40947,-0.46075439453125,-0.885772705078125,-0.3707122802734375
40948,-0.4403076171875,-0.915283203125,-0.3809051513671875
40949,-0.4233551025390625,-0.939056396484375,-0.38690185546875
40950,-0.4062347412109375,-0.9535980224609376,-0.370452880859375
40951,-0.383453369140625,-0.955078125,-0.3386993408203125
40952,-0.35101318359375,-0.949554443359375,-0.284027099609375
40953,-0.28936767578125,-0.9490966796875,-0.21380615234375
40954,-0.1845550537109375,-0.949920654296875,-0.151153564453125
40955,-0.0737457275390625,-0.937957763671875,-0.1189117431640625
40956,0.000701904296875,-0.9306793212890624,-0.0991058349609375
40957,0.049530029296875,-0.9322052001953124,-0.0824737548828125
40958,0.0794525146484375,-0.9290924072265624,-0.0594940185546875
40959,0.091339111328125,-0.91925048828125,-0.0146331787109375
40960,0.08428955078125,-0.9064483642578124,0.04498291015625
40961,0.0570068359375,-0.9084930419921876,0.09783935546875
40962,0.0170440673828125,-0.9344940185546876,0.1483917236328125
40963,-0.017974853515625,-0.969879150390625,0.196868896484375
40964,-0.047393798828125,-1.016876220703125,0.2294158935546875
40965,-0.0688934326171875,-1.062744140625,0.2588043212890625
40966,-0.0804595947265625,-1.09271240234375,0.2876129150390625
40967,-0.071685791015625,-1.105117797851562,0.305389404296875
40968,-0.034271240234375,-1.109832763671875,0.3160858154296875
40969,0.02642822265625,-1.09832763671875,0.3267059326171875
40970,0.1080780029296875,-1.074050903320312,0.3165740966796875
40971,0.2168121337890625,-1.058441162109375,0.2699432373046875
40972,0.3574676513671875,-1.0611572265625,0.1865081787109375
40973,0.4946136474609375,-1.061553955078125,0.1585235595703125
40974,0.5792388916015625,-1.061614990234375,0.2334747314453125
40975,0.60015869140625,-1.088150024414062,0.3371734619140625
40976,0.56634521484375,-1.126007080078125,0.4004058837890625
40977,0.5106048583984375,-1.140899658203125,0.3842620849609375
40978,0.46771240234375,-1.122207641601562,0.3162689208984375
40979,0.4507598876953125,-1.089859008789062,0.2457427978515625
40980,0.4554901123046875,-1.06329345703125,0.1786956787109375
40981,0.4741668701171875,-1.0262451171875,0.1767425537109375
40982,0.474884033203125,-0.97491455078125,0.1566619873046875
40983,0.45703125,-0.9413604736328124,0.1123046875
40984,0.42291259765625,-0.928253173828125,0.10455322265625
40985,0.3831634521484375,-0.92913818359375,0.1671600341796875
40986,0.36199951171875,-0.9368438720703124,0.2680816650390625
40987,0.3614959716796875,-0.952423095703125,0.3471221923828125
40988,0.3875885009765625,-0.9628753662109376,0.4004058837890625
40989,0.4326171875,-0.9638519287109376,0.4497833251953125
40990,0.47747802734375,-0.9727020263671876,0.533782958984375
40991,0.516265869140625,-0.936126708984375,0.5366973876953125
40992,0.5434112548828125,-0.8708648681640625,0.433929443359375
40993,0.531524658203125,-0.813934326171875,0.3815460205078125
40994,0.4800567626953125,-0.747314453125,0.368133544921875
40995,0.41064453125,-0.6818695068359375,0.3174591064453125
40996,0.3392333984375,-0.6248626708984375,0.269775390625
40997,0.2713775634765625,-0.573394775390625,0.247589111328125
40998,0.2230682373046875,-0.5438079833984375,0.234405517578125
40999,0.1806793212890625,-0.530609130859375,0.221588134765625
41000,0.117706298828125,-0.5266876220703125,0.205902099609375
41001,0.0523529052734375,-0.524078369140625,0.2187042236328125
41002,0.025146484375,-0.502593994140625,0.2217254638671875
41003,0.0146636962890625,-0.4677734375,0.208404541015625
41004,-0.0124359130859375,-0.4301910400390625,0.1993865966796875
41005,-0.066802978515625,-0.394378662109375,0.1892852783203125
41006,-0.1332244873046875,-0.3601226806640625,0.17340087890625
41007,-0.1963653564453125,-0.3263092041015625,0.1456146240234375
41008,-0.2513275146484375,-0.306671142578125,0.1263427734375
41009,-0.2873077392578125,-0.2867431640625,0.14483642578125
41010,-0.3060760498046875,-0.272308349609375,0.2096710205078125
41011,-0.306243896484375,-0.2667236328125,0.3173370361328125
41012,-0.2859649658203125,-0.2695465087890625,0.435943603515625
41013,-0.2468719482421875,-0.2686767578125,0.5256500244140625
41014,-0.1941986083984375,-0.2700042724609375,0.5737457275390625
41015,-0.1464080810546875,-0.282440185546875,0.5946502685546875
41016,-0.122589111328125,-0.310516357421875,0.6216888427734375
41017,-0.121185302734375,-0.345672607421875,0.649810791015625
41018,-0.1278228759765625,-0.360748291015625,0.6634979248046875
41019,-0.12481689453125,-0.366058349609375,0.681793212890625
41020,-0.1004486083984375,-0.3938446044921875,0.703643798828125
41021,-0.08135986328125,-0.427947998046875,0.6856536865234375
41022,-0.0745697021484375,-0.45538330078125,0.657073974609375
41023,-0.0697479248046875,-0.4731292724609375,0.673675537109375
41024,-0.063690185546875,-0.4855194091796875,0.72210693359375
41025,-0.0588836669921875,-0.5005645751953125,0.770599365234375
41026,-0.0927581787109375,-0.524169921875,0.7824859619140625
41027,-0.1212310791015625,-0.5841827392578125,0.7801666259765625
41028,-0.0946807861328125,-0.6241607666015625,0.7880401611328125
41029,-0.06982421875,-0.6118927001953125,0.7871856689453125
41030,-0.0617828369140625,-0.611968994140625,0.8162841796875
41031,-0.06640625,-0.6521148681640625,0.875732421875
41032,-0.0816497802734375,-0.7008819580078125,0.9313201904296876
41033,-0.084564208984375,-0.734466552734375,0.9425201416015624
41034,-0.072967529296875,-0.7435302734375,0.904998779296875
41035,-0.0367889404296875,-0.72613525390625,0.855987548828125
41036,0.025970458984375,-0.6815338134765625,0.8253021240234375
41037,0.0904998779296875,-0.652191162109375,0.84814453125
41038,0.1439361572265625,-0.6502532958984375,0.904022216796875
41039,0.183074951171875,-0.656982421875,0.9582672119140624
41040,0.2070465087890625,-0.6690216064453125,0.9903717041015624
41041,0.2087554931640625,-0.69415283203125,0.9931640625
41042,0.19561767578125,-0.7245635986328125,0.9289398193359376
41043,0.17999267578125,-0.7475738525390625,0.8468475341796875
41044,0.15435791015625,-0.7651824951171875,0.79620361328125
41045,0.12139892578125,-0.7838592529296875,0.7597198486328125
41046,0.0973052978515625,-0.799285888671875,0.724761962890625
41047,0.0848846435546875,-0.80767822265625,0.72308349609375
41048,0.0849151611328125,-0.8136444091796875,0.74993896484375
41049,0.09857177734375,-0.817840576171875,0.7918853759765625
41050,0.125946044921875,-0.809326171875,0.8358154296875
41051,0.1644134521484375,-0.79095458984375,0.847442626953125
41052,0.2151947021484375,-0.773956298828125,0.8339996337890625
41053,0.2691192626953125,-0.76458740234375,0.808502197265625
41054,0.3104248046875,-0.7474365234375,0.7878570556640625
41055,0.3278656005859375,-0.71514892578125,0.7812652587890625
41056,0.3273162841796875,-0.6745147705078125,0.79541015625
41057,0.3211212158203125,-0.64117431640625,0.816650390625
41058,0.3080291748046875,-0.6354217529296875,0.82525634765625
41059,0.283782958984375,-0.6708831787109375,0.8181915283203125
41060,0.258056640625,-0.72723388671875,0.77978515625
41061,0.229705810546875,-0.778717041015625,0.7141265869140625
41062,0.191070556640625,-0.80633544921875,0.639556884765625
41063,0.1555938720703125,-0.7989959716796875,0.57958984375
41064,0.1435089111328125,-0.7641448974609375,0.53973388671875
41065,0.1622161865234375,-0.7191619873046875,0.501220703125
41066,0.2128753662109375,-0.689361572265625,0.477935791015625
41067,0.28570556640625,-0.6831512451171875,0.4934234619140625
41068,0.35638427734375,-0.693756103515625,0.5160675048828125
41069,0.41705322265625,-0.713836669921875,0.544036865234375
41070,0.4647369384765625,-0.7427978515625,0.5566558837890625
41071,0.4982147216796875,-0.7767333984375,0.56304931640625
41072,0.5255126953125,-0.7969207763671875,0.5807037353515625
41073,0.545867919921875,-0.81207275390625,0.596954345703125
41074,0.5624847412109375,-0.825836181640625,0.58111572265625
41075,0.5771484375,-0.8301239013671875,0.55023193359375
41076,0.5745391845703125,-0.823516845703125,0.5508575439453125
41077,0.556060791015625,-0.8224639892578125,0.5803070068359375
41078,0.5315093994140625,-0.8128509521484375,0.5820159912109375
41079,0.50640869140625,-0.79534912109375,0.568603515625
41080,0.4821014404296875,-0.781005859375,0.5632171630859375
41081,0.448699951171875,-0.77423095703125,0.536865234375
41082,0.4217071533203125,-0.781341552734375,0.485076904296875
41083,0.4134368896484375,-0.792816162109375,0.413818359375
41084,0.43206787109375,-0.8065032958984375,0.351593017578125
41085,0.4916839599609375,-0.793182373046875,0.2959136962890625
41086,0.5923004150390625,-0.7575531005859375,0.2946014404296875
41087,0.6879119873046875,-0.7223968505859375,0.3373260498046875
41088,0.741363525390625,-0.7103729248046875,0.3917083740234375
41089,0.74749755859375,-0.717803955078125,0.4161834716796875
41090,0.71875,-0.730712890625,0.462921142578125
41091,0.6474456787109375,-0.7491302490234375,0.5439453125
41092,0.5811920166015625,-0.777252197265625,0.5913238525390625
41093,0.5970001220703125,-0.762115478515625,0.5911102294921875
41094,0.6922760009765625,-0.7513885498046875,0.57403564453125
41095,0.821044921875,-0.77203369140625,0.5215606689453125
41096,0.9395599365234376,-0.7813873291015625,0.440032958984375
41097,0.9856414794921876,-0.766845703125,0.40057373046875
41098,0.9294281005859376,-0.710693359375,0.4434051513671875
41099,0.8287811279296875,-0.64764404296875,0.4943695068359375
41100,0.7319793701171875,-0.6212921142578125,0.45086669921875
41101,0.666778564453125,-0.6080322265625,0.3836517333984375
41102,0.633270263671875,-0.6070709228515625,0.32269287109375
41103,0.630096435546875,-0.5930938720703125,0.24591064453125
41104,0.6641998291015625,-0.56787109375,0.1917724609375
41105,0.6969451904296875,-0.5810699462890625,0.1416015625
41106,0.7202606201171875,-0.6110687255859375,0.12774658203125
41107,0.7300567626953125,-0.62506103515625,0.1205596923828125
41108,0.6969146728515625,-0.6279754638671875,0.082275390625
41109,0.6106109619140625,-0.6353759765625,0.0987091064453125
41110,0.4859466552734375,-0.653900146484375,0.17364501953125
41111,0.37286376953125,-0.68505859375,0.2176361083984375
41112,0.32208251953125,-0.7144775390625,0.1925811767578125
41113,0.351104736328125,-0.7398681640625,0.1655426025390625
41114,0.4192657470703125,-0.7762603759765625,0.194061279296875
41115,0.46832275390625,-0.8321990966796875,0.2921142578125
41116,0.4881744384765625,-0.8945770263671875,0.4093780517578125
41117,0.4986419677734375,-0.939422607421875,0.5059356689453125
41118,0.5152740478515625,-0.9619293212890624,0.5721588134765625
41119,0.5572967529296875,-0.9632110595703124,0.60107421875
41120,0.6228179931640625,-0.9327392578125,0.59161376953125
41121,0.703155517578125,-0.8737335205078125,0.5527191162109375
41122,0.7871246337890625,-0.81597900390625,0.486602783203125
41123,0.8410186767578125,-0.76934814453125,0.4013214111328125
41124,0.853668212890625,-0.7386627197265625,0.3454742431640625
41125,0.8240203857421875,-0.7310638427734375,0.309722900390625
41126,0.7628631591796875,-0.709869384765625,0.2680816650390625
41127,0.7097930908203125,-0.67431640625,0.2352294921875
41128,0.688995361328125,-0.64703369140625,0.2356719970703125
41129,0.693695068359375,-0.6267852783203125,0.2397613525390625
41130,0.7104034423828125,-0.610992431640625,0.2249908447265625
41131,0.72509765625,-0.5987548828125,0.20831298828125
41132,0.717620849609375,-0.6031951904296875,0.1990509033203125
41133,0.697998046875,-0.617767333984375,0.1864471435546875
41134,0.6873016357421875,-0.6320343017578125,0.191741943359375
41135,0.6825103759765625,-0.6370086669921875,0.2200775146484375
41136,0.6966552734375,-0.6483001708984375,0.235748291015625
41137,0.7195281982421875,-0.6413116455078125,0.232696533203125
41138,0.73931884765625,-0.6248931884765625,0.2256927490234375
41139,0.7471466064453125,-0.6251068115234375,0.235076904296875
41140,0.75189208984375,-0.62640380859375,0.245361328125
41141,0.7605133056640625,-0.6205291748046875,0.2304534912109375
41142,0.7706756591796875,-0.6053009033203125,0.20196533203125
41143,0.7944183349609375,-0.5818328857421875,0.1657867431640625
41144,0.8320159912109375,-0.567169189453125,0.1535186767578125
41145,0.872314453125,-0.573944091796875,0.1637420654296875
41146,0.9022369384765624,-0.60369873046875,0.1800994873046875
41147,0.9059295654296876,-0.6146087646484375,0.1929931640625
41148,0.890594482421875,-0.6106109619140625,0.1844940185546875
41149,0.867034912109375,-0.6090240478515625,0.154022216796875
41150,0.835235595703125,-0.609283447265625,0.1157073974609375
41151,0.797821044921875,-0.6206207275390625,0.080902099609375
41152,0.7633056640625,-0.6365509033203125,0.0733184814453125
41153,0.74371337890625,-0.643707275390625,0.0893096923828125
41154,0.7451019287109375,-0.652374267578125,0.1278228759765625
41155,0.7691192626953125,-0.661468505859375,0.175445556640625
41156,0.815948486328125,-0.673919677734375,0.219635009765625
41157,0.86883544921875,-0.688201904296875,0.240386962890625
41158,0.9098358154296876,-0.697174072265625,0.231842041015625
41159,0.933197021484375,-0.7011260986328125,0.2216949462890625
41160,0.93701171875,-0.715789794921875,0.2252197265625
41161,0.9285736083984376,-0.712554931640625,0.208526611328125
41162,0.9030303955078124,-0.6804046630859375,0.169708251953125
41163,0.838653564453125,-0.6729888916015625,0.13494873046875
41164,0.7415008544921875,-0.678955078125,0.13104248046875
41165,0.6524658203125,-0.6822052001953125,0.1389617919921875
41166,0.6030120849609375,-0.6722259521484375,0.1248626708984375
41167,0.6174163818359375,-0.65277099609375,0.0984649658203125
41168,0.6898345947265625,-0.6431427001953125,0.11114501953125
41169,0.7821044921875,-0.637451171875,0.156646728515625
41170,0.8586883544921875,-0.6337890625,0.1633148193359375
41171,0.8908233642578125,-0.6361846923828125,0.1341705322265625
41172,0.8650360107421875,-0.632049560546875,0.14459228515625
41173,0.80194091796875,-0.618255615234375,0.18353271484375
41174,0.740997314453125,-0.6006011962890625,0.2247467041015625
41175,0.7017822265625,-0.5815887451171875,0.2336578369140625
41176,0.6799774169921875,-0.5773468017578125,0.201080322265625
41177,0.6629486083984375,-0.5945281982421875,0.155242919921875
41178,0.6475982666015625,-0.59954833984375,0.1153564453125
41179,0.6282806396484375,-0.5947265625,0.108917236328125
41180,0.5982513427734375,-0.5887451171875,0.14288330078125
41181,0.5839691162109375,-0.5916748046875,0.1775360107421875
41182,0.6103668212890625,-0.59637451171875,0.1897430419921875
41183,0.694091796875,-0.59295654296875,0.1399383544921875
41184,0.8071746826171875,-0.5994415283203125,0.065704345703125
41185,0.9005126953125,-0.6141815185546875,0.0208892822265625
41186,0.9427642822265624,-0.627838134765625,-0.0001068115234375
41187,0.9251251220703124,-0.62786865234375,-0.013671875
41188,0.8674163818359375,-0.6336822509765625,0.0048980712890625
41189,0.80145263671875,-0.626220703125,0.049468994140625
41190,0.7557830810546875,-0.601837158203125,0.0884857177734375
41191,0.745819091796875,-0.5923004150390625,0.0987548828125
41192,0.7779388427734375,-0.6126556396484375,0.0843048095703125
41193,0.8072052001953125,-0.64898681640625,0.0511322021484375
41194,0.79364013671875,-0.63482666015625,0.0281524658203125
41195,0.745086669921875,-0.6170196533203125,0.03076171875
41196,0.7261810302734375,-0.60504150390625,0.0678863525390625
41197,0.7618255615234375,-0.6049346923828125,0.1099090576171875
41198,0.7991790771484375,-0.5867156982421875,0.1065826416015625
41199,0.8317413330078125,-0.5684356689453125,0.057708740234375
41200,0.8557586669921875,-0.562042236328125,0.0172271728515625
41201,0.8460845947265625,-0.5719757080078125,0.000732421875
41202,0.796051025390625,-0.5789794921875,0.0121612548828125
41203,0.74609375,-0.5884246826171875,0.0409393310546875
41204,0.7100067138671875,-0.6064453125,0.0601043701171875
41205,0.685943603515625,-0.623382568359375,0.0666046142578125
41206,0.68865966796875,-0.6394805908203125,0.0649566650390625
41207,0.710968017578125,-0.664398193359375,0.06756591796875
41208,0.741241455078125,-0.7057647705078125,0.093505859375
41209,0.7736358642578125,-0.754638671875,0.1282196044921875
41210,0.794342041015625,-0.783172607421875,0.1607513427734375
41211,0.78192138671875,-0.8004302978515625,0.1826629638671875
41212,0.75103759765625,-0.7908172607421875,0.174163818359375
41213,0.7333831787109375,-0.7911224365234375,0.1467742919921875
41214,0.7305450439453125,-0.8067779541015625,0.1329193115234375
41215,0.7473907470703125,-0.8143768310546875,0.128997802734375
41216,0.79669189453125,-0.809967041015625,0.1271209716796875
41217,0.8724822998046875,-0.7803802490234375,0.1198272705078125
41218,0.953765869140625,-0.7222137451171875,0.10003662109375
41219,1.016326904296875,-0.659515380859375,0.0752410888671875
41220,1.057952880859375,-0.6278533935546875,0.062255859375
41221,1.073562622070312,-0.6183319091796875,0.035980224609375
41222,1.050018310546875,-0.6030426025390625,0.0031585693359375
41223,0.9928436279296876,-0.6052398681640625,0.02947998046875
41224,0.9344635009765624,-0.62017822265625,0.110443115234375
41225,0.9119720458984376,-0.6182708740234375,0.168487548828125
41226,0.90606689453125,-0.6345672607421875,0.149200439453125
41227,0.8827056884765625,-0.6650238037109375,0.080657958984375
41228,0.82403564453125,-0.65966796875,0.042022705078125
41229,0.73370361328125,-0.6426849365234375,0.05023193359375
41230,0.6469573974609375,-0.651153564453125,0.0579681396484375
41231,0.5748443603515625,-0.66400146484375,0.0507354736328125
41232,0.529022216796875,-0.6405029296875,0.0264129638671875
41233,0.5243988037109375,-0.6666717529296875,0.0371246337890625
41234,0.5670318603515625,-0.6846771240234375,0.0867156982421875
41235,0.6303253173828125,-0.70367431640625,0.095977783203125
41236,0.6760406494140625,-0.706298828125,0.0824737548828125
41237,0.7232666015625,-0.6952972412109375,0.0389251708984375
41238,0.7829437255859375,-0.6940460205078125,0.007843017578125
41239,0.84613037109375,-0.682159423828125,0.0131988525390625
41240,0.8904876708984375,-0.639617919921875,0.047637939453125
41241,0.945526123046875,-0.59161376953125,0.0799407958984375
41242,0.996826171875,-0.570281982421875,0.0649871826171875
41243,0.9745330810546876,-0.5412750244140625,-0.0009613037109375
41244,0.9062652587890624,-0.5068206787109375,-0.0925140380859375
41245,0.8572235107421875,-0.5202789306640625,-0.1517486572265625
41246,0.8644256591796875,-0.5420074462890625,-0.1183624267578125
41247,0.9091949462890624,-0.53936767578125,-0.0196685791015625
41248,0.944854736328125,-0.537628173828125,0.061492919921875
41249,0.9559478759765624,-0.5359344482421875,0.105133056640625
41250,0.9536895751953124,-0.51702880859375,0.104644775390625
41251,0.9050445556640624,-0.4944305419921875,0.02276611328125
41252,0.7661285400390625,-0.4953765869140625,-0.065765380859375
41253,0.5637359619140625,-0.5156707763671875,-0.0478668212890625
41254,0.392333984375,-0.562255859375,0.008819580078125
41255,0.328765869140625,-0.651123046875,0.0921630859375
41256,0.3482818603515625,-0.730377197265625,0.1995697021484375
41257,0.3745880126953125,-0.786163330078125,0.311798095703125
41258,0.3782958984375,-0.8208160400390625,0.3606109619140625
41259,0.3963623046875,-0.79669189453125,0.30560302734375
41260,0.447113037109375,-0.7315826416015625,0.25738525390625
41261,0.4976043701171875,-0.6999969482421875,0.2183074951171875
41262,0.5119171142578125,-0.702850341796875,0.1368865966796875
41263,0.5030364990234375,-0.6605377197265625,0.0619049072265625
41264,0.485198974609375,-0.6201324462890625,0.0268402099609375
41265,0.45977783203125,-0.6069793701171875,0.005767822265625
41266,0.437408447265625,-0.583282470703125,0.0052642822265625
41267,0.46014404296875,-0.549346923828125,0.033294677734375
41268,0.527557373046875,-0.521331787109375,0.0622100830078125
41269,0.5929107666015625,-0.4944610595703125,0.0402679443359375
41270,0.6165924072265625,-0.466522216796875,-0.0171661376953125
41271,0.5979156494140625,-0.4482879638671875,-0.0254058837890625
41272,0.5950775146484375,-0.450439453125,-0.0179443359375
41273,0.659820556640625,-0.460357666015625,-0.0171966552734375
41274,0.772308349609375,-0.45465087890625,-0.028778076171875
41275,0.9183349609375,-0.4878997802734375,-0.053558349609375
41276,1.044052124023438,-0.5148468017578125,-0.081329345703125
41277,1.139404296875,-0.5202484130859375,-0.0196075439453125
41278,1.249313354492188,-0.6845703125,0.0002593994140625
41279,1.306930541992188,-0.8077239990234375,0.12066650390625
41280,1.29144287109375,-0.8070831298828125,0.1242828369140625
41281,1.191421508789062,-0.86968994140625,-0.0057373046875
41282,1.0029296875,-0.934600830078125,0.06463623046875
41283,0.78045654296875,-0.886566162109375,0.03399658203125
41284,0.688812255859375,-0.850921630859375,0.0013885498046875
41285,0.695068359375,-0.90618896484375,0.0446319580078125
41286,0.733978271484375,-0.9483642578125,0.056488037109375
41287,0.7515106201171875,-0.97259521484375,0.090240478515625
41288,0.7207183837890625,-1.00518798828125,0.1266937255859375
41289,0.6673126220703125,-1.030014038085938,0.1170196533203125
41290,0.6104583740234375,-1.036087036132812,0.1133880615234375
41291,0.5618896484375,-1.038360595703125,0.126007080078125
41292,0.545135498046875,-1.041519165039062,0.1208343505859375
41293,0.55938720703125,-1.028549194335938,0.107086181640625
41294,0.580352783203125,-0.9937896728515624,0.0774383544921875
41295,0.6118621826171875,-0.952667236328125,0.0691986083984375
41296,0.6558990478515625,-0.91119384765625,0.065673828125
41297,0.699676513671875,-0.8847808837890625,0.042724609375
41298,0.7391204833984375,-0.866729736328125,0.03265380859375
41299,0.776153564453125,-0.852508544921875,0.036895751953125
41300,0.7862701416015625,-0.85614013671875,0.028656005859375
41301,0.7579803466796875,-0.8720245361328125,0.0183563232421875
41302,0.712615966796875,-0.8625640869140625,-0.00115966796875
41303,0.6651763916015625,-0.8476715087890625,-0.0563507080078125
41304,0.6033172607421875,-0.8755950927734375,-0.1041259765625
41305,0.55810546875,-0.8958740234375,-0.0569610595703125
41306,0.5407867431640625,-0.8925628662109375,-0.0029754638671875
41307,0.5316925048828125,-0.8931732177734375,0.03961181640625
41308,0.5367889404296875,-0.892730712890625,0.0521087646484375
41309,0.55059814453125,-0.8815765380859375,0.0814666748046875
41310,0.5653076171875,-0.864898681640625,0.120574951171875
41311,0.5622711181640625,-0.8503570556640625,0.136016845703125
41312,0.5501861572265625,-0.8403167724609375,0.144256591796875
41313,0.52410888671875,-0.8331756591796875,0.1513824462890625
41314,0.4959869384765625,-0.8266754150390625,0.1693267822265625
41315,0.4764404296875,-0.826629638671875,0.180450439453125
41316,0.4618988037109375,-0.8255767822265625,0.191070556640625
41317,0.4443359375,-0.819976806640625,0.2011260986328125
41318,0.4308929443359375,-0.8102569580078125,0.2106475830078125
41319,0.428466796875,-0.7945404052734375,0.2106475830078125
41320,0.440521240234375,-0.782745361328125,0.2019500732421875
41321,0.479217529296875,-0.77825927734375,0.2061767578125
41322,0.5348968505859375,-0.7816314697265625,0.2190399169921875
41323,0.568084716796875,-0.7889556884765625,0.2340087890625
41324,0.5589752197265625,-0.791412353515625,0.252166748046875
41325,0.53436279296875,-0.7907257080078125,0.2451934814453125
41326,0.5107574462890625,-0.7965545654296875,0.2145233154296875
41327,0.4903564453125,-0.7939605712890625,0.193634033203125
41328,0.48760986328125,-0.786407470703125,0.171478271484375
41329,0.5009918212890625,-0.78131103515625,0.149200439453125
41330,0.526123046875,-0.7791595458984375,0.142364501953125
41331,0.5624237060546875,-0.7721710205078125,0.14471435546875
41332,0.613037109375,-0.7494354248046875,0.1540679931640625
41333,0.6768646240234375,-0.7235260009765625,0.1683349609375
41334,0.7263336181640625,-0.7154541015625,0.194671630859375
41335,0.739105224609375,-0.7225494384765625,0.2322235107421875
41336,0.7230682373046875,-0.734954833984375,0.24639892578125
41337,0.7029266357421875,-0.7360992431640625,0.23956298828125
41338,0.6924591064453125,-0.7205047607421875,0.22186279296875
41339,0.676422119140625,-0.7019500732421875,0.198883056640625
41340,0.659942626953125,-0.6881561279296875,0.160430908203125
41341,0.65899658203125,-0.6752166748046875,0.12847900390625
41342,0.65325927734375,-0.659759521484375,0.1268310546875
41343,0.6379852294921875,-0.647003173828125,0.14520263671875
41344,0.6245880126953125,-0.6398162841796875,0.1511993408203125
41345,0.615570068359375,-0.635528564453125,0.146759033203125
41346,0.6143341064453125,-0.63311767578125,0.1479644775390625
41347,0.6178741455078125,-0.634552001953125,0.152557373046875
41348,0.62371826171875,-0.6349945068359375,0.168548583984375
41349,0.6229248046875,-0.6436920166015625,0.1913299560546875
41350,0.6171875,-0.66143798828125,0.2074737548828125
41351,0.61151123046875,-0.68389892578125,0.207855224609375
41352,0.60125732421875,-0.7049407958984375,0.1990966796875
41353,0.58197021484375,-0.705810546875,0.1930084228515625
41354,0.5596771240234375,-0.6962890625,0.1973419189453125
41355,0.5518798828125,-0.688018798828125,0.18194580078125
41356,0.56414794921875,-0.686004638671875,0.1639251708984375
41357,0.5742645263671875,-0.6932830810546875,0.1648712158203125
41358,0.5438995361328125,-0.7062835693359375,0.1254730224609375
41359,0.4794158935546875,-0.697967529296875,0.1215362548828125
41360,0.4129638671875,-0.68817138671875,0.1099700927734375
41361,0.3726806640625,-0.700714111328125,0.075469970703125
41362,0.3782958984375,-0.69964599609375,0.0501708984375
41363,0.394683837890625,-0.6859588623046875,0.0135650634765625
41364,0.408172607421875,-0.682403564453125,-0.010650634765625
41365,0.415557861328125,-0.6831207275390625,-0.0381011962890625
41366,0.428436279296875,-0.6959381103515625,-0.048187255859375
41367,0.4626922607421875,-0.7105560302734375,-0.05450439453125
41368,0.4728546142578125,-0.7114105224609375,-0.0737762451171875
41369,0.4499664306640625,-0.7337188720703125,-0.0609283447265625
41370,0.4176177978515625,-0.78173828125,-0.0618133544921875
41371,0.4048919677734375,-0.8379364013671875,-0.099090576171875
41372,0.4475250244140625,-0.904083251953125,-0.1290283203125
41373,0.5307769775390625,-0.961456298828125,-0.0973052978515625
41374,0.644195556640625,-0.9987945556640624,-0.02008056640625
41375,0.786376953125,-1.035079956054688,0.083404541015625
41376,0.912322998046875,-1.080368041992188,0.188140869140625
41377,1.007003784179688,-1.118011474609375,0.2811279296875
41378,1.086105346679688,-1.088485717773438,0.39727783203125
41379,1.167373657226562,-1.053054809570312,0.4907989501953125
41380,1.23748779296875,-1.081207275390625,0.463226318359375
41381,1.222183227539062,-1.076507568359375,0.3994598388671875
41382,1.089584350585938,-1.040298461914062,0.3690338134765625
41383,0.914703369140625,-1.004425048828125,0.385711669921875
41384,0.79608154296875,-0.966339111328125,0.3966064453125
41385,0.739105224609375,-0.911651611328125,0.344207763671875
41386,0.713165283203125,-0.8672943115234375,0.276580810546875
41387,0.6873321533203125,-0.8159332275390625,0.239654541015625
41388,0.6649322509765625,-0.7652587890625,0.2093658447265625
41389,0.6568603515625,-0.71710205078125,0.1754150390625
41390,0.65411376953125,-0.675384521484375,0.153411865234375
41391,0.6449737548828125,-0.63970947265625,0.131317138671875
41392,0.6281280517578125,-0.6114349365234375,0.0999603271484375
41393,0.615020751953125,-0.5918121337890625,0.0730438232421875
41394,0.6134033203125,-0.5797576904296875,0.0580596923828125
41395,0.6263427734375,-0.57415771484375,0.0523223876953125
41396,0.6531219482421875,-0.5705413818359375,0.040069580078125
41397,0.688934326171875,-0.561614990234375,0.02935791015625
41398,0.7314453125,-0.55279541015625,0.0287322998046875
41399,0.773681640625,-0.5487518310546875,0.0510711669921875
41400,0.8127593994140625,-0.5513916015625,0.0860748291015625
41401,0.848724365234375,-0.5595550537109375,0.1233673095703125
41402,0.8745269775390625,-0.5702972412109375,0.1689453125
41403,0.875518798828125,-0.5786590576171875,0.1894683837890625
41404,0.8527679443359375,-0.5758514404296875,0.1803131103515625
41405,0.797760009765625,-0.5597686767578125,0.16357421875
41406,0.713165283203125,-0.548828125,0.138671875
41407,0.617462158203125,-0.5587615966796875,0.1151580810546875
41408,0.545440673828125,-0.5624237060546875,0.0986785888671875
41409,0.528533935546875,-0.5686187744140625,0.0939178466796875
41410,0.5589599609375,-0.5849761962890625,0.1201019287109375
41411,0.5996246337890625,-0.6100311279296875,0.179412841796875
41412,0.631195068359375,-0.6277313232421875,0.2382659912109375
41413,0.655120849609375,-0.6356201171875,0.2819366455078125
41414,0.6667327880859375,-0.64508056640625,0.3077239990234375
41415,0.6260833740234375,-0.697723388671875,0.2969818115234375
41416,0.577850341796875,-0.7285614013671875,0.2765045166015625
41417,0.5521087646484375,-0.734283447265625,0.3163299560546875
41418,0.5077362060546875,-0.747528076171875,0.4069671630859375
41419,0.431610107421875,-0.7927703857421875,0.51617431640625
41420,0.348388671875,-0.8568267822265625,0.604705810546875
41421,0.3049468994140625,-0.88336181640625,0.5948333740234375
41422,0.320709228515625,-0.87286376953125,0.536865234375
41423,0.36297607421875,-0.84405517578125,0.431427001953125
41424,0.421722412109375,-0.8079681396484375,0.298126220703125
41425,0.4817657470703125,-0.76702880859375,0.2017974853515625
41426,0.5277099609375,-0.7346038818359375,0.1599273681640625
41427,0.563995361328125,-0.726898193359375,0.130218505859375
41428,0.600189208984375,-0.725311279296875,0.1260223388671875
41429,0.6522064208984375,-0.71453857421875,0.1497344970703125
41430,0.71649169921875,-0.699981689453125,0.17205810546875
41431,0.77410888671875,-0.6904296875,0.17364501953125
41432,0.812652587890625,-0.6892242431640625,0.16400146484375
41433,0.8321685791015625,-0.68939208984375,0.164093017578125
41434,0.838958740234375,-0.6971282958984375,0.1743621826171875
41435,0.841552734375,-0.710601806640625,0.1765594482421875
41436,0.851654052734375,-0.725067138671875,0.1723175048828125
41437,0.872955322265625,-0.7363433837890625,0.1668548583984375
41438,0.89862060546875,-0.74383544921875,0.1586761474609375
41439,0.9167327880859376,-0.75018310546875,0.1613616943359375
41440,0.91534423828125,-0.758941650390625,0.1793212890625
41441,0.9015960693359376,-0.7723388671875,0.1891632080078125
41442,0.891693115234375,-0.791534423828125,0.16558837890625
41443,0.888214111328125,-0.809051513671875,0.1326446533203125
41444,0.88531494140625,-0.8123779296875,0.1286468505859375
41445,0.873779296875,-0.794891357421875,0.140625
41446,0.8490447998046875,-0.781463623046875,0.1393890380859375
41447,0.81109619140625,-0.7788848876953125,0.1443328857421875
41448,0.7802734375,-0.7685394287109375,0.13671875
41449,0.7679443359375,-0.7485809326171875,0.11920166015625
41450,0.7666778564453125,-0.7279510498046875,0.1158447265625
41451,0.7713470458984375,-0.7155303955078125,0.124603271484375
41452,0.7646331787109375,-0.71600341796875,0.150634765625
41453,0.7475433349609375,-0.7295684814453125,0.190277099609375
41454,0.728546142578125,-0.743743896484375,0.2276763916015625
41455,0.7161712646484375,-0.756195068359375,0.2451934814453125
41456,0.70538330078125,-0.7611846923828125,0.268096923828125
41457,0.6871795654296875,-0.7568817138671875,0.29217529296875
41458,0.6532440185546875,-0.7533111572265625,0.2844696044921875
41459,0.61444091796875,-0.75323486328125,0.2529754638671875
41460,0.582305908203125,-0.7556304931640625,0.20782470703125
41461,0.562957763671875,-0.7535552978515625,0.16632080078125
41462,0.5613250732421875,-0.7436370849609375,0.1363983154296875
41463,0.583160400390625,-0.7235870361328125,0.136383056640625
41464,0.6209564208984375,-0.708892822265625,0.1777801513671875
41465,0.65264892578125,-0.7018890380859375,0.2078094482421875
41466,0.69012451171875,-0.712066650390625,0.1885223388671875
41467,0.7677001953125,-0.744964599609375,0.1783599853515625
41468,0.8472137451171875,-0.7205047607421875,0.236602783203125
41469,0.835296630859375,-0.6294097900390625,0.334869384765625
41470,0.712005615234375,-0.6148681640625,0.4400177001953125
41471,0.609954833984375,-0.724884033203125,0.508575439453125
41472,0.6003875732421875,-0.8262786865234375,0.5787200927734375
41473,0.6441497802734375,-0.7923431396484375,0.55615234375
41474,0.6787261962890625,-0.6837310791015625,0.380157470703125
41475,0.6435394287109375,-0.6485748291015625,0.352783203125
41476,0.4619903564453125,-0.685791015625,0.4440155029296875
41477,0.21295166015625,-0.742218017578125,0.3460540771484375
41478,0.0011444091796875,-0.8063201904296875,0.2391510009765625
41479,-0.1578216552734375,-0.8288421630859375,0.191375732421875
41480,-0.177703857421875,-0.7421112060546875,0.117828369140625
41481,-0.0390777587890625,-0.5959014892578125,0.088531494140625
41482,0.13677978515625,-0.48016357421875,0.1375885009765625
41483,0.293914794921875,-0.398345947265625,0.212066650390625
41484,0.4457855224609375,-0.3466644287109375,0.2715606689453125
41485,0.5899658203125,-0.34344482421875,0.3217926025390625
41486,0.688629150390625,-0.40179443359375,0.3578643798828125
41487,0.70831298828125,-0.47235107421875,0.350067138671875
41488,0.65997314453125,-0.518829345703125,0.286376953125
41489,0.5820159912109375,-0.53424072265625,0.2093353271484375
41490,0.5164337158203125,-0.5320892333984375,0.1241302490234375
41491,0.4930572509765625,-0.5253753662109375,0.046112060546875
41492,0.506500244140625,-0.522369384765625,0.0114593505859375
41493,0.5278472900390625,-0.5370941162109375,0.0048675537109375
41494,0.5716400146484375,-0.5563507080078125,-0.005218505859375
41495,0.6394195556640625,-0.569793701171875,0.029052734375
41496,0.6929168701171875,-0.583770751953125,0.0801239013671875
41497,0.7297821044921875,-0.6013336181640625,0.06671142578125
41498,0.7875213623046875,-0.6309051513671875,0.0273590087890625
41499,0.8709716796875,-0.68914794921875,0.032684326171875
41500,0.93817138671875,-0.7774658203125,0.0675811767578125
41501,0.977447509765625,-0.8643646240234375,0.077850341796875
41502,0.9792633056640624,-0.9368133544921876,0.0747833251953125
41503,0.929290771484375,-0.9987030029296876,0.08721923828125
41504,0.856597900390625,-1.0301513671875,0.091339111328125
41505,0.8011627197265625,-1.038894653320312,0.0889434814453125
41506,0.7730712890625,-1.04840087890625,0.1189422607421875
41507,0.763946533203125,-1.065643310546875,0.1842041015625
41508,0.7782440185546875,-1.083908081054688,0.2311248779296875
41509,0.8347320556640625,-1.080642700195312,0.262237548828125
41510,0.910430908203125,-1.047470092773438,0.217926025390625
41511,0.9676055908203124,-0.9896240234375,0.200225830078125
41512,0.994384765625,-0.917724609375,0.2839813232421875
41513,1.0147705078125,-0.854339599609375,0.38397216796875
41514,1.069046020507812,-0.8007659912109375,0.4405975341796875
41515,1.123138427734375,-0.7957000732421875,0.4834136962890625
41516,1.097366333007812,-0.833709716796875,0.482421875
41517,0.960418701171875,-0.8321075439453125,0.4211578369140625
41518,0.7848052978515625,-0.7608642578125,0.3120269775390625
41519,0.62396240234375,-0.6550445556640625,0.174713134765625
41520,0.5184173583984375,-0.5782012939453125,0.0388031005859375
41521,0.4874267578125,-0.5695037841796875,-0.03955078125
41522,0.4978485107421875,-0.61578369140625,0.00128173828125
41523,0.4941558837890625,-0.67059326171875,0.0872802734375
41524,0.46759033203125,-0.68682861328125,0.142425537109375
41525,0.44989013671875,-0.67327880859375,0.1636962890625
41526,0.4626007080078125,-0.665008544921875,0.154327392578125
41527,0.48504638671875,-0.679473876953125,0.14349365234375
41528,0.495330810546875,-0.7061614990234375,0.1231536865234375
41529,0.4971160888671875,-0.7298583984375,0.1038665771484375
41530,0.49334716796875,-0.7425079345703125,0.10150146484375
41531,0.4961090087890625,-0.747650146484375,0.1239776611328125
41532,0.518707275390625,-0.7616729736328125,0.1478424072265625
41533,0.5577545166015625,-0.7786712646484375,0.16375732421875
41534,0.5879364013671875,-0.7879638671875,0.1645050048828125
41535,0.6011505126953125,-0.79449462890625,0.161102294921875
41536,0.59423828125,-0.7852783203125,0.15863037109375
41537,0.579864501953125,-0.7766265869140625,0.154266357421875
41538,0.5676116943359375,-0.784423828125,0.17694091796875
41539,0.5572509765625,-0.7938995361328125,0.206573486328125
41540,0.560516357421875,-0.8068389892578125,0.203369140625
41541,0.5744171142578125,-0.821563720703125,0.2281036376953125
41542,0.5936431884765625,-0.8258056640625,0.2617950439453125
41543,0.6156463623046875,-0.82049560546875,0.278167724609375
41544,0.6348419189453125,-0.8149261474609375,0.28033447265625
41545,0.6577301025390625,-0.8089752197265625,0.26708984375
41546,0.686065673828125,-0.8000030517578125,0.2484283447265625
41547,0.71417236328125,-0.78875732421875,0.22357177734375
41548,0.739013671875,-0.7737884521484375,0.183868408203125
41549,0.7603607177734375,-0.7564544677734375,0.152862548828125
41550,0.781402587890625,-0.7421417236328125,0.1285400390625
41551,0.790771484375,-0.7410736083984375,0.103607177734375
41552,0.7799530029296875,-0.7351837158203125,0.0814208984375
41553,0.7731170654296875,-0.71832275390625,0.07073974609375
41554,0.7841339111328125,-0.6960296630859375,0.0662841796875
41555,0.8114776611328125,-0.68438720703125,0.0743865966796875
41556,0.8412933349609375,-0.6895599365234375,0.0877227783203125
41557,0.863067626953125,-0.6987457275390625,0.0982666015625
41558,0.8704833984375,-0.7003173828125,0.1010284423828125
41559,0.8604736328125,-0.69097900390625,0.0953369140625
41560,0.832305908203125,-0.681976318359375,0.09210205078125
41561,0.7929534912109375,-0.683319091796875,0.09527587890625
41562,0.751708984375,-0.6902008056640625,0.107574462890625
41563,0.71160888671875,-0.700958251953125,0.129150390625
41564,0.6755828857421875,-0.7138671875,0.1580352783203125
41565,0.646514892578125,-0.7255706787109375,0.2025909423828125
41566,0.6240386962890625,-0.73651123046875,0.25555419921875
41567,0.6013336181640625,-0.7435302734375,0.28656005859375
41568,0.578216552734375,-0.748687744140625,0.302490234375
41569,0.5564422607421875,-0.756317138671875,0.300323486328125
41570,0.540740966796875,-0.761260986328125,0.2825775146484375
41571,0.533447265625,-0.7624359130859375,0.2544097900390625
41572,0.526519775390625,-0.7541351318359375,0.2275238037109375
41573,0.52386474609375,-0.739410400390625,0.2035064697265625
41574,0.5330810546875,-0.7215728759765625,0.1898193359375
41575,0.554168701171875,-0.69921875,0.2022857666015625
41576,0.5886077880859375,-0.6832275390625,0.225830078125
41577,0.6319122314453125,-0.6793365478515625,0.247161865234375
41578,0.6798248291015625,-0.6834869384765625,0.25714111328125
41579,0.7284698486328125,-0.6940460205078125,0.2603759765625
41580,0.7552947998046875,-0.705352783203125,0.26617431640625
41581,0.759307861328125,-0.717437744140625,0.246368408203125
41582,0.750030517578125,-0.7283477783203125,0.2012786865234375
41583,0.73138427734375,-0.7303466796875,0.166534423828125
41584,0.71551513671875,-0.72283935546875,0.15185546875
41585,0.7005615234375,-0.70587158203125,0.158172607421875
41586,0.6898193359375,-0.6820068359375,0.1481475830078125
41587,0.69384765625,-0.667083740234375,0.1398162841796875
41588,0.706756591796875,-0.6621856689453125,0.1614227294921875
41589,0.730712890625,-0.6641998291015625,0.1959381103515625
41590,0.762298583984375,-0.6659698486328125,0.2388763427734375
41591,0.7808685302734375,-0.6724853515625,0.2681884765625
41592,0.7667083740234375,-0.686981201171875,0.259552001953125
41593,0.7158203125,-0.7061767578125,0.272216796875
41594,0.6471710205078125,-0.728363037109375,0.2892303466796875
41595,0.5815887451171875,-0.742889404296875,0.2968902587890625
41596,0.5363006591796875,-0.74517822265625,0.3193817138671875
41597,0.5231475830078125,-0.7396392822265625,0.349456787109375
41598,0.5330810546875,-0.7310333251953125,0.3525238037109375
41599,0.5414886474609375,-0.7321014404296875,0.3323974609375
41600,0.54547119140625,-0.740875244140625,0.300048828125
41601,0.5475311279296875,-0.75177001953125,0.25958251953125
41602,0.55413818359375,-0.759613037109375,0.218048095703125
41603,0.55987548828125,-0.747283935546875,0.18701171875
41604,0.57122802734375,-0.7191162109375,0.166046142578125
41605,0.6072998046875,-0.6827545166015625,0.135467529296875
41606,0.6677703857421875,-0.648101806640625,0.1110992431640625
41607,0.7308807373046875,-0.62908935546875,0.1141357421875
41608,0.7738037109375,-0.6252899169921875,0.125885009765625
41609,0.78631591796875,-0.63153076171875,0.150115966796875
41610,0.776214599609375,-0.6380157470703125,0.1755828857421875
41611,0.7490234375,-0.646514892578125,0.1952972412109375
41612,0.7084503173828125,-0.6591339111328125,0.2153472900390625
41613,0.662353515625,-0.670013427734375,0.254974365234375
41614,0.6170806884765625,-0.6768951416015625,0.2905120849609375
41615,0.577972412109375,-0.6811065673828125,0.311553955078125
41616,0.5543060302734375,-0.6847076416015625,0.314697265625
41617,0.5450592041015625,-0.6871185302734375,0.3011474609375
41618,0.5445709228515625,-0.6851806640625,0.273712158203125
41619,0.5440521240234375,-0.6755218505859375,0.243499755859375
41620,0.54278564453125,-0.6602630615234375,0.219390869140625
41621,0.53619384765625,-0.6470489501953125,0.1876983642578125
41622,0.5293121337890625,-0.6461334228515625,0.150909423828125
41623,0.5267333984375,-0.661041259765625,0.1219024658203125
41624,0.5385589599609375,-0.6842498779296875,0.1051483154296875
41625,0.5670166015625,-0.706634521484375,0.1050262451171875
41626,0.59820556640625,-0.7254791259765625,0.1261138916015625
41627,0.6240234375,-0.7436981201171875,0.1578216552734375
41628,0.6417388916015625,-0.7601470947265625,0.1879119873046875
41629,0.6499786376953125,-0.77288818359375,0.206634521484375
41630,0.644378662109375,-0.78973388671875,0.220977783203125
41631,0.62646484375,-0.8142242431640625,0.2318115234375
41632,0.601409912109375,-0.8524627685546875,0.242156982421875
41633,0.5725555419921875,-0.90301513671875,0.267913818359375
41634,0.5447845458984375,-0.9621429443359376,0.3062286376953125
41635,0.5301513671875,-1.015289306640625,0.347869873046875
41636,0.5374603271484375,-1.05401611328125,0.3912811279296875
41637,0.56463623046875,-1.068252563476562,0.4140167236328125
41638,0.599365234375,-1.049041748046875,0.40545654296875
41639,0.6337127685546875,-1.009979248046875,0.38360595703125
41640,0.663299560546875,-0.9717559814453124,0.3499908447265625
41641,0.6874847412109375,-0.9454345703125,0.3123321533203125
41642,0.710479736328125,-0.9255218505859376,0.28759765625
41643,0.74139404296875,-0.900482177734375,0.281890869140625
41644,0.781463623046875,-0.8698272705078125,0.275054931640625
41645,0.82183837890625,-0.838592529296875,0.25164794921875
41646,0.848785400390625,-0.8101043701171875,0.212738037109375
41647,0.860626220703125,-0.7895050048828125,0.1727294921875
41648,0.8605804443359375,-0.766204833984375,0.1505279541015625
41649,0.8545684814453125,-0.734893798828125,0.1364898681640625
41650,0.83538818359375,-0.698150634765625,0.1222991943359375
41651,0.805450439453125,-0.6562347412109375,0.1159210205078125
41652,0.77447509765625,-0.6212158203125,0.1128082275390625
41653,0.75,-0.5970916748046875,0.11993408203125
41654,0.735107421875,-0.5766143798828125,0.129486083984375
41655,0.71978759765625,-0.553497314453125,0.1482696533203125
41656,0.69720458984375,-0.53350830078125,0.179107666015625
41657,0.6706695556640625,-0.5270538330078125,0.204345703125
41658,0.6478729248046875,-0.5314483642578125,0.2340240478515625
41659,0.6390228271484375,-0.5395660400390625,0.2631378173828125
41660,0.64117431640625,-0.5421142578125,0.29132080078125
41661,0.6410064697265625,-0.5527496337890625,0.3224029541015625
41662,0.6331024169921875,-0.564361572265625,0.346405029296875
41663,0.617767333984375,-0.57427978515625,0.363372802734375
41664,0.5977935791015625,-0.588531494140625,0.3609161376953125
41665,0.57696533203125,-0.6116485595703125,0.3471221923828125
41666,0.5611114501953125,-0.63653564453125,0.3553619384765625
41667,0.554168701171875,-0.6584930419921875,0.372528076171875
41668,0.5489959716796875,-0.6700592041015625,0.3654327392578125
41669,0.548004150390625,-0.6793670654296875,0.3444671630859375
41670,0.5395965576171875,-0.684051513671875,0.325164794921875
41671,0.52978515625,-0.6878204345703125,0.32086181640625
41672,0.525115966796875,-0.702972412109375,0.3358612060546875
41673,0.52423095703125,-0.7213592529296875,0.355743408203125
41674,0.5324859619140625,-0.736572265625,0.367340087890625
41675,0.552978515625,-0.74945068359375,0.379150390625
41676,0.5766448974609375,-0.749053955078125,0.3852386474609375
41677,0.594390869140625,-0.739654541015625,0.397125244140625
41678,0.61016845703125,-0.727691650390625,0.4069976806640625
41679,0.6358489990234375,-0.7174835205078125,0.4060211181640625
41680,0.670013427734375,-0.7138671875,0.3960113525390625
41681,0.7094268798828125,-0.712890625,0.37957763671875
41682,0.7443389892578125,-0.7145538330078125,0.3696441650390625
41683,0.7708587646484375,-0.720703125,0.3712921142578125
41684,0.7888946533203125,-0.728271484375,0.3579254150390625
41685,0.7985076904296875,-0.7366943359375,0.3298187255859375
41686,0.7922210693359375,-0.73590087890625,0.2876129150390625
41687,0.7760772705078125,-0.7251739501953125,0.248626708984375
41688,0.765289306640625,-0.7064361572265625,0.2265625
41689,0.76983642578125,-0.6885223388671875,0.21319580078125
41690,0.788116455078125,-0.673736572265625,0.19879150390625
41691,0.82037353515625,-0.66290283203125,0.184234619140625
41692,0.8553466796875,-0.6599273681640625,0.1818084716796875
41693,0.875946044921875,-0.6684417724609375,0.1837310791015625
41694,0.8641204833984375,-0.6844482421875,0.1920166015625
41695,0.8117523193359375,-0.69451904296875,0.2205047607421875
41696,0.7370147705078125,-0.6972808837890625,0.258392333984375
41697,0.660980224609375,-0.6977691650390625,0.2846832275390625
41698,0.595062255859375,-0.6982421875,0.3027496337890625
41699,0.5458221435546875,-0.6951904296875,0.3196868896484375
41700,0.515625,-0.6902008056640625,0.326568603515625
41701,0.499725341796875,-0.68817138671875,0.328399658203125
41702,0.49542236328125,-0.6896820068359375,0.35186767578125
41703,0.5074615478515625,-0.7002410888671875,0.3923797607421875
41704,0.5384368896484375,-0.713653564453125,0.43499755859375
41705,0.58673095703125,-0.7255096435546875,0.45550537109375
41706,0.64129638671875,-0.738861083984375,0.4365997314453125
41707,0.682281494140625,-0.7470855712890625,0.4074859619140625
41708,0.7042999267578125,-0.7494659423828125,0.394134521484375
41709,0.7085418701171875,-0.7567138671875,0.392486572265625
41710,0.6881103515625,-0.7660980224609375,0.3809051513671875
41711,0.643341064453125,-0.7680816650390625,0.357269287109375
41712,0.588165283203125,-0.7603302001953125,0.3355865478515625
41713,0.53778076171875,-0.7455902099609375,0.3172454833984375
41714,0.491790771484375,-0.726776123046875,0.3048553466796875
41715,0.4514923095703125,-0.7139434814453125,0.3057861328125
41716,0.4273834228515625,-0.7135467529296875,0.3240966796875
41717,0.431304931640625,-0.726043701171875,0.3444061279296875
41718,0.4615020751953125,-0.745269775390625,0.366180419921875
41719,0.500946044921875,-0.759613037109375,0.3848724365234375
41720,0.535797119140625,-0.76812744140625,0.3948516845703125
41721,0.5526885986328125,-0.7685546875,0.39715576171875
41722,0.545013427734375,-0.7581024169921875,0.3955535888671875
41723,0.5188140869140625,-0.739501953125,0.3968048095703125
41724,0.4927978515625,-0.7164764404296875,0.3819427490234375
41725,0.4796905517578125,-0.6950531005859375,0.3448944091796875
41726,0.4792633056640625,-0.6789093017578125,0.292938232421875
41727,0.482879638671875,-0.672943115234375,0.249053955078125
41728,0.4914398193359375,-0.6680145263671875,0.2191162109375
41729,0.5074462890625,-0.649566650390625,0.1918792724609375
41730,0.53668212890625,-0.6212005615234375,0.1882781982421875
41731,0.582733154296875,-0.5953216552734375,0.1948089599609375
41732,0.62579345703125,-0.5767059326171875,0.175018310546875
41733,0.6512603759765625,-0.57080078125,0.1442718505859375
41734,0.66351318359375,-0.5804443359375,0.1310882568359375
41735,0.6674346923828125,-0.611541748046875,0.1463165283203125
41736,0.670074462890625,-0.6555023193359375,0.1846923828125
41737,0.661590576171875,-0.6944732666015625,0.2357940673828125
41738,0.6376800537109375,-0.728607177734375,0.2905426025390625
41739,0.5994873046875,-0.7553863525390625,0.3236236572265625
41740,0.5488433837890625,-0.7834014892578125,0.331939697265625
41741,0.4842987060546875,-0.82537841796875,0.334075927734375
41742,0.4146575927734375,-0.8773345947265625,0.33856201171875
41743,0.3676910400390625,-0.9224090576171876,0.33892822265625
41744,0.363189697265625,-0.9532623291015624,0.35101318359375
41745,0.4073638916015625,-0.958770751953125,0.3738555908203125
41746,0.490570068359375,-0.9387664794921876,0.3899993896484375
41747,0.588836669921875,-0.9056243896484376,0.3914947509765625
41748,0.678985595703125,-0.8787689208984375,0.376800537109375
41749,0.7436065673828125,-0.862030029296875,0.3568115234375
41750,0.78466796875,-0.8454742431640625,0.3559112548828125
41751,0.8142852783203125,-0.833343505859375,0.3618316650390625
41752,0.8349761962890625,-0.821441650390625,0.3477020263671875
41753,0.85760498046875,-0.800811767578125,0.3227691650390625
41754,0.884979248046875,-0.769744873046875,0.296722412109375
41755,0.9100494384765624,-0.7403717041015625,0.2672576904296875
41756,0.9248504638671876,-0.7142181396484375,0.2457122802734375
41757,0.9225616455078124,-0.6934356689453125,0.23333740234375
41758,0.900390625,-0.6802978515625,0.215789794921875
41759,0.86181640625,-0.6690216064453125,0.1954803466796875
41760,0.8135528564453125,-0.6649932861328125,0.182342529296875
41761,0.7608489990234375,-0.662872314453125,0.176971435546875
41762,0.7193603515625,-0.65673828125,0.1735687255859375
41763,0.69439697265625,-0.651611328125,0.1727142333984375
41764,0.6806182861328125,-0.6535491943359375,0.17181396484375
41765,0.668731689453125,-0.663116455078125,0.1736602783203125
41766,0.655181884765625,-0.6717071533203125,0.1842803955078125
41767,0.6385040283203125,-0.6769866943359375,0.188873291015625
41768,0.6163787841796875,-0.67913818359375,0.1805419921875
41769,0.5883941650390625,-0.67730712890625,0.18133544921875
41770,0.558502197265625,-0.675262451171875,0.197998046875
41771,0.5326385498046875,-0.6791839599609375,0.21044921875
41772,0.5123291015625,-0.6876678466796875,0.2215423583984375
41773,0.4890899658203125,-0.6988677978515625,0.2364959716796875
41774,0.4637908935546875,-0.71221923828125,0.238739013671875
41775,0.4458770751953125,-0.720123291015625,0.2257232666015625
41776,0.4378509521484375,-0.7264862060546875,0.206939697265625
41777,0.443939208984375,-0.736602783203125,0.1887969970703125
41778,0.4595489501953125,-0.73773193359375,0.1920623779296875
41779,0.4805755615234375,-0.7340545654296875,0.2016754150390625
41780,0.49481201171875,-0.73297119140625,0.2047882080078125
41781,0.49951171875,-0.736846923828125,0.20794677734375
41782,0.498382568359375,-0.7473297119140625,0.2217864990234375
41783,0.49456787109375,-0.7601776123046875,0.2353973388671875
41784,0.488525390625,-0.7752685546875,0.2481689453125
41785,0.4798583984375,-0.7973785400390625,0.262115478515625
41786,0.462860107421875,-0.811676025390625,0.263671875
41787,0.439300537109375,-0.8152923583984375,0.247100830078125
41788,0.4163055419921875,-0.81768798828125,0.218658447265625
41789,0.4052581787109375,-0.81842041015625,0.1962890625
41790,0.4193878173828125,-0.8088226318359375,0.1859283447265625
41791,0.4636993408203125,-0.787872314453125,0.189208984375
41792,0.52734375,-0.7714996337890625,0.1870880126953125
41793,0.5923614501953125,-0.7639617919921875,0.17486572265625
41794,0.6480712890625,-0.7627716064453125,0.1685333251953125
41795,0.6911468505859375,-0.76971435546875,0.169403076171875
41796,0.70538330078125,-0.79296875,0.1890411376953125
41797,0.67840576171875,-0.8385772705078125,0.2324981689453125
41798,0.6063690185546875,-0.9127349853515624,0.281829833984375
41799,0.50244140625,-0.985595703125,0.34857177734375
41800,0.4015655517578125,-1.038726806640625,0.4262847900390625
41801,0.3413238525390625,-1.068695068359375,0.4825592041015625
41802,0.326446533203125,-1.068695068359375,0.490020751953125
41803,0.3476104736328125,-1.033111572265625,0.46453857421875
41804,0.402587890625,-0.9796905517578124,0.43829345703125
41805,0.4741668701171875,-0.927703857421875,0.414886474609375
41806,0.551239013671875,-0.869415283203125,0.389801025390625
41807,0.6340179443359375,-0.8101959228515625,0.3746490478515625
41808,0.7193145751953125,-0.76239013671875,0.3666534423828125
41809,0.8015594482421875,-0.7213287353515625,0.363922119140625
41810,0.8700714111328125,-0.68914794921875,0.3708648681640625
41811,0.907867431640625,-0.6756591796875,0.36871337890625
41812,0.90692138671875,-0.6822357177734375,0.3542938232421875
41813,0.863555908203125,-0.704498291015625,0.33392333984375
41814,0.7927093505859375,-0.7230072021484375,0.31561279296875
41815,0.7156829833984375,-0.7294769287109375,0.3081817626953125
41816,0.6452484130859375,-0.735687255859375,0.3072967529296875
41817,0.5796661376953125,-0.7447967529296875,0.3246307373046875
41818,0.521575927734375,-0.7545166015625,0.373870849609375
41819,0.469482421875,-0.7721099853515625,0.432098388671875
41820,0.4097747802734375,-0.7923126220703125,0.4909515380859375
41821,0.333953857421875,-0.80157470703125,0.5330963134765625
41822,0.2640838623046875,-0.802520751953125,0.557830810546875
41823,0.2114715576171875,-0.808074951171875,0.5814056396484375
41824,0.1839141845703125,-0.81060791015625,0.5928802490234375
41825,0.187744140625,-0.7978973388671875,0.5869598388671875
41826,0.235198974609375,-0.7720489501953125,0.5424346923828125
41827,0.3190765380859375,-0.731231689453125,0.4655303955078125
41828,0.415618896484375,-0.68719482421875,0.3925628662109375
41829,0.5091094970703125,-0.658538818359375,0.3379364013671875
41830,0.5896453857421875,-0.6519012451171875,0.308746337890625
41831,0.6631927490234375,-0.663482666015625,0.3024749755859375
41832,0.73675537109375,-0.686492919921875,0.3263397216796875
41833,0.803741455078125,-0.7183990478515625,0.3470458984375
41834,0.838958740234375,-0.7521820068359375,0.3581085205078125
41835,0.821807861328125,-0.7834625244140625,0.3609161376953125
41836,0.7433929443359375,-0.801666259765625,0.3372802734375
41837,0.6246337890625,-0.7887115478515625,0.3042449951171875
41838,0.5015411376953125,-0.75360107421875,0.2949371337890625
41839,0.3928985595703125,-0.720367431640625,0.289031982421875
41840,0.30804443359375,-0.713409423828125,0.2842254638671875
41841,0.2737274169921875,-0.73919677734375,0.303741455078125
41842,0.292022705078125,-0.7929229736328125,0.3362274169921875
41843,0.344573974609375,-0.855987548828125,0.3656768798828125
41844,0.412078857421875,-0.903564453125,0.3788299560546875
41845,0.4887237548828125,-0.9349212646484376,0.383087158203125
41846,0.5593109130859375,-0.95770263671875,0.37078857421875
41847,0.5960845947265625,-0.97381591796875,0.3485107421875
41848,0.587432861328125,-0.9792327880859376,0.3251800537109375
41849,0.5467987060546875,-0.990966796875,0.2963714599609375
41850,0.4797821044921875,-1.011962890625,0.2734832763671875
41851,0.396575927734375,-1.03033447265625,0.24908447265625
41852,0.3143463134765625,-1.046417236328125,0.2205352783203125
41853,0.2478485107421875,-1.053268432617188,0.206451416015625
41854,0.1962890625,-1.046478271484375,0.2190093994140625
41855,0.1620635986328125,-1.027923583984375,0.2527313232421875
41856,0.163330078125,-1.003753662109375,0.29315185546875
41857,0.2002410888671875,-0.9868011474609376,0.326324462890625
41858,0.2497711181640625,-0.9813232421875,0.360626220703125
41859,0.2813568115234375,-0.9763946533203124,0.3946685791015625
41860,0.29278564453125,-0.9637908935546876,0.405059814453125
41861,0.3009185791015625,-0.945281982421875,0.3767242431640625
41862,0.3177642822265625,-0.919036865234375,0.3212738037109375
41863,0.3409271240234375,-0.8897247314453125,0.2653961181640625
41864,0.3654937744140625,-0.856109619140625,0.2252197265625
41865,0.3903961181640625,-0.8273773193359375,0.21197509765625
41866,0.4036102294921875,-0.813262939453125,0.206329345703125
41867,0.386260986328125,-0.810760498046875,0.2017974853515625
41868,0.3486328125,-0.8165740966796875,0.209075927734375
41869,0.32080078125,-0.8165283203125,0.220916748046875
41870,0.3148345947265625,-0.810150146484375,0.217803955078125
41871,0.3223724365234375,-0.8045196533203125,0.216461181640625
41872,0.3358612060546875,-0.8058929443359375,0.204833984375
41873,0.3620147705078125,-0.80731201171875,0.185638427734375
41874,0.4008331298828125,-0.8015899658203125,0.17681884765625
41875,0.4416046142578125,-0.7948455810546875,0.1681365966796875
41876,0.4805908203125,-0.7939910888671875,0.1529998779296875
41877,0.519378662109375,-0.7984161376953125,0.156402587890625
41878,0.5635223388671875,-0.8088226318359375,0.1842041015625
41879,0.604644775390625,-0.827423095703125,0.215576171875
41880,0.617828369140625,-0.846588134765625,0.240997314453125
41881,0.598785400390625,-0.864166259765625,0.246307373046875
41882,0.572052001953125,-0.88153076171875,0.22625732421875
41883,0.5753326416015625,-0.90509033203125,0.2109832763671875
41884,0.6210784912109375,-0.9403533935546876,0.235992431640625
41885,0.674591064453125,-0.9856414794921876,0.3187713623046875
41886,0.6926116943359375,-1.040054321289062,0.447113037109375
41887,0.6547393798828125,-1.090972900390625,0.5430908203125
41888,0.5667266845703125,-1.127532958984375,0.5468292236328125
41889,0.44476318359375,-1.144363403320312,0.4615936279296875
41890,0.3165435791015625,-1.142837524414062,0.31915283203125
41891,0.227783203125,-1.119796752929688,0.1922149658203125
41892,0.214019775390625,-1.07989501953125,0.13189697265625
41893,0.267242431640625,-1.030044555664062,0.1340179443359375
41894,0.3365020751953125,-0.985382080078125,0.1952056884765625
41895,0.392547607421875,-0.95263671875,0.2747039794921875
41896,0.42730712890625,-0.9134521484375,0.3031463623046875
41897,0.4440460205078125,-0.8544158935546875,0.2679443359375
41898,0.4554595947265625,-0.7857818603515625,0.192779541015625
41899,0.473602294921875,-0.7147674560546875,0.1063232421875
41900,0.4858551025390625,-0.64971923828125,0.035888671875
41901,0.4829559326171875,-0.600128173828125,0.003570556640625
41902,0.474151611328125,-0.5726470947265625,0.0095062255859375
41903,0.4689788818359375,-0.565460205078125,0.044647216796875
41904,0.4708099365234375,-0.576080322265625,0.080963134765625
41905,0.4791259765625,-0.60089111328125,0.115447998046875
41906,0.4852447509765625,-0.6330108642578125,0.1453857421875
41907,0.479644775390625,-0.660003662109375,0.1699981689453125
41908,0.4676055908203125,-0.674713134765625,0.1854705810546875
41909,0.4600982666015625,-0.6793975830078125,0.1853790283203125
41910,0.4614715576171875,-0.6820220947265625,0.18743896484375
41911,0.4647674560546875,-0.69134521484375,0.1969451904296875
41912,0.470489501953125,-0.71502685546875,0.2103729248046875
41913,0.4921417236328125,-0.750457763671875,0.2375946044921875
41914,0.5184478759765625,-0.7890167236328125,0.285888671875
41915,0.524658203125,-0.824737548828125,0.3425445556640625
41916,0.4963836669921875,-0.867431640625,0.3874359130859375
41917,0.4325408935546875,-0.911865234375,0.3880615234375
41918,0.3455352783203125,-0.9471435546875,0.34063720703125
41919,0.2541351318359375,-0.978057861328125,0.2818450927734375
41920,0.185455322265625,-0.99908447265625,0.248565673828125
41921,0.179595947265625,-0.9938201904296876,0.2519378662109375
41922,0.2591400146484375,-0.9620513916015624,0.2745361328125
41923,0.3833160400390625,-0.9196929931640624,0.3136138916015625
41924,0.5089569091796875,-0.8835296630859375,0.37451171875
41925,0.613800048828125,-0.86639404296875,0.4436798095703125
41926,0.68011474609375,-0.8767547607421875,0.52105712890625
41927,0.7044677734375,-0.915618896484375,0.5877685546875
41928,0.711456298828125,-0.96221923828125,0.60467529296875
41929,0.724884033203125,-0.9903564453125,0.5561370849609375
41930,0.7375640869140625,-0.9861907958984376,0.461761474609375
41931,0.7424468994140625,-0.9501953125,0.348419189453125
41932,0.735198974609375,-0.8910675048828125,0.241912841796875
41933,0.7147064208984375,-0.8408203125,0.171783447265625
41934,0.6700897216796875,-0.8364410400390625,0.160980224609375
41935,0.608367919921875,-0.8694000244140625,0.19171142578125
41936,0.54742431640625,-0.905426025390625,0.2198333740234375
41937,0.492156982421875,-0.9386138916015624,0.2296142578125
41938,0.4361114501953125,-0.9570159912109376,0.220733642578125
41939,0.3805694580078125,-0.956298828125,0.1981201171875
41940,0.335601806640625,-0.9503021240234376,0.1707611083984375
41941,0.307037353515625,-0.9445648193359376,0.1593017578125
41942,0.2941131591796875,-0.939910888671875,0.1597900390625
41943,0.2878875732421875,-0.9239044189453124,0.17022705078125
41944,0.282501220703125,-0.89208984375,0.1921539306640625
41945,0.2906036376953125,-0.8542938232421875,0.2205657958984375
41946,0.3201904296875,-0.8166046142578125,0.2479248046875
41947,0.370269775390625,-0.7831573486328125,0.2758331298828125
41948,0.4273223876953125,-0.7508392333984375,0.30426025390625
41949,0.4815216064453125,-0.719696044921875,0.317657470703125
41950,0.5131072998046875,-0.6952056884765625,0.3245391845703125
41951,0.50946044921875,-0.682373046875,0.3177337646484375
41952,0.4767913818359375,-0.6743316650390625,0.2942352294921875
