time_idx,accelerometerAccelerationX(G),accelerometerAccelerationY(G),accelerometerAccelerationZ(G)
180000,-0.4535675048828125,-0.174530029296875,0.32958984375
180001,-0.400115966796875,-0.4298248291015625,0.4464874267578125
180002,-0.227813720703125,-0.6993255615234375,0.4061737060546875
180003,0.001953125,-0.8955841064453125,0.33563232421875
180004,0.324127197265625,-1.025161743164062,0.4352874755859375
180005,0.8006591796875,-1.149002075195312,0.4839630126953125
180006,1.5087890625,-1.21478271484375,0.392730712890625
180007,2.327545166015625,-1.189910888671875,0.6853485107421875
180008,3.051605224609375,-1.207366943359375,0.6803436279296875
180009,3.285629272460938,-1.478225708007812,0.2584991455078125
180010,2.828338623046875,-2.118423461914062,0.146484375
180011,1.995330810546875,-2.871047973632812,0.0316009521484375
180012,1.449859619140625,-3.192779541015625,-0.2152557373046875
180013,1.457870483398438,-2.858001708984375,-0.3766632080078125
180014,1.734207153320312,-2.216506958007812,-0.2724151611328125
180015,1.931640625,-1.821502685546875,-0.1534881591796875
180016,2.070724487304688,-1.59130859375,-0.1801300048828125
180017,2.18548583984375,-1.4195556640625,-0.1965179443359375
180018,2.186248779296875,-1.242523193359375,-0.177398681640625
180019,2.041412353515625,-0.9844207763671876,-0.1671600341796875
180020,1.79180908203125,-0.6442718505859375,-0.2189788818359375
180021,1.49163818359375,-0.29534912109375,-0.2919464111328125
180022,1.183242797851562,-0.0369720458984375,-0.332733154296875
180023,0.8818206787109375,0.0915069580078125,-0.3040008544921875
180024,0.604827880859375,0.1303253173828125,-0.2485809326171875
180025,0.3829345703125,0.1357879638671875,-0.2211151123046875
180026,0.20989990234375,0.1447906494140625,-0.174224853515625
180027,0.0843505859375,0.15753173828125,-0.1444091796875
180028,-0.036651611328125,0.1313323974609375,-0.128143310546875
180029,-0.150726318359375,0.095611572265625,-0.0865631103515625
180030,-0.22393798828125,0.079345703125,-0.10400390625
180031,-0.269622802734375,0.0708770751953125,-0.0735931396484375
180032,-0.3253936767578125,0.0742645263671875,0.0195159912109375
180033,-0.334625244140625,0.0962982177734375,0.173370361328125
180034,-0.1733856201171875,0.1260986328125,0.38348388671875
180035,0.0926666259765625,0.10107421875,0.45916748046875
180036,0.38385009765625,-0.003814697265625,0.434539794921875
180037,0.5379791259765625,-0.12261962890625,0.2401275634765625
180038,0.4288330078125,-0.200775146484375,-0.07635498046875
180039,0.1764984130859375,-0.204986572265625,-0.1269989013671875
180040,-0.0511932373046875,-0.1560211181640625,0.0130767822265625
180041,-0.2903594970703125,-0.1034393310546875,0.1644744873046875
180042,-0.48834228515625,-0.0753326416015625,0.2658538818359375
180043,-0.552093505859375,-0.1197662353515625,0.2560882568359375
180044,-0.4256744384765625,-0.280059814453125,0.1854095458984375
180045,-0.09906005859375,-0.5634613037109375,0.215240478515625
180046,0.4414825439453125,-0.9011077880859376,0.4425506591796875
180047,0.8891754150390625,-1.289520263671875,0.6842803955078125
180048,1.0548095703125,-1.796676635742188,0.952056884765625
180049,0.889251708984375,-2.258453369140625,0.9869537353515624
180050,0.5086517333984375,-2.156829833984375,0.9301300048828124
180051,0.1529388427734375,-1.774795532226562,0.9287567138671876
180052,-0.1185150146484375,-1.733200073242188,0.964385986328125
180053,-0.270477294921875,-1.84979248046875,1.003005981445312
180054,-0.0486907958984375,-1.903564453125,0.69818115234375
180055,0.3309326171875,-1.89068603515625,0.7100830078125
180056,0.6087799072265625,-1.8203125,0.9119110107421876
180057,0.8372039794921875,-1.73101806640625,0.7868499755859375
180058,0.93206787109375,-1.590240478515625,0.587860107421875
180059,0.9055633544921876,-1.319869995117188,0.41900634765625
180060,0.861602783203125,-0.9697113037109376,0.277801513671875
180061,0.789642333984375,-0.6835174560546875,0.1409149169921875
180062,0.7379913330078125,-0.4921722412109375,0.0222015380859375
180063,0.7487335205078125,-0.2884979248046875,-0.0544891357421875
180064,0.8250274658203125,-0.0846099853515625,-0.08123779296875
180065,0.889007568359375,0.1211700439453125,-0.091644287109375
180066,0.9266204833984376,0.2778167724609375,-0.066314697265625
180067,0.9051055908203124,0.3479461669921875,-0.0677032470703125
180068,0.72540283203125,0.3428955078125,-0.161407470703125
180069,0.395904541015625,0.3111114501953125,-0.2520904541015625
180070,0.0283203125,0.3199615478515625,-0.3038330078125
180071,-0.2431488037109375,0.3380126953125,-0.2414703369140625
180072,-0.3190460205078125,0.3141632080078125,-0.0848388671875
180073,-0.2568206787109375,0.312408447265625,0.0276031494140625
180074,-0.073638916015625,0.2799835205078125,0.1278228759765625
180075,0.2480010986328125,0.1753997802734375,0.201019287109375
180076,0.5711517333984375,0.0693359375,0.3104248046875
180077,0.8456573486328125,-0.0773162841796875,0.4085540771484375
180078,0.998138427734375,-0.2894287109375,0.3717803955078125
180079,0.8764495849609375,-0.5795745849609375,0.14532470703125
180080,0.4691925048828125,-0.887420654296875,-0.137939453125
180081,-0.047637939453125,-1.056396484375,-0.423065185546875
180082,-0.3572845458984375,-0.962677001953125,-0.5375823974609375
180083,-0.2733001708984375,-0.725555419921875,-0.225006103515625
180084,0.3773345947265625,-0.54229736328125,0.660186767578125
180085,1.481552124023438,-0.512481689453125,1.488006591796875
180086,2.762496948242188,-0.8641815185546875,1.56011962890625
180087,3.52008056640625,-1.80047607421875,0.703704833984375
180088,3.217025756835938,-2.905242919921875,0.1040191650390625
180089,2.17218017578125,-3.158233642578125,0.2163543701171875
180090,1.533096313476562,-2.428955078125,0.59283447265625
180091,1.649459838867188,-1.82379150390625,0.6652984619140625
180092,1.99853515625,-1.662384033203125,0.2556304931640625
180093,2.21978759765625,-1.498580932617188,-0.110687255859375
180094,2.325485229492188,-1.302978515625,-0.1479644775390625
180095,2.336700439453125,-1.110198974609375,-0.1519775390625
180096,2.220779418945312,-0.927520751953125,-0.20635986328125
180097,1.956680297851562,-0.719879150390625,-0.2440338134765625
180098,1.605712890625,-0.4710845947265625,-0.3118896484375
180099,1.2752685546875,-0.2253265380859375,-0.41192626953125
180100,1.0076904296875,-0.0205841064453125,-0.4732208251953125
180101,0.7985992431640625,0.13897705078125,-0.4253082275390625
180102,0.6637420654296875,0.234466552734375,-0.293975830078125
180103,0.5922393798828125,0.280181884765625,-0.16253662109375
180104,0.536590576171875,0.2914886474609375,-0.1490936279296875
180105,0.44293212890625,0.2645721435546875,-0.14031982421875
180106,0.3303985595703125,0.2273101806640625,-0.072540283203125
180107,0.2051849365234375,0.181060791015625,0.0145416259765625
180108,0.0624847412109375,0.118865966796875,0.1334686279296875
180109,-0.04864501953125,0.0508575439453125,0.1989288330078125
180110,-0.1242828369140625,0.001708984375,0.1804351806640625
180111,-0.1755828857421875,-0.059906005859375,0.132049560546875
180112,-0.1589813232421875,-0.086212158203125,0.1567230224609375
180113,-0.094573974609375,-0.092559814453125,0.1141357421875
180114,0.0340118408203125,-0.1310577392578125,0.0781402587890625
180115,0.101043701171875,-0.1698760986328125,0.0161590576171875
180116,0.0189666748046875,-0.199005126953125,-0.1125030517578125
180117,-0.120697021484375,-0.2076873779296875,-0.14398193359375
180118,-0.22564697265625,-0.1721038818359375,-0.0639801025390625
180119,-0.2680511474609375,-0.0943756103515625,0.0717010498046875
180120,-0.202880859375,-0.0280609130859375,0.1847076416015625
180121,0.007598876953125,-0.0215606689453125,0.2581634521484375
180122,0.2835540771484375,-0.128082275390625,0.2700347900390625
180123,0.629638671875,-0.3643035888671875,0.4012451171875
180124,0.86962890625,-0.6631011962890625,0.5386810302734375
180125,0.9369659423828124,-1.00567626953125,0.4838104248046875
180126,1.044540405273438,-1.414947509765625,0.452392578125
180127,1.173370361328125,-1.860504150390625,0.7636260986328125
180128,1.031341552734375,-2.04473876953125,1.302764892578125
180129,0.684234619140625,-1.979248046875,1.502655029296875
180130,0.460479736328125,-1.82025146484375,1.255401611328125
180131,0.3386383056640625,-1.618667602539062,1.077667236328125
180132,0.2716064453125,-1.561981201171875,0.8255157470703125
180133,0.44573974609375,-1.55419921875,0.5467376708984375
180134,0.62628173828125,-1.575942993164062,0.5859375
180135,0.714630126953125,-1.62628173828125,0.67822265625
180136,0.7130126953125,-1.547317504882812,0.645416259765625
180137,0.6436309814453125,-1.285125732421875,0.532867431640625
180138,0.5611419677734375,-0.937469482421875,0.4772796630859375
180139,0.516937255859375,-0.592132568359375,0.423126220703125
180140,0.4708099365234375,-0.3299713134765625,0.2515716552734375
180141,0.4584808349609375,-0.1411590576171875,-0.035552978515625
180142,0.5133056640625,-0.0127716064453125,-0.1987457275390625
180143,0.5561065673828125,0.0502777099609375,-0.1466827392578125
180144,0.5909881591796875,0.097259521484375,-0.070953369140625
180145,0.700286865234375,0.1082916259765625,-0.003204345703125
180146,0.7985076904296875,0.142822265625,-0.0267791748046875
180147,0.77276611328125,0.22296142578125,-0.0890350341796875
180148,0.6219024658203125,0.2831268310546875,-0.3495025634765625
180149,0.320831298828125,0.3554229736328125,-0.3185882568359375
180150,0.045501708984375,0.3180084228515625,-0.0263519287109375
180151,-0.1080474853515625,0.172515869140625,0.0699310302734375
180152,-0.1157379150390625,-0.0297088623046875,-0.0019378662109375
180153,-0.042327880859375,-0.2095184326171875,-0.0546722412109375
180154,0.0034027099609375,-0.327789306640625,-0.0653533935546875
180155,-0.008544921875,-0.4201507568359375,-0.1390533447265625
180156,-0.060455322265625,-0.488037109375,-0.2909088134765625
180157,-0.03985595703125,-0.534942626953125,-0.294677734375
180158,0.1439666748046875,-0.5964508056640625,0.0130615234375
180159,0.42303466796875,-0.6619415283203125,0.4343414306640625
180160,0.703216552734375,-0.7827606201171875,0.8981475830078125
180161,1.141311645507812,-0.929962158203125,1.131683349609375
180162,1.860122680664062,-1.042709350585938,1.069549560546875
180163,2.486083984375,-1.310134887695312,0.5827789306640625
180164,2.594100952148438,-1.834548950195312,0.2050628662109375
180165,2.10302734375,-2.500015258789062,0.139984130859375
180166,1.597763061523438,-2.828216552734375,-0.0223846435546875
180167,1.453018188476562,-2.613983154296875,-0.181610107421875
180168,1.61187744140625,-2.199859619140625,-0.1916961669921875
180169,1.843643188476562,-1.877731323242188,-0.1303863525390625
180170,1.987228393554688,-1.656646728515625,-0.1417999267578125
180171,2.0101318359375,-1.535842895507812,-0.169677734375
180172,1.952423095703125,-1.40087890625,-0.1879119873046875
180173,1.892501831054688,-1.17755126953125,-0.282684326171875
180174,1.82537841796875,-0.900360107421875,-0.4544677734375
180175,1.725326538085938,-0.58367919921875,-0.6199798583984375
180176,1.594833374023438,-0.267852783203125,-0.7295074462890625
180177,1.435012817382812,0.001800537109375,-0.785308837890625
180178,1.228225708007812,0.2056121826171875,-0.7162933349609375
180179,1.008270263671875,0.3264007568359375,-0.5546417236328125
180180,0.8039703369140625,0.3784637451171875,-0.4387969970703125
180181,0.6156158447265625,0.4060211181640625,-0.323516845703125
180182,0.419281005859375,0.3994140625,-0.3083038330078125
180183,0.2064208984375,0.35089111328125,-0.374542236328125
180184,-0.00860595703125,0.2423553466796875,-0.324493408203125
180185,-0.162322998046875,0.0964202880859375,-0.1689453125
180186,-0.249359130859375,-0.037139892578125,-0.0648193359375
180187,-0.241851806640625,-0.1518402099609375,0.0395660400390625
180188,-0.16375732421875,-0.208984375,0.116363525390625
180189,-0.066253662109375,-0.1039276123046875,0.1405029296875
180190,0.0933074951171875,0.051971435546875,0.2823944091796875
180191,0.3222808837890625,0.09619140625,0.4821624755859375
180192,0.54302978515625,0.05682373046875,0.4911041259765625
180193,0.54083251953125,-0.0007476806640625,0.3750457763671875
180194,0.360137939453125,-0.0546417236328125,0.3312225341796875
180195,0.1187896728515625,-0.060211181640625,0.3514251708984375
180196,-0.232421875,-0.0892333984375,0.4185638427734375
180197,-0.6085205078125,-0.1572418212890625,0.37713623046875
180198,-0.83404541015625,-0.29010009765625,0.171844482421875
180199,-0.831787109375,-0.589019775390625,-0.0030517578125
180200,-0.4999847412109375,-1.04461669921875,0.0132598876953125
180201,0.1997222900390625,-1.3843994140625,0.1076812744140625
180202,0.9070281982421876,-1.667770385742188,0.3668670654296875
180203,1.172164916992188,-2.068069458007812,0.7816925048828125
180204,0.9026947021484376,-2.27783203125,1.085037231445312
180205,0.4986724853515625,-1.956649780273438,1.000747680664062
180206,0.2759246826171875,-1.55413818359375,1.009017944335938
180207,0.096710205078125,-1.470260620117188,1.11248779296875
180208,0.0905609130859375,-1.62713623046875,0.836334228515625
180209,0.2962646484375,-1.839569091796875,0.69366455078125
180210,0.4925079345703125,-1.936859130859375,0.90594482421875
180211,0.66094970703125,-1.878402709960938,0.930389404296875
180212,0.7460174560546875,-1.653045654296875,0.685272216796875
180213,0.71466064453125,-1.358169555664062,0.4380645751953125
180214,0.6397705078125,-1.08026123046875,0.2627410888671875
180215,0.6016387939453125,-0.8092803955078125,0.17962646484375
180216,0.5997467041015625,-0.5400848388671875,0.1116180419921875
180217,0.5946197509765625,-0.3240966796875,0.011199951171875
180218,0.62542724609375,-0.121795654296875,-0.033905029296875
180219,0.6805877685546875,0.106689453125,-0.05474853515625
180220,0.7312469482421875,0.3124542236328125,-0.0533294677734375
180221,0.747222900390625,0.413543701171875,-0.0222625732421875
180222,0.701507568359375,0.4085540771484375,-0.046142578125
180223,0.583770751953125,0.349365234375,-0.119049072265625
180224,0.36883544921875,0.2948760986328125,-0.224273681640625
180225,0.1346435546875,0.34423828125,-0.2555389404296875
180226,-0.017333984375,0.456512451171875,-0.1662445068359375
180227,-0.0650482177734375,0.4637603759765625,0.02880859375
180228,-0.086883544921875,0.387481689453125,0.250244140625
180229,-0.1080780029296875,0.25201416015625,0.3720855712890625
180230,-0.1076507568359375,0.0111083984375,0.3118438720703125
180231,-0.1022491455078125,-0.269805908203125,0.146728515625
180232,-0.1515350341796875,-0.5052337646484375,0.0363616943359375
180233,-0.262603759765625,-0.6976165771484375,0.0004425048828125
180234,-0.2906646728515625,-0.8593597412109375,0.0708160400390625
180235,-0.1046600341796875,-0.9370269775390624,0.265533447265625
180236,0.3144378662109375,-0.9074554443359376,0.4892425537109375
180237,0.9289398193359376,-0.8258514404296875,0.562713623046875
180238,1.605575561523438,-0.751739501953125,0.527313232421875
180239,2.34124755859375,-0.771759033203125,0.54962158203125
180240,2.958023071289062,-0.9174346923828124,0.3737030029296875
180241,3.170150756835938,-1.286178588867188,0.0601348876953125
180242,2.76251220703125,-2.00250244140625,-0.143951416015625
180243,2.094192504882812,-2.625564575195312,-0.109527587890625
180244,1.797088623046875,-2.774383544921875,-0.1002197265625
180245,1.85662841796875,-2.548629760742188,-0.1924896240234375
180246,1.976898193359375,-2.180877685546875,-0.1685638427734375
180247,2.040771484375,-1.814956665039062,-0.0577239990234375
180248,2.02276611328125,-1.52838134765625,-0.0448150634765625
180249,1.925537109375,-1.32373046875,-0.0913238525390625
180250,1.7869873046875,-1.1190185546875,-0.108642578125
180251,1.661117553710938,-0.8877105712890625,-0.151824951171875
180252,1.538604736328125,-0.635986328125,-0.269561767578125
180253,1.404556274414062,-0.3885345458984375,-0.4091339111328125
180254,1.23834228515625,-0.20501708984375,-0.477508544921875
180255,1.04083251953125,-0.092498779296875,-0.432769775390625
180256,0.857330322265625,-0.0003814697265625,-0.297027587890625
180257,0.6949462890625,0.071319580078125,-0.1768341064453125
180258,0.5305328369140625,0.122802734375,-0.0589141845703125
180259,0.3458709716796875,0.156463623046875,-0.0342254638671875
180260,0.1518707275390625,0.14959716796875,-0.0896759033203125
180261,-0.0280609130859375,0.103759765625,-0.1218109130859375
180262,-0.1795806884765625,0.055816650390625,-0.0728759765625
180263,-0.2996826171875,0.0117950439453125,-0.0223541259765625
180264,-0.3782806396484375,0.000335693359375,0.0414276123046875
180265,-0.3728179931640625,0.034820556640625,0.120635986328125
180266,-0.311676025390625,0.04962158203125,0.163177490234375
180267,-0.185302734375,-0.0071563720703125,0.29571533203125
180268,0.014617919921875,-0.1316375732421875,0.429656982421875
180269,0.204925537109375,-0.221923828125,0.4583740234375
180270,0.2639617919921875,-0.2505340576171875,0.3299407958984375
180271,0.1449432373046875,-0.213348388671875,0.141876220703125
180272,-0.080169677734375,-0.17822265625,-0.04107666015625
180273,-0.297882080078125,-0.1662445068359375,-0.044189453125
180274,-0.4161529541015625,-0.1737518310546875,0.087005615234375
180275,-0.3967742919921875,-0.2494049072265625,0.2413482666015625
180276,-0.2028656005859375,-0.4484405517578125,0.2904205322265625
180277,0.0816192626953125,-0.8150634765625,0.293487548828125
180278,0.3325347900390625,-1.299942016601562,0.304168701171875
180279,0.5804901123046875,-1.7109375,0.397705078125
180280,0.7482757568359375,-1.979721069335938,0.6715850830078125
180281,0.73828125,-1.997634887695312,0.7549896240234375
180282,0.693115234375,-1.848052978515625,0.654449462890625
180283,0.7254486083984375,-1.716110229492188,0.721588134765625
180284,0.663726806640625,-1.753173828125,1.08270263671875
180285,0.46185302734375,-1.895919799804688,1.12738037109375
180286,0.44256591796875,-2.090606689453125,0.5557098388671875
180287,0.58050537109375,-2.170150756835938,0.533843994140625
180288,0.8201141357421875,-1.957626342773438,0.747406005859375
180289,1.01318359375,-1.597732543945312,0.62371826171875
180290,1.077102661132812,-1.27001953125,0.3712005615234375
180291,1.02862548828125,-1.055038452148438,0.227874755859375
180292,0.9190673828125,-0.91424560546875,0.223236083984375
180293,0.9075469970703124,-0.676422119140625,0.123260498046875
180294,1.002029418945312,-0.36993408203125,0.1498260498046875
180295,1.09759521484375,-0.0792083740234375,0.07318115234375
180296,1.0732421875,0.1140594482421875,-0.0196685791015625
180297,0.874298095703125,0.2027587890625,-0.0435943603515625
180298,0.50799560546875,0.1734619140625,-0.1480712890625
180299,0.0700531005859375,0.07379150390625,-0.33416748046875
180300,-0.3220977783203125,0.051300048828125,-0.465728759765625
180301,-0.6059112548828125,0.1723175048828125,-0.50799560546875
180302,-0.652923583984375,0.3897552490234375,-0.4320831298828125
180303,-0.452728271484375,0.57525634765625,-0.1976318359375
180304,-0.240142822265625,0.700469970703125,0.2587432861328125
180305,-0.074005126953125,0.6555023193359375,0.589447021484375
180306,0.092010498046875,0.4200897216796875,0.568603515625
180307,0.18896484375,0.076171875,0.451812744140625
180308,0.2201995849609375,-0.3057861328125,0.3517608642578125
180309,0.18511962890625,-0.665740966796875,0.2791595458984375
180310,0.071990966796875,-0.8773651123046875,0.1783599853515625
180311,-0.0946807861328125,-0.9058074951171876,-0.0304412841796875
180312,-0.1612548828125,-0.8149566650390625,-0.1428070068359375
180313,0.026519775390625,-0.67645263671875,-0.052337646484375
180314,0.3904876708984375,-0.5678558349609375,0.1669464111328125
180315,0.775390625,-0.5813446044921875,0.534423828125
180316,1.31524658203125,-0.6966705322265625,1.29071044921875
180317,2.24139404296875,-0.8856201171875,2.102493286132812
180318,3.178909301757812,-1.3739013671875,1.074142456054688
180319,3.459762573242188,-1.95947265625,-0.1105499267578125
180320,2.812347412109375,-2.487030029296875,0.29541015625
180321,1.586380004882812,-3.048995971679688,0.4979705810546875
180322,0.8970184326171875,-3.282928466796875,0.2787017822265625
180323,1.142288208007812,-2.82513427734375,0.087677001953125
180324,1.716567993164062,-2.033889770507812,0.063629150390625
180325,1.983505249023438,-1.555770874023438,0.0926055908203125
180326,2.171600341796875,-1.342391967773438,0.116119384765625
180327,2.297286987304688,-1.233657836914062,0.0455322265625
180328,2.224227905273438,-1.112579345703125,-0.0727081298828125
180329,1.9783935546875,-0.891357421875,-0.15625
180330,1.689422607421875,-0.5987701416015625,-0.204132080078125
180331,1.463302612304688,-0.297576904296875,-0.2628021240234375
180332,1.28900146484375,-0.05401611328125,-0.3378448486328125
180333,1.11480712890625,0.07794189453125,-0.373046875
180334,0.927581787109375,0.12713623046875,-0.35296630859375
180335,0.744659423828125,0.1357269287109375,-0.3050079345703125
180336,0.571380615234375,0.1459808349609375,-0.22503662109375
180337,0.412506103515625,0.1721954345703125,-0.12042236328125
180338,0.2516021728515625,0.175689697265625,-0.07049560546875
180339,0.08953857421875,0.1223907470703125,-0.0504302978515625
180340,-0.0715179443359375,0.0510101318359375,-0.044921875
180341,-0.2399444580078125,-0.0071563720703125,-0.0780181884765625
180342,-0.4098358154296875,-0.0240631103515625,-0.070159912109375
180343,-0.50640869140625,-0.043548583984375,0.0543060302734375
180344,-0.4156646728515625,-0.0670013427734375,0.3171539306640625
180345,-0.1717529296875,-0.1096038818359375,0.568145751953125
180346,0.079925537109375,-0.1843414306640625,0.57501220703125
180347,0.1575927734375,-0.238677978515625,0.362213134765625
180348,0.1346282958984375,-0.2971649169921875,0.0848846435546875
180349,0.103424072265625,-0.3209991455078125,-0.094757080078125
180350,0.0186767578125,-0.250946044921875,-0.039276123046875
180351,-0.1276397705078125,-0.1492462158203125,0.150634765625
180352,-0.2648162841796875,-0.1323699951171875,0.338653564453125
180353,-0.3407440185546875,-0.227783203125,0.4608306884765625
180354,-0.2828521728515625,-0.4285430908203125,0.387176513671875
180355,0.014373779296875,-0.6914215087890625,0.259613037109375
180356,0.517730712890625,-0.987548828125,0.2655487060546875
180357,0.93353271484375,-1.33197021484375,0.333343505859375
180358,1.17095947265625,-1.771163940429688,0.622222900390625
180359,1.129135131835938,-2.14068603515625,0.77685546875
180360,0.8464202880859375,-2.070343017578125,0.753509521484375
180361,0.5626373291015625,-1.704055786132812,0.852935791015625
180362,0.4141387939453125,-1.522430419921875,1.0650634765625
180363,0.39971923828125,-1.504592895507812,0.8154296875
180364,0.51025390625,-1.536209106445312,0.4361114501953125
180365,0.6061859130859375,-1.619049072265625,0.736053466796875
180366,0.7234954833984375,-1.689865112304688,0.9723052978515624
180367,0.907989501953125,-1.640899658203125,0.8262786865234375
180368,1.031417846679688,-1.419448852539062,0.5569000244140625
180369,1.0067138671875,-1.073699951171875,0.3851318359375
180370,0.8466796875,-0.715362548828125,0.126373291015625
180371,0.663848876953125,-0.41436767578125,0.1571044921875
180372,0.56744384765625,-0.2059478759765625,0.16217041015625
180373,0.5484619140625,-0.074951171875,0.057037353515625
180374,0.5424041748046875,0.0237579345703125,-0.0380096435546875
180375,0.5413818359375,0.100189208984375,-0.05792236328125
180376,0.542205810546875,0.118682861328125,-0.056182861328125
180377,0.49420166015625,0.0922088623046875,-0.1082305908203125
180378,0.35589599609375,0.0550994873046875,-0.1746368408203125
180379,0.1418304443359375,0.0479736328125,-0.2152862548828125
180380,-0.051361083984375,0.08331298828125,-0.2325286865234375
180381,-0.1287078857421875,0.1360321044921875,-0.1744384765625
180382,-0.11077880859375,0.2023773193359375,-0.0914306640625
180383,-0.0532073974609375,0.28582763671875,0.0171966552734375
180384,0.0250244140625,0.3442230224609375,0.2890167236328125
180385,0.1894073486328125,0.3091888427734375,0.62591552734375
180386,0.4558563232421875,0.13427734375,0.6480255126953125
180387,0.7100982666015625,-0.1375732421875,0.31011962890625
180388,0.7677154541015625,-0.4859619140625,-0.0894622802734375
180389,0.542999267578125,-0.944580078125,-0.23455810546875
180390,0.15167236328125,-1.258712768554688,-0.05609130859375
180391,-0.1074066162109375,-1.264328002929688,0.257049560546875
180392,0.0265655517578125,-1.16326904296875,0.2310028076171875
180393,0.6027984619140625,-1.04376220703125,0.1525115966796875
180394,1.564559936523438,-0.8593597412109375,0.6402435302734375
180395,2.7109375,-0.884857177734375,1.258224487304688
180396,3.544189453125,-1.480682373046875,1.30462646484375
180397,3.564697265625,-2.455307006835938,0.4273529052734375
180398,2.667282104492188,-3.127334594726562,-0.2640838623046875
180399,1.570281982421875,-2.888900756835938,-0.3114166259765625
180400,1.380325317382812,-2.156723022460938,-0.0032501220703125
180401,1.780059814453125,-1.762008666992188,0.126220703125
180402,2.041732788085938,-1.5477294921875,0.0429840087890625
180403,2.170883178710938,-1.383209228515625,-0.0008087158203125
180404,2.149948120117188,-1.210113525390625,-0.046478271484375
180405,1.992446899414062,-0.969818115234375,-0.116485595703125
180406,1.734161376953125,-0.6887054443359375,-0.22320556640625
180407,1.43939208984375,-0.4445343017578125,-0.3310394287109375
180408,1.148269653320312,-0.244964599609375,-0.3958282470703125
180409,0.8929443359375,-0.0875701904296875,-0.41571044921875
180410,0.7162628173828125,0.0001068115234375,-0.3486328125
180411,0.61767578125,0.0153656005859375,-0.2535247802734375
180412,0.5610504150390625,0.0464324951171875,-0.1431732177734375
180413,0.4837493896484375,0.0920867919921875,-0.0616302490234375
180414,0.35723876953125,0.1241302490234375,-0.0888671875
180415,0.1903076171875,0.1261749267578125,-0.1561126708984375
180416,-0.0064849853515625,0.100738525390625,-0.176544189453125
180417,-0.1546783447265625,0.10540771484375,-0.12603759765625
180418,-0.2521514892578125,0.0959014892578125,-0.07861328125
180419,-0.3101806640625,0.0767822265625,-0.00189208984375
180420,-0.28143310546875,0.08917236328125,0.0790557861328125
180421,-0.1473846435546875,0.050933837890625,0.1807098388671875
180422,0.04840087890625,-0.05609130859375,0.32452392578125
180423,0.2487335205078125,-0.165283203125,0.38189697265625
180424,0.3339691162109375,-0.231719970703125,0.29803466796875
180425,0.2412261962890625,-0.2711639404296875,0.1741180419921875
180426,0.0495147705078125,-0.2934722900390625,0.0879669189453125
180427,-0.1222381591796875,-0.306671142578125,0.130523681640625
180428,-0.282135009765625,-0.309906005859375,0.154876708984375
180429,-0.4040985107421875,-0.3343353271484375,0.08905029296875
180430,-0.3763427734375,-0.4400787353515625,0.0059661865234375
180431,-0.1245880126953125,-0.639678955078125,0.0474395751953125
180432,0.2728729248046875,-0.91876220703125,0.19732666015625
180433,0.6714630126953125,-1.194259643554688,0.3439178466796875
180434,0.9868927001953124,-1.534744262695312,0.65704345703125
180435,1.013442993164062,-1.939620971679688,0.86297607421875
180436,0.827362060546875,-2.041580200195312,0.8939208984375
180437,0.7444915771484375,-1.879730224609375,1.011215209960938
180438,0.686004638671875,-1.794830322265625,1.094741821289062
180439,0.5543365478515625,-1.787246704101562,0.70147705078125
180440,0.489501953125,-1.840118408203125,0.3954315185546875
180441,0.5839080810546875,-1.896774291992188,0.4727935791015625
180442,0.8026275634765625,-1.792633056640625,0.59423828125
180443,0.973297119140625,-1.573043823242188,0.653106689453125
180444,1.0361328125,-1.303741455078125,0.592864990234375
180445,1.050750732421875,-1.042434692382812,0.4394683837890625
180446,1.133453369140625,-0.7960968017578125,0.3704376220703125
180447,1.28271484375,-0.540313720703125,0.28704833984375
180448,1.348373413085938,-0.2837677001953125,0.214996337890625
180449,1.295883178710938,-0.1243896484375,0.1219635009765625
180450,1.137893676757812,-0.0760650634765625,0.0325164794921875
180451,0.8243865966796875,-0.08441162109375,-0.0829010009765625
180452,0.34039306640625,-0.0799560546875,-0.3234100341796875
180453,-0.2120361328125,-0.0095062255859375,-0.5113525390625
180454,-0.6917724609375,0.1208038330078125,-0.545654296875
180455,-0.836456298828125,0.31317138671875,-0.4140625
180456,-0.5789642333984375,0.5802154541015625,-0.201934814453125
180457,-0.2240447998046875,0.7915191650390625,0.2281341552734375
180458,0.039703369140625,0.674591064453125,0.502197265625
180459,0.17266845703125,0.3018646240234375,0.5278472900390625
180460,0.11578369140625,-0.0806427001953125,0.4667816162109375
180461,0.026611328125,-0.3489532470703125,0.4296112060546875
180462,0.0226898193359375,-0.530364990234375,0.4227294921875
180463,0.07635498046875,-0.6651153564453125,0.1541748046875
180464,0.115081787109375,-0.722930908203125,-0.2564239501953125
180465,0.0659027099609375,-0.7112884521484375,-0.5169677734375
180466,-0.0325469970703125,-0.6530914306640625,-0.51104736328125
180467,-0.0707855224609375,-0.5924224853515625,-0.3701324462890625
180468,0.046844482421875,-0.5196533203125,-0.14251708984375
180469,0.339569091796875,-0.4605255126953125,0.2208404541015625
180470,0.7342071533203125,-0.5207672119140625,0.668548583984375
180471,1.330764770507812,-0.724334716796875,1.219741821289062
180472,2.19891357421875,-1.02813720703125,1.639892578125
180473,3.109527587890625,-1.51092529296875,1.201156616210938
180474,3.609954833984375,-2.054794311523438,0.3406829833984375
180475,3.353240966796875,-2.433975219726562,0.2051849365234375
180476,2.436767578125,-2.687652587890625,0.246978759765625
180477,1.685745239257812,-2.524490356445312,0.018096923828125
180478,1.5968017578125,-1.95623779296875,-0.0240631103515625
180479,1.831283569335938,-1.497283935546875,-0.02313232421875
180480,2.02008056640625,-1.242874145507812,-0.06072998046875
180481,2.133331298828125,-1.065872192382812,-0.0031280517578125
180482,2.139114379882812,-0.968658447265625,0.01556396484375
180483,2.050827026367188,-0.8701019287109375,-0.0699615478515625
180484,1.905242919921875,-0.688507080078125,-0.1685943603515625
180485,1.722763061523438,-0.454833984375,-0.22894287109375
180486,1.50830078125,-0.21160888671875,-0.2497406005859375
180487,1.274642944335938,-0.01617431640625,-0.2720794677734375
180488,1.039230346679688,0.094970703125,-0.279541015625
180489,0.8231353759765625,0.1273193359375,-0.2356719970703125
180490,0.63330078125,0.116668701171875,-0.2024078369140625
180491,0.4765625,0.1387939453125,-0.195709228515625
180492,0.33233642578125,0.182220458984375,-0.16845703125
180493,0.1326141357421875,0.1731414794921875,-0.1980438232421875
180494,-0.1199188232421875,0.1118011474609375,-0.2568206787109375
180495,-0.339385986328125,0.0684356689453125,-0.252960205078125
180496,-0.4722747802734375,0.0669097900390625,-0.19873046875
180497,-0.5911407470703125,0.06744384765625,-0.035491943359375
180498,-0.6373291015625,0.1042022705078125,0.228759765625
180499,-0.505279541015625,0.1676025390625,0.539306640625
180500,-0.155853271484375,0.1970062255859375,0.706390380859375
180501,0.20623779296875,0.1086578369140625,0.5782318115234375
180502,0.4103240966796875,-0.025115966796875,0.1996917724609375
180503,0.4697113037109375,-0.1668701171875,-0.022064208984375
180504,0.3517303466796875,-0.3008575439453125,0.0162353515625
180505,0.0999603271484375,-0.31158447265625,0.072265625
180506,-0.17572021484375,-0.2950592041015625,0.0913543701171875
180507,-0.3922119140625,-0.39794921875,0.0354766845703125
180508,-0.4941558837890625,-0.5633544921875,0.029388427734375
180509,-0.3951416015625,-0.715789794921875,0.162933349609375
180510,0.044189453125,-0.8119964599609375,0.50653076171875
180511,0.635711669921875,-1.056304931640625,0.8375091552734375
180512,1.038543701171875,-1.579544067382812,0.774444580078125
180513,1.197097778320312,-2.151229858398438,0.497589111328125
180514,1.0211181640625,-2.203857421875,0.478668212890625
180515,0.5375823974609375,-1.78497314453125,0.6265106201171875
180516,0.261383056640625,-1.525360107421875,0.7463531494140625
180517,0.40777587890625,-1.559036254882812,1.00189208984375
180518,0.6734466552734375,-1.78826904296875,1.200881958007812
180519,0.858642578125,-1.977645874023438,0.89849853515625
180520,0.8799285888671875,-2.16058349609375,0.7848968505859375
180521,0.8801727294921875,-2.018157958984375,0.8569793701171875
180522,0.93865966796875,-1.517120361328125,0.8052215576171875
180523,0.9604339599609376,-1.063323974609375,0.6427764892578125
180524,0.9274139404296876,-0.887420654296875,0.468170166015625
180525,0.821868896484375,-0.940521240234375,0.3374786376953125
180526,0.65582275390625,-0.802703857421875,0.0980987548828125
180527,0.4537353515625,-0.51373291015625,-0.1055450439453125
180528,0.328033447265625,-0.235076904296875,-0.0917205810546875
180529,0.3255462646484375,-0.0039825439453125,-0.0496063232421875
180530,0.301849365234375,0.0596923828125,-0.12384033203125
180531,0.145355224609375,0.0424652099609375,-0.3052215576171875
180532,-0.04388427734375,0.1327667236328125,-0.4391937255859375
180533,-0.165008544921875,0.305572509765625,-0.48114013671875
180534,-0.1472015380859375,0.5041961669921875,-0.398284912109375
180535,-0.0696258544921875,0.662841796875,-0.168548583984375
180536,-0.034332275390625,0.686767578125,0.24688720703125
180537,-0.031036376953125,0.5917510986328125,0.6870574951171875
180538,-0.0225372314453125,0.408538818359375,0.9088287353515624
180539,0.014892578125,0.1426849365234375,0.900634765625
180540,0.1082611083984375,-0.1744537353515625,0.58587646484375
180541,0.21014404296875,-0.4672393798828125,0.0256195068359375
180542,0.2441558837890625,-0.6710052490234375,-0.4759979248046875
180543,0.2328948974609375,-0.802093505859375,-0.5592498779296875
180544,0.223968505859375,-0.8291778564453125,-0.386627197265625
180545,0.1996307373046875,-0.7420196533203125,-0.1361541748046875
180546,0.3115692138671875,-0.5907135009765625,0.0841064453125
180547,0.614776611328125,-0.3900299072265625,0.35113525390625
180548,1.002243041992188,-0.270904541015625,0.6695556640625
180549,1.450119018554688,-0.3501434326171875,0.935333251953125
180550,2.036666870117188,-0.569488525390625,1.15252685546875
180551,2.827133178710938,-0.8834991455078125,1.145111083984375
180552,3.46148681640625,-1.336105346679688,0.461212158203125
180553,3.426620483398438,-1.7825927734375,-0.0482635498046875
180554,2.638336181640625,-2.1697998046875,0.1098480224609375
180555,1.627456665039062,-2.576889038085938,0.2589569091796875
180556,1.1634521484375,-2.645355224609375,0.092010498046875
180557,1.309173583984375,-2.1864013671875,-0.00335693359375
180558,1.680877685546875,-1.560256958007812,0.0345916748046875
180559,1.966537475585938,-1.189376831054688,0.0578765869140625
180560,2.14141845703125,-0.984344482421875,0.0884857177734375
180561,2.148681640625,-0.85235595703125,0.1189117431640625
180562,1.966934204101562,-0.7430419921875,0.062591552734375
180563,1.725723266601562,-0.6050872802734375,-0.0574798583984375
180564,1.530517578125,-0.426239013671875,-0.14385986328125
180565,1.382980346679688,-0.2386016845703125,-0.208160400390625
180566,1.241470336914062,-0.104705810546875,-0.2617340087890625
180567,1.080154418945312,-0.0549774169921875,-0.2693939208984375
180568,0.8884124755859375,-0.0489654541015625,-0.26397705078125
180569,0.6913299560546875,-0.012725830078125,-0.2686767578125
180570,0.5150299072265625,0.0642547607421875,-0.229339599609375
180571,0.31719970703125,0.0967254638671875,-0.18096923828125
180572,0.0789031982421875,0.0738067626953125,-0.1783447265625
180573,-0.1554107666015625,0.010498046875,-0.1870574951171875
180574,-0.31951904296875,-0.0332489013671875,-0.2098541259765625
180575,-0.4636077880859375,-0.042266845703125,-0.2125701904296875
180576,-0.6054840087890625,-0.0202178955078125,-0.1284027099609375
180577,-0.692474365234375,0.02679443359375,0.04229736328125
180578,-0.63787841796875,0.0733489990234375,0.2584686279296875
180579,-0.4496612548828125,0.0545654296875,0.3884124755859375
180580,-0.2379608154296875,-0.0725555419921875,0.3737640380859375
180581,-0.0041351318359375,-0.2231597900390625,0.3041534423828125
180582,0.2840728759765625,-0.3132171630859375,0.2543182373046875
180583,0.497283935546875,-0.3744049072265625,0.234588623046875
180584,0.5189666748046875,-0.375579833984375,0.2213592529296875
180585,0.3940582275390625,-0.3326568603515625,0.13458251953125
180586,0.186767578125,-0.382049560546875,0.0391693115234375
180587,-0.065826416015625,-0.5907745361328125,0.02508544921875
180588,-0.16180419921875,-0.7672576904296875,0.0287322998046875
180589,0.036041259765625,-0.8233184814453125,0.011474609375
180590,0.3644561767578125,-0.9834136962890624,0.228912353515625
180591,0.719482421875,-1.346115112304688,0.6741790771484375
180592,1.133392333984375,-1.838104248046875,0.62432861328125
180593,1.503402709960938,-2.13287353515625,0.5342864990234375
180594,1.411636352539062,-1.936920166015625,0.693145751953125
180595,1.011016845703125,-1.638809204101562,0.938232421875
180596,0.666046142578125,-1.620101928710938,1.02935791015625
180597,0.4986419677734375,-1.773101806640625,0.8001708984375
180598,0.543060302734375,-1.87738037109375,0.4239044189453125
180599,0.6587982177734375,-1.850601196289062,0.46575927734375
180600,0.7816162109375,-1.715911865234375,0.6154937744140625
180601,0.8820648193359375,-1.499908447265625,0.6045989990234375
180602,0.930633544921875,-1.2470703125,0.4704132080078125
180603,0.9192657470703124,-0.9656524658203124,0.31048583984375
180604,0.890869140625,-0.6190185546875,0.2088623046875
180605,0.8436431884765625,-0.3047332763671875,0.1070709228515625
180606,0.7138671875,-0.124969482421875,0.07867431640625
180607,0.5494232177734375,-0.0543060302734375,0.0553131103515625
180608,0.399078369140625,-0.025543212890625,0.013031005859375
180609,0.2712554931640625,0.006072998046875,-0.0347900390625
180610,0.178741455078125,0.0623779296875,-0.1316986083984375
180611,0.0474090576171875,0.1460113525390625,-0.2968597412109375
180612,-0.052581787109375,0.2626190185546875,-0.383819580078125
180613,-0.045684814453125,0.4271697998046875,-0.2874298095703125
180614,0.081878662109375,0.585113525390625,0.067169189453125
180615,0.192291259765625,0.6089630126953125,0.3303070068359375
180616,0.2222137451171875,0.5035858154296875,0.3551177978515625
180617,0.1949005126953125,0.3196563720703125,0.2655792236328125
180618,0.1030426025390625,0.1011962890625,0.146697998046875
180619,-0.033447265625,-0.121826171875,0.160980224609375
180620,-0.14862060546875,-0.338836669921875,0.156982421875
180621,-0.241912841796875,-0.5103912353515625,0.0231475830078125
180622,-0.298431396484375,-0.615631103515625,-0.1694793701171875
180623,-0.218597412109375,-0.6506195068359375,-0.20660400390625
180624,0.0659332275390625,-0.6446685791015625,0.014862060546875
180625,0.5254364013671875,-0.6398468017578125,0.3374786376953125
180626,1.074996948242188,-0.671875,0.6492156982421875
180627,1.686843872070312,-0.7692413330078125,0.9808349609375
180628,2.47613525390625,-0.9026336669921876,1.330612182617188
180629,3.223068237304688,-1.096908569335938,0.7916107177734375
180630,3.456741333007812,-1.45098876953125,-0.3387298583984375
180631,2.939834594726562,-1.896820068359375,-0.346710205078125
180632,1.994430541992188,-2.51641845703125,0.0568084716796875
180633,1.4613037109375,-2.933303833007812,0.1247406005859375
180634,1.581680297851562,-2.697402954101562,-0.0212860107421875
180635,1.937973022460938,-2.056869506835938,-0.1509857177734375
180636,2.203338623046875,-1.538223266601562,-0.1068267822265625
180637,2.338668823242188,-1.27618408203125,0.00384521484375
180638,2.31927490234375,-1.15960693359375,-0.012054443359375
180639,2.076828002929688,-1.052566528320312,-0.11175537109375
180640,1.714614868164062,-0.9285888671875,-0.1963348388671875
180641,1.388092041015625,-0.790740966796875,-0.222412109375
180642,1.148330688476562,-0.5851898193359375,-0.2578125
180643,1.001846313476562,-0.368133544921875,-0.3170166015625
180644,0.9154510498046876,-0.2043609619140625,-0.3271331787109375
180645,0.849700927734375,-0.09844970703125,-0.290802001953125
180646,0.772735595703125,-0.00604248046875,-0.23382568359375
180647,0.65350341796875,0.06683349609375,-0.171234130859375
180648,0.4710845947265625,0.1009674072265625,-0.1654510498046875
180649,0.269744873046875,0.0955047607421875,-0.2039337158203125
180650,0.0782470703125,0.0529327392578125,-0.211669921875
180651,-0.080291748046875,-0.0020751953125,-0.1027984619140625
180652,-0.2014312744140625,-0.0463409423828125,0.0331878662109375
180653,-0.26678466796875,-0.097686767578125,0.1617279052734375
180654,-0.246795654296875,-0.1713104248046875,0.2359771728515625
180655,-0.1845703125,-0.163848876953125,0.23614501953125
180656,-0.1479339599609375,-0.1574249267578125,0.2314605712890625
180657,-0.2149658203125,-0.2170562744140625,0.1933441162109375
180658,-0.252899169921875,-0.2791290283203125,0.22100830078125
180659,-0.1962432861328125,-0.316162109375,0.241607666015625
180660,-0.1259002685546875,-0.254638671875,0.15814208984375
180661,-0.1328887939453125,-0.1057586669921875,0.0489044189453125
180662,-0.24896240234375,0.0475921630859375,0.010528564453125
180663,-0.37896728515625,0.121826171875,-0.067230224609375
180664,-0.426788330078125,0.050567626953125,-0.1905670166015625
180665,-0.4399261474609375,-0.143463134765625,-0.2643280029296875
180666,-0.3938751220703125,-0.4095611572265625,-0.3672637939453125
180667,-0.1121368408203125,-0.6748504638671875,-0.371734619140625
180668,0.3644256591796875,-0.929168701171875,-0.1480865478515625
180669,0.9537811279296876,-1.243331909179688,0.1956024169921875
180670,1.749374389648438,-1.675430297851562,0.81365966796875
180671,2.496994018554688,-2.082168579101562,1.159805297851562
180672,2.641510009765625,-2.0931396484375,0.891815185546875
180673,2.052993774414062,-1.741058349609375,0.7418670654296875
180674,1.281448364257812,-1.580245971679688,0.9076385498046876
180675,0.6946868896484375,-1.682510375976562,0.7319183349609375
180676,0.53948974609375,-1.795120239257812,0.1558990478515625
180677,0.6419219970703125,-1.844467163085938,0.24462890625
180678,0.715240478515625,-1.822494506835938,0.3890228271484375
180679,0.735504150390625,-1.652450561523438,0.3970489501953125
180680,0.74853515625,-1.40313720703125,0.3944854736328125
180681,0.8172760009765625,-1.097793579101562,0.367034912109375
180682,0.9222564697265624,-0.717926025390625,0.3876495361328125
180683,0.9332733154296876,-0.354705810546875,0.285064697265625
180684,0.8684234619140625,-0.145233154296875,0.1735076904296875
180685,0.775726318359375,-0.0628204345703125,0.114532470703125
180686,0.6039581298828125,-0.0701141357421875,0.066131591796875
180687,0.40576171875,-0.101776123046875,0.031158447265625
180688,0.2704620361328125,-0.1133270263671875,-0.0216064453125
180689,0.1647796630859375,-0.1035003662109375,-0.127532958984375
180690,-0.0708160400390625,-0.056976318359375,-0.3392333984375
180691,-0.3339691162109375,0.0369873046875,-0.513153076171875
180692,-0.473419189453125,0.181793212890625,-0.5093536376953125
180693,-0.4654541015625,0.3072357177734375,-0.2960357666015625
180694,-0.3368988037109375,0.3788604736328125,0.040374755859375
180695,-0.223297119140625,0.39483642578125,0.2455596923828125
180696,-0.1831512451171875,0.327301025390625,0.391998291015625
180697,-0.1816864013671875,0.171051025390625,0.4594268798828125
180698,-0.1978759765625,-0.05908203125,0.396026611328125
180699,-0.1875152587890625,-0.3129119873046875,0.1945037841796875
180700,-0.12322998046875,-0.5186767578125,-0.030120849609375
180701,0.0210113525390625,-0.668914794921875,-0.113616943359375
180702,0.279632568359375,-0.795623779296875,0.019195556640625
180703,0.6334381103515625,-0.91162109375,0.46185302734375
180704,1.157806396484375,-1.08880615234375,1.204238891601562
180705,2.056777954101562,-1.349319458007812,1.363433837890625
180706,3.0810546875,-1.542648315429688,0.748077392578125
180707,3.696517944335938,-1.738372802734375,-0.419189453125
180708,3.662750244140625,-1.905029296875,-0.48236083984375
180709,2.83380126953125,-2.236358642578125,0.118255615234375
180710,1.89532470703125,-2.657699584960938,-0.0730743408203125
180711,1.613723754882812,-2.601699829101562,-0.3375244140625
180712,1.715652465820312,-2.167770385742188,-0.3994140625
180713,1.920654296875,-1.796218872070312,-0.277618408203125
180714,2.069732666015625,-1.571029663085938,-0.1825103759765625
180715,2.122756958007812,-1.445526123046875,-0.12738037109375
180716,2.035507202148438,-1.311080932617188,-0.0717926025390625
180717,1.83819580078125,-1.100082397460938,-0.05731201171875
180718,1.612655639648438,-0.8251800537109375,-0.111724853515625
180719,1.3990478515625,-0.525299072265625,-0.2118072509765625
180720,1.193435668945312,-0.238922119140625,-0.334625244140625
180721,0.976348876953125,-0.0145111083984375,-0.4265899658203125
180722,0.7435760498046875,0.1338958740234375,-0.4024810791015625
180723,0.526397705078125,0.212158203125,-0.30316162109375
180724,0.35040283203125,0.2499237060546875,-0.23455810546875
180725,0.1977996826171875,0.2682647705078125,-0.1732177734375
180726,0.0332794189453125,0.2398223876953125,-0.151947021484375
180727,-0.128143310546875,0.1656036376953125,-0.1267242431640625
180728,-0.246368408203125,0.0889434814453125,-0.1196441650390625
180729,-0.3380889892578125,0.0175018310546875,-0.05743408203125
180730,-0.4172821044921875,-0.01190185546875,0.082305908203125
180731,-0.4377288818359375,-0.0316162109375,0.220184326171875
180732,-0.3637542724609375,-0.0829010009765625,0.388671875
180733,-0.1765594482421875,-0.1002197265625,0.45526123046875
180734,0.00897216796875,-0.1194305419921875,0.3675689697265625
180735,0.074859619140625,-0.1447601318359375,0.2730560302734375
180736,0.080322265625,-0.1586151123046875,0.28271484375
180737,0.082794189453125,-0.16571044921875,0.3234100341796875
180738,0.029449462890625,-0.1009368896484375,0.2758026123046875
180739,-0.0843353271484375,0.0329132080078125,0.1994476318359375
180740,-0.208038330078125,0.12847900390625,0.1173095703125
180741,-0.2715911865234375,0.0985870361328125,0.01190185546875
180742,-0.247833251953125,-0.092041015625,-0.1125946044921875
180743,-0.1683502197265625,-0.408935546875,-0.1956634521484375
180744,0.006317138671875,-0.7781524658203125,-0.1352996826171875
180745,0.4384002685546875,-1.100265502929688,0.139678955078125
180746,1.055953979492188,-1.376602172851562,0.4783172607421875
180747,1.729766845703125,-1.858016967773438,0.879547119140625
180748,2.10675048828125,-2.41265869140625,1.171783447265625
180749,1.895782470703125,-2.355194091796875,1.186477661132812
180750,1.427780151367188,-1.85882568359375,1.146820068359375
180751,0.8409881591796875,-1.539642333984375,1.02081298828125
180752,0.345794677734375,-1.469329833984375,0.499359130859375
180753,0.2185821533203125,-1.531814575195312,0.1329193115234375
180754,0.3108367919921875,-1.617263793945312,0.3824310302734375
180755,0.487762451171875,-1.604080200195312,0.446807861328125
180756,0.6297760009765625,-1.5072021484375,0.420074462890625
180757,0.7006378173828125,-1.362060546875,0.3644256591796875
180758,0.7267608642578125,-1.149856567382812,0.3050689697265625
180759,0.766021728515625,-0.8271636962890625,0.2770233154296875
180760,0.7977142333984375,-0.475616455078125,0.192535400390625
180761,0.761138916015625,-0.23974609375,0.0072784423828125
180762,0.6807403564453125,-0.0677947998046875,-0.115386962890625
180763,0.599151611328125,0.0417938232421875,-0.1029815673828125
180764,0.57501220703125,0.11865234375,0.0197906494140625
180765,0.57781982421875,0.1801910400390625,0.021484375
180766,0.5377044677734375,0.2087249755859375,-0.1057281494140625
180767,0.388092041015625,0.256561279296875,-0.2665252685546875
180768,0.1674041748046875,0.2897186279296875,-0.32403564453125
180769,-0.047454833984375,0.30487060546875,-0.245208740234375
180770,-0.19439697265625,0.2873992919921875,-0.0974578857421875
180771,-0.2130126953125,0.2075958251953125,0.0480499267578125
180772,-0.18316650390625,0.115264892578125,0.128875732421875
180773,-0.18963623046875,0.009979248046875,0.159393310546875
180774,-0.21697998046875,-0.1337127685546875,0.1415863037109375
180775,-0.244903564453125,-0.3082733154296875,0.016815185546875
180776,-0.251953125,-0.500518798828125,-0.1797637939453125
180777,-0.19744873046875,-0.68572998046875,-0.241485595703125
180778,-0.0240020751953125,-0.8143157958984375,0.0320281982421875
180779,0.316375732421875,-0.901519775390625,0.6416778564453125
180780,0.8478546142578125,-1.044235229492188,1.5050048828125
180781,1.715850830078125,-1.245681762695312,1.91082763671875
180782,2.636749267578125,-1.43212890625,0.8238983154296875
180783,3.217727661132812,-1.454544067382812,-0.3557281494140625
180784,3.249725341796875,-1.45751953125,-0.3742828369140625
180785,2.562271118164062,-1.736709594726562,0.0148162841796875
180786,1.653396606445312,-2.262039184570312,-0.047943115234375
180787,1.289932250976562,-2.523330688476562,-0.173919677734375
180788,1.468231201171875,-2.314453125,-0.2362823486328125
180789,1.779464721679688,-1.970703125,-0.3500823974609375
180790,2.016830444335938,-1.780960083007812,-0.278076171875
180791,2.17706298828125,-1.662063598632812,-0.1702117919921875
180792,2.17376708984375,-1.534912109375,-0.102264404296875
180793,2.03460693359375,-1.373031616210938,-0.109100341796875
180794,1.828628540039062,-1.1480712890625,-0.17364501953125
180795,1.601806640625,-0.8676300048828125,-0.2566986083984375
180796,1.381515502929688,-0.5659332275390625,-0.388916015625
180797,1.158203125,-0.296661376953125,-0.5223236083984375
180798,0.933807373046875,-0.0955047607421875,-0.5251312255859375
180799,0.726654052734375,0.034637451171875,-0.35296630859375
180800,0.5707550048828125,0.1022796630859375,-0.1758270263671875
180801,0.4691314697265625,0.1232147216796875,-0.07958984375
180802,0.364288330078125,0.115692138671875,-0.071807861328125
180803,0.22991943359375,0.0831756591796875,-0.1487884521484375
180804,0.0718841552734375,0.035736083984375,-0.213043212890625
180805,-0.0702972412109375,-0.0113372802734375,-0.1702880859375
180806,-0.161468505859375,-0.0437164306640625,-0.0526580810546875
180807,-0.2058563232421875,-0.0816497802734375,0.0506744384765625
180808,-0.1671905517578125,-0.1357421875,0.1343536376953125
180809,-0.09112548828125,-0.104339599609375,0.15142822265625
180810,0.017059326171875,-0.0126190185546875,0.2022552490234375
180811,0.17315673828125,-0.0047149658203125,0.2975616455078125
180812,0.212615966796875,-0.049346923828125,0.338653564453125
180813,0.111663818359375,-0.1256103515625,0.320098876953125
180814,-0.033477783203125,-0.19415283203125,0.2630767822265625
180815,-0.153472900390625,-0.190704345703125,0.1959991455078125
180816,-0.3117523193359375,-0.1146697998046875,0.10382080078125
180817,-0.518890380859375,-0.045257568359375,0.0294952392578125
180818,-0.71746826171875,-0.0913238525390625,-0.087738037109375
180819,-0.8751983642578125,-0.322113037109375,-0.22601318359375
180820,-0.844696044921875,-0.6161346435546875,-0.3841705322265625
180821,-0.3171844482421875,-0.7431793212890625,-0.334503173828125
180822,0.430206298828125,-0.926849365234375,-0.014495849609375
180823,1.20599365234375,-1.284255981445312,0.6730804443359375
180824,1.896377563476562,-1.7327880859375,1.2174072265625
180825,2.080856323242188,-2.037322998046875,1.28472900390625
180826,1.800079345703125,-1.937469482421875,1.289825439453125
180827,1.487884521484375,-1.686935424804688,1.182861328125
180828,1.065765380859375,-1.65130615234375,0.7593536376953125
180829,0.5899200439453125,-1.748779296875,0.5655975341796875
180830,0.4213409423828125,-1.82928466796875,0.3301544189453125
180831,0.520355224609375,-1.8802490234375,0.28717041015625
180832,0.7161102294921875,-1.820510864257812,0.447021484375
180833,0.85467529296875,-1.678848266601562,0.625946044921875
180834,0.9171905517578124,-1.469772338867188,0.6595001220703125
180835,0.9475860595703124,-1.21832275390625,0.4773101806640625
180836,0.940704345703125,-0.8712310791015625,0.292633056640625
180837,0.92352294921875,-0.45513916015625,0.194427490234375
180838,0.9563140869140624,-0.1617889404296875,0.123260498046875
180839,0.86322021484375,-0.008148193359375,-0.106781005859375
180840,0.66107177734375,0.030059814453125,-0.26611328125
180841,0.4253387451171875,0.005584716796875,-0.2815399169921875
180842,0.1876678466796875,-0.0249786376953125,-0.2534332275390625
180843,-0.000701904296875,-0.0120849609375,-0.2324676513671875
180844,-0.08074951171875,0.0258636474609375,-0.240264892578125
180845,-0.1095428466796875,0.07830810546875,-0.3068084716796875
180846,-0.064208984375,0.1613922119140625,-0.3268890380859375
180847,0.04583740234375,0.261810302734375,-0.243072509765625
180848,0.1317138671875,0.3358917236328125,-0.0429534912109375
180849,0.1468658447265625,0.323455810546875,0.2136688232421875
180850,0.097991943359375,0.208343505859375,0.3807373046875
180851,0.0414276123046875,0.033538818359375,0.450347900390625
180852,0.026214599609375,-0.183746337890625,0.4308013916015625
180853,-0.0034332275390625,-0.4034576416015625,0.4005126953125
180854,-0.0826873779296875,-0.582916259765625,0.2717132568359375
180855,-0.166229248046875,-0.672088623046875,0.050384521484375
180856,-0.16961669921875,-0.663909912109375,-0.13006591796875
180857,-0.00408935546875,-0.63092041015625,-0.1610565185546875
180858,0.304595947265625,-0.62640380859375,-0.070281982421875
180859,0.7054443359375,-0.6693115234375,0.1300506591796875
180860,1.288009643554688,-0.765106201171875,0.575347900390625
180861,2.0628662109375,-0.931060791015625,1.189987182617188
180862,2.934585571289062,-1.147018432617188,1.25
180863,3.577987670898438,-1.484634399414062,0.2646026611328125
180864,3.455642700195312,-1.860321044921875,-0.0462493896484375
180865,2.425460815429688,-2.308380126953125,0.05621337890625
180866,1.378082275390625,-2.768569946289062,-0.2011871337890625
180867,1.014434814453125,-2.80865478515625,-0.2344207763671875
180868,1.335479736328125,-2.307510375976562,-0.043975830078125
180869,1.873016357421875,-1.701461791992188,0.028961181640625
180870,2.20513916015625,-1.360107421875,-0.0030364990234375
180871,2.317550659179688,-1.157989501953125,-0.031036376953125
180872,2.15704345703125,-1.006637573242188,-0.0570220947265625
180873,1.810577392578125,-0.8862457275390625,-0.1406097412109375
180874,1.482131958007812,-0.738433837890625,-0.2415313720703125
180875,1.262191772460938,-0.5322265625,-0.3089447021484375
180876,1.134963989257812,-0.293731689453125,-0.31298828125
180877,1.044677734375,-0.1126556396484375,-0.3301849365234375
180878,0.9507904052734376,-0.038116455078125,-0.28802490234375
180879,0.827362060546875,-0.019287109375,-0.2293853759765625
180880,0.70330810546875,-0.007232666015625,-0.1971435546875
180881,0.5650177001953125,0.02667236328125,-0.1514892578125
180882,0.39324951171875,0.0451202392578125,-0.119598388671875
180883,0.213836669921875,0.0412139892578125,-0.1322021484375
180884,0.04388427734375,0.0371246337890625,-0.184295654296875
180885,-0.1006622314453125,0.04559326171875,-0.11956787109375
180886,-0.212890625,0.081817626953125,-0.0009307861328125
180887,-0.2744293212890625,0.1334075927734375,0.0879058837890625
180888,-0.2644195556640625,0.155914306640625,0.14617919921875
180889,-0.1597747802734375,0.14373779296875,0.167755126953125
180890,0.010650634765625,0.100616455078125,0.2350921630859375
180891,0.18939208984375,0.0045623779296875,0.2830352783203125
180892,0.2628021240234375,-0.0995330810546875,0.193115234375
180893,0.13043212890625,-0.1806488037109375,0.0519561767578125
180894,-0.0865936279296875,-0.2683868408203125,0.1202239990234375
180895,-0.2900390625,-0.3503875732421875,0.2911834716796875
180896,-0.4962158203125,-0.3952178955078125,0.2267303466796875
180897,-0.6392974853515625,-0.4432373046875,-0.0833892822265625
180898,-0.617919921875,-0.547760009765625,-0.21893310546875
180899,-0.2956390380859375,-0.6755828857421875,-0.13812255859375
180900,0.23931884765625,-0.89080810546875,0.1083831787109375
180901,0.6700897216796875,-1.273727416992188,0.5053558349609375
180902,0.9454345703125,-1.790603637695312,0.7867431640625
180903,1.076828002929688,-2.149871826171875,0.6676788330078125
180904,1.009613037109375,-1.936294555664062,0.6150054931640625
180905,0.9167633056640624,-1.388107299804688,0.7876739501953125
180906,0.9074249267578124,-1.115737915039062,0.854095458984375
180907,0.8472900390625,-1.238357543945312,0.8921966552734375
180908,0.8796844482421875,-1.591903686523438,0.8119354248046875
180909,1.076309204101562,-1.882186889648438,0.636993408203125
180910,1.18505859375,-1.968460083007812,0.749359130859375
180911,1.187454223632812,-1.836029052734375,0.691131591796875
180912,1.082763671875,-1.543350219726562,0.524261474609375
180913,0.9081573486328124,-1.251235961914062,0.4079437255859375
180914,0.756317138671875,-0.92926025390625,0.2118988037109375
180915,0.7476806640625,-0.5447845458984375,0.065399169921875
180916,0.7730865478515625,-0.254547119140625,0.0279541015625
180917,0.705535888671875,-0.07763671875,-0.16162109375
180918,0.587127685546875,-0.036529541015625,-0.2335052490234375
180919,0.4202728271484375,-0.0414886474609375,-0.1812591552734375
180920,0.300140380859375,0.0004730224609375,-0.1232452392578125
180921,0.2200164794921875,0.11395263671875,-0.187286376953125
180922,0.119476318359375,0.2595062255859375,-0.3288421630859375
180923,0.0871734619140625,0.3956451416015625,-0.4322662353515625
180924,0.190704345703125,0.5864410400390625,-0.3122711181640625
180925,0.4308013916015625,0.7225189208984375,0.173065185546875
180926,0.6909637451171875,0.679443359375,0.4438018798828125
180927,0.8987579345703125,0.5511932373046875,0.46990966796875
180928,1.076171875,0.3367767333984375,0.4530029296875
180929,1.116989135742188,-0.0182647705078125,0.300323486328125
180930,0.81109619140625,-0.4809112548828125,0.134002685546875
180931,0.165283203125,-0.901153564453125,-0.0106658935546875
180932,-0.524505615234375,-0.980621337890625,-0.1860809326171875
180933,-1.013015747070312,-0.7677001953125,-0.30426025390625
180934,-1.231613159179688,-0.4953765869140625,-0.4985809326171875
180935,-0.947479248046875,-0.3544769287109375,-0.57025146484375
180936,-0.0612335205078125,-0.3564605712890625,-0.03961181640625
180937,0.917266845703125,-0.3875274658203125,0.630828857421875
180938,1.916519165039062,-0.4819793701171875,1.014877319335938
180939,2.902557373046875,-0.7733917236328125,1.092422485351562
180940,3.427536010742188,-1.332778930664062,1.15692138671875
180941,3.453445434570312,-2.105728149414062,0.9403076171875
180942,2.958343505859375,-2.636062622070312,0.5202484130859375
180943,2.15484619140625,-2.445892333984375,0.172821044921875
180944,1.643844604492188,-1.945587158203125,-0.093353271484375
180945,1.633102416992188,-1.489791870117188,-0.2559356689453125
180946,1.84271240234375,-1.209487915039062,-0.368743896484375
180947,1.999237060546875,-1.077499389648438,-0.3797607421875
180948,2.000335693359375,-1.00982666015625,-0.2569427490234375
180949,1.904693603515625,-0.930877685546875,-0.1386260986328125
180950,1.816024780273438,-0.80645751953125,-0.0882720947265625
180951,1.749008178710938,-0.6736602783203125,-0.0781097412109375
180952,1.654327392578125,-0.547698974609375,-0.0987548828125
180953,1.494644165039062,-0.416748046875,-0.2006683349609375
180954,1.276992797851562,-0.276641845703125,-0.3256683349609375
180955,1.041946411132812,-0.150299072265625,-0.367645263671875
180956,0.8403778076171875,-0.05364990234375,-0.3207244873046875
180957,0.6885986328125,0.027740478515625,-0.2738037109375
180958,0.5828399658203125,0.0789337158203125,-0.2335205078125
180959,0.5009918212890625,0.098388671875,-0.18304443359375
180960,0.42681884765625,0.1436004638671875,-0.1454010009765625
180961,0.3429107666015625,0.210662841796875,-0.095550537109375
180962,0.221466064453125,0.21099853515625,-0.0211334228515625
180963,0.1068267822265625,0.155426025390625,0.0471038818359375
180964,0.0507659912109375,0.072265625,0.0372772216796875
180965,-0.0028839111328125,-0.024017333984375,-0.0148773193359375
180966,-0.1104583740234375,-0.0653839111328125,0.0226898193359375
180967,-0.2261810302734375,-0.1142578125,0.119171142578125
180968,-0.3548583984375,-0.21685791015625,0.2089996337890625
180969,-0.5017242431640625,-0.337188720703125,0.2718048095703125
180970,-0.5731658935546875,-0.432281494140625,0.2967987060546875
180971,-0.4866485595703125,-0.38800048828125,0.272003173828125
180972,-0.2908477783203125,-0.237396240234375,0.2112884521484375
180973,-0.136444091796875,-0.1928253173828125,0.16778564453125
180974,-0.039794921875,-0.266143798828125,0.048370361328125
180975,0.042572021484375,-0.396759033203125,-0.0333404541015625
180976,0.1188507080078125,-0.5882415771484375,0.0413970947265625
180977,0.2037200927734375,-0.900787353515625,0.180511474609375
180978,0.447265625,-1.321151733398438,0.34393310546875
180979,0.877685546875,-1.67852783203125,0.465576171875
180980,1.307693481445312,-1.91058349609375,0.703643798828125
180981,1.390838623046875,-1.894424438476562,0.7432708740234375
180982,1.217071533203125,-1.607192993164062,0.80828857421875
180983,1.153839111328125,-1.429092407226562,0.992431640625
180984,1.076980590820312,-1.458633422851562,1.024429321289062
180985,0.9764251708984376,-1.561019897460938,0.8596954345703125
180986,0.94659423828125,-1.723587036132812,0.6455841064453125
180987,0.857269287109375,-1.88763427734375,0.5464935302734375
180988,0.7430572509765625,-1.763412475585938,0.4606170654296875
180989,0.6631317138671875,-1.422714233398438,0.43426513671875
180990,0.62335205078125,-1.086761474609375,0.32794189453125
180991,0.653289794921875,-0.801055908203125,0.165283203125
180992,0.7433013916015625,-0.494171142578125,-0.0136871337890625
180993,0.901641845703125,-0.16900634765625,-0.0250396728515625
180994,1.01470947265625,0.061248779296875,0.0104827880859375
180995,1.031784057617188,0.16162109375,0.003997802734375
180996,0.9361419677734376,0.152740478515625,-0.018768310546875
180997,0.709136962890625,0.05902099609375,-0.1019287109375
180998,0.443756103515625,0.0472564697265625,-0.1943817138671875
180999,0.2225799560546875,0.0697174072265625,-0.2740936279296875
181000,0.060943603515625,0.0823516845703125,-0.319732666015625
181001,-0.0815887451171875,0.11236572265625,-0.3597259521484375
181002,-0.200836181640625,0.1465301513671875,-0.4733123779296875
181003,-0.281951904296875,0.1620330810546875,-0.549713134765625
181004,-0.35614013671875,0.1714019775390625,-0.4580841064453125
181005,-0.455596923828125,0.1851806640625,-0.2248077392578125
181006,-0.535186767578125,0.16943359375,0.0471038818359375
181007,-0.5028076171875,0.1200714111328125,0.272247314453125
181008,-0.3243408203125,0.001190185546875,0.4441070556640625
181009,-0.0108184814453125,-0.2498016357421875,0.371734619140625
181010,0.301605224609375,-0.521026611328125,0.2310943603515625
181011,0.5365753173828125,-0.709930419921875,0.2873992919921875
181012,0.750091552734375,-0.853271484375,0.6646270751953125
181013,1.09503173828125,-1.065338134765625,1.254653930664062
181014,1.854766845703125,-1.347518920898438,1.219619750976562
181015,2.808700561523438,-1.544647216796875,0.4590301513671875
181016,3.525634765625,-1.645538330078125,-0.403533935546875
181017,3.709686279296875,-1.679443359375,-0.1234588623046875
181018,3.059051513671875,-1.920806884765625,0.4350738525390625
181019,1.9912109375,-2.483016967773438,0.20452880859375
181020,1.412872314453125,-2.695846557617188,-0.1705780029296875
181021,1.353713989257812,-2.421600341796875,-0.2991943359375
181022,1.58160400390625,-2.013092041015625,-0.070587158203125
181023,1.847183227539062,-1.664382934570312,0.1274871826171875
181024,1.971755981445312,-1.442489624023438,0.1340484619140625
181025,1.975234985351562,-1.309249877929688,0.1128997802734375
181026,1.830429077148438,-1.16668701171875,0.097137451171875
181027,1.56988525390625,-0.9470977783203124,-0.006011962890625
181028,1.281280517578125,-0.6779632568359375,-0.184814453125
181029,1.030746459960938,-0.4194183349609375,-0.3531646728515625
181030,0.8308868408203125,-0.2057647705078125,-0.4354705810546875
181031,0.681488037109375,-0.04705810546875,-0.3751678466796875
181032,0.577606201171875,0.048583984375,-0.25445556640625
181033,0.4963226318359375,0.1058807373046875,-0.14056396484375
181034,0.4063262939453125,0.1374969482421875,-0.0755767822265625
181035,0.2839508056640625,0.13604736328125,-0.0948028564453125
181036,0.1203155517578125,0.085784912109375,-0.1218719482421875
181037,-0.05047607421875,0.0143585205078125,-0.10369873046875
181038,-0.2071533203125,-0.03448486328125,-0.1315460205078125
181039,-0.3469085693359375,-0.0596160888671875,-0.08868408203125
181040,-0.431640625,-0.0554962158203125,0.04840087890625
181041,-0.434814453125,-0.0626373291015625,0.21875
181042,-0.297210693359375,-0.1055908203125,0.3867645263671875
181043,-0.0839080810546875,-0.1883087158203125,0.4146575927734375
181044,0.018798828125,-0.2882537841796875,0.3415069580078125
181045,0.0362396240234375,-0.384368896484375,0.337371826171875
181046,0.0899505615234375,-0.440521240234375,0.2860107421875
181047,0.06683349609375,-0.33953857421875,0.12713623046875
181048,-0.074554443359375,-0.16961669921875,0.039093017578125
181049,-0.2841339111328125,-0.060028076171875,0.0156097412109375
181050,-0.494476318359375,-0.049835205078125,-0.1216888427734375
181051,-0.60101318359375,-0.20343017578125,-0.3174896240234375
181052,-0.5719451904296875,-0.542510986328125,-0.4114990234375
181053,-0.31964111328125,-0.8535919189453125,-0.3600616455078125
181054,0.2779083251953125,-0.957275390625,-0.0745391845703125
181055,1.116455078125,-1.046417236328125,0.6453094482421875
181056,1.828582763671875,-1.3203125,1.18304443359375
181057,2.140090942382812,-1.655364990234375,1.180343627929688
181058,1.979476928710938,-1.845352172851562,0.9359588623046876
181059,1.544769287109375,-1.808944702148438,0.9518585205078124
181060,1.162826538085938,-1.7755126953125,0.9138031005859376
181061,0.94403076171875,-1.8251953125,0.5987548828125
181062,0.8720245361328125,-1.877334594726562,0.4637908935546875
181063,0.78875732421875,-1.875228881835938,0.4307861328125
181064,0.706787109375,-1.732650756835938,0.382293701171875
181065,0.6488037109375,-1.509613037109375,0.4197998046875
181066,0.6721954345703125,-1.26953125,0.4405975341796875
181067,0.866668701171875,-0.9961395263671876,0.3861846923828125
181068,1.10687255859375,-0.67779541015625,0.34417724609375
181069,1.140182495117188,-0.3994598388671875,0.228790283203125
181070,1.006210327148438,-0.249725341796875,0.0774078369140625
181071,0.77288818359375,-0.1884765625,-0.0529022216796875
181072,0.5054779052734375,-0.1586761474609375,-0.11871337890625
181073,0.3318939208984375,-0.1085052490234375,-0.09381103515625
181074,0.210052490234375,-0.0312347412109375,-0.134796142578125
181075,0.0735321044921875,0.0545501708984375,-0.2353057861328125
181076,-0.0474700927734375,0.1550140380859375,-0.37017822265625
181077,-0.0933685302734375,0.2806549072265625,-0.4505615234375
181078,-0.1182403564453125,0.4241790771484375,-0.408935546875
181079,-0.134521484375,0.5058135986328125,-0.1953277587890625
181080,-0.1424560546875,0.489654541015625,-0.068328857421875
181081,-0.1550750732421875,0.3980560302734375,0.079345703125
181082,-0.12603759765625,0.219085693359375,0.2108917236328125
181083,-0.056884765625,-0.057891845703125,0.269195556640625
181084,-0.0007781982421875,-0.3863677978515625,0.2299041748046875
181085,0.0019683837890625,-0.718231201171875,0.0700225830078125
181086,-0.0247039794921875,-0.9735107421875,-0.068115234375
181087,0.0332794189453125,-1.080978393554688,0.107086181640625
181088,0.1566619873046875,-1.03363037109375,0.4686431884765625
181089,0.45123291015625,-0.9929656982421876,0.9383392333984376
181090,1.132583618164062,-1.00927734375,1.323165893554688
181091,2.088851928710938,-1.019149780273438,1.344192504882812
181092,2.944412231445312,-1.189300537109375,0.743316650390625
181093,3.33154296875,-1.553482055664062,0.1698455810546875
181094,2.952667236328125,-2.115570068359375,0.2573089599609375
181095,1.89752197265625,-2.826324462890625,0.2048797607421875
181096,1.086105346679688,-3.067916870117188,0.2287445068359375
181097,0.9795684814453124,-2.645782470703125,0.1407012939453125
181098,1.393081665039062,-2.040206909179688,-0.006683349609375
181099,1.764205932617188,-1.6754150390625,-0.053985595703125
181100,2.001754760742188,-1.488006591796875,-0.0092010498046875
181101,2.158950805664062,-1.3721923828125,-0.0004425048828125
181102,2.163848876953125,-1.242401123046875,-0.1104278564453125
181103,2.007232666015625,-1.025741577148438,-0.2547149658203125
181104,1.751296997070312,-0.721466064453125,-0.391204833984375
181105,1.502304077148438,-0.4063262939453125,-0.5290985107421875
181106,1.2962646484375,-0.13836669921875,-0.6136932373046875
181107,1.104766845703125,0.047698974609375,-0.617462158203125
181108,0.9110870361328124,0.16064453125,-0.4959716796875
181109,0.72808837890625,0.208892822265625,-0.3589935302734375
181110,0.5683441162109375,0.229034423828125,-0.26300048828125
181111,0.4324493408203125,0.2476806640625,-0.1593780517578125
181112,0.2767333984375,0.247955322265625,-0.1414642333984375
181113,0.09954833984375,0.1919403076171875,-0.1481475830078125
181114,-0.047607421875,0.1093597412109375,-0.1390533447265625
181115,-0.176788330078125,0.01275634765625,-0.1028594970703125
181116,-0.2724761962890625,-0.0565185546875,-0.039306640625
181117,-0.2809906005859375,-0.1565399169921875,0.048004150390625
181118,-0.2102203369140625,-0.1739349365234375,0.2254791259765625
181119,-0.032470703125,-0.1208038330078125,0.314208984375
181120,0.184173583984375,-0.1180877685546875,0.32269287109375
181121,0.2763671875,-0.1094512939453125,0.2673797607421875
181122,0.210845947265625,-0.0760498046875,0.13275146484375
181123,0.1145172119140625,-0.0566864013671875,0.0504302978515625
181124,0.018524169921875,-0.007843017578125,0.0822296142578125
181125,-0.09906005859375,0.071624755859375,0.148193359375
181126,-0.2286834716796875,0.106658935546875,0.2528228759765625
181127,-0.317413330078125,0.0170135498046875,0.290771484375
181128,-0.305023193359375,-0.227142333984375,0.2131195068359375
181129,-0.177032470703125,-0.5937347412109375,0.1121063232421875
181130,0.02667236328125,-1.049530029296875,0.0250244140625
181131,0.4721221923828125,-1.4547119140625,0.1811065673828125
181132,1.025146484375,-1.734710693359375,0.6486663818359375
181133,1.4188232421875,-1.960098266601562,1.266357421875
181134,1.442031860351562,-2.120010375976562,1.344100952148438
181135,1.0711669921875,-1.923828125,0.988128662109375
181136,0.8359222412109375,-1.639511108398438,1.089431762695312
181137,0.5931854248046875,-1.487197875976562,1.209701538085938
181138,0.2913665771484375,-1.444534301757812,0.799652099609375
181139,0.2700653076171875,-1.57049560546875,0.5376129150390625
181140,0.42083740234375,-1.697067260742188,0.791015625
181141,0.620819091796875,-1.654937744140625,0.8352203369140625
181142,0.8055572509765625,-1.472061157226562,0.647247314453125
181143,0.911041259765625,-1.229156494140625,0.4197235107421875
181144,0.9044036865234376,-0.9879913330078124,0.249664306640625
181145,0.8782958984375,-0.6974945068359375,0.210418701171875
181146,0.8726654052734375,-0.375518798828125,0.19671630859375
181147,0.8347625732421875,-0.1490325927734375,0.0782012939453125
181148,0.798370361328125,0.0332183837890625,-0.0383453369140625
181149,0.7619781494140625,0.1591644287109375,-0.0676116943359375
181150,0.72930908203125,0.214141845703125,-0.060546875
181151,0.6470184326171875,0.21533203125,-0.1154327392578125
181152,0.46478271484375,0.191009521484375,-0.2290191650390625
181153,0.2171173095703125,0.1809844970703125,-0.385284423828125
181154,-0.0388336181640625,0.217498779296875,-0.5095367431640625
181155,-0.2382965087890625,0.2677459716796875,-0.4586181640625
181156,-0.3315277099609375,0.283203125,-0.221649169921875
181157,-0.3405914306640625,0.2867431640625,0.065826416015625
181158,-0.312774658203125,0.2618255615234375,0.2720184326171875
181159,-0.259307861328125,0.1471710205078125,0.349334716796875
181160,-0.177001953125,-0.0679779052734375,0.3703460693359375
181161,-0.0911712646484375,-0.346099853515625,0.3038330078125
181162,-0.021575927734375,-0.5942230224609375,0.0890655517578125
181163,0.0276336669921875,-0.7682037353515625,-0.1264801025390625
181164,0.0785369873046875,-0.8784027099609375,-0.0965576171875
181165,0.2544708251953125,-0.9102325439453124,0.2353668212890625
181166,0.643402099609375,-0.8923492431640625,0.723968505859375
181167,1.14483642578125,-0.9317169189453124,0.903350830078125
181168,1.72198486328125,-0.995086669921875,0.8634796142578125
181169,2.365081787109375,-1.065200805664062,0.858001708984375
181170,2.863189697265625,-1.252670288085938,0.4056854248046875
181171,2.92596435546875,-1.619888305664062,0.05682373046875
181172,2.460891723632812,-2.186187744140625,0.0655059814453125
181173,1.823959350585938,-2.719924926757812,0.0147857666015625
181174,1.4937744140625,-2.8001708984375,-0.053680419921875
181175,1.588348388671875,-2.434127807617188,-0.1241607666015625
181176,1.817520141601562,-1.9676513671875,-0.146209716796875
181177,1.962814331054688,-1.62322998046875,-0.09808349609375
181178,2.04510498046875,-1.395309448242188,-0.06646728515625
181179,2.052597045898438,-1.237258911132812,-0.1142425537109375
181180,1.993301391601562,-1.092681884765625,-0.23736572265625
181181,1.8795166015625,-0.884063720703125,-0.3676300048828125
181182,1.708099365234375,-0.5992279052734375,-0.4601287841796875
181183,1.494094848632812,-0.3419952392578125,-0.500732421875
181184,1.247360229492188,-0.178436279296875,-0.4753265380859375
181185,0.9758148193359376,-0.1170196533203125,-0.396697998046875
181186,0.73577880859375,-0.1273956298828125,-0.2747802734375
181187,0.55950927734375,-0.1099700927734375,-0.1657562255859375
181188,0.4292144775390625,-0.045440673828125,-0.093231201171875
181189,0.30706787109375,0.0211334228515625,-0.071136474609375
181190,0.156646728515625,0.040740966796875,-0.097808837890625
181191,0.0174560546875,0.0148468017578125,-0.1231689453125
181192,-0.0810394287109375,-0.0201568603515625,-0.039886474609375
181193,-0.1429901123046875,-0.053924560546875,0.069183349609375
181194,-0.1871795654296875,-0.066070556640625,0.1404266357421875
181195,-0.18048095703125,-0.072509765625,0.2395477294921875
181196,-0.122039794921875,-0.0397796630859375,0.27703857421875
181197,-0.0029144287109375,-0.03497314453125,0.286895751953125
181198,0.138824462890625,-0.1181640625,0.372344970703125
181199,0.190643310546875,-0.2204132080078125,0.389251708984375
181200,0.0325164794921875,-0.268035888671875,0.2539215087890625
181201,-0.202972412109375,-0.2831878662109375,0.0624237060546875
181202,-0.37933349609375,-0.25604248046875,-0.0570831298828125
181203,-0.56805419921875,-0.2080535888671875,-0.0835113525390625
181204,-0.7512359619140625,-0.1959381103515625,-0.154815673828125
181205,-0.8065338134765625,-0.242523193359375,-0.3205718994140625
181206,-0.617889404296875,-0.337982177734375,-0.4593353271484375
181207,-0.1988372802734375,-0.4952850341796875,-0.482177734375
181208,0.30914306640625,-0.7347564697265625,-0.249603271484375
181209,0.87420654296875,-1.045791625976562,0.391021728515625
181210,1.420928955078125,-1.446380615234375,1.127487182617188
181211,1.728836059570312,-1.814102172851562,1.404678344726562
181212,1.579757690429688,-1.962417602539062,1.186981201171875
181213,1.286666870117188,-1.783279418945312,1.114669799804688
181214,1.096878051757812,-1.507232666015625,1.212570190429688
181215,0.8166351318359375,-1.378128051757812,0.9935302734375
181216,0.5538330078125,-1.3990478515625,0.700927734375
181217,0.4786834716796875,-1.53875732421875,0.391998291015625
181218,0.475128173828125,-1.680755615234375,0.4017333984375
181219,0.4633331298828125,-1.657333374023438,0.413360595703125
181220,0.4591217041015625,-1.513397216796875,0.3580169677734375
181221,0.4987335205078125,-1.32855224609375,0.3176116943359375
181222,0.6255950927734375,-1.098861694335938,0.2108001708984375
181223,0.7935028076171875,-0.7873992919921875,0.185760498046875
181224,0.9266357421875,-0.4389190673828125,0.1523895263671875
181225,1.038604736328125,-0.2005767822265625,0.0614471435546875
181226,1.09393310546875,-0.0436859130859375,-0.0559539794921875
181227,1.044967651367188,0.0410614013671875,-0.1482391357421875
181228,0.859710693359375,0.04052734375,-0.2326507568359375
181229,0.7022705078125,0.015350341796875,-0.2157745361328125
181230,0.5523223876953125,0.026641845703125,-0.2015533447265625
181231,0.32366943359375,0.04052734375,-0.232208251953125
181232,0.08160400390625,0.0305938720703125,-0.266448974609375
181233,-0.139739990234375,0.0251922607421875,-0.24700927734375
181234,-0.310699462890625,0.024383544921875,-0.101409912109375
181235,-0.408935546875,0.0162200927734375,0.1399993896484375
181236,-0.4102630615234375,3.0517578125e-05,0.4273834228515625
181237,-0.3757476806640625,-0.0214080810546875,0.6077117919921875
181238,-0.3471527099609375,-0.0890350341796875,0.581756591796875
181239,-0.295562744140625,-0.2362823486328125,0.404327392578125
181240,-0.2354888916015625,-0.3970184326171875,0.118194580078125
181241,-0.176666259765625,-0.5406494140625,-0.1523895263671875
181242,-0.1135711669921875,-0.6746063232421875,-0.34295654296875
181243,-0.00274658203125,-0.7853851318359375,-0.29595947265625
181244,0.263275146484375,-0.85211181640625,0.30670166015625
181245,0.8305816650390625,-0.9744110107421876,1.43231201171875
181246,1.885482788085938,-1.183547973632812,1.678497314453125
181247,3.108673095703125,-1.402023315429688,0.6699676513671875
181248,4.010498046875,-1.704574584960938,-0.5346832275390625
181249,4.029693603515625,-2.105361938476562,-0.2767181396484375
181250,2.782058715820312,-2.586318969726562,0.056427001953125
181251,1.549514770507812,-2.716140747070312,-0.0771026611328125
181252,1.296417236328125,-2.458358764648438,-0.31585693359375
181253,1.647750854492188,-2.04840087890625,-0.4722747802734375
181254,2.019622802734375,-1.778579711914062,-0.4167022705078125
181255,2.229080200195312,-1.6212158203125,-0.1900177001953125
181256,2.251144409179688,-1.46923828125,0.001617431640625
181257,2.101028442382812,-1.321121215820312,0.0228118896484375
181258,1.842926025390625,-1.140899658203125,-0.0828094482421875
181259,1.542327880859375,-0.926300048828125,-0.1713409423828125
181260,1.261749267578125,-0.6995849609375,-0.2265167236328125
181261,1.029937744140625,-0.4784088134765625,-0.3368988037109375
181262,0.8188018798828125,-0.289581298828125,-0.40264892578125
181263,0.635711669921875,-0.1354827880859375,-0.3568878173828125
181264,0.5020599365234375,0.00616455078125,-0.253662109375
181265,0.40087890625,0.133148193359375,-0.1538543701171875
181266,0.2836456298828125,0.2233428955078125,-0.1242218017578125
181267,0.1104736328125,0.262420654296875,-0.14678955078125
181268,-0.0610198974609375,0.2493896484375,-0.1759185791015625
181269,-0.203704833984375,0.2049560546875,-0.1728515625
181270,-0.2822418212890625,0.182891845703125,-0.022613525390625
181271,-0.2752532958984375,0.1451263427734375,0.1579437255859375
181272,-0.1890869140625,0.0701446533203125,0.3181610107421875
181273,-0.041229248046875,0.0216217041015625,0.4107666015625
181274,0.1293487548828125,0.011260986328125,0.4275665283203125
181275,0.1975250244140625,-0.04095458984375,0.3280181884765625
181276,0.121002197265625,-0.0854949951171875,0.1945648193359375
181277,0.0026092529296875,-0.12921142578125,0.155029296875
181278,-0.1384124755859375,-0.152130126953125,0.088623046875
181279,-0.3369903564453125,-0.117767333984375,-0.0756988525390625
181280,-0.5614166259765625,-0.09686279296875,-0.1315155029296875
181281,-0.7328948974609375,-0.164306640625,-0.15716552734375
181282,-0.7737274169921875,-0.3460235595703125,-0.272857666015625
181283,-0.608001708984375,-0.54638671875,-0.390655517578125
181284,-0.2082672119140625,-0.632568359375,-0.3029327392578125
181285,0.25579833984375,-0.749481201171875,0.051544189453125
181286,0.649932861328125,-1.080841064453125,0.63336181640625
181287,1.160934448242188,-1.6114501953125,1.215255737304688
181288,1.729843139648438,-2.049972534179688,1.239944458007812
181289,1.717514038085938,-2.047988891601562,0.891845703125
181290,1.2362060546875,-1.667648315429688,0.9109039306640624
181291,0.9398651123046876,-1.460586547851562,0.9727783203125
181292,0.8307952880859375,-1.559478759765625,0.9471893310546876
181293,0.857452392578125,-1.792892456054688,0.6421966552734375
181294,1.051040649414062,-1.975128173828125,0.5175628662109375
181295,1.165863037109375,-1.957138061523438,0.8183135986328125
181296,1.217926025390625,-1.6185302734375,0.8583831787109375
181297,1.271102905273438,-1.184738159179688,0.7587738037109375
181298,1.30462646484375,-0.8557281494140625,0.6605224609375
181299,1.267807006835938,-0.690032958984375,0.5458526611328125
181300,1.116073608398438,-0.658935546875,0.4739990234375
181301,0.8233795166015625,-0.7112579345703125,0.2565155029296875
181302,0.396331787109375,-0.753387451171875,-0.14727783203125
181303,-0.0557098388671875,-0.65472412109375,-0.4617919921875
181304,-0.36614990234375,-0.33001708984375,-0.4963226318359375
181305,-0.4391632080078125,0.0837860107421875,-0.3808135986328125
181306,-0.390228271484375,0.3402557373046875,-0.5214385986328125
181307,-0.25579833984375,0.4234619140625,-0.5486602783203125
181308,-0.03125,0.546783447265625,-0.3567352294921875
181309,0.1401824951171875,0.7108917236328125,-0.0924224853515625
181310,0.203399658203125,0.7545928955078125,0.184814453125
181311,0.193145751953125,0.6256256103515625,0.4928436279296875
181312,0.138580322265625,0.401824951171875,0.734832763671875
181313,0.0859375,0.1300506591796875,0.767822265625
181314,0.042633056640625,-0.1492919921875,0.592193603515625
181315,0.012542724609375,-0.4235687255859375,0.322265625
181316,-0.0265655517578125,-0.651824951171875,-0.196868896484375
181317,-0.1481170654296875,-0.7442169189453125,-0.6453399658203125
181318,-0.2501678466796875,-0.7347259521484375,-0.7095489501953125
181319,-0.177459716796875,-0.6926422119140625,-0.4297943115234375
181320,0.0983123779296875,-0.5807037353515625,-0.0608062744140625
181321,0.5329132080078125,-0.4572906494140625,0.3215789794921875
181322,1.048492431640625,-0.3966827392578125,0.69561767578125
181323,1.69378662109375,-0.4393157958984375,1.107574462890625
181324,2.494857788085938,-0.59228515625,1.501434326171875
181325,3.203048706054688,-0.9582977294921876,1.150299072265625
181326,3.463134765625,-1.55181884765625,0.262359619140625
181327,3.03179931640625,-2.272537231445312,-0.1327056884765625
181328,2.023269653320312,-3.102325439453125,-0.0088043212890625
181329,1.256256103515625,-3.406692504882812,0.0341644287109375
181330,1.2598876953125,-2.824874877929688,-0.0348968505859375
181331,1.688034057617188,-2.0206298828125,-0.0499420166015625
181332,2.000534057617188,-1.508331298828125,0.007568359375
181333,2.185440063476562,-1.217910766601562,0.0029144287109375
181334,2.2703857421875,-1.086883544921875,-0.115966796875
181335,2.209426879882812,-0.996551513671875,-0.2426910400390625
181336,2.042312622070312,-0.8524322509765625,-0.309661865234375
181337,1.817825317382812,-0.6468963623046875,-0.3251495361328125
181338,1.581893920898438,-0.417755126953125,-0.3313140869140625
181339,1.352767944335938,-0.2364349365234375,-0.346954345703125
181340,1.117782592773438,-0.13262939453125,-0.3280487060546875
181341,0.8807373046875,-0.0800933837890625,-0.2706451416015625
181342,0.6741485595703125,-0.0313262939453125,-0.2113189697265625
181343,0.499114990234375,0.0501708984375,-0.1485595703125
181344,0.330718994140625,0.127960205078125,-0.0921478271484375
181345,0.1351318359375,0.144805908203125,-0.1042633056640625
181346,-0.0898895263671875,0.1100616455078125,-0.1206512451171875
181347,-0.3131561279296875,0.039947509765625,-0.1328582763671875
181348,-0.453765869140625,0.0098114013671875,-0.0825653076171875
181349,-0.583587646484375,0.004302978515625,0.0482330322265625
181350,-0.67010498046875,0.0008087158203125,0.1912841796875
181351,-0.65679931640625,-0.038238525390625,0.35150146484375
181352,-0.478302001953125,-0.111572265625,0.466094970703125
181353,-0.2145843505859375,-0.2072906494140625,0.4560089111328125
181354,-0.0292816162109375,-0.288909912109375,0.3245697021484375
181355,0.0232391357421875,-0.3497467041015625,0.1286773681640625
181356,0.0030059814453125,-0.3922271728515625,-0.0549774169921875
181357,-0.0131683349609375,-0.37420654296875,-0.1372528076171875
181358,-0.022216796875,-0.28094482421875,-0.1507720947265625
181359,-0.02679443359375,-0.1934661865234375,-0.0888214111328125
181360,0.00921630859375,-0.14447021484375,-0.0570526123046875
181361,0.143310546875,-0.1875,-0.1432037353515625
181362,0.3843536376953125,-0.38360595703125,-0.1376190185546875
181363,0.71923828125,-0.7301483154296875,0.2700042724609375
181364,1.093963623046875,-1.162307739257812,0.925872802734375
181365,1.414459228515625,-1.622085571289062,1.273483276367188
181366,1.618606567382812,-2.116592407226562,1.208297729492188
181367,1.447235107421875,-2.271621704101562,1.016250610351562
181368,1.086822509765625,-1.8782958984375,1.09466552734375
181369,0.729522705078125,-1.586715698242188,1.161422729492188
181370,0.2633819580078125,-1.5550537109375,0.9282989501953124
181371,0.0601959228515625,-1.59686279296875,0.464080810546875
181372,0.2099761962890625,-1.54656982421875,0.4140167236328125
181373,0.445953369140625,-1.430145263671875,0.75
181374,0.6749725341796875,-1.326889038085938,0.7449493408203125
181375,0.8299713134765625,-1.2413330078125,0.5893402099609375
181376,0.8590240478515625,-1.174331665039062,0.3896026611328125
181377,0.811187744140625,-1.091415405273438,0.2964324951171875
181378,0.77716064453125,-0.8311309814453125,0.2746124267578125
181379,0.7705078125,-0.485870361328125,0.2143402099609375
181380,0.760284423828125,-0.215789794921875,0.086639404296875
181381,0.71868896484375,-0.0380096435546875,-0.02252197265625
181382,0.637359619140625,0.0556793212890625,-0.0463714599609375
181383,0.5369110107421875,0.0723876953125,-0.067047119140625
181384,0.383514404296875,0.062286376953125,-0.1845245361328125
181385,0.1590728759765625,0.10430908203125,-0.317779541015625
181386,-0.10015869140625,0.2060089111328125,-0.458251953125
181387,-0.261474609375,0.345458984375,-0.4256591796875
181388,-0.2736663818359375,0.4342041015625,-0.159271240234375
181389,-0.207061767578125,0.4496002197265625,0.1920013427734375
181390,-0.1204071044921875,0.364471435546875,0.330596923828125
181391,-0.045867919921875,0.1898040771484375,0.2591400146484375
181392,0.020538330078125,-0.0411529541015625,0.0717010498046875
181393,0.061553955078125,-0.2711029052734375,-0.125244140625
181394,0.0502166748046875,-0.4529876708984375,-0.186767578125
181395,-0.00848388671875,-0.5856170654296875,-0.169586181640625
181396,-0.042205810546875,-0.6814422607421875,-0.0908050537109375
181397,0.0537261962890625,-0.7210235595703125,0.1564483642578125
181398,0.32098388671875,-0.7184295654296875,0.474212646484375
181399,0.7571563720703125,-0.73052978515625,0.7375030517578125
181400,1.300567626953125,-0.7628021240234375,0.811187744140625
181401,1.968338012695312,-0.829193115234375,0.83209228515625
181402,2.690963745117188,-0.954254150390625,0.8248748779296875
181403,3.158096313476562,-1.303009033203125,0.21759033203125
181404,2.978256225585938,-1.83270263671875,-0.12249755859375
181405,2.14385986328125,-2.459075927734375,0.00927734375
181406,1.283248901367188,-2.879486083984375,0.0714874267578125
181407,0.9871368408203124,-2.828292846679688,0.094512939453125
181408,1.23388671875,-2.426177978515625,0.0923919677734375
181409,1.638320922851562,-2.05224609375,0.004974365234375
181410,1.911331176757812,-1.80731201171875,-0.033966064453125
181411,2.056411743164062,-1.660369873046875,-0.101715087890625
181412,2.064605712890625,-1.573944091796875,-0.2006072998046875
181413,1.951187133789062,-1.44427490234375,-0.24951171875
181414,1.784698486328125,-1.20574951171875,-0.320556640625
181415,1.612503051757812,-0.88690185546875,-0.448089599609375
181416,1.449310302734375,-0.562652587890625,-0.57958984375
181417,1.2767333984375,-0.301513671875,-0.626708984375
181418,1.080291748046875,-0.126708984375,-0.5659027099609375
181419,0.8812103271484375,-0.0240020751953125,-0.429534912109375
181420,0.7126617431640625,0.028228759765625,-0.301300048828125
181421,0.5569305419921875,0.078033447265625,-0.20928955078125
181422,0.404296875,0.139434814453125,-0.1722869873046875
181423,0.2333984375,0.1696319580078125,-0.194671630859375
181424,0.0565948486328125,0.1513824462890625,-0.18695068359375
181425,-0.06109619140625,0.1192169189453125,-0.126068115234375
181426,-0.127685546875,0.0883636474609375,0.0111846923828125
181427,-0.204498291015625,0.041351318359375,0.113067626953125
181428,-0.19866943359375,-0.0402679443359375,0.1909637451171875
181429,-0.0891571044921875,-0.0748748779296875,0.29718017578125
181430,0.0807647705078125,-0.040069580078125,0.3158111572265625
181431,0.2119903564453125,-0.073577880859375,0.3150787353515625
181432,0.166748046875,-0.1504364013671875,0.2891082763671875
181433,-0.0410614013671875,-0.2003631591796875,0.2789306640625
181434,-0.2559814453125,-0.23046875,0.2489013671875
181435,-0.418212890625,-0.202362060546875,0.18011474609375
181436,-0.5672454833984375,-0.1489410400390625,0.1123504638671875
181437,-0.6903533935546875,-0.1240692138671875,0.013641357421875
181438,-0.7498626708984375,-0.19598388671875,-0.114410400390625
181439,-0.6920318603515625,-0.3724822998046875,-0.297760009765625
181440,-0.444122314453125,-0.5734100341796875,-0.5350341796875
181441,0.022125244140625,-0.7274932861328125,-0.5505828857421875
181442,0.5189056396484375,-0.955657958984375,-0.1298675537109375
181443,1.060073852539062,-1.27423095703125,0.55389404296875
181444,1.728729248046875,-1.679595947265625,1.266983032226562
181445,2.286605834960938,-2.149887084960938,1.683990478515625
181446,2.268218994140625,-2.274871826171875,1.393280029296875
181447,1.704299926757812,-1.818649291992188,1.054885864257812
181448,1.1763916015625,-1.46099853515625,1.162261962890625
181449,0.6819000244140625,-1.398590087890625,1.060089111328125
181450,0.4210205078125,-1.556167602539062,0.5308380126953125
181451,0.4137115478515625,-1.77825927734375,0.3790435791015625
181452,0.4565582275390625,-1.825698852539062,0.4742889404296875
181453,0.5337066650390625,-1.617874145507812,0.4892425537109375
181454,0.6255950927734375,-1.369430541992188,0.4370574951171875
181455,0.7082366943359375,-1.1583251953125,0.33758544921875
181456,0.73504638671875,-0.950592041015625,0.230072021484375
181457,0.7255401611328125,-0.69879150390625,0.115692138671875
181458,0.6801300048828125,-0.4339752197265625,0.02947998046875
181459,0.61846923828125,-0.2350616455078125,-0.0500640869140625
181460,0.5502166748046875,-0.0985260009765625,-0.104705810546875
181461,0.51141357421875,0.0084381103515625,-0.092620849609375
181462,0.5157012939453125,0.101531982421875,-0.0649566650390625
181463,0.5441741943359375,0.1795196533203125,-0.0746612548828125
181464,0.5427093505859375,0.2524261474609375,-0.2033233642578125
181465,0.458740234375,0.3240509033203125,-0.37890625
181466,0.2981414794921875,0.388580322265625,-0.4129180908203125
181467,0.1252593994140625,0.425537109375,-0.2311553955078125
181468,0.0066070556640625,0.40576171875,0.1242523193359375
181469,0.0351409912109375,0.3352508544921875,0.4295654296875
181470,0.1810302734375,0.24310302734375,0.4397125244140625
181471,0.229949951171875,0.08935546875,0.27655029296875
181472,0.1083221435546875,-0.213226318359375,0.215301513671875
181473,-0.13629150390625,-0.5884552001953125,0.170135498046875
181474,-0.443115234375,-0.8892822265625,0.046722412109375
181475,-0.7198638916015625,-1.101654052734375,-0.107513427734375
181476,-0.78668212890625,-1.194473266601562,-0.0675811767578125
181477,-0.4676361083984375,-1.105331420898438,0.3130645751953125
181478,0.18798828125,-0.8983917236328125,0.702667236328125
181479,0.983551025390625,-0.8049163818359375,0.85455322265625
181480,1.8209228515625,-0.864166259765625,0.8926239013671875
181481,2.52545166015625,-1.061080932617188,0.87646484375
181482,2.766586303710938,-1.495681762695312,0.4825897216796875
181483,2.44769287109375,-1.847122192382812,0.4307098388671875
181484,1.921890258789062,-2.01483154296875,0.578826904296875
181485,1.677520751953125,-2.237014770507812,0.4048919677734375
181486,1.723907470703125,-2.364242553710938,0.1232757568359375
181487,1.997299194335938,-2.2557373046875,-0.0377655029296875
181488,2.260467529296875,-2.014694213867188,-0.0624847412109375
181489,2.366912841796875,-1.760757446289062,-0.0641632080078125
181490,2.373672485351562,-1.490966796875,-0.131103515625
181491,2.328384399414062,-1.198440551757812,-0.2370452880859375
181492,2.23663330078125,-0.901458740234375,-0.3549346923828125
181493,2.08660888671875,-0.6244049072265625,-0.44317626953125
181494,1.8798828125,-0.380950927734375,-0.4695281982421875
181495,1.632492065429688,-0.2101593017578125,-0.4719390869140625
181496,1.353042602539062,-0.12750244140625,-0.4210205078125
181497,1.049957275390625,-0.12530517578125,-0.3338165283203125
181498,0.7781524658203125,-0.1669921875,-0.22296142578125
181499,0.59503173828125,-0.1539764404296875,-0.13006591796875
181500,0.441375732421875,-0.1052093505859375,-0.102691650390625
181501,0.2840728759765625,-0.0417022705078125,-0.104888916015625
181502,0.1035308837890625,0.0183868408203125,-0.1132049560546875
181503,-0.0907745361328125,0.03509521484375,-0.04400634765625
181504,-0.233367919921875,0.0614013671875,0.0528564453125
181505,-0.3175811767578125,0.0733795166015625,0.1363677978515625
181506,-0.3334197998046875,0.04010009765625,0.2382049560546875
181507,-0.2902679443359375,-0.024993896484375,0.2446136474609375
181508,-0.22039794921875,-0.0415496826171875,0.256378173828125
181509,-0.1061248779296875,-0.0741119384765625,0.3274383544921875
181510,0.054046630859375,-0.16119384765625,0.444793701171875
181511,0.1407318115234375,-0.2379302978515625,0.5077056884765625
181512,0.018829345703125,-0.274932861328125,0.3619842529296875
181513,-0.194091796875,-0.2684173583984375,0.081024169921875
181514,-0.32794189453125,-0.2280426025390625,-0.1627044677734375
181515,-0.378570556640625,-0.163116455078125,-0.3325042724609375
181516,-0.4019317626953125,-0.1208038330078125,-0.4618072509765625
181517,-0.3978424072265625,-0.1457366943359375,-0.5023345947265625
181518,-0.3161163330078125,-0.234710693359375,-0.4866790771484375
181519,-0.1446685791015625,-0.4148101806640625,-0.3418731689453125
181520,0.1537628173828125,-0.641845703125,-0.0285797119140625
181521,0.78656005859375,-0.8787689208984375,0.598388671875
181522,1.721435546875,-1.266891479492188,1.275909423828125
181523,2.39739990234375,-1.771835327148438,1.557876586914062
181524,2.2374267578125,-2.179550170898438,1.650802612304688
181525,1.544052124023438,-2.017898559570312,1.639373779296875
181526,1.115676879882812,-1.566177368164062,1.411392211914062
181527,0.724609375,-1.33734130859375,0.8484954833984375
181528,0.4517669677734375,-1.421920776367188,0.4295654296875
181529,0.4824981689453125,-1.478179931640625,0.3233642578125
181530,0.6223602294921875,-1.457046508789062,0.58734130859375
181531,0.6947021484375,-1.424560546875,0.698211669921875
181532,0.705413818359375,-1.322128295898438,0.5924224853515625
181533,0.6792755126953125,-1.201889038085938,0.4727935791015625
181534,0.6008758544921875,-1.097213745117188,0.3502349853515625
181535,0.509307861328125,-0.9655914306640624,0.194793701171875
181536,0.416168212890625,-0.7599639892578125,0.0576171875
181537,0.372344970703125,-0.5076751708984375,-0.112579345703125
181538,0.4726104736328125,-0.2326202392578125,-0.1890411376953125
181539,0.6392669677734375,0.033355712890625,-0.1729583740234375
181540,0.73211669921875,0.222442626953125,-0.0672149658203125
181541,0.7326507568359375,0.33563232421875,0.041900634765625
181542,0.6678009033203125,0.38623046875,-0.0214385986328125
181543,0.4720001220703125,0.406494140625,-0.2281494140625
181544,0.2359466552734375,0.3973541259765625,-0.3526611328125
181545,0.0647125244140625,0.430999755859375,-0.2046966552734375
181546,0.060028076171875,0.3759765625,-0.140869140625
181547,0.12335205078125,0.200347900390625,-0.134674072265625
181548,0.2218475341796875,-0.050323486328125,0.166229248046875
181549,0.3204498291015625,-0.3475341796875,0.3666839599609375
181550,0.3333740234375,-0.621368408203125,0.308685302734375
181551,0.2309417724609375,-0.7830657958984375,0.120697021484375
181552,-0.0711822509765625,-0.7984161376953125,-0.0752716064453125
181553,-0.38250732421875,-0.7560272216796875,-0.190032958984375
181554,-0.43798828125,-0.7430419921875,-0.155029296875
181555,-0.2153778076171875,-0.7292022705078125,0.0085601806640625
181556,0.269134521484375,-0.66265869140625,0.3294219970703125
181557,0.9778594970703124,-0.595977783203125,0.828857421875
181558,1.673385620117188,-0.70782470703125,1.310089111328125
181559,2.248641967773438,-0.9951019287109376,1.30596923828125
181560,2.555740356445312,-1.360824584960938,0.6665802001953125
181561,2.36175537109375,-1.775985717773438,0.505828857421875
181562,1.878128051757812,-2.273727416992188,0.560546875
181563,1.533966064453125,-2.638900756835938,0.2080078125
181564,1.433364868164062,-2.48382568359375,0.0795135498046875
181565,1.596755981445312,-1.992218017578125,0.1658782958984375
181566,1.862640380859375,-1.63055419921875,0.146820068359375
181567,2.100433349609375,-1.439697265625,-0.035797119140625
181568,2.25323486328125,-1.335052490234375,-0.24365234375
181569,2.2294921875,-1.253311157226562,-0.3294677734375
181570,2.072357177734375,-1.123001098632812,-0.3512420654296875
181571,1.908660888671875,-0.9387054443359376,-0.3519439697265625
181572,1.787185668945312,-0.7158355712890625,-0.3963165283203125
181573,1.691864013671875,-0.474884033203125,-0.4788055419921875
181574,1.5777587890625,-0.2557220458984375,-0.5617218017578125
181575,1.408538818359375,-0.108856201171875,-0.5625
181576,1.193832397460938,-0.01068115234375,-0.4710693359375
181577,0.9625396728515624,0.069671630859375,-0.3511810302734375
181578,0.718902587890625,0.1249542236328125,-0.22796630859375
181579,0.4552459716796875,0.1649627685546875,-0.1982879638671875
181580,0.1753997802734375,0.1584014892578125,-0.1942138671875
181581,-0.0780487060546875,0.1213531494140625,-0.14794921875
181582,-0.248626708984375,0.0942535400390625,-0.0371246337890625
181583,-0.3307342529296875,0.0711212158203125,0.0160980224609375
181584,-0.288665771484375,0.0344085693359375,0.0210113525390625
181585,-0.1033172607421875,0.0057525634765625,-0.0069122314453125
181586,0.039031982421875,0.0362396240234375,0.0196380615234375
181587,0.2232666015625,0.0324249267578125,0.1864471435546875
181588,0.4435577392578125,0.0024566650390625,0.3145904541015625
181589,0.5959930419921875,-0.0382080078125,0.312530517578125
181590,0.5861053466796875,-0.103729248046875,0.2945556640625
181591,0.30804443359375,-0.12469482421875,0.1767120361328125
181592,-0.0305023193359375,-0.1031341552734375,0.0559844970703125
181593,-0.30145263671875,-0.0949859619140625,-0.001708984375
181594,-0.5163116455078125,-0.12060546875,-0.0188446044921875
181595,-0.6202545166015625,-0.18939208984375,0.068634033203125
181596,-0.5206146240234375,-0.373046875,0.259521484375
181597,-0.2413330078125,-0.658966064453125,0.461395263671875
181598,0.1072845458984375,-0.9745025634765624,0.6685333251953125
181599,0.5464630126953125,-1.364974975585938,0.9708099365234376
181600,1.029922485351562,-1.774505615234375,1.154205322265625
181601,1.234390258789062,-1.941192626953125,1.058074951171875
181602,0.88299560546875,-1.766494750976562,0.9368896484375
181603,0.2081146240234375,-1.570281982421875,0.75848388671875
181604,-0.2404632568359375,-1.417938232421875,0.7940521240234375
181605,-0.1613311767578125,-1.14605712890625,1.02288818359375
181606,0.203948974609375,-1.037399291992188,1.110626220703125
181607,0.53497314453125,-1.162399291992188,0.8368988037109375
181608,0.7089385986328125,-1.357391357421875,0.6757354736328125
181609,0.80706787109375,-1.536346435546875,0.6711273193359375
181610,0.8632965087890625,-1.566802978515625,0.6193084716796875
181611,0.8472747802734375,-1.423553466796875,0.547119140625
181612,0.7538604736328125,-1.200668334960938,0.434326171875
181613,0.6151885986328125,-0.9909820556640624,0.304779052734375
181614,0.487213134765625,-0.79229736328125,0.2076568603515625
181615,0.4005279541015625,-0.5822296142578125,0.098968505859375
181616,0.361907958984375,-0.37091064453125,-0.061798095703125
181617,0.382476806640625,-0.161590576171875,-0.254638671875
181618,0.4559326171875,0.018890380859375,-0.3224334716796875
181619,0.5454864501953125,0.172454833984375,-0.2747650146484375
181620,0.6042327880859375,0.2851104736328125,-0.1813507080078125
181621,0.594635009765625,0.3391876220703125,-0.07305908203125
181622,0.503662109375,0.32098388671875,-0.0347747802734375
181623,0.357177734375,0.2471466064453125,-0.06842041015625
181624,0.164337158203125,0.164642333984375,-0.0962066650390625
181625,-0.045166015625,0.0854949951171875,-0.0567169189453125
181626,-0.2019195556640625,-0.0012664794921875,0.011871337890625
181627,-0.248931884765625,-0.104766845703125,0.095794677734375
181628,-0.2220611572265625,-0.1633453369140625,0.1891021728515625
181629,-0.19122314453125,-0.18206787109375,0.2132415771484375
181630,-0.15264892578125,-0.2256622314453125,0.1663665771484375
181631,-0.0587921142578125,-0.283538818359375,0.0337982177734375
181632,0.065673828125,-0.3560943603515625,-0.0904693603515625
181633,0.2257843017578125,-0.4415130615234375,-0.1201934814453125
181634,0.4732208251953125,-0.5314178466796875,0.0872650146484375
181635,0.8165283203125,-0.6883087158203125,0.61798095703125
181636,1.312759399414062,-0.8932037353515625,1.205581665039062
181637,2.085556030273438,-1.102081298828125,1.709487915039062
181638,3.031829833984375,-1.375396728515625,1.256317138671875
181639,3.416046142578125,-1.7236328125,0.02728271484375
181640,2.808609008789062,-2.078964233398438,-0.0805511474609375
181641,1.583526611328125,-2.464981079101562,0.1840362548828125
181642,0.8405914306640625,-2.360671997070312,-0.03826904296875
181643,0.9447174072265624,-1.782943725585938,-0.283233642578125
181644,1.440643310546875,-1.415573120117188,-0.2999420166015625
181645,1.800979614257812,-1.3294677734375,-0.2783203125
181646,2.059295654296875,-1.322494506835938,-0.209930419921875
181647,2.2501220703125,-1.394500732421875,-0.1130523681640625
181648,2.312606811523438,-1.391021728515625,-0.038177490234375
181649,2.24798583984375,-1.202774047851562,-0.0679168701171875
181650,2.070358276367188,-0.89862060546875,-0.1819305419921875
181651,1.795379638671875,-0.588134765625,-0.299652099609375
181652,1.44378662109375,-0.3531951904296875,-0.40802001953125
181653,1.061996459960938,-0.1937408447265625,-0.4333343505859375
181654,0.7021636962890625,-0.089691162109375,-0.37408447265625
181655,0.397857666015625,-0.024017333984375,-0.278961181640625
181656,0.154632568359375,0.0163421630859375,-0.208465576171875
181657,-0.0431060791015625,0.022216796875,-0.127532958984375
181658,-0.24444580078125,-0.0224609375,-0.0958251953125
181659,-0.4506683349609375,-0.0803070068359375,-0.095611572265625
181660,-0.62286376953125,-0.10516357421875,-0.07550048828125
181661,-0.735595703125,-0.0875396728515625,0.00872802734375
181662,-0.81475830078125,-0.031524658203125,0.13336181640625
181663,-0.8271484375,0.049285888671875,0.1811370849609375
181664,-0.7915191650390625,0.09027099609375,0.1544036865234375
181665,-0.719268798828125,0.0886383056640625,0.1695098876953125
181666,-0.5928497314453125,0.05853271484375,0.2338409423828125
181667,-0.497467041015625,-0.017730712890625,0.2438201904296875
181668,-0.4835205078125,-0.1233978271484375,0.268341064453125
181669,-0.512451171875,-0.2208099365234375,0.360809326171875
181670,-0.5488128662109375,-0.308746337890625,0.435302734375
181671,-0.5694122314453125,-0.383087158203125,0.3725738525390625
181672,-0.5118255615234375,-0.4517974853515625,0.150604248046875
181673,-0.3690185546875,-0.56878662109375,-0.0941925048828125
181674,-0.207763671875,-0.7777099609375,-0.1457061767578125
181675,-0.0400848388671875,-1.015640258789062,-0.0061798095703125
181676,0.36590576171875,-1.175796508789062,0.5380401611328125
181677,1.414993286132812,-1.182708740234375,1.315872192382812
181678,2.83856201171875,-1.197540283203125,0.263397216796875
181679,3.862945556640625,-1.277603149414062,-1.153091430664062
181680,4.315994262695312,-1.229995727539062,-0.7757415771484375
181681,3.97296142578125,-1.173095703125,-0.0016937255859375
181682,3.195068359375,-1.585037231445312,0.154815673828125
181683,2.71441650390625,-2.092758178710938,-0.3240966796875
181684,2.326995849609375,-2.1484375,-0.8131561279296875
181685,1.923080444335938,-1.920440673828125,-0.9234619140625
181686,1.592086791992188,-1.526840209960938,-0.527374267578125
181687,1.50640869140625,-1.27496337890625,-0.1126708984375
181688,1.5762939453125,-1.215713500976562,0.100677490234375
181689,1.573196411132812,-1.246612548828125,0.157928466796875
181690,1.449447631835938,-1.190414428710938,0.081573486328125
181691,1.262115478515625,-0.9619598388671876,-0.0081787109375
181692,1.066604614257812,-0.663055419921875,-0.054412841796875
181693,0.868011474609375,-0.380035400390625,-0.09661865234375
181694,0.661834716796875,-0.128997802734375,-0.17779541015625
181695,0.4439849853515625,0.059234619140625,-0.2212066650390625
181696,0.2219696044921875,0.167266845703125,-0.27685546875
181697,0.026702880859375,0.19012451171875,-0.29779052734375
181698,-0.1084442138671875,0.206756591796875,-0.257843017578125
181699,-0.13616943359375,0.255126953125,-0.21185302734375
181700,-0.146148681640625,0.2584075927734375,-0.183746337890625
181701,-0.162628173828125,0.22967529296875,-0.0970001220703125
181702,-0.1002960205078125,0.2042694091796875,0.114471435546875
181703,0.0903472900390625,0.1505126953125,0.1904296875
181704,0.2008819580078125,0.148101806640625,-0.0086212158203125
181705,0.1627960205078125,0.1222076416015625,-0.1753692626953125
181706,0.11181640625,-0.0390777587890625,-0.0902252197265625
181707,0.0835723876953125,-0.2884521484375,0.0309906005859375
181708,-0.0341949462890625,-0.4691925048828125,0.02490234375
181709,-0.242218017578125,-0.522125244140625,0.0948638916015625
181710,-0.3869476318359375,-0.5429534912109375,0.1172027587890625
181711,-0.3270263671875,-0.5776214599609375,0.011871337890625
181712,-0.0460205078125,-0.5733489990234375,-0.1676483154296875
181713,0.434234619140625,-0.605743408203125,0.0432891845703125
181714,1.020233154296875,-0.847503662109375,0.8045654296875
181715,1.415695190429688,-1.3355712890625,1.353927612304688
181716,1.465286254882812,-2.07275390625,1.221832275390625
181717,1.12469482421875,-2.4473876953125,0.8023529052734375
181718,0.82330322265625,-1.908157348632812,0.74005126953125
181719,0.6737213134765625,-1.413742065429688,0.4815673828125
181720,0.4542999267578125,-1.402725219726562,0.281402587890625
181721,0.32720947265625,-1.6195068359375,0.514190673828125
181722,0.4111328125,-1.798675537109375,0.59429931640625
181723,0.5609283447265625,-1.840850830078125,0.5771331787109375
181724,0.668304443359375,-1.72210693359375,0.6802215576171875
181725,0.724700927734375,-1.519256591796875,0.6856231689453125
181726,0.6634521484375,-1.307876586914062,0.5716400146484375
181727,0.541839599609375,-1.150283813476562,0.367095947265625
181728,0.403289794921875,-1.027145385742188,0.11761474609375
181729,0.3137054443359375,-0.880035400390625,-0.0435638427734375
181730,0.2761688232421875,-0.6414031982421875,-0.1540069580078125
181731,0.1687774658203125,-0.4201812744140625,-0.3212432861328125
181732,-0.0534820556640625,-0.301239013671875,-0.380462646484375
181733,-0.2337188720703125,-0.2243804931640625,-0.2685699462890625
181734,-0.2756500244140625,-0.1219635009765625,-0.1657257080078125
181735,-0.19384765625,0.005035400390625,-0.1091766357421875
181736,-0.05047607421875,0.1766357421875,-0.12005615234375
181737,0.136138916015625,0.334136962890625,-0.18426513671875
181738,0.2600250244140625,0.378753662109375,-0.2166290283203125
181739,0.2657928466796875,0.302215576171875,-0.1467742919921875
181740,0.16949462890625,0.1134490966796875,-0.0929107666015625
181741,0.0436248779296875,-0.06854248046875,-0.0982818603515625
181742,-0.011566162109375,-0.186981201171875,-0.076324462890625
181743,0.0139312744140625,-0.2475128173828125,0.003021240234375
181744,0.05120849609375,-0.26824951171875,0.0793914794921875
181745,0.0787506103515625,-0.2827911376953125,0.1095123291015625
181746,0.131927490234375,-0.3070526123046875,0.1271209716796875
181747,0.19873046875,-0.3489837646484375,0.1738433837890625
181748,0.261138916015625,-0.433868408203125,0.2008056640625
181749,0.3249969482421875,-0.5617523193359375,0.3040008544921875
181750,0.4152984619140625,-0.685516357421875,0.5301055908203125
181751,0.51605224609375,-0.811614990234375,0.792022705078125
181752,0.6109619140625,-0.948272705078125,0.98651123046875
181753,0.7614593505859375,-1.0654296875,0.923004150390625
181754,0.994354248046875,-1.251968383789062,0.5533294677734375
181755,1.17529296875,-1.593490600585938,0.188446044921875
181756,1.200592041015625,-2.005966186523438,0.16973876953125
181757,1.268218994140625,-2.152923583984375,0.3589019775390625
181758,1.628173828125,-2.018112182617188,0.3740997314453125
181759,2.066864013671875,-2.030181884765625,0.1638336181640625
181760,2.374740600585938,-2.176666259765625,0.084808349609375
181761,2.549728393554688,-2.192703247070312,-0.0357666015625
181762,2.64544677734375,-1.979171752929688,-0.156890869140625
181763,2.671279907226562,-1.601913452148438,-0.2108001708984375
181764,2.626678466796875,-1.167800903320312,-0.2789306640625
181765,2.359466552734375,-0.837921142578125,-0.3945159912109375
181766,1.902130126953125,-0.644622802734375,-0.624542236328125
181767,1.529129028320312,-0.6019439697265625,-0.8498687744140625
181768,1.374679565429688,-0.6449432373046875,-0.876190185546875
181769,1.360015869140625,-0.6414642333984375,-0.6948394775390625
181770,1.36920166015625,-0.5547943115234375,-0.5460205078125
181771,1.335342407226562,-0.4148406982421875,-0.51007080078125
181772,1.22265625,-0.248321533203125,-0.5113983154296875
181773,0.9959869384765624,-0.161163330078125,-0.50750732421875
181774,0.68011474609375,-0.0673675537109375,-0.414764404296875
181775,0.343414306640625,0.0498809814453125,-0.296630859375
181776,0.133941650390625,0.1615142822265625,-0.17999267578125
181777,0.1753692626953125,0.1514892578125,-0.08447265625
181778,0.3198089599609375,0.0767059326171875,-0.235992431640625
181779,0.4501190185546875,0.015899658203125,-0.343658447265625
181780,0.5811767578125,-0.007720947265625,-0.130401611328125
181781,0.519744873046875,0.05322265625,-0.0699462890625
181782,0.1312255859375,0.0817718505859375,-0.4337310791015625
181783,-0.2172088623046875,0.0244903564453125,-0.5980682373046875
181784,-0.4346923828125,-0.125946044921875,-0.4552001953125
181785,-0.5489654541015625,-0.28521728515625,-0.341705322265625
181786,-0.59124755859375,-0.289459228515625,-0.387176513671875
181787,-0.6046600341796875,-0.270050048828125,-0.4003143310546875
181788,-0.550018310546875,-0.3570709228515625,-0.0470733642578125
181789,-0.1910552978515625,-0.5972747802734375,0.80908203125
181790,-0.02850341796875,-1.025436401367188,1.554397583007812
181791,-0.3035736083984375,-1.78173828125,1.563079833984375
181792,-0.3629150390625,-2.545135498046875,0.7534027099609375
181793,0.398529052734375,-2.404449462890625,0.2711639404296875
181794,0.9138641357421876,-1.646499633789062,1.265487670898438
181795,0.9003448486328125,-1.00555419921875,1.322280883789062
181796,0.8443756103515625,-0.971954345703125,0.6072235107421875
181797,0.5945892333984375,-1.257614135742188,0.2662200927734375
181798,0.2621612548828125,-1.372573852539062,0.3514862060546875
181799,0.19134521484375,-1.38873291015625,0.3139495849609375
181800,0.2056121826171875,-1.610137939453125,0.339141845703125
181801,0.207916259765625,-1.7296142578125,0.618316650390625
181802,0.2723846435546875,-1.607650756835938,0.7786712646484375
181803,0.373779296875,-1.404891967773438,0.6198272705078125
181804,0.4033203125,-1.192764282226562,0.4134521484375
181805,0.3594512939453125,-0.983917236328125,0.31964111328125
181806,0.3377838134765625,-0.8058013916015625,0.2637481689453125
181807,0.3051605224609375,-0.6696014404296875,0.136566162109375
181808,0.219818115234375,-0.5663299560546875,-0.0602569580078125
181809,0.1446990966796875,-0.421966552734375,-0.236114501953125
181810,0.1324920654296875,-0.1875,-0.3785858154296875
181811,0.2006683349609375,0.076629638671875,-0.263580322265625
181812,0.2148284912109375,0.2915802001953125,-0.0762786865234375
181813,0.2342987060546875,0.3947906494140625,-0.0348968505859375
181814,0.2923736572265625,0.3842620849609375,0.002227783203125
181815,0.3690948486328125,0.2948150634765625,0.12774658203125
181816,0.4232330322265625,0.1493072509765625,-0.1920318603515625
181817,0.336669921875,0.05767822265625,-0.417633056640625
181818,0.22503662109375,-0.0344085693359375,-0.3248443603515625
181819,0.1828460693359375,-0.094268798828125,-0.2103424072265625
181820,0.19500732421875,-0.101715087890625,-0.109527587890625
181821,0.237640380859375,-0.1334991455078125,-0.063232421875
181822,0.281585693359375,-0.200103759765625,-0.0012359619140625
181823,0.3052215576171875,-0.2698211669921875,0.1336517333984375
181824,0.3228302001953125,-0.3529510498046875,0.2392578125
181825,0.360595703125,-0.437744140625,0.29254150390625
181826,0.4232177734375,-0.5279693603515625,0.34246826171875
181827,0.5084686279296875,-0.6319122314453125,0.4592132568359375
181828,0.590911865234375,-0.7490386962890625,0.57049560546875
181829,0.6097412109375,-0.914154052734375,0.62103271484375
181830,0.6047210693359375,-1.135452270507812,0.70709228515625
181831,0.6732635498046875,-1.39019775390625,0.679931640625
181832,0.836273193359375,-1.664306640625,0.25811767578125
181833,1.064300537109375,-1.836013793945312,-0.2397003173828125
181834,1.406158447265625,-1.784088134765625,-0.1946868896484375
181835,1.834335327148438,-1.619369506835938,0.1470184326171875
181836,2.30194091796875,-1.656280517578125,0.1688079833984375
181837,2.733612060546875,-1.873779296875,-0.111968994140625
181838,2.964706420898438,-2.074127197265625,-0.441680908203125
181839,2.966995239257812,-2.035491943359375,-0.577362060546875
181840,2.7677001953125,-1.7733154296875,-0.4905242919921875
181841,2.459304809570312,-1.415435791015625,-0.34405517578125
181842,2.144149780273438,-1.03289794921875,-0.30999755859375
181843,1.834136962890625,-0.6799468994140625,-0.413818359375
181844,1.522979736328125,-0.4218597412109375,-0.533111572265625
181845,1.2608642578125,-0.2819671630859375,-0.52777099609375
181846,1.0791015625,-0.2106475830078125,-0.4139556884765625
181847,0.992462158203125,-0.1869049072265625,-0.3141326904296875
181848,0.9600677490234376,-0.227264404296875,-0.293731689453125
181849,0.8944549560546875,-0.290069580078125,-0.3681182861328125
181850,0.748016357421875,-0.2888031005859375,-0.4212188720703125
181851,0.538482666015625,-0.1876983642578125,-0.3837890625
181852,0.3151092529296875,-0.048675537109375,-0.2824249267578125
181853,0.13763427734375,0.0503692626953125,-0.0686492919921875
181854,0.08636474609375,0.0891876220703125,0.0250091552734375
181855,0.2226409912109375,0.0545501708984375,-0.056396484375
181856,0.349334716796875,-0.052520751953125,-0.1249237060546875
181857,0.345794677734375,-0.0173187255859375,-0.1004486083984375
181858,0.4190521240234375,0.061676025390625,0.050750732421875
181859,0.4886016845703125,0.13372802734375,0.11029052734375
181860,0.33343505859375,0.1322784423828125,0.0503387451171875
181861,0.0781097412109375,-0.0341644287109375,0.043731689453125
181862,-0.191070556640625,-0.3026885986328125,0.05242919921875
181863,-0.4482269287109375,-0.5690765380859375,0.067779541015625
181864,-0.652008056640625,-0.7449951171875,0.029998779296875
181865,-0.6695556640625,-0.937164306640625,0.0896453857421875
181866,-0.55035400390625,-1.153823852539062,0.25128173828125
181867,-0.1944732666015625,-1.2607421875,0.3899993896484375
181868,0.5145263671875,-1.370834350585938,0.6097564697265625
181869,1.088638305664062,-1.391876220703125,0.8363494873046875
181870,0.96783447265625,-1.279403686523438,1.0146484375
181871,0.6894073486328125,-1.348907470703125,1.207244873046875
181872,0.69976806640625,-1.455612182617188,1.141510009765625
181873,0.5861358642578125,-1.459396362304688,0.7644500732421875
181874,0.3509063720703125,-1.524688720703125,0.483489990234375
181875,0.2539215087890625,-1.6121826171875,0.4439697265625
181876,0.1876983642578125,-1.657394409179688,0.538726806640625
181877,0.096771240234375,-1.66729736328125,0.574310302734375
181878,0.07196044921875,-1.541275024414062,0.4804229736328125
181879,0.093353271484375,-1.329345703125,0.39849853515625
181880,0.130615234375,-1.129241943359375,0.3246307373046875
181881,0.232940673828125,-0.95709228515625,0.3067779541015625
181882,0.400909423828125,-0.7968597412109375,0.2827301025390625
181883,0.5726470947265625,-0.6416015625,0.18316650390625
181884,0.70355224609375,-0.51678466796875,0.04345703125
181885,0.7653961181640625,-0.4232025146484375,-0.0890350341796875
181886,0.7449188232421875,-0.3080902099609375,-0.141510009765625
181887,0.63299560546875,-0.151123046875,-0.1287994384765625
181888,0.4573822021484375,-0.0213623046875,-0.091583251953125
181889,0.3296051025390625,0.02764892578125,-0.0309295654296875
181890,0.28485107421875,0.0584564208984375,-0.0117034912109375
181891,0.236907958984375,0.103851318359375,0.0107269287109375
181892,0.159210205078125,0.1257476806640625,-0.1679229736328125
181893,-0.0335540771484375,0.1420745849609375,-0.3214111328125
181894,-0.2590179443359375,0.100494384765625,-0.2862091064453125
181895,-0.3867645263671875,0.0029754638671875,-0.2561798095703125
181896,-0.3774566650390625,-0.11578369140625,-0.260101318359375
181897,-0.263031005859375,-0.2309722900390625,-0.2652587890625
181898,-0.1240997314453125,-0.285186767578125,-0.1731414794921875
181899,0.0379180908203125,-0.255340576171875,0.0408782958984375
181900,0.1851654052734375,-0.258941650390625,0.2508544921875
181901,0.3267059326171875,-0.374481201171875,0.470306396484375
181902,0.5148468017578125,-0.5358734130859375,0.593170166015625
181903,0.7192840576171875,-0.673431396484375,0.6720428466796875
181904,0.8971405029296875,-0.80938720703125,0.800537109375
181905,0.9881134033203124,-0.9817657470703124,0.7255706787109375
181906,1.00927734375,-1.144668579101562,0.54608154296875
181907,1.03814697265625,-1.269302368164062,0.305450439453125
181908,1.040313720703125,-1.412460327148438,-0.0219268798828125
181909,1.046035766601562,-1.599349975585938,-0.0848388671875
181910,1.242752075195312,-1.742507934570312,0.1214141845703125
181911,1.73907470703125,-1.779388427734375,0.2702789306640625
181912,2.375640869140625,-1.793670654296875,0.3052825927734375
181913,2.922683715820312,-1.934432983398438,0.1799468994140625
181914,3.186721801757812,-2.094696044921875,-0.026641845703125
181915,2.998245239257812,-2.01788330078125,-0.230010986328125
181916,2.532546997070312,-1.67156982421875,-0.334442138671875
181917,2.147720336914062,-1.273727416992188,-0.42169189453125
181918,1.923049926757812,-0.94024658203125,-0.5725555419921875
181919,1.78265380859375,-0.6556243896484375,-0.7050323486328125
181920,1.691192626953125,-0.44451904296875,-0.7692718505859375
181921,1.608474731445312,-0.3312530517578125,-0.7082977294921875
181922,1.4964599609375,-0.284088134765625,-0.5900726318359375
181923,1.333908081054688,-0.282928466796875,-0.4943389892578125
181924,1.148849487304688,-0.3112640380859375,-0.404754638671875
181925,0.9833831787109376,-0.3156585693359375,-0.3379364013671875
181926,0.8476715087890625,-0.24420166015625,-0.312591552734375
181927,0.7082672119140625,-0.1052093505859375,-0.2798614501953125
181928,0.5108642578125,-0.00067138671875,-0.305023193359375
181929,0.3013153076171875,0.0503082275390625,-0.4188079833984375
181930,0.15399169921875,0.06719970703125,-0.4012603759765625
181931,0.124725341796875,0.05517578125,-0.2738189697265625
