time_idx,accelerometerAccelerationX(G),accelerometerAccelerationY(G),accelerometerAccelerationZ(G)
140000,0.8414306640625,-0.2186737060546875,-0.0156097412109375
140001,0.849578857421875,-0.260406494140625,-0.0317230224609375
140002,0.8745880126953125,-0.304595947265625,-0.042510986328125
140003,0.9005889892578125,-0.3506317138671875,-0.0307159423828125
140004,0.9178466796875,-0.4005126953125,0.0008697509765625
140005,0.923095703125,-0.4592742919921875,0.0440826416015625
140006,0.9256439208984376,-0.5214080810546875,0.091217041015625
140007,0.92529296875,-0.57904052734375,0.133819580078125
140008,0.92059326171875,-0.624664306640625,0.1546783447265625
140009,0.9082183837890624,-0.6609649658203125,0.1523590087890625
140010,0.8847808837890625,-0.691680908203125,0.1481475830078125
140011,0.8588104248046875,-0.71630859375,0.14727783203125
140012,0.8390655517578125,-0.735107421875,0.1403045654296875
140013,0.8223114013671875,-0.75128173828125,0.1353302001953125
140014,0.7952117919921875,-0.766937255859375,0.130859375
140015,0.7541046142578125,-0.77630615234375,0.12042236328125
140016,0.708953857421875,-0.7694549560546875,0.121826171875
140017,0.6750030517578125,-0.743621826171875,0.122894287109375
140018,0.6596221923828125,-0.7005462646484375,0.1073150634765625
140019,0.660186767578125,-0.647430419921875,0.0831298828125
140020,0.6740264892578125,-0.5903472900390625,0.04864501953125
140021,0.6966705322265625,-0.539520263671875,0.0041351318359375
140022,0.7193756103515625,-0.50469970703125,-0.0259246826171875
140023,0.739410400390625,-0.48699951171875,-0.0152130126953125
140024,0.7582244873046875,-0.4871978759765625,0.0246734619140625
140025,0.7731475830078125,-0.5051422119140625,0.079620361328125
140026,0.78839111328125,-0.537384033203125,0.1455535888671875
140027,0.81463623046875,-0.573028564453125,0.226654052734375
140028,0.8496246337890625,-0.6074066162109375,0.3213653564453125
140029,0.862701416015625,-0.648468017578125,0.4215850830078125
140030,0.8417205810546875,-0.70648193359375,0.5225372314453125
140031,0.7903594970703125,-0.78076171875,0.6218109130859375
140032,0.720489501953125,-0.8708038330078125,0.677398681640625
140033,0.624603271484375,-0.9618072509765624,0.676239013671875
140034,0.5070953369140625,-1.027084350585938,0.64764404296875
140035,0.39862060546875,-1.05181884765625,0.5968475341796875
140036,0.33551025390625,-1.045211791992188,0.53704833984375
140037,0.322509765625,-1.029815673828125,0.496307373046875
140038,0.3471527099609375,-1.008865356445312,0.4915771484375
140039,0.3988189697265625,-0.9794769287109376,0.51312255859375
140040,0.4625091552734375,-0.9409332275390624,0.5363006591796875
140041,0.517303466796875,-0.90130615234375,0.5346221923828125
140042,0.5467529296875,-0.8670196533203125,0.508575439453125
140043,0.5507354736328125,-0.8379058837890625,0.4724578857421875
140044,0.5460205078125,-0.8112945556640625,0.4209136962890625
140045,0.5494842529296875,-0.7823944091796875,0.354522705078125
140046,0.56927490234375,-0.7457427978515625,0.27655029296875
140047,0.6104583740234375,-0.6957855224609375,0.162628173828125
140048,0.6688232421875,-0.6282958984375,0.0500946044921875
140049,0.7506256103515625,-0.5504150390625,-0.0171356201171875
140050,0.8704986572265625,-0.4722900390625,-0.0465240478515625
140051,1.019317626953125,-0.4226226806640625,-0.0670013427734375
140052,1.163848876953125,-0.4185333251953125,-0.0843963623046875
140053,1.283172607421875,-0.4444732666015625,-0.11981201171875
140054,1.365188598632812,-0.476348876953125,-0.1933135986328125
140055,1.392593383789062,-0.4772491455078125,-0.279815673828125
140056,1.365814208984375,-0.427459716796875,-0.33453369140625
140057,1.304244995117188,-0.3559417724609375,-0.3473358154296875
140058,1.232421875,-0.2758941650390625,-0.30438232421875
140059,1.1597900390625,-0.192718505859375,-0.2535858154296875
140060,1.077850341796875,-0.1154327392578125,-0.2324676513671875
140061,0.982757568359375,-0.0527496337890625,-0.2188873291015625
140062,0.8860931396484375,-0.0283966064453125,-0.199737548828125
140063,0.813568115234375,-0.0565032958984375,-0.17919921875
140064,0.780731201171875,-0.1239166259765625,-0.15240478515625
140065,0.7754058837890625,-0.193695068359375,-0.1173095703125
140066,0.806488037109375,-0.2417449951171875,-0.0906829833984375
140067,0.8844451904296875,-0.2625274658203125,-0.029022216796875
140068,0.9753265380859376,-0.2882537841796875,0.0473480224609375
140069,1.04522705078125,-0.369537353515625,0.1029052734375
140070,1.114959716796875,-0.472442626953125,0.1549835205078125
140071,1.180877685546875,-0.5710296630859375,0.1737213134765625
140072,1.1561279296875,-0.673980712890625,0.1978302001953125
140073,1.03546142578125,-0.7526397705078125,0.2357025146484375
140074,0.873809814453125,-0.7984771728515625,0.246490478515625
140075,0.7167816162109375,-0.806488037109375,0.27642822265625
140076,0.586273193359375,-0.760009765625,0.329925537109375
140077,0.483734130859375,-0.670623779296875,0.3714752197265625
140078,0.4279327392578125,-0.6120147705078125,0.3913421630859375
140079,0.4173126220703125,-0.6377716064453125,0.40283203125
140080,0.4293212890625,-0.6748046875,0.404693603515625
140081,0.4460906982421875,-0.6957244873046875,0.3974456787109375
140082,0.4727935791015625,-0.7049713134765625,0.38140869140625
140083,0.493988037109375,-0.69866943359375,0.3916778564453125
140084,0.5009918212890625,-0.676849365234375,0.4258270263671875
140085,0.5082855224609375,-0.6457366943359375,0.4542999267578125
140086,0.535400390625,-0.6115570068359375,0.446136474609375
140087,0.5933380126953125,-0.5904388427734375,0.405120849609375
140088,0.67266845703125,-0.5851593017578125,0.3297576904296875
140089,0.7529144287109375,-0.5953521728515625,0.2186126708984375
140090,0.796356201171875,-0.621002197265625,0.1286163330078125
140091,0.77569580078125,-0.6590576171875,0.104248046875
140092,0.698272705078125,-0.6886444091796875,0.1205291748046875
140093,0.6103973388671875,-0.7002716064453125,0.137481689453125
140094,0.5388946533203125,-0.700958251953125,0.152801513671875
140095,0.480743408203125,-0.698272705078125,0.16357421875
140096,0.45025634765625,-0.7012176513671875,0.1649017333984375
140097,0.4521942138671875,-0.7088623046875,0.1586761474609375
140098,0.488677978515625,-0.722686767578125,0.121795654296875
140099,0.552337646484375,-0.748016357421875,0.07220458984375
140100,0.618438720703125,-0.787933349609375,0.0639801025390625
140101,0.68853759765625,-0.8480377197265625,0.1201934814453125
140102,0.7587738037109375,-0.912139892578125,0.215667724609375
140103,0.821441650390625,-0.95977783203125,0.3124237060546875
140104,0.8703765869140625,-0.9720001220703124,0.38079833984375
140105,0.8824005126953125,-0.96392822265625,0.4261474609375
140106,0.835723876953125,-0.9544525146484376,0.4445953369140625
140107,0.7419586181640625,-0.9447021484375,0.4096527099609375
140108,0.6371917724609375,-0.922576904296875,0.3487548828125
140109,0.564849853515625,-0.8716888427734375,0.303741455078125
140110,0.5574798583984375,-0.7922210693359375,0.279998779296875
140111,0.60052490234375,-0.72552490234375,0.2830657958984375
140112,0.649658203125,-0.673065185546875,0.289215087890625
140113,0.6913604736328125,-0.6292266845703125,0.297393798828125
140114,0.7277984619140625,-0.5874481201171875,0.287322998046875
140115,0.7670135498046875,-0.54779052734375,0.2247772216796875
140116,0.8144989013671875,-0.511688232421875,0.1414337158203125
140117,0.86358642578125,-0.470916748046875,0.06024169921875
140118,0.9164581298828124,-0.4234466552734375,-0.0173797607421875
140119,0.96990966796875,-0.3571624755859375,-0.0891876220703125
140120,1.01165771484375,-0.272369384765625,-0.134368896484375
140121,1.029861450195312,-0.1854400634765625,-0.1688232421875
140122,1.012603759765625,-0.114105224609375,-0.180267333984375
140123,0.951080322265625,-0.07366943359375,-0.14837646484375
140124,0.86773681640625,-0.0494232177734375,-0.11541748046875
140125,0.8005828857421875,-0.0261688232421875,-0.074493408203125
140126,0.7709808349609375,-0.0161895751953125,-0.0359954833984375
140127,0.7899627685546875,-0.0247039794921875,-0.038421630859375
140128,0.8432464599609375,-0.06085205078125,-0.064727783203125
140129,0.903900146484375,-0.1285400390625,-0.07611083984375
140130,0.954833984375,-0.2256317138671875,-0.053131103515625
140131,0.9835052490234376,-0.3444671630859375,0.0059356689453125
140132,0.9975738525390624,-0.4524688720703125,0.09210205078125
140133,1.024826049804688,-0.5515899658203125,0.2005462646484375
140134,1.073867797851562,-0.64959716796875,0.288482666015625
140135,1.128646850585938,-0.7377166748046875,0.3126678466796875
140136,1.152145385742188,-0.805908203125,0.2984466552734375
140137,1.121749877929688,-0.84527587890625,0.2711639404296875
140138,1.036117553710938,-0.8573760986328125,0.237823486328125
140139,0.908660888671875,-0.858612060546875,0.2094268798828125
140140,0.77032470703125,-0.86492919921875,0.1961517333984375
140141,0.6537628173828125,-0.87451171875,0.1946563720703125
140142,0.565521240234375,-0.8621063232421875,0.1938934326171875
140143,0.500335693359375,-0.8164825439453125,0.190582275390625
140144,0.4659423828125,-0.7432403564453125,0.1723175048828125
140145,0.4740753173828125,-0.6526947021484375,0.1321258544921875
140146,0.529693603515625,-0.5672454833984375,0.069671630859375
140147,0.6198272705078125,-0.50262451171875,0.0112457275390625
140148,0.731475830078125,-0.4644927978515625,-0.0078125
140149,0.8414764404296875,-0.467254638671875,0.0297393798828125
140150,0.924774169921875,-0.505218505859375,0.1026458740234375
140151,0.9594879150390624,-0.55487060546875,0.1952972412109375
140152,0.943817138671875,-0.5913543701171875,0.307220458984375
140153,0.9067840576171876,-0.6002044677734375,0.4146270751953125
140154,0.866546630859375,-0.6064910888671875,0.48333740234375
140155,0.819793701171875,-0.630462646484375,0.521942138671875
140156,0.75933837890625,-0.6783905029296875,0.5572509765625
140157,0.69158935546875,-0.7541961669921875,0.575164794921875
140158,0.6121978759765625,-0.8424530029296875,0.57012939453125
140159,0.5157928466796875,-0.9192962646484376,0.55633544921875
140160,0.4256439208984375,-0.966827392578125,0.5265655517578125
140161,0.359283447265625,-0.9744873046875,0.5067291259765625
140162,0.3273162841796875,-0.957427978515625,0.4961395263671875
140163,0.337554931640625,-0.9339752197265624,0.5010986328125
140164,0.3730010986328125,-0.906829833984375,0.5400390625
140165,0.4190673828125,-0.8807220458984375,0.56658935546875
140166,0.46173095703125,-0.85577392578125,0.549285888671875
140167,0.491424560546875,-0.836334228515625,0.50616455078125
140168,0.514251708984375,-0.8170623779296875,0.4488525390625
140169,0.5307464599609375,-0.796966552734375,0.37811279296875
140170,0.544403076171875,-0.77001953125,0.301300048828125
140171,0.5669403076171875,-0.72967529296875,0.2198638916015625
140172,0.605316162109375,-0.6739349365234375,0.130157470703125
140173,0.6551513671875,-0.6075897216796875,0.0450897216796875
140174,0.72052001953125,-0.5366668701171875,-0.0246429443359375
140175,0.8142242431640625,-0.478607177734375,-0.0689239501953125
140176,0.9341278076171876,-0.4500885009765625,-0.084197998046875
140177,1.072296142578125,-0.4498443603515625,-0.095428466796875
140178,1.201522827148438,-0.4776611328125,-0.0975341796875
140179,1.309600830078125,-0.5165557861328125,-0.1359405517578125
140180,1.379180908203125,-0.532989501953125,-0.2037200927734375
140181,1.392578125,-0.4940338134765625,-0.23907470703125
140182,1.357757568359375,-0.39410400390625,-0.2246246337890625
140183,1.303359985351562,-0.2819671630859375,-0.1892547607421875
140184,1.250091552734375,-0.199127197265625,-0.1537322998046875
140185,1.178329467773438,-0.1622314453125,-0.1476898193359375
140186,1.065582275390625,-0.158721923828125,-0.1751556396484375
140187,0.9305267333984376,-0.1751861572265625,-0.203369140625
140188,0.8128662109375,-0.205230712890625,-0.2104644775390625
140189,0.7304229736328125,-0.23309326171875,-0.1828460693359375
140190,0.699676513671875,-0.243865966796875,-0.1311798095703125
140191,0.727508544921875,-0.2463226318359375,-0.06646728515625
140192,0.7891998291015625,-0.257354736328125,-0.0050506591796875
140193,0.864654541015625,-0.2858734130859375,0.0471649169921875
140194,0.9295806884765624,-0.3379669189453125,0.083770751953125
140195,0.9767608642578124,-0.40911865234375,0.1035003662109375
140196,1.029006958007812,-0.47003173828125,0.1318511962890625
140197,1.069198608398438,-0.5339202880859375,0.1662750244140625
140198,1.0677490234375,-0.59832763671875,0.2207489013671875
140199,1.036697387695312,-0.654693603515625,0.2639312744140625
140200,0.9895782470703124,-0.707763671875,0.2827911376953125
140201,0.9240875244140624,-0.7429351806640625,0.30645751953125
140202,0.8277130126953125,-0.743896484375,0.3247528076171875
140203,0.7093048095703125,-0.697845458984375,0.3262786865234375
140204,0.594024658203125,-0.6343994140625,0.3472900390625
140205,0.509613037109375,-0.611785888671875,0.3880157470703125
140206,0.465972900390625,-0.6065673828125,0.400421142578125
140207,0.4509429931640625,-0.603759765625,0.38763427734375
140208,0.4501495361328125,-0.594024658203125,0.3557891845703125
140209,0.4576568603515625,-0.5762176513671875,0.3267364501953125
140210,0.467132568359375,-0.55328369140625,0.3105316162109375
140211,0.484222412109375,-0.52972412109375,0.294189453125
140212,0.5209808349609375,-0.5165252685546875,0.281585693359375
140213,0.5782623291015625,-0.5170745849609375,0.27178955078125
140214,0.654144287109375,-0.5373687744140625,0.24468994140625
140215,0.7291259765625,-0.5801239013671875,0.2011566162109375
140216,0.7784576416015625,-0.648468017578125,0.174957275390625
140217,0.784515380859375,-0.7239532470703125,0.1687164306640625
140218,0.757354736328125,-0.7646942138671875,0.1653594970703125
140219,0.7045440673828125,-0.7750091552734375,0.15045166015625
140220,0.6365966796875,-0.7754669189453125,0.1308441162109375
140221,0.5748443603515625,-0.7730712890625,0.12103271484375
140222,0.5289764404296875,-0.768402099609375,0.112518310546875
140223,0.50860595703125,-0.7717132568359375,0.0848388671875
140224,0.51849365234375,-0.7879486083984375,0.0321197509765625
140225,0.5429534912109375,-0.8062744140625,0.0016326904296875
140226,0.57318115234375,-0.8163909912109375,0.0406951904296875
140227,0.609161376953125,-0.8240814208984375,0.131439208984375
140228,0.65704345703125,-0.82806396484375,0.2327117919921875
140229,0.7219390869140625,-0.82281494140625,0.3129730224609375
140230,0.8042449951171875,-0.809783935546875,0.357513427734375
140231,0.8700103759765625,-0.801177978515625,0.3736419677734375
140232,0.8910369873046875,-0.803863525390625,0.3406219482421875
140233,0.8646240234375,-0.8100433349609375,0.270965576171875
140234,0.812347412109375,-0.8137359619140625,0.2152252197265625
140235,0.7672271728515625,-0.802276611328125,0.1838531494140625
140236,0.7459259033203125,-0.77032470703125,0.1829681396484375
140237,0.7481689453125,-0.726287841796875,0.216217041015625
140238,0.7580413818359375,-0.6814422607421875,0.256134033203125
140239,0.7690277099609375,-0.631378173828125,0.27471923828125
140240,0.79248046875,-0.574371337890625,0.2508544921875
140241,0.826263427734375,-0.5164031982421875,0.1728363037109375
140242,0.86505126953125,-0.4638824462890625,0.0554962158203125
140243,0.9027862548828124,-0.42120361328125,-0.0659637451171875
140244,0.9357147216796876,-0.375152587890625,-0.1589508056640625
140245,0.949859619140625,-0.322845458984375,-0.1926116943359375
140246,0.948272705078125,-0.2685394287109375,-0.206634521484375
140247,0.9254913330078124,-0.212066650390625,-0.1982421875
140248,0.877288818359375,-0.164306640625,-0.1714324951171875
140249,0.8261871337890625,-0.1312408447265625,-0.1516571044921875
140250,0.789459228515625,-0.115509033203125,-0.1222076416015625
140251,0.7791748046875,-0.1158599853515625,-0.0897064208984375
140252,0.800994873046875,-0.1302490234375,-0.0660552978515625
140253,0.8468170166015625,-0.162261962890625,-0.048828125
140254,0.9036102294921876,-0.2151947021484375,-0.0346527099609375
140255,0.9511260986328124,-0.284698486328125,-0.0213470458984375
140256,0.980560302734375,-0.36907958984375,0.0096893310546875
140257,0.99871826171875,-0.4583740234375,0.070220947265625
140258,1.023849487304688,-0.5388336181640625,0.143280029296875
140259,1.068283081054688,-0.61602783203125,0.199066162109375
140260,1.108139038085938,-0.692352294921875,0.2138519287109375
140261,1.112091064453125,-0.7642669677734375,0.2064971923828125
140262,1.069046020507812,-0.817291259765625,0.2047576904296875
140263,0.99041748046875,-0.8416595458984375,0.1995086669921875
140264,0.891937255859375,-0.84283447265625,0.1858673095703125
140265,0.7856903076171875,-0.832489013671875,0.174591064453125
140266,0.6902618408203125,-0.81658935546875,0.17852783203125
140267,0.6224517822265625,-0.7997283935546875,0.17449951171875
140268,0.5832977294921875,-0.7772369384765625,0.15802001953125
140269,0.568695068359375,-0.738616943359375,0.138641357421875
140270,0.5756683349609375,-0.68939208984375,0.0993499755859375
140271,0.60504150390625,-0.63433837890625,0.0404510498046875
140272,0.65484619140625,-0.581939697265625,-0.011932373046875
140273,0.71856689453125,-0.54071044921875,-0.0340118408203125
140274,0.7784271240234375,-0.5193023681640625,-0.0041351318359375
140275,0.8280792236328125,-0.521209716796875,0.050079345703125
140276,0.869384765625,-0.5362548828125,0.1026611328125
140277,0.8983612060546875,-0.5482940673828125,0.17059326171875
140278,0.906036376953125,-0.5610809326171875,0.2512054443359375
140279,0.8910369873046875,-0.5734405517578125,0.3215179443359375
140280,0.8539276123046875,-0.599365234375,0.385528564453125
140281,0.813507080078125,-0.6478424072265625,0.451141357421875
140282,0.7775726318359375,-0.715850830078125,0.5234375
140283,0.7285308837890625,-0.799072265625,0.5587615966796875
140284,0.6558837890625,-0.8860015869140625,0.521087646484375
140285,0.5583038330078125,-0.957122802734375,0.476715087890625
140286,0.45782470703125,-0.99017333984375,0.4652557373046875
140287,0.379608154296875,-0.987945556640625,0.4772186279296875
140288,0.3344879150390625,-0.979705810546875,0.5016326904296875
140289,0.3311920166015625,-0.9693450927734376,0.533660888671875
140290,0.3650970458984375,-0.9483795166015624,0.56256103515625
140291,0.4106597900390625,-0.9251861572265624,0.557037353515625
140292,0.4425811767578125,-0.901153564453125,0.5069580078125
140293,0.463348388671875,-0.8780059814453125,0.44866943359375
140294,0.4779205322265625,-0.8478851318359375,0.3978729248046875
140295,0.48748779296875,-0.8066864013671875,0.343536376953125
140296,0.504608154296875,-0.754241943359375,0.2677154541015625
140297,0.5442047119140625,-0.6929779052734375,0.1590423583984375
140298,0.61590576171875,-0.624603271484375,0.0450439453125
140299,0.716522216796875,-0.55511474609375,-0.0466766357421875
140300,0.8438568115234375,-0.4937591552734375,-0.1128082275390625
140301,0.98382568359375,-0.462432861328125,-0.1686859130859375
140302,1.119415283203125,-0.4594573974609375,-0.1898193359375
140303,1.251693725585938,-0.4771881103515625,-0.1670379638671875
140304,1.383865356445312,-0.4993133544921875,-0.150390625
140305,1.486297607421875,-0.4983978271484375,-0.20465087890625
140306,1.517608642578125,-0.4463348388671875,-0.30194091796875
140307,1.471084594726562,-0.31585693359375,-0.3583831787109375
140308,1.378982543945312,-0.1602020263671875,-0.345428466796875
140309,1.281356811523438,-0.03765869140625,-0.30224609375
140310,1.181320190429688,0.0360260009765625,-0.27984619140625
140311,1.06390380859375,0.0560455322265625,-0.2917022705078125
140312,0.9321136474609376,0.0018310546875,-0.28118896484375
140313,0.8289794921875,-0.095367431640625,-0.2320098876953125
140314,0.7886199951171875,-0.1745452880859375,-0.1670379638671875
140315,0.7988433837890625,-0.2394256591796875,-0.1013946533203125
140316,0.8537139892578125,-0.2881927490234375,-0.06878662109375
140317,0.9488983154296876,-0.3065032958984375,-0.0432891845703125
140318,1.05224609375,-0.3177337646484375,-0.018707275390625
140319,1.134872436523438,-0.3450775146484375,0.0052337646484375
140320,1.168228149414062,-0.412567138671875,0.045166015625
140321,1.118133544921875,-0.5072784423828125,0.0996856689453125
140322,1.031173706054688,-0.5706329345703125,0.16082763671875
140323,0.9291534423828124,-0.61529541015625,0.20562744140625
140324,0.819122314453125,-0.6458587646484375,0.227081298828125
140325,0.726654052734375,-0.6640777587890625,0.210113525390625
140326,0.6435699462890625,-0.706756591796875,0.240966796875
140327,0.561065673828125,-0.7354736328125,0.3501129150390625
140328,0.47625732421875,-0.7244415283203125,0.43255615234375
140329,0.4123382568359375,-0.7108154296875,0.4680938720703125
140330,0.3892822265625,-0.707305908203125,0.4976806640625
140331,0.38427734375,-0.7023773193359375,0.5060882568359375
140332,0.388153076171875,-0.683929443359375,0.46124267578125
140333,0.4192657470703125,-0.6556549072265625,0.391265869140625
140334,0.4734649658203125,-0.6194610595703125,0.3299713134765625
140335,0.535430908203125,-0.5830230712890625,0.28985595703125
140336,0.5943145751953125,-0.5495452880859375,0.280975341796875
140337,0.647247314453125,-0.5281524658203125,0.290130615234375
140338,0.692413330078125,-0.5328216552734375,0.3322296142578125
140339,0.7223968505859375,-0.567535400390625,0.379852294921875
140340,0.715362548828125,-0.621795654296875,0.3572540283203125
140341,0.659881591796875,-0.690185546875,0.2897796630859375
140342,0.5837554931640625,-0.7520294189453125,0.24737548828125
140343,0.524566650390625,-0.768524169921875,0.196136474609375
140344,0.4792938232421875,-0.752685546875,0.1119537353515625
140345,0.458709716796875,-0.7315826416015625,0.024688720703125
140346,0.483428955078125,-0.7047271728515625,-0.02880859375
140347,0.5597076416015625,-0.67999267578125,-0.028350830078125
140348,0.6657257080078125,-0.65948486328125,-7.62939453125e-05
140349,0.762542724609375,-0.6527099609375,0.050933837890625
140350,0.8327178955078125,-0.68084716796875,0.1418914794921875
140351,0.882232666015625,-0.737701416015625,0.2599334716796875
140352,0.9153900146484376,-0.80853271484375,0.3394012451171875
140353,0.9284515380859376,-0.8690948486328125,0.3475799560546875
140354,0.9173126220703124,-0.9015960693359376,0.2864990234375
140355,0.8758544921875,-0.9117584228515624,0.219512939453125
140356,0.8076324462890625,-0.904937744140625,0.195648193359375
140357,0.7147674560546875,-0.893402099609375,0.2093353271484375
140358,0.6130523681640625,-0.8662567138671875,0.2432098388671875
140359,0.5331573486328125,-0.8183746337890625,0.2717742919921875
140360,0.5004730224609375,-0.756561279296875,0.29949951171875
140361,0.52056884765625,-0.7018890380859375,0.3386077880859375
140362,0.574798583984375,-0.6585235595703125,0.3767242431640625
140363,0.6450958251953125,-0.62054443359375,0.37762451171875
140364,0.7144012451171875,-0.5973663330078125,0.344757080078125
140365,0.7625274658203125,-0.5768890380859375,0.28387451171875
140366,0.7906494140625,-0.5512237548828125,0.1947784423828125
140367,0.806976318359375,-0.5125274658203125,0.096160888671875
140368,0.818939208984375,-0.4486541748046875,0.0011138916015625
140369,0.83538818359375,-0.3547821044921875,-0.0663909912109375
140370,0.8702850341796875,-0.2441253662109375,-0.09417724609375
140371,0.9239959716796876,-0.128448486328125,-0.1012420654296875
140372,0.970916748046875,-0.0289764404296875,-0.0787506103515625
140373,0.987396240234375,0.0297088623046875,-0.05169677734375
140374,0.979644775390625,0.039459228515625,-0.06170654296875
140375,0.96307373046875,0.012542724609375,-0.0827484130859375
140376,0.959197998046875,-0.041473388671875,-0.0997314453125
140377,0.9770355224609376,-0.1036834716796875,-0.1302642822265625
140378,1.002655029296875,-0.170989990234375,-0.1497039794921875
140379,1.016708374023438,-0.2557830810546875,-0.1493988037109375
140380,1.009414672851562,-0.3536834716796875,-0.1210479736328125
140381,1.000274658203125,-0.4517059326171875,-0.054443359375
140382,1.027786254882812,-0.538177490234375,0.018798828125
140383,1.092803955078125,-0.6068267822265625,0.0938568115234375
140384,1.154464721679688,-0.6670989990234375,0.139923095703125
140385,1.184768676757812,-0.7221527099609375,0.1398162841796875
140386,1.169876098632812,-0.771331787109375,0.1423797607421875
140387,1.11785888671875,-0.80633544921875,0.1548919677734375
140388,1.032867431640625,-0.8131103515625,0.175262451171875
140389,0.931365966796875,-0.802276611328125,0.1927490234375
140390,0.8302001953125,-0.78369140625,0.2058258056640625
140391,0.735076904296875,-0.767303466796875,0.21295166015625
140392,0.6522064208984375,-0.755950927734375,0.1880035400390625
140393,0.58563232421875,-0.7394256591796875,0.140838623046875
140394,0.5365447998046875,-0.707763671875,0.081451416015625
140395,0.5170135498046875,-0.6627197265625,0.0155181884765625
140396,0.523651123046875,-0.6060791015625,-0.039825439453125
140397,0.5495452880859375,-0.5472869873046875,-0.0684814453125
140398,0.594085693359375,-0.5082244873046875,-0.032501220703125
140399,0.656280517578125,-0.500152587890625,0.0617218017578125
140400,0.7158966064453125,-0.51690673828125,0.1894378662109375
140401,0.767974853515625,-0.5449676513671875,0.3343658447265625
140402,0.8163909912109375,-0.5702056884765625,0.4672088623046875
140403,0.84429931640625,-0.5964508056640625,0.56787109375
140404,0.8450469970703125,-0.6386871337890625,0.5873870849609375
140405,0.8114013671875,-0.7020111083984375,0.5561065673828125
140406,0.74365234375,-0.7773590087890625,0.5308837890625
140407,0.6416015625,-0.8429107666015625,0.510955810546875
140408,0.52020263671875,-0.8842010498046875,0.50946044921875
140409,0.3979339599609375,-0.9048309326171876,0.515899658203125
140410,0.3021240234375,-0.9033966064453124,0.5013885498046875
140411,0.265045166015625,-0.8935546875,0.468017578125
140412,0.311431884765625,-0.890838623046875,0.4564361572265625
140413,0.4190673828125,-0.889862060546875,0.47406005859375
140414,0.5535736083984375,-0.900146484375,0.501312255859375
140415,0.666046142578125,-0.912841796875,0.50628662109375
140416,0.714508056640625,-0.91729736328125,0.502777099609375
140417,0.697601318359375,-0.9085540771484376,0.490447998046875
140418,0.64501953125,-0.8762664794921875,0.4557342529296875
140419,0.5921478271484375,-0.8302459716796875,0.3921661376953125
140420,0.554779052734375,-0.7806854248046875,0.2912445068359375
140421,0.534912109375,-0.7238006591796875,0.1703643798828125
140422,0.5395660400390625,-0.654937744140625,0.06744384765625
140423,0.5735626220703125,-0.5804290771484375,-0.0004119873046875
140424,0.6558990478515625,-0.5054168701171875,-0.0436553955078125
140425,0.787384033203125,-0.4478912353515625,-0.06494140625
140426,0.947723388671875,-0.41058349609375,-0.0699462890625
140427,1.120437622070312,-0.3890228271484375,-0.074249267578125
140428,1.291061401367188,-0.3744049072265625,-0.0862579345703125
140429,1.4398193359375,-0.3453521728515625,-0.1419219970703125
140430,1.533233642578125,-0.29632568359375,-0.2402496337890625
140431,1.544281005859375,-0.2387237548828125,-0.3124237060546875
140432,1.471450805664062,-0.1627960205078125,-0.311981201171875
140433,1.332763671875,-0.06719970703125,-0.274658203125
140434,1.177658081054688,0.0274200439453125,-0.24432373046875
140435,1.021453857421875,0.0804595947265625,-0.2281341552734375
140436,0.8857879638671875,0.0748291015625,-0.2289886474609375
140437,0.798797607421875,0.005126953125,-0.201995849609375
140438,0.778533935546875,-0.0971832275390625,-0.1590728759765625
140439,0.802978515625,-0.1836700439453125,-0.1199188232421875
140440,0.8509979248046875,-0.2626495361328125,-0.0748748779296875
140441,0.9215850830078124,-0.32940673828125,-0.0335235595703125
140442,1.009552001953125,-0.3717041015625,-0.023834228515625
140443,1.097579956054688,-0.4045562744140625,-0.0345001220703125
140444,1.172317504882812,-0.448974609375,-0.035675048828125
140445,1.213912963867188,-0.5090789794921875,-0.020477294921875
140446,1.186431884765625,-0.5878753662109375,0.0142822265625
140447,1.076217651367188,-0.6471099853515625,0.06072998046875
140448,0.9405517578125,-0.657379150390625,0.1090545654296875
140449,0.8025970458984375,-0.6479034423828125,0.1427001953125
140450,0.6785430908203125,-0.644927978515625,0.162445068359375
140451,0.5889892578125,-0.68536376953125,0.182342529296875
140452,0.524169921875,-0.7764129638671875,0.2854766845703125
140453,0.4825592041015625,-0.84088134765625,0.4084930419921875
140454,0.460174560546875,-0.855926513671875,0.4776458740234375
140455,0.4496917724609375,-0.828643798828125,0.512176513671875
140456,0.429351806640625,-0.783111572265625,0.516387939453125
140457,0.39990234375,-0.741546630859375,0.4902801513671875
140458,0.3918609619140625,-0.7146453857421875,0.4339447021484375
140459,0.41748046875,-0.7060089111328125,0.3680572509765625
140460,0.47021484375,-0.71197509765625,0.28790283203125
140461,0.533905029296875,-0.7233428955078125,0.2184295654296875
140462,0.5922088623046875,-0.7313079833984375,0.2028656005859375
140463,0.6297760009765625,-0.7499847412109375,0.2422637939453125
140464,0.6363067626953125,-0.781890869140625,0.278717041015625
140465,0.614654541015625,-0.797210693359375,0.2677764892578125
140466,0.5818328857421875,-0.79522705078125,0.212646484375
140467,0.5507965087890625,-0.7747955322265625,0.1454010009765625
140468,0.5330963134765625,-0.74169921875,0.092529296875
140469,0.529144287109375,-0.714263916015625,0.0443267822265625
140470,0.53253173828125,-0.713104248046875,0.0111846923828125
140471,0.5477142333984375,-0.7436370849609375,-0.0046539306640625
140472,0.5756683349609375,-0.798858642578125,0.02142333984375
140473,0.6079864501953125,-0.85784912109375,0.1042022705078125
140474,0.651275634765625,-0.8932647705078125,0.21697998046875
140475,0.702362060546875,-0.8992462158203125,0.319915771484375
140476,0.7496185302734375,-0.8870086669921875,0.382965087890625
140477,0.777862548828125,-0.874359130859375,0.3768463134765625
140478,0.768707275390625,-0.861053466796875,0.3357696533203125
140479,0.7255401611328125,-0.8360443115234375,0.2958984375
140480,0.670928955078125,-0.7882080078125,0.26702880859375
140481,0.638031005859375,-0.73370361328125,0.2594451904296875
140482,0.6415863037109375,-0.694915771484375,0.2745208740234375
140483,0.677093505859375,-0.67529296875,0.28826904296875
140484,0.72491455078125,-0.666595458984375,0.29034423828125
140485,0.7596282958984375,-0.6552734375,0.273712158203125
140486,0.791717529296875,-0.632568359375,0.23236083984375
140487,0.8315277099609375,-0.5937652587890625,0.1913909912109375
140488,0.87628173828125,-0.5358428955078125,0.14581298828125
140489,0.9171600341796876,-0.4676971435546875,0.0843658447265625
140490,0.9418487548828124,-0.3942718505859375,-0.0141754150390625
140491,0.9427947998046876,-0.3079071044921875,-0.11187744140625
140492,0.9229888916015624,-0.2106475830078125,-0.1848602294921875
140493,0.8929595947265625,-0.115631103515625,-0.2237548828125
140494,0.8752899169921875,-0.0375213623046875,-0.2163543701171875
140495,0.890655517578125,0.01019287109375,-0.1962738037109375
140496,0.9364471435546876,0.0332489013671875,-0.1578826904296875
140497,1.02081298828125,0.027587890625,-0.0963134765625
140498,1.138473510742188,-0.0119781494140625,-0.0340728759765625
140499,1.2271728515625,-0.0968780517578125,-1.52587890625e-05
140500,1.252944946289062,-0.206939697265625,0.01080322265625
140501,1.209869384765625,-0.3108367919921875,0.0021209716796875
140502,1.119735717773438,-0.39007568359375,-0.0045166015625
140503,1.0360107421875,-0.4674224853515625,0.01580810546875
140504,0.9883575439453124,-0.5398101806640625,0.0724945068359375
140505,0.9657745361328124,-0.60302734375,0.1318817138671875
140506,0.9486846923828124,-0.657745361328125,0.16802978515625
140507,0.9200439453125,-0.70794677734375,0.1822967529296875
140508,0.872100830078125,-0.7524261474609375,0.1870880126953125
140509,0.7966461181640625,-0.7868804931640625,0.212982177734375
140510,0.6913909912109375,-0.8052215576171875,0.2780303955078125
140511,0.596832275390625,-0.8120269775390625,0.3653106689453125
140512,0.533721923828125,-0.82342529296875,0.4365234375
140513,0.493988037109375,-0.8314056396484375,0.44171142578125
140514,0.4884796142578125,-0.8099822998046875,0.3223724365234375
140515,0.521881103515625,-0.7618865966796875,0.12750244140625
140516,0.585205078125,-0.7056427001953125,-0.0367584228515625
140517,0.661102294921875,-0.6461334228515625,-0.0893402099609375
140518,0.7436981201171875,-0.5898590087890625,-0.05535888671875
140519,0.8249664306640625,-0.5507965087890625,0.024322509765625
140520,0.8767242431640625,-0.53106689453125,0.1365966796875
140521,0.8839263916015625,-0.5275726318359375,0.248046875
140522,0.85211181640625,-0.530609130859375,0.3189239501953125
140523,0.7964324951171875,-0.5385284423828125,0.332763671875
140524,0.7277374267578125,-0.5535125732421875,0.3102264404296875
140525,0.665802001953125,-0.5803680419921875,0.3040008544921875
140526,0.6323089599609375,-0.6251068115234375,0.338226318359375
140527,0.633941650390625,-0.6935577392578125,0.3916015625
140528,0.64569091796875,-0.7782745361328125,0.4460906982421875
140529,0.634918212890625,-0.848876953125,0.5176849365234375
140530,0.59490966796875,-0.879852294921875,0.5862274169921875
140531,0.5335235595703125,-0.8605499267578125,0.5962066650390625
140532,0.4688720703125,-0.817657470703125,0.5390472412109375
140533,0.418487548828125,-0.785675048828125,0.4506378173828125
140534,0.407562255859375,-0.7760009765625,0.3704681396484375
140535,0.4376220703125,-0.7922515869140625,0.3199920654296875
140536,0.4877166748046875,-0.807525634765625,0.3297576904296875
140537,0.5282745361328125,-0.8241119384765625,0.375762939453125
140538,0.5412445068359375,-0.847686767578125,0.3985137939453125
140539,0.5192108154296875,-0.8700408935546875,0.397552490234375
140540,0.4807891845703125,-0.874114990234375,0.382293701171875
140541,0.460601806640625,-0.859588623046875,0.326416015625
140542,0.46978759765625,-0.8296966552734375,0.2372589111328125
140543,0.5074615478515625,-0.7902374267578125,0.1393585205078125
140544,0.5833587646484375,-0.75006103515625,0.04315185546875
140545,0.7016754150390625,-0.7162017822265625,-0.0215301513671875
140546,0.85455322265625,-0.6937408447265625,-0.0690155029296875
140547,1.025100708007812,-0.678009033203125,-0.1182861328125
140548,1.197830200195312,-0.6533355712890625,-0.1343994140625
140549,1.363693237304688,-0.6234130859375,-0.146240234375
140550,1.507537841796875,-0.5886077880859375,-0.1837615966796875
140551,1.599395751953125,-0.52899169921875,-0.204071044921875
140552,1.608856201171875,-0.4241790771484375,-0.23211669921875
140553,1.523300170898438,-0.2663726806640625,-0.2916107177734375
140554,1.363067626953125,-0.0831298828125,-0.3227691650390625
140555,1.18927001953125,0.0467681884765625,-0.3209381103515625
140556,1.045318603515625,0.089324951171875,-0.2935791015625
140557,0.9237518310546876,0.0524749755859375,-0.2380218505859375
140558,0.8403778076171875,-0.0666961669921875,-0.1786651611328125
140559,0.805328369140625,-0.194061279296875,-0.087799072265625
140560,0.81121826171875,-0.291015625,0.0066375732421875
140561,0.8544769287109375,-0.3802642822265625,0.072052001953125
140562,0.923583984375,-0.4469451904296875,0.0898284912109375
140563,0.993988037109375,-0.482147216796875,0.08447265625
140564,1.048080444335938,-0.5026092529296875,0.0776214599609375
140565,1.067108154296875,-0.5313720703125,0.0809326171875
140566,1.042068481445312,-0.5670166015625,0.113037109375
140567,0.9564361572265624,-0.601776123046875,0.1706085205078125
140568,0.824462890625,-0.6356964111328125,0.2372589111328125
140569,0.6891021728515625,-0.661590576171875,0.2938079833984375
140570,0.5761871337890625,-0.670745849609375,0.307342529296875
140571,0.4883575439453125,-0.685699462890625,0.2991180419921875
140572,0.423675537109375,-0.7144927978515625,0.3000030517578125
140573,0.3934173583984375,-0.7495574951171875,0.307403564453125
140574,0.41168212890625,-0.7717437744140625,0.3249359130859375
140575,0.452484130859375,-0.7606353759765625,0.3430023193359375
140576,0.48687744140625,-0.728607177734375,0.35980224609375
140577,0.522247314453125,-0.6868438720703125,0.35821533203125
140578,0.557220458984375,-0.64459228515625,0.3454437255859375
140579,0.5744781494140625,-0.6201629638671875,0.333831787109375
140580,0.57373046875,-0.622344970703125,0.332855224609375
140581,0.5748748779296875,-0.64898681640625,0.3588104248046875
140582,0.58294677734375,-0.7044677734375,0.373779296875
140583,0.582275390625,-0.7838134765625,0.3289794921875
140584,0.5556640625,-0.8694915771484375,0.2969970703125
140585,0.5066070556640625,-0.92254638671875,0.2728271484375
140586,0.453155517578125,-0.9454193115234376,0.2197418212890625
140587,0.3961029052734375,-0.931640625,0.1710357666015625
140588,0.3685760498046875,-0.8974456787109375,0.13311767578125
140589,0.3891754150390625,-0.85821533203125,0.1078338623046875
140590,0.445892333984375,-0.8256988525390625,0.1022796630859375
140591,0.523834228515625,-0.8112030029296875,0.0977783203125
140592,0.6128387451171875,-0.8237152099609375,0.0982513427734375
140593,0.7017974853515625,-0.8537750244140625,0.1321868896484375
140594,0.78216552734375,-0.892547607421875,0.188629150390625
140595,0.8477630615234375,-0.9271697998046876,0.2313079833984375
140596,0.8851776123046875,-0.9366302490234376,0.2587738037109375
140597,0.879241943359375,-0.92388916015625,0.2696685791015625
140598,0.827728271484375,-0.9026336669921876,0.2585296630859375
140599,0.7414703369140625,-0.870361328125,0.2505645751953125
140600,0.6356201171875,-0.82061767578125,0.2503204345703125
140601,0.5420989990234375,-0.7592315673828125,0.2527618408203125
140602,0.4931793212890625,-0.7213897705078125,0.2676849365234375
140603,0.490814208984375,-0.7156829833984375,0.29095458984375
140604,0.5228118896484375,-0.7181549072265625,0.30908203125
140605,0.5735321044921875,-0.7078857421875,0.320404052734375
140606,0.6391448974609375,-0.6751708984375,0.3152008056640625
140607,0.728790283203125,-0.6256256103515625,0.2765655517578125
140608,0.8490142822265625,-0.5703887939453125,0.2011260986328125
140609,0.9792022705078124,-0.5189971923828125,0.1250762939453125
140610,1.083358764648438,-0.4577789306640625,0.0235595703125
140611,1.133071899414062,-0.379364013671875,-0.105255126953125
140612,1.126205444335938,-0.2815093994140625,-0.19195556640625
140613,1.054733276367188,-0.1697235107421875,-0.2111968994140625
140614,0.938812255859375,-0.069061279296875,-0.178619384765625
140615,0.836639404296875,0.0120697021484375,-0.13153076171875
140616,0.7941741943359375,0.06689453125,-0.12811279296875
140617,0.807373046875,0.0935821533203125,-0.1250762939453125
140618,0.8671112060546875,0.08831787109375,-0.11199951171875
140619,0.9547882080078124,0.0397186279296875,-0.1159820556640625
140620,1.04888916015625,-0.054534912109375,-0.1081695556640625
140621,1.12017822265625,-0.189971923828125,-0.06170654296875
140622,1.151336669921875,-0.3428955078125,0.0154266357421875
140623,1.154708862304688,-0.4661865234375,0.1122283935546875
140624,1.15374755859375,-0.5713348388671875,0.1880035400390625
140625,1.137283325195312,-0.66796875,0.2092437744140625
140626,1.077255249023438,-0.74847412109375,0.196685791015625
140627,0.9768829345703124,-0.794189453125,0.1880950927734375
140628,0.86907958984375,-0.7975006103515625,0.186676025390625
140629,0.786834716796875,-0.7821044921875,0.1954498291015625
140630,0.7303314208984375,-0.77374267578125,0.216156005859375
140631,0.6957244873046875,-0.784881591796875,0.2500457763671875
140632,0.67974853515625,-0.8102264404296875,0.2875823974609375
140633,0.6732330322265625,-0.83807373046875,0.309295654296875
140634,0.661590576171875,-0.850555419921875,0.3126983642578125
140635,0.6442413330078125,-0.840484619140625,0.2926788330078125
140636,0.63336181640625,-0.80364990234375,0.256744384765625
140637,0.6326751708984375,-0.746185302734375,0.2199554443359375
140638,0.6431427001953125,-0.678863525390625,0.1763763427734375
140639,0.6595916748046875,-0.60919189453125,0.131072998046875
140640,0.670989990234375,-0.551971435546875,0.086944580078125
140641,0.6761932373046875,-0.5182342529296875,0.0603790283203125
140642,0.6785430908203125,-0.5101470947265625,0.05596923828125
140643,0.67144775390625,-0.5188140869140625,0.1024169921875
140644,0.647674560546875,-0.5344390869140625,0.1993560791015625
140645,0.6210174560546875,-0.5441131591796875,0.3175506591796875
140646,0.6151123046875,-0.56011962890625,0.4564361572265625
140647,0.6405029296875,-0.5971527099609375,0.555633544921875
140648,0.6696319580078125,-0.65521240234375,0.6071014404296875
140649,0.6722869873046875,-0.716094970703125,0.6299285888671875
140650,0.6434326171875,-0.75714111328125,0.6018218994140625
140651,0.5973663330078125,-0.7740325927734375,0.541412353515625
140652,0.5465850830078125,-0.7835540771484375,0.4854736328125
140653,0.500152587890625,-0.79766845703125,0.420867919921875
140654,0.46673583984375,-0.807830810546875,0.3587799072265625
140655,0.4617462158203125,-0.8076171875,0.347015380859375
140656,0.478363037109375,-0.8000946044921875,0.3998565673828125
140657,0.5035247802734375,-0.7916717529296875,0.459564208984375
140658,0.5192718505859375,-0.796783447265625,0.4915771484375
140659,0.5127716064453125,-0.818572998046875,0.48992919921875
140660,0.483489990234375,-0.846923828125,0.4634246826171875
140661,0.451324462890625,-0.8662261962890625,0.414306640625
140662,0.4396209716796875,-0.86492919921875,0.330474853515625
140663,0.4742279052734375,-0.8347320556640625,0.2093658447265625
140664,0.5642242431640625,-0.777557373046875,0.09954833984375
140665,0.69549560546875,-0.7027130126953125,0.015472412109375
140666,0.872589111328125,-0.6334075927734375,-0.0620574951171875
140667,1.112197875976562,-0.574371337890625,-0.09259033203125
140668,1.396377563476562,-0.5276336669921875,-0.1027069091796875
140669,1.673141479492188,-0.492218017578125,-0.17071533203125
140670,1.872634887695312,-0.445587158203125,-0.2814178466796875
140671,1.912277221679688,-0.384735107421875,-0.3265838623046875
140672,1.771270751953125,-0.316680908203125,-0.2905731201171875
140673,1.536178588867188,-0.253021240234375,-0.2538909912109375
140674,1.312728881835938,-0.1840667724609375,-0.2243194580078125
140675,1.1474609375,-0.126739501953125,-0.1854095458984375
140676,1.009521484375,-0.1124267578125,-0.1486663818359375
140677,0.8959503173828125,-0.1231231689453125,-0.1302947998046875
140678,0.827178955078125,-0.1545562744140625,-0.1083831787109375
140679,0.8054046630859375,-0.201751708984375,-0.0754547119140625
140680,0.8085174560546875,-0.240814208984375,-0.0543212890625
140681,0.830291748046875,-0.276458740234375,-0.0326690673828125
140682,0.8725433349609375,-0.3193359375,-0.0188446044921875
140683,0.95654296875,-0.3288116455078125,0.030609130859375
140684,1.0535888671875,-0.3289794921875,0.1127166748046875
140685,1.091690063476562,-0.36932373046875,0.194061279296875
140686,1.05169677734375,-0.449462890625,0.2805328369140625
140687,0.9525146484375,-0.5564117431640625,0.3396759033203125
140688,0.8113250732421875,-0.6547393798828125,0.36090087890625
140689,0.6656951904296875,-0.7016754150390625,0.36541748046875
140690,0.5367889404296875,-0.7103118896484375,0.36865234375
140691,0.4386444091796875,-0.6979827880859375,0.377227783203125
140692,0.3780670166015625,-0.669158935546875,0.3717803955078125
140693,0.364410400390625,-0.637939453125,0.341766357421875
140694,0.38323974609375,-0.623443603515625,0.322509765625
140695,0.4027099609375,-0.62286376953125,0.3314971923828125
140696,0.418304443359375,-0.6329193115234375,0.3782806396484375
140697,0.451690673828125,-0.643463134765625,0.4629669189453125
140698,0.495452880859375,-0.6439208984375,0.55059814453125
140699,0.517242431640625,-0.636199951171875,0.61456298828125
140700,0.519866943359375,-0.6325225830078125,0.6248779296875
140701,0.528594970703125,-0.64715576171875,0.5771636962890625
140702,0.5565643310546875,-0.68402099609375,0.490936279296875
140703,0.5823822021484375,-0.7325439453125,0.37017822265625
140704,0.5819549560546875,-0.7731170654296875,0.2637939453125
140705,0.5549163818359375,-0.792877197265625,0.2292938232421875
140706,0.514678955078125,-0.7939300537109375,0.2459259033203125
140707,0.47418212890625,-0.769989013671875,0.2414703369140625
140708,0.4457550048828125,-0.7366790771484375,0.2039337158203125
140709,0.435211181640625,-0.7176361083984375,0.173370361328125
140710,0.4423980712890625,-0.7013702392578125,0.152008056640625
140711,0.48199462890625,-0.683624267578125,0.1084747314453125
140712,0.5479888916015625,-0.676300048828125,0.0632781982421875
140713,0.6246185302734375,-0.68511962890625,0.043548583984375
140714,0.7048492431640625,-0.70654296875,0.0550384521484375
140715,0.7759857177734375,-0.7368927001953125,0.1206817626953125
140716,0.8354034423828125,-0.7656097412109375,0.2163848876953125
140717,0.8898773193359375,-0.784820556640625,0.3128204345703125
140718,0.9376220703125,-0.7916717529296875,0.367401123046875
140719,0.9695892333984376,-0.7845611572265625,0.3486328125
140720,0.957977294921875,-0.7665252685546875,0.28277587890625
140721,0.898773193359375,-0.74908447265625,0.2042999267578125
140722,0.81097412109375,-0.738250732421875,0.144866943359375
140723,0.71881103515625,-0.7298431396484375,0.118988037109375
140724,0.64471435546875,-0.7205657958984375,0.12506103515625
140725,0.599853515625,-0.7124481201171875,0.1517486572265625
140726,0.5890350341796875,-0.7022857666015625,0.188201904296875
140727,0.6121826171875,-0.6773223876953125,0.24072265625
140728,0.6666107177734375,-0.6427459716796875,0.308074951171875
140729,0.7431793212890625,-0.6045989990234375,0.339324951171875
140730,0.8343658447265625,-0.5656890869140625,0.302032470703125
140731,0.91864013671875,-0.5287933349609375,0.225189208984375
140732,0.9819488525390624,-0.491424560546875,0.115936279296875
140733,1.007339477539062,-0.445037841796875,0.00244140625
140734,1.012359619140625,-0.37774658203125,-0.1049957275390625
140735,0.996917724609375,-0.2903900146484375,-0.1812896728515625
140736,0.9624481201171876,-0.202789306640625,-0.22186279296875
140737,0.9213714599609376,-0.1312255859375,-0.216796875
140738,0.8831329345703125,-0.0867767333984375,-0.1757049560546875
140739,0.86187744140625,-0.0775604248046875,-0.13873291015625
140740,0.859619140625,-0.0969696044921875,-0.098663330078125
140741,0.8864593505859375,-0.1365509033203125,-0.0690460205078125
140742,0.934661865234375,-0.18548583984375,-0.0556182861328125
140743,1.0216064453125,-0.2208251953125,-0.0434112548828125
140744,1.1331787109375,-0.2551116943359375,-0.0408935546875
140745,1.225265502929688,-0.307281494140625,-0.0465850830078125
140746,1.260726928710938,-0.3769073486328125,-0.0358734130859375
140747,1.236221313476562,-0.4444580078125,-0.0018463134765625
140748,1.17431640625,-0.50494384765625,0.053558349609375
140749,1.099746704101562,-0.559326171875,0.1095428466796875
140750,1.020111083984375,-0.611724853515625,0.1446380615234375
140751,0.937591552734375,-0.6551666259765625,0.1662445068359375
140752,0.860748291015625,-0.6861572265625,0.178619384765625
140753,0.800079345703125,-0.7075042724609375,0.17889404296875
140754,0.7590789794921875,-0.73345947265625,0.174041748046875
140755,0.7257537841796875,-0.7674560546875,0.1830596923828125
140756,0.687896728515625,-0.8018798828125,0.200469970703125
140757,0.6414947509765625,-0.8231201171875,0.222259521484375
140758,0.6002044677734375,-0.819671630859375,0.267730712890625
140759,0.5793609619140625,-0.7895050048828125,0.3073577880859375
140760,0.5804595947265625,-0.73687744140625,0.3209228515625
140761,0.6031341552734375,-0.6722259521484375,0.2665557861328125
140762,0.6431884765625,-0.605224609375,0.1483612060546875
140763,0.686004638671875,-0.54150390625,0.022308349609375
140764,0.713470458984375,-0.48797607421875,-0.0617523193359375
140765,0.722442626953125,-0.4588775634765625,-0.0810546875
140766,0.7223358154296875,-0.459808349609375,-0.052001953125
140767,0.704803466796875,-0.4889984130859375,0.0132904052734375
140768,0.6675872802734375,-0.5323486328125,0.1132965087890625
140769,0.629150390625,-0.5633697509765625,0.246490478515625
140770,0.595977783203125,-0.58746337890625,0.4168548583984375
140771,0.586669921875,-0.618896484375,0.57855224609375
140772,0.6224365234375,-0.6697540283203125,0.685546875
140773,0.68218994140625,-0.738494873046875,0.7277984619140625
140774,0.739288330078125,-0.80487060546875,0.69464111328125
140775,0.7627410888671875,-0.8471832275390625,0.582672119140625
140776,0.72613525390625,-0.8656463623046875,0.4711456298828125
140777,0.661224365234375,-0.8663330078125,0.38427734375
140778,0.596923828125,-0.8663330078125,0.337860107421875
140779,0.5440673828125,-0.865753173828125,0.3434295654296875
140780,0.5068511962890625,-0.873809814453125,0.3642425537109375
140781,0.480926513671875,-0.891876220703125,0.3920135498046875
140782,0.4683837890625,-0.9162139892578124,0.43853759765625
140783,0.46685791015625,-0.9244537353515624,0.467437744140625
140784,0.47509765625,-0.9083099365234376,0.4849700927734375
140785,0.4966888427734375,-0.8704376220703125,0.4693145751953125
140786,0.5395660400390625,-0.815673828125,0.37841796875
140787,0.6029205322265625,-0.75640869140625,0.257171630859375
140788,0.6873321533203125,-0.70196533203125,0.1349334716796875
140789,0.8012542724609375,-0.656524658203125,0.0038299560546875
140790,0.942901611328125,-0.62152099609375,-0.110137939453125
140791,1.093154907226562,-0.592620849609375,-0.1676788330078125
140792,1.24945068359375,-0.5547027587890625,-0.17919921875
140793,1.41827392578125,-0.5198211669921875,-0.1941375732421875
140794,1.5889892578125,-0.4862213134765625,-0.2313690185546875
140795,1.71600341796875,-0.44390869140625,-0.3107452392578125
140796,1.731887817382812,-0.370208740234375,-0.3843841552734375
140797,1.631011962890625,-0.2635345458984375,-0.396453857421875
140798,1.462692260742188,-0.1438751220703125,-0.3697967529296875
140799,1.289260864257812,-0.034698486328125,-0.3221588134765625
140800,1.132553100585938,0.0231475830078125,-0.2945709228515625
140801,0.9958648681640624,0.0294647216796875,-0.2693023681640625
140802,0.8893280029296875,-0.02008056640625,-0.2501678466796875
140803,0.8150177001953125,-0.1053619384765625,-0.226104736328125
140804,0.756561279296875,-0.17169189453125,-0.1691131591796875
140805,0.7300872802734375,-0.2143096923828125,-0.0858612060546875
140806,0.7666473388671875,-0.244476318359375,-0.0027618408203125
140807,0.8583221435546875,-0.2687225341796875,0.045196533203125
140808,0.9676971435546876,-0.2935943603515625,0.0645904541015625
140809,1.034774780273438,-0.347747802734375,0.06396484375
140810,1.021072387695312,-0.4357147216796875,0.064605712890625
140811,0.991851806640625,-0.4990997314453125,0.1269989013671875
140812,0.9534912109375,-0.564727783203125,0.2001953125
140813,0.8781585693359375,-0.616790771484375,0.2576904296875
140814,0.8064117431640625,-0.640594482421875,0.28485107421875
140815,0.7444915771484375,-0.67083740234375,0.312744140625
140816,0.6696014404296875,-0.71112060546875,0.405364990234375
140817,0.5782623291015625,-0.7441864013671875,0.4766845703125
140818,0.4914398193359375,-0.769073486328125,0.5019378662109375
140819,0.4227447509765625,-0.7730865478515625,0.5233001708984375
140820,0.373443603515625,-0.7413330078125,0.5281219482421875
140821,0.346160888671875,-0.6982269287109375,0.4834442138671875
140822,0.3406524658203125,-0.6593780517578125,0.3726348876953125
140823,0.339630126953125,-0.6121673583984375,0.2810821533203125
140824,0.3341827392578125,-0.5689544677734375,0.2556304931640625
140825,0.338714599609375,-0.54718017578125,0.25384521484375
140826,0.370086669921875,-0.5574951171875,0.332733154296875
140827,0.43408203125,-0.596832275390625,0.4686126708984375
140828,0.5231170654296875,-0.646514892578125,0.5593109130859375
140829,0.61529541015625,-0.69329833984375,0.549530029296875
140830,0.674041748046875,-0.7318572998046875,0.4673614501953125
140831,0.67669677734375,-0.7652587890625,0.33624267578125
140832,0.6234283447265625,-0.775787353515625,0.19219970703125
140833,0.551300048828125,-0.7463531494140625,0.0735321044921875
140834,0.501556396484375,-0.7063140869140625,0.0010986328125
140835,0.4868011474609375,-0.686920166015625,-0.0303802490234375
140836,0.50421142578125,-0.6809844970703125,-0.0282440185546875
140837,0.5446319580078125,-0.68414306640625,0.011749267578125
140838,0.601409912109375,-0.698516845703125,0.0821685791015625
140839,0.6763763427734375,-0.721923828125,0.1647796630859375
140840,0.7616119384765625,-0.7479400634765625,0.249725341796875
140841,0.84527587890625,-0.771270751953125,0.3292083740234375
140842,0.9134368896484376,-0.792510986328125,0.38409423828125
140843,0.9495086669921876,-0.805084228515625,0.3644866943359375
140844,0.940887451171875,-0.8029937744140625,0.27606201171875
140845,0.885986328125,-0.78179931640625,0.2048797607421875
140846,0.8117523193359375,-0.7490386962890625,0.1804351806640625
140847,0.74603271484375,-0.7198638916015625,0.18865966796875
140848,0.6951446533203125,-0.699371337890625,0.215179443359375
140849,0.657470703125,-0.6837158203125,0.2494049072265625
140850,0.6371917724609375,-0.663818359375,0.289520263671875
140851,0.6378021240234375,-0.6385955810546875,0.32525634765625
140852,0.6540985107421875,-0.611297607421875,0.32708740234375
140853,0.6810455322265625,-0.583740234375,0.2681732177734375
140854,0.7130584716796875,-0.5536956787109375,0.1876068115234375
140855,0.7568206787109375,-0.5265045166015625,0.1138916015625
140856,0.81732177734375,-0.50018310546875,0.0470733642578125
140857,0.87847900390625,-0.4612884521484375,0.002044677734375
140858,0.9403228759765624,-0.398834228515625,-0.038360595703125
140859,1.00555419921875,-0.3126220703125,-0.094635009765625
140860,1.059112548828125,-0.2196044921875,-0.1851806640625
140861,1.08428955078125,-0.1328582763671875,-0.2276153564453125
140862,1.07586669921875,-0.0664215087890625,-0.2031402587890625
140863,1.052459716796875,-0.0233612060546875,-0.1663360595703125
140864,1.026382446289062,-0.009979248046875,-0.10992431640625
140865,1.02044677734375,-0.0299072265625,-0.0420074462890625
140866,1.038314819335938,-0.0870513916015625,0.0125579833984375
140867,1.054794311523438,-0.170318603515625,0.022857666015625
140868,1.050979614257812,-0.2740020751953125,0.009002685546875
140869,1.025985717773438,-0.3828125,0.0188140869140625
140870,0.9909820556640624,-0.474517822265625,0.051177978515625
140871,0.9585723876953124,-0.5447235107421875,0.083404541015625
140872,0.9336090087890624,-0.5997467041015625,0.117919921875
140873,0.9179229736328124,-0.6464385986328125,0.1572418212890625
140874,0.912933349609375,-0.691314697265625,0.194427490234375
140875,0.9152374267578124,-0.729248046875,0.2186737060546875
140876,0.91192626953125,-0.7623748779296875,0.239349365234375
140877,0.8941650390625,-0.7901153564453125,0.2499542236328125
140878,0.8604583740234375,-0.808746337890625,0.2336273193359375
140879,0.8144378662109375,-0.821319580078125,0.2137908935546875
140880,0.766326904296875,-0.829986572265625,0.1985626220703125
140881,0.72576904296875,-0.8239593505859375,0.1913299560546875
140882,0.7014617919921875,-0.7971343994140625,0.1944427490234375
140883,0.6974334716796875,-0.7483673095703125,0.1857452392578125
140884,0.713470458984375,-0.6830596923828125,0.1348724365234375
140885,0.7469635009765625,-0.6082611083984375,0.0404052734375
140886,0.7829132080078125,-0.527862548828125,-0.0495452880859375
140887,0.7889404296875,-0.455657958984375,-0.0753326416015625
140888,0.7561798095703125,-0.40765380859375,-0.0395965576171875
140889,0.7031707763671875,-0.401092529296875,0.0356597900390625
140890,0.642822265625,-0.4337158203125,0.1417999267578125
140891,0.5936279296875,-0.4818115234375,0.2723236083984375
140892,0.5672454833984375,-0.5249786376953125,0.394500732421875
140893,0.5703125,-0.5596466064453125,0.493438720703125
140894,0.6131439208984375,-0.6110076904296875,0.5391998291015625
140895,0.6828155517578125,-0.686370849609375,0.569488525390625
140896,0.7449188232421875,-0.781005859375,0.6077728271484375
140897,0.76153564453125,-0.8646087646484375,0.6053924560546875
140898,0.7142333984375,-0.910400390625,0.5575408935546875
140899,0.6197052001953125,-0.90997314453125,0.5196533203125
140900,0.5101318359375,-0.88995361328125,0.4982147216796875
140901,0.4272918701171875,-0.8884429931640625,0.464813232421875
140902,0.4060516357421875,-0.9124298095703124,0.4339599609375
140903,0.418914794921875,-0.9413909912109376,0.4394073486328125
140904,0.42950439453125,-0.9715423583984376,0.461181640625
140905,0.431121826171875,-0.9899139404296876,0.4732818603515625
140906,0.4337921142578125,-0.9763946533203124,0.478302001953125
140907,0.4424285888671875,-0.9359283447265624,0.4571075439453125
140908,0.4642486572265625,-0.885498046875,0.380157470703125
140909,0.505859375,-0.8322906494140625,0.2532958984375
140910,0.5726165771484375,-0.770965576171875,0.1072235107421875
140911,0.6736297607421875,-0.6981658935546875,-0.021881103515625
140912,0.822723388671875,-0.62713623046875,-0.1251068115234375
140913,1.021820068359375,-0.5674285888671875,-0.1953125
140914,1.259552001953125,-0.5111541748046875,-0.211700439453125
140915,1.513092041015625,-0.47381591796875,-0.1907958984375
140916,1.745452880859375,-0.4651031494140625,-0.197021484375
140917,1.879486083984375,-0.470703125,-0.2979736328125
140918,1.830337524414062,-0.3994598388671875,-0.410186767578125
140919,1.634002685546875,-0.2235870361328125,-0.4585418701171875
140920,1.385955810546875,-0.049041748046875,-0.43878173828125
140921,1.166458129882812,0.0714263916015625,-0.3811492919921875
140922,1.004135131835938,0.12384033203125,-0.29736328125
140923,0.8856048583984375,0.1185150146484375,-0.2387237548828125
140924,0.806121826171875,0.0685272216796875,-0.214202880859375
140925,0.7775115966796875,-0.008331298828125,-0.1814117431640625
140926,0.78857421875,-0.0696563720703125,-0.1390228271484375
140927,0.8428192138671875,-0.12640380859375,-0.1061248779296875
140928,0.954376220703125,-0.1920318603515625,-0.07720947265625
140929,1.08697509765625,-0.2563018798828125,-0.0424957275390625
140930,1.185806274414062,-0.317352294921875,-0.0113525390625
140931,1.218963623046875,-0.396240234375,0.0318603515625
140932,1.161651611328125,-0.5053253173828125,0.120880126953125
140933,1.021438598632812,-0.5924072265625,0.2057952880859375
140934,0.8870849609375,-0.610870361328125,0.2357330322265625
140935,0.7624969482421875,-0.61956787109375,0.2133331298828125
140936,0.6511688232421875,-0.64453125,0.20037841796875
140937,0.5700225830078125,-0.683013916015625,0.1633148193359375
140938,0.4805450439453125,-0.74554443359375,0.209930419921875
140939,0.386138916015625,-0.7897796630859375,0.3876495361328125
140940,0.2975616455078125,-0.8144073486328125,0.5844879150390625
140941,0.2639312744140625,-0.8168487548828125,0.683319091796875
140942,0.2901153564453125,-0.78521728515625,0.6105499267578125
140943,0.3397674560546875,-0.7446441650390625,0.4272308349609375
140944,0.416748046875,-0.699798583984375,0.252288818359375
140945,0.4854736328125,-0.656280517578125,0.180511474609375
140946,0.5101318359375,-0.62518310546875,0.2354278564453125
140947,0.5066070556640625,-0.6014251708984375,0.3705596923828125
140948,0.5185089111328125,-0.58880615234375,0.524871826171875
140949,0.5672607421875,-0.5935821533203125,0.6182403564453125
140950,0.6315765380859375,-0.6171417236328125,0.569915771484375
140951,0.666259765625,-0.6531524658203125,0.4066162109375
140952,0.6448211669921875,-0.6968231201171875,0.2204742431640625
140953,0.5784149169921875,-0.73016357421875,0.0762939453125
140954,0.505706787109375,-0.730712890625,-0.0013275146484375
140955,0.4615478515625,-0.7066650390625,-0.011138916015625
140956,0.4617767333984375,-0.6769256591796875,0.00970458984375
140957,0.511260986328125,-0.6534423828125,0.031524658203125
140958,0.58258056640625,-0.6400909423828125,0.0708465576171875
140959,0.6566619873046875,-0.6520233154296875,0.12310791015625
140960,0.7341156005859375,-0.6912841796875,0.1753997802734375
140961,0.8120269775390625,-0.746612548828125,0.2384033203125
140962,0.8838043212890625,-0.8071136474609375,0.29449462890625
140963,0.9322052001953124,-0.859100341796875,0.30023193359375
140964,0.937530517578125,-0.885467529296875,0.264190673828125
140965,0.9038848876953124,-0.8787078857421875,0.222564697265625
140966,0.8460540771484375,-0.85052490234375,0.1971435546875
140967,0.7674713134765625,-0.8204498291015625,0.1923675537109375
140968,0.677490234375,-0.7874298095703125,0.2089385986328125
140969,0.5887908935546875,-0.7480316162109375,0.241973876953125
140970,0.5178680419921875,-0.6986541748046875,0.2711029052734375
140971,0.4812164306640625,-0.6516876220703125,0.2929229736328125
140972,0.4901885986328125,-0.61871337890625,0.3076019287109375
140973,0.541229248046875,-0.6043243408203125,0.313140869140625
140974,0.619354248046875,-0.5918121337890625,0.322113037109375
140975,0.7215728759765625,-0.568634033203125,0.313751220703125
140976,0.8439788818359375,-0.5389556884765625,0.26312255859375
140977,0.9635009765625,-0.5032806396484375,0.187164306640625
140978,1.046646118164062,-0.4586334228515625,0.0812225341796875
140979,1.086532592773438,-0.3999481201171875,-0.045013427734375
140980,1.085311889648438,-0.3235321044921875,-0.1546173095703125
140981,1.040817260742188,-0.2362060546875,-0.22418212890625
140982,0.967315673828125,-0.150177001953125,-0.2200469970703125
140983,0.913330078125,-0.078765869140625,-0.199554443359375
140984,0.9017181396484376,-0.0220184326171875,-0.186309814453125
140985,0.9221343994140624,0.0053558349609375,-0.1733551025390625
140986,0.978973388671875,0.002960205078125,-0.1378173828125
140987,1.057266235351562,-0.0432891845703125,-0.121002197265625
140988,1.131240844726562,-0.1320953369140625,-0.1377716064453125
140989,1.177734375,-0.2369384765625,-0.13629150390625
140990,1.176834106445312,-0.3496551513671875,-0.1043853759765625
140991,1.16339111328125,-0.4569549560546875,-0.04302978515625
140992,1.180160522460938,-0.54339599609375,0.058624267578125
140993,1.209197998046875,-0.617523193359375,0.16534423828125
140994,1.207550048828125,-0.696380615234375,0.2274322509765625
140995,1.161483764648438,-0.7711334228515625,0.243438720703125
140996,1.090286254882812,-0.830810546875,0.228973388671875
140997,1.008407592773438,-0.86505126953125,0.2045135498046875
140998,0.9133148193359376,-0.8645172119140625,0.1898193359375
140999,0.811553955078125,-0.8339691162109375,0.206207275390625
141000,0.7180023193359375,-0.801605224609375,0.256866455078125
141001,0.634918212890625,-0.7878570556640625,0.316131591796875
141002,0.5615386962890625,-0.78289794921875,0.33642578125
141003,0.503204345703125,-0.758209228515625,0.2722015380859375
141004,0.464111328125,-0.7071075439453125,0.1436920166015625
141005,0.4589691162109375,-0.6416015625,0.00274658203125
141006,0.49676513671875,-0.5638885498046875,-0.089599609375
141007,0.5562744140625,-0.491424560546875,-0.117950439453125
141008,0.6189422607421875,-0.4359283447265625,-0.0933685302734375
141009,0.65533447265625,-0.40679931640625,-0.00103759765625
141010,0.6574249267578125,-0.417266845703125,0.1447906494140625
141011,0.63262939453125,-0.4582977294921875,0.297760009765625
141012,0.598541259765625,-0.505889892578125,0.4333343505859375
141013,0.5814361572265625,-0.54400634765625,0.5541534423828125
141014,0.5947113037109375,-0.589447021484375,0.613433837890625
141015,0.61798095703125,-0.6543731689453125,0.5763702392578125
141016,0.63299560546875,-0.73797607421875,0.5583648681640625
141017,0.64056396484375,-0.822296142578125,0.5835418701171875
141018,0.637603759765625,-0.887451171875,0.5782318115234375
141019,0.618255615234375,-0.904327392578125,0.5384674072265625
141020,0.56982421875,-0.88232421875,0.4895172119140625
141021,0.5124053955078125,-0.86444091796875,0.4510650634765625
141022,0.4754638671875,-0.8567352294921875,0.4414825439453125
141023,0.4636077880859375,-0.8695831298828125,0.45806884765625
141024,0.4561920166015625,-0.89190673828125,0.4751434326171875
141025,0.4451446533203125,-0.9113922119140624,0.4893951416015625
141026,0.4379425048828125,-0.9164276123046876,0.508636474609375
141027,0.43951416015625,-0.9047088623046876,0.5096282958984375
141028,0.4582977294921875,-0.8785400390625,0.4480133056640625
141029,0.4951171875,-0.841888427734375,0.3189697265625
141030,0.5562591552734375,-0.7967071533203125,0.1523284912109375
141031,0.6482086181640625,-0.7429656982421875,-0.0072479248046875
141032,0.7772216796875,-0.6843719482421875,-0.141510009765625
141033,0.9521484375,-0.6251373291015625,-0.2264404296875
141034,1.179962158203125,-0.561859130859375,-0.2359771728515625
141035,1.422515869140625,-0.5062255859375,-0.1865997314453125
141036,1.641952514648438,-0.458740234375,-0.1395721435546875
141037,1.798080444335938,-0.415557861328125,-0.1709136962890625
141038,1.852264404296875,-0.3579559326171875,-0.274688720703125
141039,1.783615112304688,-0.25775146484375,-0.395263671875
141040,1.610763549804688,-0.1234588623046875,-0.470733642578125
141041,1.38397216796875,0.011138916015625,-0.4817962646484375
141042,1.156326293945312,0.099212646484375,-0.4542999267578125
141043,0.9701995849609376,0.1000213623046875,-0.3942413330078125
141044,0.8358917236328125,0.0352325439453125,-0.3073883056640625
141045,0.7622222900390625,-0.0589447021484375,-0.1934661865234375
141046,0.745391845703125,-0.1389007568359375,-0.0872344970703125
141047,0.7647857666015625,-0.19476318359375,-0.0194244384765625
141048,0.813568115234375,-0.2417144775390625,-0.002227783203125
141049,0.8995819091796875,-0.27972412109375,0.006072998046875
141050,1.012298583984375,-0.30810546875,0.0258026123046875
141051,1.080856323242188,-0.3695831298828125,0.0361175537109375
141052,1.075119018554688,-0.4354705810546875,0.0701751708984375
141053,1.051986694335938,-0.4802703857421875,0.1761474609375
141054,0.99267578125,-0.542266845703125,0.270721435546875
141055,0.878814697265625,-0.6050872802734375,0.2960357666015625
141056,0.7469635009765625,-0.6587677001953125,0.27740478515625
141057,0.637176513671875,-0.711517333984375,0.2883758544921875
141058,0.554718017578125,-0.7333221435546875,0.3296966552734375
141059,0.467010498046875,-0.7239990234375,0.373291015625
141060,0.377105712890625,-0.688507080078125,0.419403076171875
141061,0.3250732421875,-0.649169921875,0.4675750732421875
141062,0.330078125,-0.632781982421875,0.4826507568359375
141063,0.3778533935546875,-0.6287689208984375,0.4229583740234375
141064,0.44793701171875,-0.6222991943359375,0.3317108154296875
141065,0.5044097900390625,-0.610626220703125,0.2867889404296875
141066,0.5281219482421875,-0.59613037109375,0.3120574951171875
141067,0.543731689453125,-0.5847320556640625,0.3831634521484375
141068,0.5716400146484375,-0.5838623046875,0.4596405029296875
141069,0.6086273193359375,-0.5951690673828125,0.4759521484375
141070,0.65142822265625,-0.62738037109375,0.4106292724609375
141071,0.6767425537109375,-0.6821136474609375,0.3167877197265625
141072,0.6640472412109375,-0.751617431640625,0.230499267578125
141073,0.6098175048828125,-0.8044586181640625,0.1627197265625
141074,0.531524658203125,-0.813385009765625,0.1349029541015625
141075,0.4656219482421875,-0.7976226806640625,0.1375274658203125
141076,0.4431915283203125,-0.7694854736328125,0.1411590576171875
141077,0.46484375,-0.7390594482421875,0.130157470703125
141078,0.5050811767578125,-0.72271728515625,0.104736328125
141079,0.5406646728515625,-0.729034423828125,0.0755157470703125
141080,0.573638916015625,-0.76239013671875,0.0709228515625
141081,0.6064605712890625,-0.816497802734375,0.1174468994140625
141082,0.643402099609375,-0.8773956298828125,0.1942596435546875
141083,0.696807861328125,-0.9256591796875,0.2722320556640625
141084,0.7667694091796875,-0.947784423828125,0.3403472900390625
141085,0.8368682861328125,-0.9441375732421876,0.37701416015625
141086,0.8816986083984375,-0.9186859130859376,0.3727874755859375
141087,0.8836517333984375,-0.8746490478515625,0.3506927490234375
141088,0.84136962890625,-0.8157501220703125,0.3179168701171875
141089,0.779205322265625,-0.7503814697265625,0.281585693359375
141090,0.7312469482421875,-0.685150146484375,0.2511749267578125
141091,0.7116546630859375,-0.624664306640625,0.223968505859375
141092,0.7182769775390625,-0.5856170654296875,0.2054595947265625
141093,0.7367706298828125,-0.556671142578125,0.2081146240234375
141094,0.7688446044921875,-0.52410888671875,0.2184906005859375
141095,0.8193817138671875,-0.4844207763671875,0.2102813720703125
141096,0.8890533447265625,-0.433197021484375,0.170074462890625
141097,0.9573211669921876,-0.381561279296875,0.10052490234375
141098,1.004974365234375,-0.329315185546875,-0.0067138671875
141099,1.032455444335938,-0.261505126953125,-0.12554931640625
141100,1.041030883789062,-0.1777801513671875,-0.20233154296875
141101,1.03338623046875,-0.09130859375,-0.2438507080078125
141102,1.008468627929688,-0.020355224609375,-0.2253570556640625
141103,0.9760589599609376,0.02313232421875,-0.180023193359375
141104,0.9571380615234376,0.031829833984375,-0.13995361328125
141105,0.9638519287109376,0.0124359130859375,-0.085662841796875
141106,0.9939117431640624,-0.03741455078125,-0.0417938232421875
141107,1.039321899414062,-0.1136627197265625,-0.05096435546875
141108,1.080673217773438,-0.199920654296875,-0.0816802978515625
141109,1.105804443359375,-0.302337646484375,-0.09332275390625
141110,1.110824584960938,-0.418975830078125,-0.06231689453125
141111,1.106536865234375,-0.5203857421875,0.0030670166015625
141112,1.099090576171875,-0.600341796875,0.08074951171875
141113,1.079696655273438,-0.66876220703125,0.1602783203125
141114,1.043670654296875,-0.7255401611328125,0.2355804443359375
141115,0.9981231689453124,-0.76910400390625,0.29449462890625
141116,0.945404052734375,-0.8134002685546875,0.3153228759765625
141117,0.8730621337890625,-0.86431884765625,0.30108642578125
141118,0.781097412109375,-0.91162109375,0.2967376708984375
141119,0.6759185791015625,-0.9378814697265624,0.3265838623046875
141120,0.5777587890625,-0.9333953857421876,0.3589019775390625
141121,0.513946533203125,-0.8861541748046875,0.370941162109375
141122,0.494781494140625,-0.8099212646484375,0.3482818603515625
141123,0.5213165283203125,-0.71685791015625,0.261749267578125
141124,0.596649169921875,-0.62152099609375,0.1104583740234375
141125,0.69451904296875,-0.529571533203125,-0.0364990234375
141126,0.7891998291015625,-0.461761474609375,-0.10809326171875
141127,0.841217041015625,-0.4230499267578125,-0.0701904296875
141128,0.8333892822265625,-0.4121551513671875,0.0305023193359375
141129,0.778045654296875,-0.428314208984375,0.152435302734375
141130,0.69293212890625,-0.4519805908203125,0.2975921630859375
141131,0.616973876953125,-0.464385986328125,0.4402923583984375
141132,0.5778961181640625,-0.4830780029296875,0.56976318359375
141133,0.57501220703125,-0.52984619140625,0.6279449462890625
141134,0.5872955322265625,-0.5994873046875,0.6098480224609375
141135,0.5858154296875,-0.6801910400390625,0.5572357177734375
141136,0.56671142578125,-0.769287109375,0.5302886962890625
141137,0.5308074951171875,-0.8463134765625,0.5536041259765625
141138,0.5028533935546875,-0.88592529296875,0.564239501953125
141139,0.477691650390625,-0.8990325927734375,0.5413970947265625
141140,0.4582672119140625,-0.89923095703125,0.5285186767578125
141141,0.454315185546875,-0.9033203125,0.521484375
141142,0.4442596435546875,-0.92022705078125,0.503997802734375
141143,0.4400787353515625,-0.9325103759765624,0.4661865234375
141144,0.441925048828125,-0.922576904296875,0.4296722412109375
141145,0.4473724365234375,-0.8815155029296875,0.4037628173828125
141146,0.4703216552734375,-0.82550048828125,0.3599395751953125
141147,0.5214691162109375,-0.7645111083984375,0.2857513427734375
141148,0.600006103515625,-0.70452880859375,0.172119140625
141149,0.7016448974609375,-0.6589813232421875,0.0416107177734375
141150,0.8272857666015625,-0.62939453125,-0.0714874267578125
141151,0.9690093994140624,-0.6041259765625,-0.1191253662109375
141152,1.105087280273438,-0.574127197265625,-0.0873260498046875
141153,1.229934692382812,-0.532623291015625,-0.0244598388671875
141154,1.343994140625,-0.4839935302734375,-0.005828857421875
141155,1.447052001953125,-0.44573974609375,-0.0846405029296875
141156,1.51580810546875,-0.423248291015625,-0.2529754638671875
141157,1.52532958984375,-0.388519287109375,-0.4424896240234375
141158,1.468414306640625,-0.3231353759765625,-0.5493927001953125
141159,1.362686157226562,-0.24163818359375,-0.5526123046875
141160,1.245712280273438,-0.1479339599609375,-0.496612548828125
141161,1.134750366210938,-0.0502777099609375,-0.4228973388671875
141162,1.027694702148438,0.0150146484375,-0.336578369140625
141163,0.94342041015625,0.019866943359375,-0.245208740234375
141164,0.898101806640625,-0.047454833984375,-0.1745452880859375
141165,0.882659912109375,-0.120574951171875,-0.1444854736328125
141166,0.8793487548828125,-0.179534912109375,-0.12921142578125
141167,0.889495849609375,-0.24285888671875,-0.1106719970703125
141168,0.9181365966796876,-0.30096435546875,-0.0775604248046875
141169,0.961273193359375,-0.3539886474609375,-0.0373687744140625
141170,1.009658813476562,-0.4036865234375,0.0041656494140625
141171,1.03155517578125,-0.4661102294921875,0.053802490234375
141172,0.9652862548828124,-0.5516204833984375,0.091033935546875
141173,0.873504638671875,-0.5827178955078125,0.153472900390625
141174,0.7950897216796875,-0.5965118408203125,0.2404327392578125
141175,0.7339324951171875,-0.61993408203125,0.3139495849609375
141176,0.7104949951171875,-0.6491546630859375,0.33746337890625
141177,0.694793701171875,-0.7070159912109375,0.352447509765625
141178,0.643890380859375,-0.759368896484375,0.4517822265625
141179,0.5594024658203125,-0.7790374755859375,0.5200347900390625
141180,0.487701416015625,-0.78131103515625,0.5330047607421875
141181,0.4500885009765625,-0.7666473388671875,0.548919677734375
141182,0.4283599853515625,-0.7489471435546875,0.5344085693359375
141183,0.424591064453125,-0.730377197265625,0.4495849609375
141184,0.4427337646484375,-0.70367431640625,0.33819580078125
141185,0.4550323486328125,-0.6729583740234375,0.268280029296875
141186,0.4572296142578125,-0.654541015625,0.2548370361328125
141187,0.4720001220703125,-0.652313232421875,0.287200927734375
141188,0.513458251953125,-0.6561126708984375,0.3517913818359375
141189,0.582763671875,-0.6619415283203125,0.394317626953125
141190,0.654632568359375,-0.667083740234375,0.40972900390625
141191,0.7016754150390625,-0.6749420166015625,0.3986663818359375
141192,0.704925537109375,-0.6945648193359375,0.374755859375
141193,0.6604156494140625,-0.7208404541015625,0.334686279296875
141194,0.593414306640625,-0.724700927734375,0.2591094970703125
141195,0.541595458984375,-0.7083587646484375,0.17205810546875
141196,0.519378662109375,-0.698394775390625,0.0892333984375
141197,0.5180206298828125,-0.6993560791015625,0.033203125
141198,0.5316009521484375,-0.715789794921875,0.0154571533203125
141199,0.5506591796875,-0.748626708984375,0.0367279052734375
141200,0.5702972412109375,-0.78082275390625,0.1005096435546875
141201,0.5903167724609375,-0.801300048828125,0.207366943359375
141202,0.6197509765625,-0.814727783203125,0.313323974609375
141203,0.6634521484375,-0.815093994140625,0.387847900390625
141204,0.7168121337890625,-0.8037567138671875,0.4282989501953125
141205,0.767486572265625,-0.78778076171875,0.4361419677734375
141206,0.7962493896484375,-0.77008056640625,0.415191650390625
141207,0.78973388671875,-0.7570343017578125,0.3678131103515625
141208,0.753692626953125,-0.7444610595703125,0.326385498046875
141209,0.7129669189453125,-0.7282257080078125,0.30328369140625
141210,0.6924896240234375,-0.7020111083984375,0.301727294921875
141211,0.691497802734375,-0.66119384765625,0.3168182373046875
141212,0.7060699462890625,-0.6143951416015625,0.326141357421875
141213,0.7331085205078125,-0.5592498779296875,0.3089447021484375
141214,0.7674102783203125,-0.501190185546875,0.245025634765625
141215,0.800445556640625,-0.4449462890625,0.162109375
141216,0.8331451416015625,-0.3948974609375,0.068511962890625
141217,0.878387451171875,-0.3433990478515625,-0.0318450927734375
141218,0.9324188232421876,-0.2841949462890625,-0.110687255859375
141219,0.9969635009765624,-0.212921142578125,-0.1725311279296875
141220,1.051055908203125,-0.1396484375,-0.2319488525390625
141221,1.068450927734375,-0.0804595947265625,-0.270538330078125
141222,1.054733276367188,-0.0465240478515625,-0.2604522705078125
141223,1.022125244140625,-0.0338897705078125,-0.19342041015625
141224,0.997650146484375,-0.0360870361328125,-0.1180419921875
141225,0.9900360107421876,-0.051025390625,-0.0562286376953125
141226,1.001541137695312,-0.081939697265625,-0.0185699462890625
141227,1.032638549804688,-0.130889892578125,-0.014373779296875
141228,1.06695556640625,-0.197296142578125,-0.0351409912109375
141229,1.085525512695312,-0.27569580078125,-0.0575714111328125
141230,1.07427978515625,-0.358856201171875,-0.0502777099609375
141231,1.033782958984375,-0.4480743408203125,0.0040130615234375
141232,0.9839019775390624,-0.5372772216796875,0.0956573486328125
141233,0.9476318359375,-0.630645751953125,0.2023162841796875
141234,0.932403564453125,-0.72332763671875,0.2875518798828125
141235,0.923919677734375,-0.808380126953125,0.331573486328125
141236,0.903961181640625,-0.873291015625,0.3477783203125
141237,0.868896484375,-0.913604736328125,0.3318939208984375
141238,0.8161163330078125,-0.9277801513671876,0.3010711669921875
141239,0.748809814453125,-0.92193603515625,0.275146484375
141240,0.675384521484375,-0.90399169921875,0.263275146484375
141241,0.6125030517578125,-0.8811798095703125,0.26031494140625
141242,0.5732269287109375,-0.85247802734375,0.256439208984375
141243,0.554962158203125,-0.8039398193359375,0.2434234619140625
141244,0.5546417236328125,-0.7367095947265625,0.198638916015625
141245,0.570831298828125,-0.6601715087890625,0.1088409423828125
141246,0.6039581298828125,-0.5864410400390625,0.00067138671875
141247,0.65814208984375,-0.5244903564453125,-0.089202880859375
141248,0.7195281982421875,-0.4781951904296875,-0.11395263671875
141249,0.766845703125,-0.45123291015625,-0.0598907470703125
141250,0.788818359375,-0.453369140625,0.06353759765625
141251,0.77911376953125,-0.4786529541015625,0.2023162841796875
141252,0.7484893798828125,-0.5166473388671875,0.311248779296875
141253,0.728515625,-0.540557861328125,0.3973388671875
141254,0.7331695556640625,-0.5563812255859375,0.4720458984375
141255,0.765777587890625,-0.582855224609375,0.47796630859375
141256,0.790496826171875,-0.6289520263671875,0.4450225830078125
141257,0.7704620361328125,-0.6947174072265625,0.4648895263671875
141258,0.714202880859375,-0.7729339599609375,0.5252227783203125
141259,0.6532745361328125,-0.84283447265625,0.5677947998046875
141260,0.5976409912109375,-0.88470458984375,0.557647705078125
141261,0.541473388671875,-0.8975982666015625,0.531951904296875
141262,0.497100830078125,-0.90087890625,0.53863525390625
141263,0.4803619384765625,-0.91900634765625,0.5446929931640625
141264,0.495452880859375,-0.9608154296875,0.536102294921875
141265,0.50726318359375,-0.9966888427734376,0.5276031494140625
141266,0.4940185546875,-1.010543823242188,0.523223876953125
141267,0.4625091552734375,-0.9931488037109376,0.52392578125
141268,0.4327545166015625,-0.94830322265625,0.497222900390625
141269,0.41845703125,-0.8898468017578125,0.4131317138671875
141270,0.4297027587890625,-0.8288421630859375,0.2681427001953125
141271,0.473663330078125,-0.763702392578125,0.0973663330078125
141272,0.5552978515625,-0.69573974609375,-0.0546722412109375
141273,0.6826324462890625,-0.6265716552734375,-0.162811279296875
141274,0.861114501953125,-0.555511474609375,-0.206512451171875
141275,1.06231689453125,-0.5010833740234375,-0.1802825927734375
141276,1.256927490234375,-0.48333740234375,-0.0967254638671875
141277,1.421676635742188,-0.4838104248046875,-0.0191192626953125
141278,1.541732788085938,-0.4801177978515625,0.0112152099609375
141279,1.58447265625,-0.4439544677734375,-0.0926971435546875
141280,1.521896362304688,-0.342803955078125,-0.2824249267578125
141281,1.37933349609375,-0.199554443359375,-0.3712005615234375
141282,1.220046997070312,-0.0743408203125,-0.353424072265625
141283,1.087692260742188,0.002227783203125,-0.3299713134765625
141284,0.989166259765625,0.03955078125,-0.2900390625
141285,0.9044342041015624,0.0517730712890625,-0.2357177734375
141286,0.838470458984375,0.0129241943359375,-0.18084716796875
141287,0.807342529296875,-0.0688934326171875,-0.1083526611328125
141288,0.8074798583984375,-0.1373291015625,-0.038299560546875
141289,0.8271026611328125,-0.2119293212890625,0.01873779296875
141290,0.87127685546875,-0.299072265625,0.0629425048828125
141291,0.939483642578125,-0.3710174560546875,0.0765838623046875
141292,1.017990112304688,-0.420867919921875,0.0493621826171875
141293,1.090438842773438,-0.4475860595703125,0.0549774169921875
141294,1.13714599609375,-0.481689453125,0.111053466796875
141295,1.123077392578125,-0.5445098876953125,0.199737548828125
141296,1.039520263671875,-0.625457763671875,0.2829437255859375
141297,0.9156646728515624,-0.6990203857421875,0.3410797119140625
141298,0.7808380126953125,-0.74072265625,0.352813720703125
141299,0.6568756103515625,-0.75018310546875,0.3413543701171875
141300,0.5460205078125,-0.74334716796875,0.3393096923828125
141301,0.4536895751953125,-0.7235260009765625,0.344451904296875
141302,0.4028167724609375,-0.7108154296875,0.353912353515625
141303,0.3859405517578125,-0.7183837890625,0.3658447265625
141304,0.3754730224609375,-0.7265472412109375,0.3934326171875
141305,0.371734619140625,-0.7179412841796875,0.4421234130859375
141306,0.3722991943359375,-0.6903839111328125,0.5019378662109375
141307,0.3806915283203125,-0.6632537841796875,0.5498199462890625
141308,0.409423828125,-0.642852783203125,0.56640625
141309,0.469024658203125,-0.62786865234375,0.5374908447265625
141310,0.5504150390625,-0.6213836669921875,0.4530181884765625
141311,0.6354827880859375,-0.6325225830078125,0.33203125
141312,0.687957763671875,-0.6619720458984375,0.232635498046875
141313,0.6807098388671875,-0.703125,0.202301025390625
141314,0.6158599853515625,-0.7375030517578125,0.217926025390625
141315,0.53533935546875,-0.75128173828125,0.22369384765625
141316,0.4749908447265625,-0.7490081787109375,0.220703125
141317,0.443450927734375,-0.7387847900390625,0.2039794921875
141318,0.451629638671875,-0.731353759765625,0.149505615234375
141319,0.4919891357421875,-0.72821044921875,0.0735931396484375
141320,0.5454864501953125,-0.722137451171875,0.012420654296875
141321,0.603118896484375,-0.718902587890625,-0.0077972412109375
141322,0.654937744140625,-0.72821044921875,0.0267181396484375
141323,0.7010498046875,-0.755615234375,0.108978271484375
141324,0.7441864013671875,-0.7861480712890625,0.1974639892578125
141325,0.7956695556640625,-0.8112030029296875,0.2779998779296875
141326,0.859161376953125,-0.8296051025390625,0.3453826904296875
141327,0.9209442138671876,-0.8367462158203125,0.3851165771484375
141328,0.947479248046875,-0.832489013671875,0.36767578125
141329,0.9138336181640624,-0.815093994140625,0.3159942626953125
141330,0.8330078125,-0.7911376953125,0.2596282958984375
141331,0.7359619140625,-0.762176513671875,0.2304534912109375
141332,0.655059814453125,-0.71368408203125,0.24090576171875
141333,0.6107635498046875,-0.6459197998046875,0.280487060546875
141334,0.6060028076171875,-0.5846099853515625,0.316619873046875
141335,0.6323699951171875,-0.5436553955078125,0.3342132568359375
141336,0.6848907470703125,-0.51214599609375,0.336639404296875
141337,0.7628326416015625,-0.4852142333984375,0.3015289306640625
141338,0.86016845703125,-0.4559326171875,0.2211456298828125
141339,0.9539031982421876,-0.4209747314453125,0.107086181640625
141340,1.013931274414062,-0.3711700439453125,-0.0035858154296875
141341,1.029937744140625,-0.3096160888671875,-0.0870361328125
141342,1.004547119140625,-0.2444000244140625,-0.143585205078125
141343,0.9492645263671876,-0.1823883056640625,-0.1516876220703125
141344,0.88134765625,-0.1282958984375,-0.106842041015625
141345,0.81884765625,-0.0965576171875,-0.08172607421875
141346,0.7763519287109375,-0.082122802734375,-0.0757904052734375
141347,0.7639312744140625,-0.087127685546875,-0.0557708740234375
141348,0.786773681640625,-0.108245849609375,-0.0393218994140625
141349,0.8402862548828125,-0.1431427001953125,-0.0467529296875
141350,0.9098663330078124,-0.193939208984375,-0.0550689697265625
141351,0.980194091796875,-0.267181396484375,-0.03662109375
141352,1.035797119140625,-0.3709716796875,0.014251708984375
141353,1.064682006835938,-0.4885101318359375,0.0918121337890625
141354,1.086593627929688,-0.592529296875,0.1956024169921875
141355,1.126510620117188,-0.69049072265625,0.2664794921875
141356,1.163711547851562,-0.7789764404296875,0.276947021484375
141357,1.162353515625,-0.83526611328125,0.2480926513671875
141358,1.112640380859375,-0.8473052978515625,0.20172119140625
141359,1.039825439453125,-0.828094482421875,0.1605987548828125
141360,0.95233154296875,-0.7969970703125,0.1420745849609375
141361,0.85833740234375,-0.7777557373046875,0.13568115234375
141362,0.764312744140625,-0.763519287109375,0.132537841796875
141363,0.67755126953125,-0.740264892578125,0.1233673095703125
141364,0.6181488037109375,-0.7052459716796875,0.0955810546875
141365,0.5912933349609375,-0.659912109375,0.066680908203125
141366,0.5981903076171875,-0.6093902587890625,0.0397491455078125
141367,0.6298980712890625,-0.55609130859375,0.01397705078125
141368,0.67291259765625,-0.510467529296875,-0.0016021728515625
141369,0.7182464599609375,-0.47943115234375,0.0133819580078125
141370,0.7545623779296875,-0.468536376953125,0.0623779296875
141371,0.774566650390625,-0.4868621826171875,0.12451171875
141372,0.766357421875,-0.5261688232421875,0.207122802734375
141373,0.72821044921875,-0.571258544921875,0.3119964599609375
141374,0.68359375,-0.5984649658203125,0.438262939453125
141375,0.6650238037109375,-0.614593505859375,0.5290374755859375
141376,0.6809234619140625,-0.6506805419921875,0.5308837890625
141377,0.6956634521484375,-0.7167510986328125,0.5085906982421875
141378,0.6772613525390625,-0.802734375,0.523406982421875
141379,0.6277923583984375,-0.8983612060546875,0.5628204345703125
141380,0.5649566650390625,-0.976806640625,0.61749267578125
141381,0.4996795654296875,-0.99755859375,0.678558349609375
141382,0.444061279296875,-0.9760894775390624,0.68731689453125
141383,0.4053192138671875,-0.956024169921875,0.613739013671875
141384,0.3848724365234375,-0.9328765869140624,0.52117919921875
141385,0.394622802734375,-0.9001617431640625,0.4530792236328125
141386,0.4256134033203125,-0.8738555908203125,0.410308837890625
141387,0.4555206298828125,-0.855743408203125,0.3924102783203125
141388,0.47705078125,-0.845611572265625,0.4119110107421875
141389,0.497283935546875,-0.83819580078125,0.4450225830078125
141390,0.5252685546875,-0.821929931640625,0.4569549560546875
141391,0.5648040771484375,-0.790283203125,0.40234375
141392,0.611541748046875,-0.739013671875,0.2729339599609375
141393,0.671844482421875,-0.660858154296875,0.1122283935546875
141394,0.7530059814453125,-0.5686492919921875,-0.023956298828125
141395,0.8629608154296875,-0.4862213134765625,-0.1239166259765625
141396,0.995025634765625,-0.4456787109375,-0.17034912109375
141397,1.135391235351562,-0.4415130615234375,-0.1472015380859375
141398,1.280181884765625,-0.4491119384765625,-0.0883941650390625
141399,1.420822143554688,-0.4570159912109375,-0.072174072265625
141400,1.5277099609375,-0.4479522705078125,-0.159942626953125
141401,1.5618896484375,-0.385009765625,-0.2773284912109375
141402,1.508438110351562,-0.272003173828125,-0.32525634765625
141403,1.411956787109375,-0.161865234375,-0.2964324951171875
141404,1.30908203125,-0.077789306640625,-0.2300567626953125
141405,1.179214477539062,-0.0269927978515625,-0.1798095703125
141406,1.018463134765625,-0.02197265625,-0.1771087646484375
141407,0.8559722900390625,-0.0542755126953125,-0.21527099609375
141408,0.7397308349609375,-0.103240966796875,-0.2119598388671875
141409,0.6852264404296875,-0.151885986328125,-0.146820068359375
141410,0.6754608154296875,-0.195892333984375,-0.0803375244140625
141411,0.701568603515625,-0.2366943359375,-0.020751953125
141412,0.77984619140625,-0.2664947509765625,0.0452728271484375
141413,0.887176513671875,-0.3024139404296875,0.101837158203125
141414,0.9944915771484376,-0.344207763671875,0.1360626220703125
141415,1.087127685546875,-0.394775390625,0.1817779541015625
141416,1.1492919921875,-0.4652557373046875,0.2370452880859375
141417,1.159820556640625,-0.5544281005859375,0.281982421875
141418,1.10736083984375,-0.646026611328125,0.3372802734375
141419,1.004486083984375,-0.7300262451171875,0.35906982421875
141420,0.866119384765625,-0.7866363525390625,0.338470458984375
141421,0.7095184326171875,-0.7982025146484375,0.3055267333984375
141422,0.5630645751953125,-0.7640380859375,0.284515380859375
141423,0.4642333984375,-0.7099456787109375,0.2710113525390625
141424,0.433013916015625,-0.6785125732421875,0.2716217041015625
141425,0.4457855224609375,-0.6749267578125,0.287261962890625
141426,0.4716796875,-0.67279052734375,0.31005859375
141427,0.50384521484375,-0.6591644287109375,0.33282470703125
141428,0.547210693359375,-0.634063720703125,0.364471435546875
141429,0.604156494140625,-0.6041717529296875,0.388580322265625
141430,0.65936279296875,-0.574920654296875,0.408477783203125
141431,0.7084197998046875,-0.54901123046875,0.3998870849609375
141432,0.7557220458984375,-0.5322418212890625,0.3638916015625
141433,0.79718017578125,-0.52862548828125,0.319061279296875
141434,0.814697265625,-0.5438690185546875,0.26190185546875
141435,0.774993896484375,-0.577850341796875,0.2098236083984375
141436,0.6725921630859375,-0.633544921875,0.1981201171875
141437,0.544189453125,-0.68408203125,0.21051025390625
141438,0.4302825927734375,-0.706390380859375,0.199737548828125
141439,0.35284423828125,-0.7087249755859375,0.1706390380859375
141440,0.3267974853515625,-0.700103759765625,0.12445068359375
141441,0.351348876953125,-0.6868438720703125,0.0785675048828125
141442,0.4108734130859375,-0.67919921875,0.0544281005859375
141443,0.4887847900390625,-0.68072509765625,0.08221435546875
141444,0.55316162109375,-0.6920318603515625,0.15411376953125
141445,0.605377197265625,-0.71453857421875,0.242889404296875
141446,0.657958984375,-0.7504119873046875,0.339935302734375
141447,0.7239532470703125,-0.7953033447265625,0.4264373779296875
141448,0.8045654296875,-0.841156005859375,0.4506683349609375
141449,0.8769073486328125,-0.8745269775390625,0.406646728515625
141450,0.908355712890625,-0.89154052734375,0.345733642578125
141451,0.8886871337890625,-0.8851318359375,0.3073272705078125
141452,0.822601318359375,-0.8543243408203125,0.3025665283203125
141453,0.7236175537109375,-0.802978515625,0.3170928955078125
141454,0.62286376953125,-0.7465972900390625,0.338653564453125
141455,0.5491943359375,-0.6946258544921875,0.3670196533203125
141456,0.5225067138671875,-0.656585693359375,0.378387451171875
141457,0.546722412109375,-0.629974365234375,0.3775634765625
141458,0.59381103515625,-0.6079864501953125,0.37872314453125
141459,0.6519775390625,-0.579254150390625,0.3704071044921875
141460,0.726837158203125,-0.5383758544921875,0.3347015380859375
141461,0.82098388671875,-0.489349365234375,0.2588348388671875
141462,0.924468994140625,-0.4285125732421875,0.1588592529296875
141463,1.008346557617188,-0.369110107421875,0.0629425048828125
141464,1.05621337890625,-0.31390380859375,-0.0296173095703125
141465,1.053146362304688,-0.2629547119140625,-0.0665130615234375
141466,0.9999847412109376,-0.2177276611328125,-0.08489990234375
141467,0.9031524658203124,-0.175384521484375,-0.098602294921875
141468,0.7949066162109375,-0.13848876953125,-0.07098388671875
141469,0.7227020263671875,-0.1065673828125,-0.048828125
141470,0.6993255615234375,-0.0825653076171875,-0.037078857421875
141471,0.727996826171875,-0.070037841796875,-0.0381622314453125
141472,0.8013763427734375,-0.08685302734375,-0.0328521728515625
141473,0.9004974365234375,-0.1407012939453125,-0.0265960693359375
141474,1.009918212890625,-0.2269134521484375,-0.044586181640625
141475,1.110153198242188,-0.3344268798828125,-0.04071044921875
141476,1.188217163085938,-0.449676513671875,0.006561279296875
141477,1.226181030273438,-0.56353759765625,0.0851287841796875
141478,1.230072021484375,-0.676605224609375,0.16827392578125
141479,1.220138549804688,-0.7886962890625,0.2392730712890625
141480,1.192642211914062,-0.876617431640625,0.2721405029296875
141481,1.140060424804688,-0.912994384765625,0.23785400390625
141482,1.066741943359375,-0.89324951171875,0.1784210205078125
141483,0.9812469482421876,-0.838897705078125,0.131072998046875
141484,0.90057373046875,-0.786468505859375,0.10797119140625
141485,0.8287811279296875,-0.754913330078125,0.1062774658203125
141486,0.759765625,-0.7373504638671875,0.1197052001953125
141487,0.6883544921875,-0.7201080322265625,0.124908447265625
141488,0.6316070556640625,-0.7006072998046875,0.107940673828125
141489,0.6055755615234375,-0.6754150390625,0.0926513671875
141490,0.6040496826171875,-0.6413116455078125,0.0958709716796875
141491,0.6213226318359375,-0.5940399169921875,0.093658447265625
141492,0.6568145751953125,-0.5452880859375,0.088470458984375
141493,0.6962432861328125,-0.5092926025390625,0.101898193359375
141494,0.728485107421875,-0.492156982421875,0.130462646484375
141495,0.7515869140625,-0.4915771484375,0.164886474609375
141496,0.7437286376953125,-0.50634765625,0.2227935791015625
141497,0.7078704833984375,-0.5236663818359375,0.32086181640625
141498,0.6810455322265625,-0.5377349853515625,0.45147705078125
141499,0.6893310546875,-0.5657501220703125,0.549102783203125
141500,0.72198486328125,-0.62518310546875,0.5981597900390625
141501,0.73358154296875,-0.6938323974609375,0.6314849853515625
141502,0.7048492431640625,-0.7687225341796875,0.63983154296875
141503,0.6371002197265625,-0.8368988037109375,0.61407470703125
141504,0.5522918701171875,-0.880767822265625,0.5965728759765625
141505,0.4810028076171875,-0.9008941650390624,0.58740234375
141506,0.434478759765625,-0.9110870361328124,0.5539703369140625
141507,0.412261962890625,-0.9167633056640624,0.5115203857421875
141508,0.4238433837890625,-0.9181671142578124,0.4875640869140625
141509,0.4473114013671875,-0.9305877685546876,0.4723968505859375
141510,0.4557647705078125,-0.9444732666015624,0.465850830078125
141511,0.4444580078125,-0.9488372802734376,0.4769134521484375
141512,0.4259185791015625,-0.939208984375,0.4889678955078125
141513,0.415130615234375,-0.9143524169921876,0.4715576171875
141514,0.4197540283203125,-0.8744964599609375,0.40673828125
141515,0.45355224609375,-0.8204498291015625,0.2867431640625
141516,0.5178985595703125,-0.7517852783203125,0.1471405029296875
141517,0.6178436279296875,-0.671630859375,0.0240936279296875
141518,0.75018310546875,-0.594818115234375,-0.0741729736328125
141519,0.90716552734375,-0.5389251708984375,-0.1260833740234375
141520,1.068679809570312,-0.5173797607421875,-0.1076202392578125
141521,1.22412109375,-0.51263427734375,-0.0180511474609375
141522,1.368896484375,-0.496490478515625,0.0632781982421875
141523,1.483474731445312,-0.4676513671875,0.0287933349609375
141524,1.543228149414062,-0.4142608642578125,-0.12744140625
141525,1.508941650390625,-0.31988525390625,-0.27154541015625
141526,1.404769897460938,-0.21820068359375,-0.33026123046875
141527,1.285293579101562,-0.1285400390625,-0.3245086669921875
141528,1.160964965820312,-0.0611419677734375,-0.2876129150390625
141529,1.026397705078125,-0.03094482421875,-0.236846923828125
141530,0.88153076171875,-0.046173095703125,-0.2066650390625
141531,0.759674072265625,-0.0912628173828125,-0.1994476318359375
141532,0.693817138671875,-0.1359710693359375,-0.180877685546875
141533,0.678436279296875,-0.1836395263671875,-0.160675048828125
141534,0.7035064697265625,-0.23944091796875,-0.12353515625
141535,0.77215576171875,-0.2939300537109375,-0.0903778076171875
141536,0.875732421875,-0.3403778076171875,-0.0516357421875
141537,0.98870849609375,-0.378814697265625,0.0211181640625
141538,1.081161499023438,-0.429931640625,0.114532470703125
141539,1.1341552734375,-0.498382568359375,0.2159881591796875
141540,1.135482788085938,-0.576385498046875,0.3098297119140625
141541,1.075180053710938,-0.65057373046875,0.355377197265625
141542,0.9522552490234376,-0.7005157470703125,0.3395843505859375
141543,0.7825469970703125,-0.7102508544921875,0.2989959716796875
141544,0.5955810546875,-0.679229736328125,0.2677001953125
141545,0.430267333984375,-0.6186981201171875,0.2554779052734375
141546,0.3208465576171875,-0.561187744140625,0.26959228515625
141547,0.2856292724609375,-0.547760009765625,0.2935333251953125
141548,0.3246002197265625,-0.573822021484375,0.326934814453125
141549,0.421356201171875,-0.592193603515625,0.348876953125
141550,0.5568695068359375,-0.5952911376953125,0.32135009765625
141551,0.70379638671875,-0.5863800048828125,0.25531005859375
141552,0.8127288818359375,-0.5792388916015625,0.2493438720703125
141553,0.8679962158203125,-0.584320068359375,0.3189239501953125
141554,0.900604248046875,-0.61053466796875,0.4122161865234375
141555,0.92620849609375,-0.6465606689453125,0.48663330078125
141556,0.93359375,-0.6785888671875,0.490020751953125
141557,0.89544677734375,-0.7232666015625,0.4018402099609375
141558,0.8031768798828125,-0.791351318359375,0.313323974609375
141559,0.6650238037109375,-0.8455810546875,0.264801025390625
141560,0.514312744140625,-0.8674774169921875,0.220489501953125
141561,0.399993896484375,-0.870513916015625,0.178375244140625
141562,0.3569183349609375,-0.8604278564453125,0.1586456298828125
141563,0.397247314453125,-0.8521575927734375,0.138336181640625
141564,0.4943695068359375,-0.8428192138671875,0.1368408203125
141565,0.6113433837890625,-0.8350982666015625,0.168548583984375
141566,0.7149505615234375,-0.8372039794921875,0.2425384521484375
141567,0.79144287109375,-0.84912109375,0.3175506591796875
141568,0.834136962890625,-0.8645477294921875,0.378326416015625
141569,0.837158203125,-0.8787689208984375,0.4196929931640625
141570,0.806854248046875,-0.886260986328125,0.402191162109375
141571,0.754241943359375,-0.8829498291015625,0.3334197998046875
141572,0.6913604736328125,-0.8672027587890625,0.24627685546875
141573,0.6259002685546875,-0.841827392578125,0.1767425537109375
141574,0.562103271484375,-0.814178466796875,0.142364501953125
141575,0.4980926513671875,-0.7850494384765625,0.15423583984375
141576,0.436370849609375,-0.750946044921875,0.201568603515625
141577,0.394989013671875,-0.7075042724609375,0.268096923828125
141578,0.3898773193359375,-0.6616668701171875,0.349945068359375
141579,0.429718017578125,-0.6212005615234375,0.40350341796875
141580,0.49786376953125,-0.5817108154296875,0.4076995849609375
141581,0.5752716064453125,-0.544921875,0.3709869384765625
141582,0.6472930908203125,-0.516876220703125,0.303924560546875
141583,0.7072601318359375,-0.49237060546875,0.2253875732421875
141584,0.7637786865234375,-0.4678955078125,0.1588897705078125
141585,0.8302459716796875,-0.4424896240234375,0.1243133544921875
141586,0.905303955078125,-0.410186767578125,0.09515380859375
141587,0.973480224609375,-0.373443603515625,0.058319091796875
141588,1.017257690429688,-0.33367919921875,-0.00244140625
141589,1.0159912109375,-0.2885589599609375,-0.0524139404296875
141590,0.9676513671875,-0.2373504638671875,-0.09967041015625
141591,0.8903961181640625,-0.184417724609375,-0.138336181640625
141592,0.8121185302734375,-0.1319732666015625,-0.1102294921875
141593,0.77301025390625,-0.0858001708984375,-0.056549072265625
141594,0.7827606201171875,-0.0574493408203125,-0.0194091796875
141595,0.832855224609375,-0.0518646240234375,0.002593994140625
141596,0.90618896484375,-0.0771484375,0.00732421875
141597,0.9798126220703124,-0.1358642578125,-0.01031494140625
141598,1.033279418945312,-0.2120361328125,-0.02532958984375
141599,1.051254272460938,-0.3095245361328125,-0.012939453125
141600,1.035964965820312,-0.41961669921875,0.01727294921875
141601,1.01287841796875,-0.521392822265625,0.0798492431640625
141602,1.00579833984375,-0.6112518310546875,0.162139892578125
141603,1.028228759765625,-0.6805877685546875,0.22064208984375
141604,1.07244873046875,-0.7281494140625,0.24114990234375
141605,1.104202270507812,-0.7601165771484375,0.2280120849609375
141606,1.103363037109375,-0.788177490234375,0.2263336181640625
141607,1.07305908203125,-0.8239898681640625,0.235137939453125
141608,1.025009155273438,-0.8619232177734375,0.2222900390625
141609,0.9581451416015624,-0.8821868896484375,0.198760986328125
141610,0.8826446533203125,-0.87664794921875,0.17486572265625
141611,0.8149261474609375,-0.848907470703125,0.1602630615234375
141612,0.755950927734375,-0.8062591552734375,0.140625
141613,0.7096710205078125,-0.74652099609375,0.1140899658203125
141614,0.6852264404296875,-0.6772003173828125,0.078155517578125
141615,0.682861328125,-0.6082000732421875,0.0380096435546875
141616,0.69683837890625,-0.5424041748046875,0.003173828125
141617,0.7256622314453125,-0.4865264892578125,-0.0217742919921875
141618,0.76873779296875,-0.448944091796875,-0.030303955078125
141619,0.8106536865234375,-0.4340972900390625,0.0035858154296875
141620,0.835418701171875,-0.4388275146484375,0.0699615478515625
141621,0.8219757080078125,-0.459747314453125,0.154541015625
141622,0.775543212890625,-0.494232177734375,0.2554931640625
141623,0.725494384765625,-0.5215911865234375,0.375335693359375
141624,0.689300537109375,-0.5516357421875,0.493011474609375
141625,0.6647796630859375,-0.6014251708984375,0.5471343994140625
141626,0.6356201171875,-0.6759490966796875,0.5677337646484375
141627,0.5987701416015625,-0.7693023681640625,0.5948638916015625
141628,0.544952392578125,-0.8724822998046875,0.6197357177734375
141629,0.4901275634765625,-0.9486083984375,0.6385955810546875
141630,0.47113037109375,-0.978851318359375,0.64703369140625
141631,0.4746551513671875,-0.97650146484375,0.6120452880859375
141632,0.47760009765625,-0.962799072265625,0.5135498046875
141633,0.49737548828125,-0.927398681640625,0.4186859130859375
141634,0.5399322509765625,-0.878082275390625,0.381622314453125
141635,0.5880279541015625,-0.846038818359375,0.367340087890625
141636,0.61279296875,-0.8437957763671875,0.3661651611328125
141637,0.594390869140625,-0.8574371337890625,0.4112548828125
141638,0.5474395751953125,-0.872711181640625,0.4761962890625
141639,0.5002899169921875,-0.8841552734375,0.524566650390625
141640,0.475128173828125,-0.88494873046875,0.51275634765625
141641,0.474365234375,-0.8556365966796875,0.4114837646484375
141642,0.4990997314453125,-0.793731689453125,0.264007568359375
141643,0.557098388671875,-0.705413818359375,0.106048583984375
141644,0.6575927734375,-0.607421875,-0.0341796875
141645,0.8038177490234375,-0.52056884765625,-0.1060638427734375
141646,0.9858245849609376,-0.4621429443359375,-0.1067962646484375
141647,1.181427001953125,-0.4308929443359375,-0.034027099609375
141648,1.36761474609375,-0.414947509765625,0.0633544921875
141649,1.512741088867188,-0.3965301513671875,0.0560455322265625
141650,1.582595825195312,-0.3633270263671875,-0.0833282470703125
141651,1.542831420898438,-0.2961273193359375,-0.215484619140625
141652,1.4088134765625,-0.2099456787109375,-0.275604248046875
141653,1.257049560546875,-0.1302032470703125,-0.2744140625
141654,1.122116088867188,-0.068756103515625,-0.251678466796875
141655,0.995147705078125,-0.0461273193359375,-0.2136993408203125
141656,0.8766632080078125,-0.0526885986328125,-0.174652099609375
141657,0.777008056640625,-0.08868408203125,-0.1475982666015625
141658,0.7205047607421875,-0.138031005859375,-0.119537353515625
141659,0.72015380859375,-0.1816558837890625,-0.0837860107421875
141660,0.7673797607421875,-0.226593017578125,-0.037872314453125
141661,0.845428466796875,-0.2805023193359375,-0.0158233642578125
141662,0.9422454833984376,-0.33380126953125,-0.026641845703125
141663,1.056915283203125,-0.3748321533203125,0.000579833984375
141664,1.146713256835938,-0.4220733642578125,0.0704345703125
141665,1.162811279296875,-0.4957122802734375,0.152435302734375
141666,1.090545654296875,-0.58355712890625,0.2510833740234375
141667,0.9571533203125,-0.65728759765625,0.3426361083984375
141668,0.807037353515625,-0.698974609375,0.36505126953125
141669,0.6631317138671875,-0.70806884765625,0.330169677734375
141670,0.5382232666015625,-0.69097900390625,0.30352783203125
141671,0.4607696533203125,-0.6485443115234375,0.295623779296875
141672,0.437896728515625,-0.6191253662109375,0.30816650390625
141673,0.4412689208984375,-0.6423492431640625,0.315948486328125
141674,0.4390716552734375,-0.683868408203125,0.337066650390625
141675,0.4365081787109375,-0.707489013671875,0.39471435546875
141676,0.4364776611328125,-0.7118682861328125,0.4656524658203125
141677,0.44329833984375,-0.708770751953125,0.5335540771484375
141678,0.4608612060546875,-0.691009521484375,0.5554962158203125
141679,0.506683349609375,-0.6667022705078125,0.4830169677734375
141680,0.588134765625,-0.6422882080078125,0.3809051513671875
141681,0.692779541015625,-0.6263427734375,0.2989501953125
141682,0.789093017578125,-0.62957763671875,0.2401275634765625
141683,0.843597412109375,-0.63958740234375,0.2408905029296875
141684,0.8264312744140625,-0.64544677734375,0.30181884765625
141685,0.7367095947265625,-0.6643218994140625,0.3575897216796875
141686,0.6321868896484375,-0.702880859375,0.345489501953125
141687,0.54779052734375,-0.7254791259765625,0.2643280029296875
141688,0.4875640869140625,-0.7239532470703125,0.134429931640625
141689,0.460357666015625,-0.7021026611328125,0.027496337890625
141690,0.480865478515625,-0.677337646484375,-0.0199432373046875
141691,0.5376434326171875,-0.6704864501953125,0.0092010498046875
141692,0.6159820556640625,-0.689361572265625,0.0861358642578125
141693,0.69012451171875,-0.725433349609375,0.1764984130859375
141694,0.747589111328125,-0.7656402587890625,0.2756195068359375
141695,0.791290283203125,-0.7972259521484375,0.3821868896484375
141696,0.8301544189453125,-0.81561279296875,0.43548583984375
141697,0.861175537109375,-0.81903076171875,0.391815185546875
141698,0.87493896484375,-0.812469482421875,0.2888946533203125
141699,0.8548583984375,-0.7982635498046875,0.197265625
141700,0.7965240478515625,-0.7819671630859375,0.1324310302734375
141701,0.7116241455078125,-0.760650634765625,0.080902099609375
141702,0.61700439453125,-0.73162841796875,0.0528106689453125
141703,0.5242767333984375,-0.6967315673828125,0.0783538818359375
141704,0.4519805908203125,-0.662445068359375,0.14996337890625
141705,0.419769287109375,-0.6351470947265625,0.250762939453125
141706,0.44171142578125,-0.619232177734375,0.3459930419921875
141707,0.5037994384765625,-0.5975799560546875,0.3995819091796875
141708,0.5988006591796875,-0.56781005859375,0.395050048828125
141709,0.7161407470703125,-0.5405426025390625,0.327239990234375
141710,0.83062744140625,-0.513763427734375,0.22039794921875
141711,0.930206298828125,-0.4716339111328125,0.10205078125
141712,1.015365600585938,-0.4051361083984375,-0.0072021484375
141713,1.0806884765625,-0.3162078857421875,-0.1111602783203125
141714,1.1048583984375,-0.21978759765625,-0.1615447998046875
141715,1.089767456054688,-0.142059326171875,-0.175323486328125
141716,1.049652099609375,-0.09295654296875,-0.123931884765625
141717,1.01641845703125,-0.0723419189453125,-0.071563720703125
141718,0.998260498046875,-0.0768280029296875,-0.077484130859375
141719,0.9933013916015624,-0.0990142822265625,-0.0662078857421875
141720,1.009689331054688,-0.1373291015625,-0.040191650390625
141721,1.040283203125,-0.200958251953125,-0.0516815185546875
141722,1.061279296875,-0.2847137451171875,-0.0819854736328125
141723,1.055694580078125,-0.3800048828125,-0.0766448974609375
141724,1.0296630859375,-0.463775634765625,-0.03472900390625
141725,1.005722045898438,-0.5327606201171875,0.01007080078125
141726,0.9956817626953124,-0.5901641845703125,0.0584869384765625
141727,0.997406005859375,-0.6349029541015625,0.1057891845703125
141728,1.011932373046875,-0.669036865234375,0.1378936767578125
141729,1.03839111328125,-0.691314697265625,0.152313232421875
141730,1.039199829101562,-0.7085113525390625,0.157257080078125
141731,0.9999237060546876,-0.7330780029296875,0.161376953125
141732,0.9375152587890624,-0.766448974609375,0.1827239990234375
141733,0.866973876953125,-0.8023529052734375,0.2039794921875
141734,0.801239013671875,-0.8235015869140625,0.2113037109375
141735,0.743255615234375,-0.82269287109375,0.211395263671875
141736,0.702117919921875,-0.7997589111328125,0.2039794921875
141737,0.6759490966796875,-0.7586517333984375,0.183013916015625
141738,0.6655426025390625,-0.7005615234375,0.1434783935546875
141739,0.6669464111328125,-0.637420654296875,0.0783233642578125
141740,0.6686248779296875,-0.58294677734375,0.007904052734375
141741,0.6683807373046875,-0.5455474853515625,-0.0260162353515625
141742,0.665008544921875,-0.5284881591796875,-0.001220703125
141743,0.6418304443359375,-0.5405731201171875,0.0647430419921875
141744,0.5917205810546875,-0.572479248046875,0.1606597900390625
141745,0.555267333984375,-0.6011199951171875,0.2969970703125
141746,0.551788330078125,-0.626678466796875,0.480377197265625
141747,0.5816650390625,-0.667022705078125,0.64013671875
141748,0.63531494140625,-0.731109619140625,0.71734619140625
141749,0.6992645263671875,-0.815277099609375,0.7119140625
141750,0.73040771484375,-0.9004364013671875,0.645233154296875
141751,0.703125,-0.945281982421875,0.5574188232421875
141752,0.6353912353515625,-0.9267120361328124,0.4773101806640625
141753,0.5463714599609375,-0.8828582763671875,0.41534423828125
141754,0.4577789306640625,-0.846405029296875,0.3829803466796875
141755,0.4014129638671875,-0.8192596435546875,0.3776702880859375
141756,0.3927764892578125,-0.8034210205078125,0.3941497802734375
141757,0.4281005859375,-0.8004150390625,0.433990478515625
141758,0.4899749755859375,-0.8137359619140625,0.474945068359375
141759,0.5516815185546875,-0.8367919921875,0.4969482421875
141760,0.60089111328125,-0.851043701171875,0.48944091796875
141761,0.6356658935546875,-0.845855712890625,0.4473114013671875
141762,0.658172607421875,-0.8208770751953125,0.37530517578125
141763,0.688323974609375,-0.7757415771484375,0.27386474609375
141764,0.7427825927734375,-0.7105560302734375,0.1262664794921875
141765,0.8279876708984375,-0.62591552734375,-0.0146942138671875
141766,0.9336700439453124,-0.548065185546875,-0.081024169921875
141767,1.044097900390625,-0.501373291015625,-0.0885009765625
141768,1.151092529296875,-0.4845733642578125,-0.0586700439453125
141769,1.2469482421875,-0.48321533203125,-0.0429840087890625
141770,1.313583374023438,-0.47906494140625,-0.0586700439453125
141771,1.3458251953125,-0.4455413818359375,-0.1486358642578125
141772,1.362762451171875,-0.365875244140625,-0.2884063720703125
141773,1.357864379882812,-0.246063232421875,-0.3783111572265625
141774,1.329681396484375,-0.122314453125,-0.3725433349609375
141775,1.267654418945312,-0.032470703125,-0.3172760009765625
141776,1.178207397460938,0.0298004150390625,-0.258575439453125
141777,1.071136474609375,0.0647735595703125,-0.2142486572265625
141778,0.953277587890625,0.0527191162109375,-0.1821746826171875
141779,0.86041259765625,-0.0211944580078125,-0.1414642333984375
141780,0.81640625,-0.117645263671875,-0.0944976806640625
141781,0.811737060546875,-0.1886749267578125,-0.0640869140625
141782,0.8511962890625,-0.24249267578125,-0.053253173828125
141783,0.93255615234375,-0.2798309326171875,-0.0271453857421875
141784,1.0146484375,-0.3257293701171875,-0.0164794921875
141785,1.052520751953125,-0.4031219482421875,0.0001678466796875
141786,1.071548461914062,-0.470184326171875,0.071197509765625
141787,1.066253662109375,-0.5267791748046875,0.1580657958984375
141788,1.018142700195312,-0.57818603515625,0.234222412109375
141789,0.945220947265625,-0.6195068359375,0.2586212158203125
141790,0.8718414306640625,-0.6689910888671875,0.2382049560546875
141791,0.800445556640625,-0.717437744140625,0.2336273193359375
141792,0.7132568359375,-0.7478485107421875,0.24969482421875
141793,0.6016387939453125,-0.756805419921875,0.2403411865234375
141794,0.4885101318359375,-0.753387451171875,0.23516845703125
141795,0.39569091796875,-0.7342529296875,0.30950927734375
141796,0.3639984130859375,-0.7217559814453125,0.4158782958984375
141797,0.3949432373046875,-0.71807861328125,0.4698944091796875
141798,0.4564208984375,-0.7018280029296875,0.4718170166015625
141799,0.5355224609375,-0.6804962158203125,0.4398956298828125
141800,0.6089630126953125,-0.659454345703125,0.4217376708984375
141801,0.6588287353515625,-0.648529052734375,0.43914794921875
141802,0.68499755859375,-0.6502227783203125,0.454742431640625
141803,0.6998443603515625,-0.6569366455078125,0.4658660888671875
141804,0.70904541015625,-0.65557861328125,0.4665069580078125
141805,0.6952972412109375,-0.654388427734375,0.4113006591796875
141806,0.6420440673828125,-0.6624603271484375,0.3076171875
141807,0.545166015625,-0.678924560546875,0.2267303466796875
141808,0.4407958984375,-0.6833038330078125,0.182464599609375
141809,0.3606109619140625,-0.6660919189453125,0.143035888671875
141810,0.320220947265625,-0.6527252197265625,0.106292724609375
141811,0.3249053955078125,-0.64599609375,0.0814666748046875
141812,0.365325927734375,-0.6497039794921875,0.07818603515625
141813,0.4213714599609375,-0.661956787109375,0.110107421875
141814,0.4774627685546875,-0.688446044921875,0.178009033203125
141815,0.5465087890625,-0.731781005859375,0.268951416015625
141816,0.6460418701171875,-0.7824554443359375,0.3482208251953125
141817,0.77001953125,-0.82879638671875,0.388519287109375
141818,0.88983154296875,-0.854644775390625,0.3975067138671875
141819,0.9776763916015624,-0.854217529296875,0.3557891845703125
141820,1.001617431640625,-0.82989501953125,0.302978515625
141821,0.9385223388671876,-0.796844482421875,0.27581787109375
141822,0.8076019287109375,-0.7681884765625,0.2778167724609375
141823,0.6545867919921875,-0.73101806640625,0.2701873779296875
141824,0.5233917236328125,-0.68701171875,0.2585296630859375
141825,0.44488525390625,-0.6506500244140625,0.243621826171875
141826,0.427886962890625,-0.6381683349609375,0.2515106201171875
141827,0.464019775390625,-0.644317626953125,0.2912750244140625
141828,0.5383453369140625,-0.634918212890625,0.3489837646484375
141829,0.6395111083984375,-0.605438232421875,0.423980712890625
141830,0.7671966552734375,-0.57037353515625,0.4883270263671875
141831,0.91632080078125,-0.5450286865234375,0.4570159912109375
141832,1.050338745117188,-0.5184478759765625,0.352447509765625
141833,1.126602172851562,-0.477752685546875,0.249481201171875
141834,1.149856567382812,-0.42041015625,0.1275787353515625
141835,1.139480590820312,-0.34197998046875,-0.0113525390625
141836,1.100067138671875,-0.2556304931640625,-0.13787841796875
141837,1.036148071289062,-0.173858642578125,-0.2464599609375
141838,0.9539794921875,-0.1107940673828125,-0.2778778076171875
141839,0.8806610107421875,-0.0722503662109375,-0.2542724609375
141840,0.8455352783203125,-0.04364013671875,-0.2205352783203125
141841,0.8467559814453125,-0.0309295654296875,-0.18035888671875
141842,0.8889923095703125,-0.04327392578125,-0.1247100830078125
141843,0.9760894775390624,-0.0963897705078125,-0.09661865234375
141844,1.07647705078125,-0.1851806640625,-0.1073150634765625
141845,1.164306640625,-0.291534423828125,-0.1121063232421875
141846,1.239364624023438,-0.3890838623046875,-0.0776214599609375
141847,1.285720825195312,-0.4680328369140625,-0.01068115234375
141848,1.284378051757812,-0.538787841796875,0.076812744140625
141849,1.22930908203125,-0.6053314208984375,0.189422607421875
141850,1.14202880859375,-0.6639404296875,0.259735107421875
141851,1.040481567382812,-0.7069091796875,0.2595977783203125
141852,0.9291229248046876,-0.73077392578125,0.2171630859375
141853,0.8162841796875,-0.73260498046875,0.1762542724609375
141854,0.7172698974609375,-0.7231903076171875,0.155487060546875
141855,0.6403961181640625,-0.72528076171875,0.1628265380859375
141856,0.576080322265625,-0.746368408203125,0.1871337890625
141857,0.5030975341796875,-0.77252197265625,0.216827392578125
141858,0.42791748046875,-0.7852935791015625,0.232696533203125
141859,0.380157470703125,-0.765655517578125,0.257720947265625
141860,0.37841796875,-0.71612548828125,0.286407470703125
141861,0.4295196533203125,-0.6608734130859375,0.2385406494140625
141862,0.5179443359375,-0.6158905029296875,0.1238555908203125
141863,0.610870361328125,-0.589111328125,0.038848876953125
141864,0.6969757080078125,-0.5929412841796875,0.04608154296875
141865,0.7824859619140625,-0.6277618408203125,0.1130218505859375
141866,0.8426971435546875,-0.6553497314453125,0.2364349365234375
141867,0.8568115234375,-0.64422607421875,0.436431884765625
141868,0.84130859375,-0.6185455322265625,0.6663970947265625
141869,0.8127899169921875,-0.6161041259765625,0.8114471435546875
141870,0.76910400390625,-0.6501007080078125,0.8255462646484375
141871,0.6994171142578125,-0.7143402099609375,0.7692108154296875
141872,0.6122589111328125,-0.7777557373046875,0.661163330078125
141873,0.5080413818359375,-0.8082275390625,0.552490234375
141874,0.3936767578125,-0.8150177001953125,0.495269775390625
141875,0.30450439453125,-0.820404052734375,0.4597930908203125
141876,0.2751007080078125,-0.823394775390625,0.44390869140625
141877,0.3094635009765625,-0.8149261474609375,0.4752349853515625
141878,0.390380859375,-0.803009033203125,0.5509185791015625
141879,0.4936981201171875,-0.8167877197265625,0.6368408203125
141880,0.582550048828125,-0.857574462890625,0.675811767578125
141881,0.6220550537109375,-0.9001312255859375,0.6593170166015625
141882,0.615936279296875,-0.9266815185546876,0.5871429443359375
141883,0.586578369140625,-0.92718505859375,0.468841552734375
141884,0.56060791015625,-0.899200439453125,0.325653076171875
141885,0.5550079345703125,-0.83709716796875,0.197998046875
141886,0.5905609130859375,-0.7501983642578125,0.0857696533203125
141887,0.6734161376953125,-0.661895751953125,0.0013275146484375
141888,0.792022705078125,-0.5925445556640625,-0.0098724365234375
141889,0.95330810546875,-0.5550079345703125,0.0125579833984375
141890,1.153427124023438,-0.54107666015625,0.0252227783203125
141891,1.351959228515625,-0.52667236328125,0.0182952880859375
141892,1.506698608398438,-0.5001068115234375,-0.088714599609375
141893,1.588546752929688,-0.4523162841796875,-0.236175537109375
141894,1.57440185546875,-0.37066650390625,-0.3216552734375
141895,1.48712158203125,-0.2703704833984375,-0.344879150390625
141896,1.382110595703125,-0.1795654296875,-0.3124237060546875
141897,1.2669677734375,-0.0917510986328125,-0.2774810791015625
141898,1.123001098632812,-0.0234222412109375,-0.250274658203125
141899,0.9506072998046876,0.0027618408203125,-0.212005615234375
141900,0.7971954345703125,-0.0132904052734375,-0.1667022705078125
141901,0.711334228515625,-0.0579681396484375,-0.1117706298828125
141902,0.70001220703125,-0.1068267822265625,-0.0656280517578125
141903,0.7356109619140625,-0.1501312255859375,-0.0452423095703125
141904,0.7997894287109375,-0.2035675048828125,-0.016815185546875
141905,0.861846923828125,-0.295013427734375,0.022247314453125
141906,0.9293975830078124,-0.38079833984375,0.0691680908203125
141907,1.031112670898438,-0.4369049072265625,0.1530303955078125
141908,1.1121826171875,-0.5026092529296875,0.251861572265625
141909,1.117706298828125,-0.5854949951171875,0.3292236328125
141910,1.042022705078125,-0.6764984130859375,0.3631591796875
141911,0.9078369140625,-0.76739501953125,0.37841796875
141912,0.7463836669921875,-0.8199920654296875,0.395111083984375
141913,0.568603515625,-0.828338623046875,0.397979736328125
141914,0.405609130859375,-0.79241943359375,0.3924560546875
141915,0.297332763671875,-0.7056427001953125,0.402374267578125
141916,0.270172119140625,-0.6428070068359375,0.391387939453125
141917,0.3013916015625,-0.6537628173828125,0.362884521484375
141918,0.3486480712890625,-0.6821746826171875,0.3292999267578125
141919,0.3919525146484375,-0.7029266357421875,0.3245086669921875
141920,0.445404052734375,-0.7015533447265625,0.3559722900390625
141921,0.506988525390625,-0.6727294921875,0.4160308837890625
141922,0.561859130859375,-0.632049560546875,0.4916534423828125
141923,0.6186676025390625,-0.5987701416015625,0.5395050048828125
141924,0.6935272216796875,-0.5796966552734375,0.542266845703125
141925,0.7764739990234375,-0.5756988525390625,0.4921417236328125
141926,0.84649658203125,-0.5989227294921875,0.3967437744140625
