time_idx,accelerometerAccelerationX(G),accelerometerAccelerationY(G),accelerometerAccelerationZ(G)
140000,-2.24481201171875,0.581878662109375,-0.2577056884765625
140001,-2.543167114257812,1.39166259765625,-0.33953857421875
140002,-2.205413818359375,1.970779418945312,0.3049468994140625
140003,-1.349090576171875,2.634811401367188,0.22198486328125
140004,-0.732879638671875,3.065841674804688,0.1686859130859375
140005,-0.035919189453125,2.202484130859375,0.39276123046875
140006,0.857635498046875,1.013763427734375,0.8706207275390625
140007,1.499984741210938,0.551116943359375,1.222030639648438
140008,1.89398193359375,0.517059326171875,1.271652221679688
140009,1.989395141601562,0.68353271484375,1.128250122070312
140010,1.632659912109375,0.81805419921875,0.73919677734375
140011,1.126434326171875,0.8806610107421875,0.3592071533203125
140012,0.7604217529296875,1.025390625,0.2791290283203125
140013,0.4775848388671875,1.089218139648438,0.305267333984375
140014,0.259063720703125,0.9970855712890624,0.2329864501953125
140015,0.259063720703125,0.9970855712890624,0.2329864501953125
140016,0.1005401611328125,0.777191162109375,0.0410614013671875
140017,-0.0950164794921875,0.32598876953125,-0.4034576416015625
140018,-0.1771392822265625,0.1396942138671875,-0.4344024658203125
140019,-0.223480224609375,-0.0489501953125,-0.3865203857421875
140020,-0.1760406494140625,-0.17431640625,-0.36181640625
140021,-0.06475830078125,-0.2283782958984375,-0.3288116455078125
140022,0.05499267578125,-0.216094970703125,-0.3076934814453125
140023,0.05499267578125,-0.216094970703125,-0.3076934814453125
140024,0.1507415771484375,-0.1747589111328125,-0.2144775390625
140025,0.2516021728515625,-0.0897674560546875,-0.011016845703125
140026,0.27081298828125,-0.05029296875,0.0615386962890625
140027,0.2671661376953125,-0.0233612060546875,0.14727783203125
140028,0.2161407470703125,-0.0138092041015625,0.2213592529296875
140029,0.0964813232421875,0.003692626953125,0.2849884033203125
140030,-0.0702362060546875,0.031829833984375,0.31658935546875
140031,-0.2191619873046875,0.037567138671875,0.3471221923828125
140032,-0.318634033203125,0.003173828125,0.3235321044921875
140033,-0.34735107421875,-0.1033172607421875,0.1902923583984375
140034,-0.34735107421875,-0.1033172607421875,0.1902923583984375
140035,-0.3314971923828125,-0.1749267578125,0.14453125
140036,-0.393310546875,-0.27191162109375,0.231231689453125
140037,-0.447845458984375,-0.33758544921875,0.472564697265625
140038,-0.5485382080078125,-0.368011474609375,0.6308746337890625
140039,-0.9447479248046876,-0.2796630859375,0.6866302490234375
140040,-1.801528930664062,0.0352935791015625,1.162750244140625
140041,-3.142562866210938,1.054412841796875,2.359512329101562
140042,-4.189300537109375,3.980072021484375,1.9906005859375
140043,-4.189300537109375,3.980072021484375,1.9906005859375
140044,-2.647537231445312,3.991912841796875,1.078582763671875
140045,-1.083953857421875,3.087661743164062,1.294174194335938
140046,-0.182525634765625,2.536575317382812,0.3105926513671875
140047,-0.182525634765625,2.536575317382812,0.3105926513671875
140048,-0.84942626953125,2.15313720703125,0.5026702880859375
140049,-1.305694580078125,1.97821044921875,0.85791015625
140050,-1.324432373046875,1.941314697265625,1.20574951171875
140051,-1.189422607421875,1.9239501953125,1.550201416015625
140052,-0.6590576171875,1.396652221679688,1.126022338867188
140053,-0.01806640625,0.7117919921875,0.8136138916015625
140054,0.7411346435546875,0.3951568603515625,1.282058715820312
140055,0.7411346435546875,0.3951568603515625,1.282058715820312
140056,0.898468017578125,0.4993133544921875,1.30377197265625
140057,0.8734283447265625,0.60430908203125,1.03094482421875
140058,0.6927337646484375,0.694915771484375,0.6857147216796875
140059,0.60186767578125,0.8846282958984375,0.574310302734375
140060,0.65838623046875,1.068161010742188,0.5285491943359375
140061,0.7229461669921875,1.142868041992188,0.5243072509765625
140062,0.7362060546875,1.111358642578125,0.609161376953125
140063,0.7209014892578125,0.981964111328125,0.617431640625
140064,0.631927490234375,0.807708740234375,0.5070648193359375
140065,0.432037353515625,0.583099365234375,0.28125
140066,0.2282867431640625,0.3527374267578125,0.0348663330078125
140067,0.071380615234375,0.162841796875,-0.165008544921875
140068,0.023101806640625,0.0493927001953125,-0.31951904296875
140069,0.0267791748046875,-0.0157928466796875,-0.44610595703125
140070,0.0058135986328125,-0.1524200439453125,-0.7127838134765625
140071,0.0058135986328125,-0.1524200439453125,-0.7127838134765625
140072,0.0675201416015625,-0.1688690185546875,-0.72186279296875
140073,0.15423583984375,-0.1455230712890625,-0.5775909423828125
140074,0.2146759033203125,-0.100677490234375,-0.344970703125
140075,0.2598724365234375,-0.0018463134765625,-0.1051177978515625
140076,0.2993927001953125,0.1336212158203125,0.1204986572265625
140077,0.332489013671875,0.248687744140625,0.2931060791015625
140078,0.367034912109375,0.32470703125,0.423675537109375
140079,0.3426361083984375,0.3571319580078125,0.4930572509765625
140080,0.248382568359375,0.321990966796875,0.4481201171875
140081,0.12890625,0.2373199462890625,0.3189697265625
140082,0.020599365234375,0.1316986083984375,0.175872802734375
140083,-0.0772857666015625,0.0271148681640625,0.0417938232421875
140084,-0.219757080078125,-0.0629730224609375,-0.094085693359375
140085,-0.3955535888671875,-0.16015625,-0.1865997314453125
140086,-0.580352783203125,-0.2313385009765625,-0.167236328125
140087,-0.683013916015625,-0.3580780029296875,0.055572509765625
140088,-0.8802337646484375,-0.5420989990234375,0.206390380859375
140089,-1.475051879882812,-0.5675048828125,0.6302490234375
140090,-2.408065795898438,-0.3555450439453125,1.719635009765625
140091,-4.639678955078125,0.7569580078125,3.8037109375
140092,-5.85601806640625,3.319229125976562,3.785476684570312
140093,-2.074737548828125,3.601577758789062,1.095916748046875
140094,-2.074737548828125,3.601577758789062,1.095916748046875
140095,-0.7006378173828125,2.69879150390625,1.536651611328125
140096,0.0075836181640625,2.66961669921875,1.142990112304688
140097,0.0426025390625,2.584503173828125,0.924652099609375
140098,-0.6766204833984375,2.137039184570312,1.083404541015625
140099,-1.286697387695312,1.852737426757812,1.39202880859375
140100,-1.309799194335938,1.965118408203125,1.538604736328125
140101,-0.7240142822265625,1.726898193359375,1.690322875976562
140102,-0.1911163330078125,0.965972900390625,1.362411499023438
140103,0.0929107666015625,0.631317138671875,0.9527587890625
140104,0.3307952880859375,0.6566162109375,1.017013549804688
140105,0.838470458984375,0.8157806396484375,0.97662353515625
140106,0.838470458984375,0.8157806396484375,0.97662353515625
140107,0.9275054931640624,0.6096954345703125,0.39434814453125
140108,0.809600830078125,0.4401092529296875,0.0411224365234375
140109,0.748992919921875,0.59033203125,0.1850433349609375
140110,0.7704620361328125,0.7261810302734375,0.45806884765625
140111,0.747650146484375,0.8286285400390625,0.6591796875
140112,0.7089385986328125,0.9142303466796876,0.7969970703125
140113,0.8211822509765625,0.916961669921875,0.8291168212890625
140114,1.07666015625,0.8017578125,0.34161376953125
140115,1.07666015625,0.8017578125,0.34161376953125
140116,0.7440948486328125,0.563201904296875,0.100921630859375
140117,0.42681884765625,0.2820587158203125,-0.0179443359375
140118,0.3541107177734375,-0.0127105712890625,-0.2783355712890625
140119,0.3541107177734375,-0.0127105712890625,-0.2783355712890625
140120,0.3857421875,-0.11187744140625,-0.527618408203125
140121,0.3619384765625,-0.1782073974609375,-0.6848602294921875
140122,0.2929534912109375,-0.0775604248046875,-0.4274444580078125
140123,0.2929534912109375,-0.0775604248046875,-0.4274444580078125
140124,0.298065185546875,-0.0279693603515625,-0.218414306640625
140125,0.3151092529296875,0.03399658203125,-0.0472259521484375
140126,0.3144073486328125,0.09844970703125,0.0697479248046875
140127,0.2734375,0.144195556640625,0.151702880859375
140128,0.1786041259765625,0.15521240234375,0.2005615234375
140129,0.040557861328125,0.137847900390625,0.2466888427734375
140130,-0.1925506591796875,0.0950927734375,0.29266357421875
140131,-0.1925506591796875,0.0950927734375,0.29266357421875
140132,-0.2943115234375,0.0238494873046875,0.229217529296875
140133,-0.414581298828125,-0.0791168212890625,0.1284027099609375
140134,-0.54498291015625,-0.2140960693359375,0.0223388671875
140135,-0.5315093994140625,-0.2658538818359375,-0.0627899169921875
140136,-0.4614715576171875,-0.312408447265625,-0.0475616455078125
140137,-0.4725341796875,-0.3838348388671875,0.1280975341796875
140138,-2.110809326171875,-0.5167388916015625,0.565704345703125
140139,-2.110809326171875,-0.5167388916015625,0.565704345703125
140140,-3.773712158203125,0.241302490234375,2.089126586914062
140141,-4.358901977539062,1.775924682617188,2.962005615234375
140142,-4.272689819335938,3.146484375,2.06793212890625
140143,-3.899215698242188,3.986083984375,2.486862182617188
140144,-3.899215698242188,3.986083984375,2.486862182617188
140145,0.2825469970703125,2.0455322265625,1.27386474609375
140146,0.554290771484375,2.039962768554688,1.25262451171875
140147,0.554290771484375,2.039962768554688,1.25262451171875
140148,-0.0631866455078125,1.961273193359375,1.011016845703125
140149,-0.8897857666015625,1.715896606445312,1.123336791992188
140150,-1.357696533203125,1.647735595703125,1.372573852539062
140151,-1.4656982421875,1.651046752929688,1.76776123046875
140152,-1.020797729492188,1.411880493164062,1.64178466796875
140153,-0.4236907958984375,1.002792358398438,1.072296142578125
140154,0.0804290771484375,0.7179718017578125,0.8440093994140625
140155,0.42462158203125,0.6114349365234375,0.918701171875
140156,0.42462158203125,0.6114349365234375,0.918701171875
140157,0.4981536865234375,0.6747283935546875,0.9185333251953124
140158,0.3819732666015625,0.6699371337890625,0.7718963623046875
140159,0.40777587890625,0.7626495361328125,0.6422271728515625
140160,0.5611114501953125,0.8457794189453125,0.5125274658203125
140161,0.716156005859375,0.9057769775390624,0.395721435546875
140162,0.716156005859375,0.9057769775390624,0.395721435546875
140163,0.701812744140625,0.8834991455078125,0.3858489990234375
140164,0.6538848876953125,0.818939208984375,0.3201904296875
140165,0.5511474609375,0.68939208984375,0.1640167236328125
140166,0.3902130126953125,0.5084686279296875,0.011199951171875
140167,0.241241455078125,0.321868896484375,-0.0723724365234375
140168,0.158660888671875,0.190948486328125,-0.0883331298828125
140169,0.13427734375,0.0380706787109375,-0.0670928955078125
140170,0.2356719970703125,-0.2660675048828125,-0.2400054931640625
140171,0.2356719970703125,-0.2660675048828125,-0.2400054931640625
140172,0.307342529296875,-0.323883056640625,-0.423828125
140173,0.34576416015625,-0.2684173583984375,-0.5133209228515625
140174,0.3746795654296875,-0.1891021728515625,-0.440673828125
140175,0.4011993408203125,-0.106475830078125,-0.3124542236328125
140176,0.3850860595703125,0.008148193359375,-0.1733245849609375
140177,0.32049560546875,0.1474609375,-0.0149688720703125
140178,0.1874237060546875,0.27520751953125,0.1278076171875
140179,0.0342254638671875,0.353363037109375,0.2307281494140625
140180,-0.070159912109375,0.328338623046875,0.2945404052734375
140181,-0.1572723388671875,0.2314300537109375,0.254638671875
140182,-0.2765960693359375,0.1001434326171875,0.1381988525390625
140183,-0.4270782470703125,-0.02117919921875,0.0258636474609375
140184,-0.4984283447265625,-0.0409088134765625,-0.03594970703125
140185,-0.56365966796875,-0.0661163330078125,0.013671875
140186,-0.56365966796875,-0.0661163330078125,0.013671875
140187,-0.584930419921875,-0.16162109375,0.123779296875
140188,-0.5781097412109375,-0.363555908203125,0.2177886962890625
140189,-0.6788177490234375,-0.648101806640625,0.356048583984375
140190,-0.916351318359375,-0.8666839599609375,0.5771484375
140191,-1.4534912109375,-0.9893341064453124,1.031845092773438
140192,-2.66632080078125,-0.9500274658203124,1.756088256835938
140193,-3.564804077148438,0.74310302734375,2.968292236328125
140194,-4.073562622070312,3.499099731445312,2.999053955078125
140195,-4.073562622070312,3.499099731445312,2.999053955078125
140196,-3.75274658203125,4.568618774414062,2.288497924804688
140197,-0.438629150390625,3.920654296875,1.918167114257812
140198,0.2816009521484375,3.378005981445312,0.930572509765625
140199,-0.184356689453125,2.231826782226562,1.4576416015625
140200,-1.000823974609375,1.35418701171875,1.640579223632812
140201,-1.241165161132812,0.7698974609375,1.440414428710938
140202,-0.820526123046875,0.66082763671875,0.9151458740234376
140203,-0.459136962890625,0.9426116943359376,1.034591674804688
140204,-0.3054046630859375,1.251998901367188,1.356643676757812
140205,-0.050628662109375,1.335723876953125,0.9674072265625
140206,0.2625732421875,1.391632080078125,0.728515625
140207,0.5786285400390625,1.323211669921875,0.7958831787109375
140208,0.6943817138671875,1.13018798828125,0.8176422119140625
140209,0.540313720703125,0.8978271484375,0.700103759765625
140210,0.32232666015625,0.7788238525390625,0.63360595703125
140211,0.3023834228515625,0.827178955078125,0.5853424072265625
140212,0.3023834228515625,0.827178955078125,0.5853424072265625
140213,0.518341064453125,0.7414093017578125,0.3856201171875
140214,0.615234375,0.663116455078125,0.36285400390625
140215,0.6783599853515625,0.6544647216796875,0.306549072265625
140216,0.7175140380859375,0.65093994140625,0.2005157470703125
140217,0.71875,0.6042938232421875,0.104217529296875
140218,0.49444580078125,0.33709716796875,-0.10833740234375
140219,0.49444580078125,0.33709716796875,-0.10833740234375
140220,0.3816986083984375,0.2191162109375,-0.1712646484375
140221,0.2655487060546875,0.0743255615234375,-0.223052978515625
140222,0.17034912109375,-0.2284393310546875,-0.3360137939453125
140223,0.17034912109375,-0.2284393310546875,-0.3360137939453125
140224,0.215362548828125,-0.2593841552734375,-0.3808135986328125
140225,0.2669219970703125,-0.04400634765625,-0.2733001708984375
140226,0.2669219970703125,-0.04400634765625,-0.2733001708984375
140227,0.2761688232421875,0.0224761962890625,-0.1742706298828125
140228,0.327239990234375,0.0567626953125,-0.07562255859375
140229,0.3685760498046875,0.0762481689453125,-0.00848388671875
140230,0.272125244140625,0.1663665771484375,0.0656890869140625
140231,0.272125244140625,0.1663665771484375,0.0656890869140625
140232,0.1347198486328125,0.2244415283203125,0.1001129150390625
140233,-0.0085601806640625,0.241912841796875,0.126708984375
140234,-0.149444580078125,0.2306365966796875,0.150421142578125
140235,-0.3098297119140625,0.22467041015625,0.157073974609375
140236,-0.49224853515625,0.229400634765625,0.0912017822265625
140237,-1.201446533203125,0.0771484375,-0.233795166015625
140238,-1.201446533203125,0.0771484375,-0.233795166015625
140239,-1.647750854492188,-0.139312744140625,-0.334228515625
140240,-1.767257690429688,-0.2950897216796875,-0.24285888671875
140241,-1.384231567382812,-0.451141357421875,0.2269439697265625
140242,-0.9734039306640624,-0.534027099609375,0.7679290771484375
140243,-1.241378784179688,-0.234710693359375,2.13946533203125
140244,-2.576690673828125,1.718063354492188,3.661361694335938
140245,-2.638168334960938,4.501632690429688,2.78460693359375
140246,-2.638168334960938,4.501632690429688,2.78460693359375
140247,-0.727020263671875,3.472396850585938,0.8720703125
140248,0.26220703125,2.312103271484375,0.5897674560546875
140249,0.27349853515625,1.537979125976562,1.227035522460938
140250,-0.3191986083984375,0.8939056396484375,1.113327026367188
140251,-1.273635864257812,0.619354248046875,0.8224945068359375
140252,-1.966506958007812,1.11273193359375,1.10845947265625
140253,-2.394546508789062,2.718460083007812,1.195724487304688
140254,-2.394546508789062,2.718460083007812,1.195724487304688
140255,-1.736328125,2.32305908203125,0.951019287109375
140256,-0.88873291015625,1.56878662109375,0.8984222412109375
140257,-0.2917633056640625,1.21038818359375,0.8608245849609375
140258,0.25494384765625,0.9953155517578124,0.9037933349609376
140259,0.658843994140625,0.73138427734375,0.902099609375
140260,0.8306732177734375,0.570831298828125,0.67486572265625
140261,0.7844390869140625,0.9865570068359376,0.4134979248046875
140262,0.7844390869140625,0.9865570068359376,0.4134979248046875
140263,0.8445587158203125,1.173233032226562,0.3926849365234375
140264,1.041366577148438,1.220718383789062,0.3354949951171875
140265,1.506744384765625,1.101791381835938,0.1321563720703125
140266,1.506744384765625,1.101791381835938,0.1321563720703125
140267,1.413375854492188,0.7518768310546875,0.089996337890625
140268,0.9941558837890624,0.360748291015625,0.028778076171875
140269,0.4603118896484375,0.211883544921875,-0.00299072265625
140270,0.4603118896484375,0.211883544921875,-0.00299072265625
140271,0.333099365234375,0.1330108642578125,-0.1252593994140625
140272,0.215423583984375,0.001556396484375,-0.2901153564453125
140273,0.1843719482421875,-0.1190338134765625,-0.3864288330078125
140274,0.1843719482421875,-0.1190338134765625,-0.3864288330078125
140275,0.202911376953125,-0.094268798828125,-0.276641845703125
140276,0.2090301513671875,-0.0706787109375,-0.1746826171875
140277,0.2138671875,-0.04888916015625,-0.103668212890625
140278,0.2388458251953125,-0.0204620361328125,-0.0450286865234375
140279,0.258392333984375,0.0393524169921875,0.0209503173828125
140280,0.2386932373046875,0.1066131591796875,0.0959320068359375
140281,0.1488494873046875,0.240081787109375,0.1313934326171875
140282,0.1122283935546875,0.275970458984375,0.0717315673828125
140283,0.1122283935546875,0.275970458984375,0.0717315673828125
140284,0.08026123046875,0.2713623046875,-0.004058837890625
140285,0.0338134765625,0.1186676025390625,-0.0608367919921875
140286,0.0338134765625,0.1186676025390625,-0.0608367919921875
140287,0.0544281005859375,-0.0290985107421875,0.0672760009765625
140288,-0.06170654296875,-0.2045440673828125,0.3580322265625
140289,-1.8857421875,-0.292388916015625,0.71893310546875
140290,-1.8857421875,-0.292388916015625,0.71893310546875
140291,-3.82965087890625,-0.2752685546875,1.375091552734375
140292,-5.507583618164062,0.2091064453125,1.754196166992188
140293,-5.910842895507812,0.7029876708984375,0.571929931640625
140294,-4.920944213867188,0.5108642578125,-0.2546539306640625
140295,-3.517898559570312,-0.6435394287109375,0.30377197265625
140296,-2.245269775390625,-0.6897735595703125,1.7479248046875
140297,-1.62091064453125,3.51251220703125,3.330795288085938
140298,-1.62091064453125,3.51251220703125,3.330795288085938
140299,-1.013824462890625,4.968963623046875,1.676467895507812
140300,0.1855926513671875,5.359176635742188,1.01531982421875
140301,-0.430816650390625,1.8466796875,1.504913330078125
140302,-0.430816650390625,1.8466796875,1.504913330078125
140303,-0.2816162109375,0.727020263671875,1.830276489257812
140304,-0.2816162109375,0.727020263671875,1.830276489257812
140305,0.1115264892578125,0.75714111328125,0.656524658203125
140306,0.1115264892578125,0.75714111328125,0.656524658203125
140307,-0.06939697265625,0.856231689453125,0.3045654296875
140308,-0.1835784912109375,1.09808349609375,0.197845458984375
140309,0.27630615234375,1.3359375,0.4297637939453125
140310,0.27630615234375,1.3359375,0.4297637939453125
140311,0.636627197265625,1.269287109375,0.384429931640625
140312,0.636627197265625,1.269287109375,0.384429931640625
140313,1.092681884765625,1.064483642578125,0.303436279296875
140314,1.092681884765625,1.064483642578125,0.303436279296875
140315,1.092681884765625,1.064483642578125,0.303436279296875
140316,1.068023681640625,0.98077392578125,0.3182220458984375
140317,0.5893707275390625,0.3643035888671875,0.3038482666015625
140318,0.5893707275390625,0.3643035888671875,0.3038482666015625
140319,0.3633880615234375,0.1841278076171875,0.32000732421875
140320,0.3633880615234375,0.1841278076171875,0.32000732421875
140321,0.3168182373046875,-0.10205078125,0.082366943359375
140322,0.3168182373046875,-0.10205078125,0.082366943359375
140323,0.3168182373046875,-0.10205078125,0.082366943359375
140324,0.2915496826171875,-0.1658172607421875,-0.1869354248046875
140325,0.2535400390625,-0.0536041259765625,-0.315765380859375
140326,0.28167724609375,0.0367584228515625,-0.251800537109375
140327,0.28167724609375,0.0367584228515625,-0.251800537109375
140328,0.2845611572265625,0.11724853515625,-0.1576690673828125
140329,0.1249542236328125,0.18548583984375,0.054656982421875
140330,0.1249542236328125,0.18548583984375,0.054656982421875
140331,0.1249542236328125,0.18548583984375,0.054656982421875
140332,0.041473388671875,0.19403076171875,0.1512908935546875
140333,-0.0807037353515625,0.2065887451171875,0.264007568359375
140334,-0.0807037353515625,0.2065887451171875,0.264007568359375
140335,-0.0993499755859375,0.171600341796875,0.2193450927734375
140336,-0.0993499755859375,0.171600341796875,0.2193450927734375
140337,-0.1999053955078125,0.1834716796875,0.2248687744140625
140338,-0.1999053955078125,0.1834716796875,0.2248687744140625
140339,-0.1999053955078125,0.1834716796875,0.2248687744140625
140340,-0.22955322265625,0.2008514404296875,0.2046661376953125
140341,-0.6155853271484375,-0.525665283203125,0.3921661376953125
140342,-0.6155853271484375,-0.525665283203125,0.3921661376953125
140343,-1.253799438476562,-0.723358154296875,0.7926025390625
140344,-2.649261474609375,-0.716552734375,1.280242919921875
140345,-4.506912231445312,1.992263793945312,2.677001953125
140346,-4.506912231445312,1.992263793945312,2.677001953125
140347,-4.076034545898438,2.164337158203125,2.237579345703125
140348,-4.076034545898438,2.164337158203125,2.237579345703125
140349,-1.091781616210938,4.067291259765625,2.023834228515625
140350,-1.091781616210938,4.067291259765625,2.023834228515625
140351,-1.091781616210938,4.067291259765625,2.023834228515625
140352,-0.1092376708984375,4.102554321289062,1.033905029296875
140353,-1.387374877929688,0.74188232421875,1.44525146484375
140354,-1.387374877929688,0.74188232421875,1.44525146484375
140355,-1.333724975585938,0.59698486328125,0.4970855712890625
140356,-1.333724975585938,0.59698486328125,0.4970855712890625
140357,-0.3015289306640625,0.9821624755859376,0.2414703369140625
140358,-0.3015289306640625,0.9821624755859376,0.2414703369140625
140359,-0.3015289306640625,0.9821624755859376,0.2414703369140625
140360,0.0131988525390625,1.043853759765625,0.14825439453125
140361,0.492706298828125,1.186599731445312,0.5452117919921875
140362,0.492706298828125,1.186599731445312,0.5452117919921875
140363,0.63433837890625,1.204147338867188,0.7509918212890625
140364,0.63433837890625,1.204147338867188,0.7509918212890625
140365,0.8992767333984375,0.971832275390625,0.4620208740234375
140366,0.8992767333984375,0.971832275390625,0.4620208740234375
140367,0.8992767333984375,0.971832275390625,0.4620208740234375
140368,0.9444732666015624,0.8607025146484375,0.4788055419921875
140369,0.6270904541015625,0.244232177734375,-0.093109130859375
140370,0.6270904541015625,0.244232177734375,-0.093109130859375
140371,0.6270904541015625,0.244232177734375,-0.093109130859375
140372,0.4541168212890625,0.02105712890625,-0.2292938232421875
140373,0.1138916015625,-0.2360687255859375,-0.271759033203125
140374,0.1138916015625,-0.2360687255859375,-0.271759033203125
140375,0.1138916015625,-0.2360687255859375,-0.271759033203125
140376,0.127349853515625,-0.1963958740234375,-0.2508392333984375
140377,0.296539306640625,-0.0244598388671875,-0.156402587890625
140378,0.296539306640625,-0.0244598388671875,-0.156402587890625
140379,0.296539306640625,-0.0244598388671875,-0.156402587890625
140380,0.3328704833984375,0.0313262939453125,-0.1062164306640625
140381,0.3475341796875,0.1990966796875,0.232513427734375
140382,0.3475341796875,0.1990966796875,0.232513427734375
140383,0.27984619140625,0.2476348876953125,0.3258209228515625
140384,0.179962158203125,0.2572479248046875,0.334228515625
140385,-0.1292266845703125,0.13232421875,0.2197723388671875
140386,-0.1292266845703125,0.13232421875,0.2197723388671875
140387,-0.1292266845703125,0.13232421875,0.2197723388671875
140388,-0.228240966796875,0.07275390625,0.182952880859375
140389,-0.6566009521484375,-0.032440185546875,0.1980133056640625
140390,-0.6566009521484375,-0.032440185546875,0.1980133056640625
140391,-0.866119384765625,-0.135284423828125,0.12481689453125
140392,-0.97857666015625,-0.265472412109375,0.1219024658203125
140393,-0.8962249755859375,-0.55584716796875,0.6074981689453125
140394,-0.8962249755859375,-0.55584716796875,0.6074981689453125
140395,-1.522445678710938,-0.356231689453125,1.6021728515625
140396,-2.934585571289062,0.7631072998046875,2.949203491210938
140397,-4.608917236328125,5.127716064453125,2.700225830078125
140398,-4.608917236328125,5.127716064453125,2.700225830078125
140399,-2.934295654296875,4.67364501953125,1.8314208984375
140400,-0.888824462890625,3.2686767578125,0.928253173828125
140401,-0.194549560546875,1.894775390625,0.39300537109375
140402,-0.194549560546875,1.894775390625,0.39300537109375
140403,-0.194549560546875,1.894775390625,0.39300537109375
140404,-0.9539337158203124,1.432022094726562,0.197479248046875
140405,-1.591293334960938,1.681411743164062,0.7853240966796875
140406,-1.591293334960938,1.681411743164062,0.7853240966796875
140407,-1.516098022460938,1.796096801757812,1.1142578125
140408,-1.516098022460938,1.796096801757812,1.1142578125
140409,0.877777099609375,1.046127319335938,0.76873779296875
140410,0.877777099609375,1.046127319335938,0.76873779296875
140411,1.373306274414062,1.016845703125,0.8787078857421875
140412,1.495620727539062,0.99578857421875,0.8592681884765625
140413,1.002838134765625,0.96826171875,0.8622894287109375
140414,1.002838134765625,0.96826171875,0.8622894287109375
140415,1.002838134765625,0.96826171875,0.8622894287109375
140416,0.837860107421875,1.0400390625,0.6857757568359375
140417,0.6089324951171875,0.6865081787109375,0.0791473388671875
140418,0.6089324951171875,0.6865081787109375,0.0791473388671875
140419,0.4454345703125,0.49072265625,-0.0372772216796875
140420,0.2922515869140625,0.281707763671875,-0.0706939697265625
140421,0.08941650390625,-0.0081939697265625,-0.0462799072265625
140422,0.08941650390625,-0.0081939697265625,-0.0462799072265625
140423,0.021697998046875,-0.115692138671875,-0.014617919921875
140424,0.021697998046875,-0.115692138671875,-0.014617919921875
140425,0.0235748291015625,-0.4316864013671875,-0.1947174072265625
140426,0.0235748291015625,-0.4316864013671875,-0.1947174072265625
140427,0.0468902587890625,-0.3098907470703125,-0.223876953125
140428,0.07318115234375,-0.1847381591796875,-0.2146759033203125
140429,0.12353515625,-0.074615478515625,-0.169281005859375
140430,0.12353515625,-0.074615478515625,-0.169281005859375
140431,0.12353515625,-0.074615478515625,-0.169281005859375
140432,0.1344146728515625,-0.0313262939453125,-0.0996856689453125
140433,0.083343505859375,0.1489410400390625,0.1864166259765625
140434,0.083343505859375,0.1489410400390625,0.1864166259765625
140435,-0.0019989013671875,0.176025390625,0.2570343017578125
140436,-0.0885772705078125,0.17730712890625,0.260101318359375
140437,-0.187408447265625,0.13275146484375,0.1269378662109375
140438,-0.187408447265625,0.13275146484375,0.1269378662109375
140439,-0.187408447265625,0.13275146484375,0.1269378662109375
140440,-0.236846923828125,0.0740966796875,0.07958984375
140441,-0.4838409423828125,-0.142578125,0.088714599609375
140442,-0.4838409423828125,-0.142578125,0.088714599609375
140443,-0.4838409423828125,-0.142578125,0.088714599609375
140444,-0.5420074462890625,-0.2380523681640625,0.234039306640625
140445,-0.27642822265625,-0.668365478515625,0.831298828125
140446,-0.27642822265625,-0.668365478515625,0.831298828125
140447,-0.2695770263671875,-0.5534210205078125,1.306564331054688
140448,-0.2695770263671875,-0.5534210205078125,1.306564331054688
140449,-3.08477783203125,2.006332397460938,3.33721923828125
140450,-4.521163940429688,5.757720947265625,4.152572631835938
140451,-2.8155517578125,7.998931884765625,4.514846801757812
140452,-2.8155517578125,7.998931884765625,4.514846801757812
140453,0.33001708984375,0.3011016845703125,0.6919708251953125
140454,0.33001708984375,0.3011016845703125,0.6919708251953125
140455,-0.4697113037109375,-0.811492919921875,0.2691192626953125
140456,-0.4697113037109375,-0.811492919921875,0.2691192626953125
140457,-1.909103393554688,1.117706298828125,1.196426391601562
140458,-1.909103393554688,1.117706298828125,1.196426391601562
140459,-1.909103393554688,1.117706298828125,1.196426391601562
140460,-1.63958740234375,1.988189697265625,1.385345458984375
140461,-0.082183837890625,1.540084838867188,0.392608642578125
140462,-0.082183837890625,1.540084838867188,0.392608642578125
140463,0.337738037109375,1.312088012695312,0.65423583984375
140464,0.9105072021484376,1.244674682617188,0.7639617919921875
140465,1.469253540039062,1.031158447265625,0.7767181396484375
140466,1.469253540039062,1.031158447265625,0.7767181396484375
140467,1.347488403320312,0.824951171875,0.6293792724609375
140468,1.347488403320312,0.824951171875,0.6293792724609375
140469,0.6545257568359375,0.385040283203125,-0.141845703125
140470,0.6545257568359375,0.385040283203125,-0.141845703125
140471,0.6545257568359375,0.385040283203125,-0.141845703125
140472,0.575408935546875,0.2186737060546875,-0.2078399658203125
140473,0.3365020751953125,-0.2682342529296875,-0.10882568359375
140474,0.3365020751953125,-0.2682342529296875,-0.10882568359375
140475,0.264923095703125,-0.3609771728515625,-0.1432342529296875
140476,0.2371673583984375,-0.36578369140625,-0.23712158203125
140477,0.27679443359375,-0.1469573974609375,-0.2996978759765625
140478,0.27679443359375,-0.1469573974609375,-0.2996978759765625
140479,0.27679443359375,-0.1469573974609375,-0.2996978759765625
140480,0.29541015625,-0.0634307861328125,-0.2534027099609375
140481,0.194976806640625,0.126129150390625,0.0657196044921875
140482,0.194976806640625,0.126129150390625,0.0657196044921875
140483,0.105010986328125,0.1833343505859375,0.15777587890625
140484,0.01641845703125,0.2196197509765625,0.177154541015625
140485,-0.1745758056640625,0.155731201171875,-0.02081298828125
140486,-0.1745758056640625,0.155731201171875,-0.02081298828125
140487,-0.30450439453125,0.0496978759765625,-0.16058349609375
140488,-0.4448699951171875,-0.02239990234375,-0.2686614990234375
140489,-0.67388916015625,-0.083251953125,-0.1502838134765625
140490,-0.67388916015625,-0.083251953125,-0.1502838134765625
140491,-0.67388916015625,-0.083251953125,-0.1502838134765625
140492,-0.73602294921875,-0.0980072021484375,-0.003692626953125
140493,-0.842254638671875,-0.28826904296875,0.229583740234375
140494,-0.842254638671875,-0.28826904296875,0.229583740234375
140495,-0.842254638671875,-0.28826904296875,0.229583740234375
140496,-0.5482177734375,-0.4939727783203125,0.665771484375
140497,-0.5719146728515625,-0.7297515869140625,2.512298583984375
140498,-1.181640625,0.2862548828125,5.520919799804688
140499,-3.705612182617188,3.943801879882812,4.94281005859375
140500,-3.947647094726562,6.705307006835938,4.960098266601562
140501,0.11907958984375,3.644805908203125,0.4150543212890625
140502,0.11907958984375,3.644805908203125,0.4150543212890625
140503,0.11907958984375,3.644805908203125,0.4150543212890625
140504,0.347137451171875,1.854949951171875,1.068771362304688
140505,-1.075057983398438,0.6525115966796875,0.611724853515625
140506,-1.075057983398438,0.6525115966796875,0.611724853515625
140507,-1.59381103515625,1.48516845703125,2.203414916992188
140508,-1.816635131835938,2.229766845703125,2.362060546875
140509,-0.500885009765625,1.342849731445312,1.12652587890625
140510,-0.500885009765625,1.342849731445312,1.12652587890625
140511,-0.500885009765625,1.342849731445312,1.12652587890625
140512,0.1261444091796875,0.9337310791015624,1.113143920898438
140513,1.079818725585938,0.6605682373046875,0.26556396484375
140514,1.079818725585938,0.6605682373046875,0.26556396484375
140515,0.82269287109375,0.6102447509765625,0.080780029296875
140516,0.82269287109375,0.6102447509765625,0.080780029296875
140517,0.5786285400390625,0.3098907470703125,0.213592529296875
140518,0.5786285400390625,0.3098907470703125,0.213592529296875
140519,0.5786285400390625,0.3098907470703125,0.213592529296875
140520,0.5536346435546875,0.199066162109375,0.1909027099609375
140521,0.5142364501953125,-0.042388916015625,0.1039581298828125
140522,0.5142364501953125,-0.042388916015625,0.1039581298828125
140523,0.429229736328125,-0.0657196044921875,0.0202789306640625
140524,0.35247802734375,-0.1453399658203125,-0.0224761962890625
140525,0.2093963623046875,-0.2669830322265625,-0.12640380859375
140526,0.2093963623046875,-0.2669830322265625,-0.12640380859375
140527,0.17626953125,-0.2368927001953125,-0.155609130859375
140528,0.112335205078125,-0.2004852294921875,-0.187408447265625
140529,-0.071929931640625,-0.0512237548828125,-0.1081695556640625
140530,-0.071929931640625,-0.0512237548828125,-0.1081695556640625
140531,-0.1740264892578125,0.0193328857421875,-0.04547119140625
140532,-0.257965087890625,0.068511962890625,-0.011688232421875
140533,-0.5279083251953125,0.1563873291015625,-0.18310546875
140534,-0.5279083251953125,0.1563873291015625,-0.18310546875
140535,-0.602691650390625,0.18084716796875,-0.1772918701171875
140536,-0.602691650390625,0.18084716796875,-0.1772918701171875
140537,-0.137420654296875,0.161529541015625,0.0527496337890625
140538,-0.137420654296875,0.161529541015625,0.0527496337890625
140539,-0.0098724365234375,0.1107635498046875,0.0244140625
140540,0.0823211669921875,0.04376220703125,0.026824951171875
140541,0.2397613525390625,-0.13299560546875,0.2835235595703125
140542,0.2397613525390625,-0.13299560546875,0.2835235595703125
140543,0.32940673828125,-0.1969146728515625,0.511138916015625
140544,0.3692779541015625,-0.143310546875,0.74700927734375
140545,0.216888427734375,0.3037261962890625,1.048431396484375
140546,0.216888427734375,0.3037261962890625,1.048431396484375
140547,-0.0595855712890625,0.59027099609375,1.269500732421875
140548,-0.872894287109375,1.4267578125,1.717803955078125
140549,-2.065048217773438,3.100830078125,1.985260009765625
140550,-3.198226928710938,4.864456176757812,2.108139038085938
140551,-3.198226928710938,4.864456176757812,2.108139038085938
140552,-3.355133056640625,5.068008422851562,2.341720581054688
140553,-0.67718505859375,0.6358489990234375,1.966094970703125
140554,-0.67718505859375,0.6358489990234375,1.966094970703125
140555,-0.1711273193359375,1.134246826171875,0.7597808837890625
140556,-0.0383148193359375,1.954116821289062,-0.1546783447265625
140557,-0.6155548095703125,2.2525634765625,0.622772216796875
140558,-1.281356811523438,2.642974853515625,1.250930786132812
140559,-1.424972534179688,2.939788818359375,1.145919799804688
140560,-1.038162231445312,2.175796508789062,1.122955322265625
140561,-0.0830535888671875,0.5313873291015625,0.8953094482421875
140562,-0.0830535888671875,0.5313873291015625,0.8953094482421875
140563,0.15447998046875,0.5210723876953125,0.6704864501953125
140564,0.2495269775390625,0.66339111328125,0.6343536376953125
140565,0.34906005859375,0.848388671875,0.9292144775390624
140566,0.34906005859375,0.848388671875,0.9292144775390624
140567,0.39227294921875,0.8852081298828125,0.95819091796875
140568,0.4516754150390625,0.881317138671875,0.82476806640625
140569,0.433135986328125,0.779327392578125,0.4506378173828125
140570,0.433135986328125,0.779327392578125,0.4506378173828125
140571,0.3593902587890625,0.602783203125,0.2959136962890625
140572,0.2400054931640625,0.401123046875,0.1671295166015625
140573,0.1595458984375,0.0664215087890625,-0.0643463134765625
140574,0.1595458984375,0.0664215087890625,-0.0643463134765625
140575,0.1466827392578125,-0.0533905029296875,-0.1670379638671875
140576,0.1247406005859375,-0.1508636474609375,-0.2379150390625
140577,0.2539215087890625,-0.1945343017578125,-0.2575225830078125
140578,0.2539215087890625,-0.1945343017578125,-0.2575225830078125
140579,0.376617431640625,-0.1031646728515625,-0.235321044921875
140580,0.476531982421875,-0.0032958984375,-0.1849212646484375
140581,0.495758056640625,0.0618133544921875,0.0379180908203125
140582,0.495758056640625,0.0618133544921875,0.0379180908203125
140583,0.447052001953125,0.066131591796875,0.1809539794921875
140584,0.3744659423828125,0.0786285400390625,0.3187255859375
140585,0.1936492919921875,0.172637939453125,0.3579254150390625
140586,0.1936492919921875,0.172637939453125,0.3579254150390625
140587,0.1194305419921875,0.2188568115234375,0.2244110107421875
140588,0.1194305419921875,0.2188568115234375,0.2244110107421875
140589,-0.0312652587890625,0.162506103515625,-0.14666748046875
140590,-0.0312652587890625,0.162506103515625,-0.14666748046875
140591,-0.080657958984375,0.1029205322265625,-0.154052734375
140592,-0.1270599365234375,0.01220703125,-0.09722900390625
140593,-0.364013671875,-0.2733001708984375,0.047027587890625
140594,-0.364013671875,-0.2733001708984375,0.047027587890625
140595,-0.364013671875,-0.2733001708984375,0.047027587890625
140596,-0.46990966796875,-0.543701171875,0.268096923828125
140597,-2.68719482421875,-1.406005859375,0.6916046142578125
140598,-2.68719482421875,-1.406005859375,0.6916046142578125
140599,-3.99627685546875,-0.7599945068359375,2.185302734375
140600,-4.17047119140625,0.1063232421875,1.69293212890625
140601,-4.389068603515625,1.912704467773438,2.400100708007812
140602,-4.389068603515625,1.912704467773438,2.400100708007812
140603,-4.389068603515625,1.912704467773438,2.400100708007812
140604,-3.509597778320312,3.089645385742188,3.787948608398438
140605,-0.5330963134765625,6.199493408203125,0.7451629638671875
140606,0.7359619140625,5.322586059570312,-0.0667724609375
140607,-0.22491455078125,2.521987915039062,0.4574432373046875
140608,-0.8216094970703125,0.7705230712890625,1.219528198242188
140609,-0.0361328125,-0.0763397216796875,1.930526733398438
140610,-0.0361328125,-0.0763397216796875,1.930526733398438
140611,0.1229248046875,0.730072021484375,1.420181274414062
140612,0.1511077880859375,0.9535064697265624,0.8171844482421875
140613,0.094024658203125,0.9786376953125,0.69488525390625
140614,-0.0102996826171875,1.153030395507812,0.6167449951171875
140615,-0.0102996826171875,1.153030395507812,0.6167449951171875
140616,-0.089141845703125,1.383804321289062,0.4910888671875
140617,0.33856201171875,1.373336791992188,0.145751953125
140618,0.33856201171875,1.373336791992188,0.145751953125
140619,0.50238037109375,1.24530029296875,0.113555908203125
140620,0.64202880859375,1.100601196289062,0.1020660400390625
140621,0.8416748046875,0.7159423828125,0.187469482421875
140622,0.8416748046875,0.7159423828125,0.187469482421875
140623,0.8495941162109375,0.4688262939453125,0.2927093505859375
140624,0.844696044921875,0.2092132568359375,0.3863525390625
140625,0.7395172119140625,-0.040130615234375,0.3782958984375
140626,0.7395172119140625,-0.040130615234375,0.3782958984375
140627,0.7395172119140625,-0.040130615234375,0.3782958984375
140628,0.6541748046875,-0.0394744873046875,0.23101806640625
140629,0.5034027099609375,-0.01361083984375,-0.468780517578125
140630,0.5034027099609375,-0.01361083984375,-0.468780517578125
140631,0.4865875244140625,0.0570220947265625,-0.559539794921875
140632,0.4865875244140625,0.0570220947265625,-0.559539794921875
140633,0.345428466796875,0.1609039306640625,-0.111724853515625
140634,0.345428466796875,0.1609039306640625,-0.111724853515625
140635,0.345428466796875,0.1609039306640625,-0.111724853515625
140636,0.300567626953125,0.1872711181640625,0.0626068115234375
140637,0.18902587890625,0.2363739013671875,0.1051177978515625
140638,0.18902587890625,0.2363739013671875,0.1051177978515625
140639,0.0759429931640625,0.2332763671875,0.083465576171875
140640,-0.0479278564453125,0.2293548583984375,0.04327392578125
140641,-0.1580810546875,0.19390869140625,0.0249786376953125
140642,-0.2101287841796875,0.1539764404296875,0.0676116943359375
140643,-0.24664306640625,0.09649658203125,0.1685028076171875
140644,-0.24664306640625,0.09649658203125,0.1685028076171875
140645,-0.6820220947265625,-0.1388092041015625,0.1441497802734375
140646,-0.6820220947265625,-0.1388092041015625,0.1441497802734375
140647,-0.7967529296875,-0.6293487548828125,0.08428955078125
140648,-1.038681030273438,-1.006439208984375,0.2088165283203125
140649,-1.992584228515625,-0.9851837158203124,0.7037506103515625
140650,-3.573074340820312,-0.600555419921875,2.32891845703125
140651,-4.449386596679688,0.7717437744140625,4.012832641601562
140652,-4.449386596679688,0.7717437744140625,4.012832641601562
140653,-1.219650268554688,2.3978271484375,1.654159545898438
140654,-1.219650268554688,2.3978271484375,1.654159545898438
140655,0.1353607177734375,3.09869384765625,0.934783935546875
140656,0.41619873046875,4.346435546875,0.0833740234375
140657,-1.752777099609375,2.1461181640625,0.6766815185546875
140658,-1.752777099609375,2.1461181640625,0.6766815185546875
140659,-1.752777099609375,2.1461181640625,0.6766815185546875
140660,-2.677200317382812,1.402450561523438,0.9501190185546876
140661,-1.130966186523438,1.159698486328125,1.047195434570312
140662,-1.130966186523438,1.159698486328125,1.047195434570312
140663,-0.295562744140625,1.450408935546875,0.62982177734375
140664,0.3542938232421875,1.392059326171875,0.4143829345703125
140665,0.930145263671875,1.607437133789062,0.5150299072265625
140666,0.930145263671875,1.607437133789062,0.5150299072265625
140667,0.83197021484375,1.649429321289062,0.397216796875
140668,0.4698333740234375,1.465179443359375,0.1122894287109375
140669,0.4687652587890625,1.215179443359375,0.037994384765625
140670,0.4687652587890625,1.215179443359375,0.037994384765625
140671,0.6253509521484375,1.034622192382812,0.17596435546875
140672,0.6253509521484375,1.034622192382812,0.17596435546875
140673,0.6471099853515625,0.658782958984375,0.13531494140625
140674,0.6471099853515625,0.658782958984375,0.13531494140625
140675,0.5199432373046875,0.4672698974609375,0.10345458984375
140676,0.42041015625,0.2642669677734375,0.0892333984375
140677,0.199066162109375,0.141326904296875,-0.08343505859375
140678,0.199066162109375,0.141326904296875,-0.08343505859375
140679,0.1608123779296875,0.10614013671875,-0.136474609375
140680,0.1840667724609375,0.0499420166015625,-0.1319732666015625
140681,0.2639923095703125,-0.017822265625,-0.21319580078125
140682,0.2639923095703125,-0.017822265625,-0.21319580078125
140683,0.2949676513671875,0.0019683837890625,-0.2697601318359375
140684,0.3386993408203125,0.03857421875,-0.24749755859375
140685,0.4360198974609375,0.1026458740234375,0.0097808837890625
140686,0.4360198974609375,0.1026458740234375,0.0097808837890625
140687,0.49713134765625,0.1214752197265625,0.1256256103515625
140688,0.5128936767578125,0.130767822265625,0.166778564453125
140689,0.3394317626953125,0.145721435546875,0.24383544921875
140690,0.3394317626953125,0.145721435546875,0.24383544921875
140691,0.2270050048828125,0.126312255859375,0.2720947265625
140692,0.0959625244140625,0.086029052734375,0.2823028564453125
140693,-0.177154541015625,-0.07745361328125,0.2581634521484375
140694,-0.177154541015625,-0.07745361328125,0.2581634521484375
140695,-0.3077545166015625,-0.0074462890625,0.300506591796875
140696,-0.4117431640625,0.0608978271484375,0.151824951171875
140697,-0.6645965576171875,-0.4032135009765625,0.0482635498046875
140698,-0.6645965576171875,-0.4032135009765625,0.0482635498046875
140699,-0.861968994140625,-0.6284332275390625,0.2251739501953125
140700,-2.240097045898438,-0.6382293701171875,0.4414825439453125
140701,-4.775115966796875,0.7194976806640625,2.1336669921875
140702,-4.775115966796875,0.7194976806640625,2.1336669921875
140703,-4.775115966796875,0.7194976806640625,2.1336669921875
140704,-4.440292358398438,1.366104125976562,0.334991455078125
140705,-1.410064697265625,3.279647827148438,3.474105834960938
140706,-1.410064697265625,3.279647827148438,3.474105834960938
140707,0.2806396484375,4.444244384765625,0.777984619140625
140708,0.26141357421875,4.56365966796875,0.088714599609375
140709,-2.06072998046875,1.785858154296875,0.8307952880859375
140710,-2.06072998046875,1.785858154296875,0.8307952880859375
140711,-1.8834228515625,0.8073577880859375,0.7687835693359375
140712,-1.295623779296875,0.7961578369140625,0.940155029296875
140713,-0.6083221435546875,1.414215087890625,0.848724365234375
140714,-0.6083221435546875,1.414215087890625,0.848724365234375
140715,-0.1234130859375,1.14532470703125,0.433685302734375
140716,0.228302001953125,1.035720825195312,0.425567626953125
140717,0.7932586669921875,1.654388427734375,0.68109130859375
140718,0.7932586669921875,1.654388427734375,0.68109130859375
140719,0.9359893798828124,1.990707397460938,0.480712890625
140720,0.86798095703125,1.807022094726562,0.384674072265625
140721,0.9970855712890624,1.285476684570312,0.3972930908203125
140722,0.9970855712890624,1.285476684570312,0.3972930908203125
140723,0.9970855712890624,1.285476684570312,0.3972930908203125
140724,1.004501342773438,1.103927612304688,0.42034912109375
140725,0.497589111328125,0.4830780029296875,0.16302490234375
140726,0.497589111328125,0.4830780029296875,0.16302490234375
140727,0.323699951171875,0.210205078125,0.01513671875
140728,0.267120361328125,-0.0179290771484375,-0.0288848876953125
140729,0.279571533203125,-0.2306365966796875,-0.221527099609375
140730,0.279571533203125,-0.2306365966796875,-0.221527099609375
140731,0.279571533203125,-0.2306365966796875,-0.221527099609375
140732,0.198028564453125,-0.26983642578125,-0.3456878662109375
140733,0.0746307373046875,-0.0037994384765625,-0.436767578125
140734,0.0746307373046875,-0.0037994384765625,-0.436767578125
140735,0.1442108154296875,0.047393798828125,-0.3147735595703125
140736,0.2049560546875,0.080902099609375,-0.206268310546875
140737,0.220489501953125,0.1214752197265625,-0.108642578125
140738,0.2061920166015625,0.1702117919921875,0.0184173583984375
140739,0.1944580078125,0.190155029296875,0.1545867919921875
140740,0.172119140625,0.1913604736328125,0.266021728515625
140741,-0.0477752685546875,0.1741943359375,0.2806854248046875
140742,-0.0477752685546875,0.1741943359375,0.2806854248046875
140743,-0.2224578857421875,0.1219940185546875,0.210968017578125
140744,-0.367950439453125,0.070220947265625,0.141815185546875
140745,-0.48590087890625,0.1514892578125,-0.0060882568359375
140746,-0.48590087890625,0.1514892578125,-0.0060882568359375
140747,-0.595001220703125,0.1788787841796875,-0.0923614501953125
140748,-0.7515869140625,0.080780029296875,-0.116912841796875
140749,-0.7012939453125,-0.1842041015625,0.04864501953125
140750,-0.5220794677734375,-0.611968994140625,0.3159332275390625
140751,-0.7083282470703125,-0.8784332275390625,0.768524169921875
140752,-1.593978881835938,-0.6529541015625,1.717819213867188
140753,-4.7196044921875,1.889511108398438,3.1099853515625
140754,-4.7196044921875,1.889511108398438,3.1099853515625
140755,-4.467620849609375,2.9075927734375,1.490325927734375
140756,-2.628662109375,2.243453979492188,1.478485107421875
140757,-0.74163818359375,1.949935913085938,1.614364624023438
140758,-0.2022705078125,2.744369506835938,0.887969970703125
140759,-0.2125396728515625,3.53900146484375,0.39324951171875
140760,-0.4772796630859375,3.612686157226562,-0.0654449462890625
140761,-2.0655517578125,2.6134033203125,-0.0128021240234375
140762,-2.0655517578125,2.6134033203125,-0.0128021240234375
140763,-2.085174560546875,2.120010375976562,0.6196441650390625
140764,-1.721511840820312,1.751419067382812,1.582717895507812
140765,-0.14276123046875,1.009323120117188,1.507247924804688
140766,-0.14276123046875,1.009323120117188,1.507247924804688
140767,0.6921844482421875,0.5942230224609375,1.1531982421875
140768,1.300262451171875,0.4696807861328125,0.9027099609375
140769,1.038314819335938,1.0072021484375,0.2723388671875
140770,1.038314819335938,1.0072021484375,0.2723388671875
140771,0.7943572998046875,1.342666625976562,-0.0849609375
140772,0.8365936279296875,1.445953369140625,-0.1175079345703125
140773,0.9121856689453124,1.164138793945312,0.23858642578125
140774,0.9121856689453124,1.164138793945312,0.23858642578125
140775,0.8101959228515625,0.976593017578125,0.438812255859375
140776,0.6016693115234375,0.7916717529296875,0.70098876953125
140777,0.112274169921875,0.1177825927734375,0.6027984619140625
140778,0.112274169921875,0.1177825927734375,0.6027984619140625
140779,-0.119384765625,-0.0878753662109375,0.1808319091796875
140780,-0.184295654296875,-0.1657867431640625,-0.0477142333984375
140781,0.137939453125,-0.018524169921875,-0.2596588134765625
140782,0.137939453125,-0.018524169921875,-0.2596588134765625
140783,0.2793731689453125,-0.01812744140625,-0.471435546875
140784,0.3506622314453125,-0.0361480712890625,-0.5715484619140625
140785,0.288848876953125,-0.1103363037109375,-0.4119720458984375
140786,0.288848876953125,-0.1103363037109375,-0.4119720458984375
140787,0.2527923583984375,-0.0811614990234375,-0.2076416015625
140788,0.220428466796875,-0.0374603271484375,0.0511322021484375
140789,0.1572418212890625,0.06658935546875,0.5354461669921875
140790,0.1572418212890625,0.06658935546875,0.5354461669921875
140791,0.098785400390625,0.1333770751953125,0.6479644775390625
140792,0.098785400390625,0.1333770751953125,0.6479644775390625
140793,-0.09466552734375,0.379852294921875,0.4166107177734375
140794,-0.09466552734375,0.379852294921875,0.4166107177734375
140795,-0.09466552734375,0.379852294921875,0.4166107177734375
140796,-0.1493072509765625,0.365692138671875,0.2993316650390625
140797,-0.41717529296875,0.0498199462890625,-0.1703033447265625
140798,-0.41717529296875,0.0498199462890625,-0.1703033447265625
140799,-0.548583984375,-0.0272674560546875,-0.3164215087890625
140800,-0.6378021240234375,-0.0952301025390625,-0.304718017578125
140801,-0.5756378173828125,-0.289886474609375,-0.0694580078125
140802,-0.63232421875,-0.4644927978515625,0.181976318359375
140803,-1.151718139648438,-0.3809051513671875,0.6174163818359375
140804,-2.277084350585938,0.00244140625,1.576339721679688
140805,-4.757705688476562,2.899627685546875,2.756072998046875
140806,-4.757705688476562,2.899627685546875,2.756072998046875
140807,-3.2835693359375,3.24237060546875,1.363555908203125
140808,-1.546371459960938,2.74017333984375,1.132568359375
140809,-0.343170166015625,3.1195068359375,0.6666412353515625
140810,-0.343170166015625,3.1195068359375,0.6666412353515625
140811,-0.637786865234375,3.462417602539062,0.5769805908203125
140812,-1.4302978515625,3.104751586914062,0.90704345703125
140813,-2.017440795898438,1.79730224609375,1.144622802734375
140814,-2.017440795898438,1.79730224609375,1.144622802734375
140815,-1.50439453125,1.582977294921875,1.277374267578125
140816,-0.7695770263671875,1.791748046875,1.11712646484375
140817,0.2749481201171875,1.504837036132812,0.3792266845703125
140818,0.2749481201171875,1.504837036132812,0.3792266845703125
140819,0.5989837646484375,1.252822875976562,0.5003814697265625
140820,0.826904296875,1.155715942382812,0.50201416015625
140821,0.548248291015625,1.256362915039062,-0.0745697021484375
140822,0.548248291015625,1.256362915039062,-0.0745697021484375
140823,0.4835205078125,1.34625244140625,0.0907440185546875
140824,0.558319091796875,1.132354736328125,0.312774658203125
140825,0.6027679443359375,0.56683349609375,0.595245361328125
140826,0.6027679443359375,0.56683349609375,0.595245361328125
140827,0.6328277587890625,0.339141845703125,0.6133880615234375
140828,0.613983154296875,0.12750244140625,0.569549560546875
140829,0.3990020751953125,-0.1785736083984375,0.259063720703125
140830,0.3990020751953125,-0.1785736083984375,0.259063720703125
140831,0.3243560791015625,-0.2075347900390625,0.109710693359375
140832,0.2832794189453125,-0.20318603515625,-0.013427734375
140833,0.2433319091796875,-0.067230224609375,-0.1628875732421875
140834,0.2433319091796875,-0.067230224609375,-0.1628875732421875
140835,0.248809814453125,0.00018310546875,-0.15814208984375
140836,0.2694549560546875,0.0558319091796875,-0.14862060546875
140837,0.31207275390625,0.1681060791015625,-0.2336883544921875
140838,0.31207275390625,0.1681060791015625,-0.2336883544921875
140839,0.243255615234375,0.233367919921875,-0.2571868896484375
140840,0.1235809326171875,0.26495361328125,-0.1788482666015625
140841,-0.119384765625,0.274658203125,0.0946197509765625
140842,-0.119384765625,0.274658203125,0.0946197509765625
140843,-0.130584716796875,0.2398681640625,0.118499755859375
140844,-0.1175994873046875,0.18951416015625,0.036224365234375
140845,-0.1634368896484375,0.1358184814453125,-0.0977783203125
140846,-0.1634368896484375,0.1358184814453125,-0.0977783203125
140847,-0.2252197265625,0.1020965576171875,-0.117156982421875
140848,-0.2252197265625,0.1020965576171875,-0.117156982421875
140849,-0.444183349609375,0.003936767578125,-0.1368560791015625
140850,-0.6079864501953125,-0.03826904296875,-0.1233367919921875
140851,-0.78179931640625,-0.0807342529296875,-0.117462158203125
140852,-0.9228668212890624,-0.1346435546875,-0.0512237548828125
140853,-0.93389892578125,-0.508056640625,0.5067596435546875
140854,-0.93389892578125,-0.508056640625,0.5067596435546875
140855,-1.0340576171875,-0.424530029296875,1.197967529296875
140856,-2.114288330078125,0.208099365234375,2.6776123046875
140857,-3.874343872070312,3.310989379882812,2.7523193359375
140858,-3.874343872070312,3.310989379882812,2.7523193359375
140859,-2.614013671875,3.2991943359375,1.101974487304688
140860,-0.9400482177734376,2.154205322265625,0.656829833984375
140861,-1.021942138671875,1.860488891601562,0.763946533203125
140862,-1.021942138671875,1.860488891601562,0.763946533203125
140863,-1.59771728515625,2.2108154296875,0.4749298095703125
140864,-1.963775634765625,2.611572265625,0.472625732421875
140865,-1.918746948242188,2.710693359375,0.441131591796875
140866,-1.918746948242188,2.710693359375,0.441131591796875
140867,-1.232925415039062,2.239166259765625,0.762481689453125
140868,-0.7080230712890625,1.827407836914062,1.028762817382812
140869,0.7380218505859375,0.1536102294921875,1.439849853515625
140870,0.7380218505859375,0.1536102294921875,1.439849853515625
140871,1.29693603515625,0.2020721435546875,1.678939819335938
140872,1.4849853515625,0.48065185546875,1.408126831054688
140873,1.014678955078125,1.229888916015625,0.02734375
140874,1.014678955078125,1.229888916015625,0.02734375
140875,1.07769775390625,1.646240234375,-0.209442138671875
140876,1.088424682617188,1.642181396484375,-0.1826019287109375
140877,0.903564453125,1.349334716796875,0.112548828125
140878,0.6438751220703125,0.9720001220703124,0.5806884765625
140879,0.557586669921875,0.6363525390625,0.9057159423828124
140880,0.5689239501953125,0.5559234619140625,0.8604583740234375
140881,0.5535125732421875,0.5450592041015625,0.603240966796875
140882,0.4561309814453125,0.506500244140625,0.181610107421875
140883,0.286529541015625,0.453826904296875,-0.2806549072265625
140884,0.1264495849609375,0.4095458984375,-0.5619049072265625
140885,0.019622802734375,0.354400634765625,-0.66864013671875
140886,0.019622802734375,0.354400634765625,-0.66864013671875
140887,0.0352935791015625,0.2888336181640625,-0.517425537109375
140888,0.091766357421875,0.1867523193359375,-0.32177734375
140889,0.1322174072265625,0.0834503173828125,-0.2634735107421875
140890,0.1040496826171875,0.02850341796875,-0.2876129150390625
140891,0.0067901611328125,0.0129852294921875,-0.2751922607421875
140892,-0.0577850341796875,-0.0127105712890625,-0.1725311279296875
140893,1.52587890625e-05,-0.0206451416015625,0.121124267578125
140894,1.52587890625e-05,-0.0206451416015625,0.121124267578125
140895,-0.0034332275390625,0.013702392578125,0.1916046142578125
140896,-0.075836181640625,0.0541839599609375,0.2308502197265625
140897,-0.3695526123046875,0.1723175048828125,0.2011260986328125
140898,-0.3695526123046875,0.1723175048828125,0.2011260986328125
140899,-0.4964141845703125,0.21051025390625,0.129425048828125
140900,-0.65216064453125,0.1917877197265625,0.05145263671875
140901,-0.856536865234375,-0.20587158203125,-0.1003570556640625
140902,-0.856536865234375,-0.20587158203125,-0.1003570556640625
140903,-0.8923492431640625,-0.377471923828125,0.0226898193359375
140904,-1.028518676757812,-0.45184326171875,0.4423675537109375
140905,-1.4931640625,-0.3948822021484375,1.142929077148438
140906,-2.421768188476562,-0.0224609375,2.517684936523438
140907,-3.753692626953125,1.217758178710938,3.238067626953125
140908,-4.410263061523438,2.606109619140625,2.23358154296875
140909,-3.272903442382812,2.520172119140625,1.686737060546875
140910,-1.762252807617188,2.177627563476562,1.529953002929688
140911,-0.9253082275390624,2.571685791015625,0.7571868896484375
140912,-0.5626983642578125,3.308868408203125,0.42626953125
140913,-1.085311889648438,2.981109619140625,1.653762817382812
140914,-1.085311889648438,2.981109619140625,1.653762817382812
140915,-1.0233154296875,2.086593627929688,1.776336669921875
140916,-0.426025390625,1.701187133789062,1.55780029296875
140917,0.65850830078125,1.274490356445312,1.620620727539062
140918,0.65850830078125,1.274490356445312,1.620620727539062
140919,0.5088653564453125,0.9806671142578124,0.7775726318359375
140920,0.127838134765625,0.91363525390625,0.5024566650390625
140921,-0.101654052734375,1.004409790039062,0.51300048828125
140922,-0.162445068359375,1.265579223632812,0.4435882568359375
140923,-0.2277679443359375,1.350112915039062,0.2082672119140625
140924,-0.225494384765625,1.27978515625,0.18756103515625
140925,0.29498291015625,1.460418701171875,0.574737548828125
140926,0.29498291015625,1.460418701171875,0.574737548828125
140927,0.6156158447265625,1.30328369140625,0.7581939697265625
140928,0.835601806640625,1.053237915039062,0.67034912109375
140929,0.6844482421875,0.6902313232421875,0.16552734375
140930,0.6844482421875,0.6902313232421875,0.16552734375
140931,0.502593994140625,0.5998077392578125,0.074432373046875
140932,0.3095855712890625,0.528350830078125,-0.01568603515625
140933,0.0330657958984375,0.31646728515625,-0.1231689453125
140934,0.0330657958984375,0.31646728515625,-0.1231689453125
140935,-0.011016845703125,0.205718994140625,-0.1551971435546875
140936,-0.0301055908203125,0.0988616943359375,-0.1828155517578125
140937,-0.05029296875,-0.0173492431640625,-0.192474365234375
140938,-0.0692291259765625,-0.1182861328125,-0.188385009765625
140939,-0.0699462890625,-0.1686248779296875,-0.1539764404296875
140940,-0.0347900390625,-0.1717376708984375,-0.0877838134765625
140941,0.0134735107421875,-0.1507415771484375,-0.01611328125
140942,0.059600830078125,-0.119964599609375,0.03936767578125
140943,0.0948944091796875,-0.0924530029296875,0.1041259765625
140944,0.112762451171875,-0.0877532958984375,0.1490478515625
140945,-0.0875396728515625,-0.0780792236328125,0.1462860107421875
140946,-0.0875396728515625,-0.0780792236328125,0.1462860107421875
140947,-0.3013763427734375,-0.06085205078125,0.1556243896484375
140948,-0.5444793701171875,-0.03155517578125,0.120147705078125
140949,-0.740509033203125,-0.012237548828125,0.02947998046875
140950,-0.8580322265625,-0.0064697265625,-0.1239013671875
140951,-0.911376953125,0.027862548828125,-0.2998504638671875
140952,-0.9464569091796876,0.011077880859375,-0.4224700927734375
140953,-0.8933563232421875,-0.0618133544921875,-0.3014068603515625
140954,-0.66339111328125,-0.07354736328125,0.2565155029296875
140955,-0.28192138671875,-0.0873260498046875,1.0994873046875
140956,-0.9083404541015624,1.212875366210938,2.091293334960938
140957,-0.9083404541015624,1.212875366210938,2.091293334960938
140958,-1.44464111328125,1.748748779296875,1.33306884765625
140959,-1.536636352539062,2.117050170898438,1.635772705078125
140960,-1.41796875,2.343963623046875,1.824188232421875
140961,-1.346023559570312,2.380218505859375,0.8605804443359375
140962,-1.09027099609375,2.503616333007812,0.6167755126953125
140963,-1.1787109375,2.693099975585938,0.8953094482421875
140964,-1.518447875976562,2.562820434570312,0.9846343994140624
140965,-1.856277465820312,2.205245971679688,0.9272308349609376
140966,-2.236114501953125,2.057144165039062,0.9474945068359376
140967,-2.383209228515625,2.14715576171875,1.118621826171875
140968,-1.874374389648438,2.074371337890625,1.0711669921875
140969,-0.247894287109375,1.957672119140625,1.222259521484375
140970,-0.247894287109375,1.957672119140625,1.222259521484375
140971,0.02325439453125,1.68280029296875,0.9518280029296876
140972,0.5105743408203125,0.9593353271484376,0.65380859375
140973,0.5105743408203125,0.9593353271484376,0.65380859375
140974,0.3613128662109375,0.798553466796875,0.669158935546875
140975,0.0415802001953125,0.6674041748046875,0.494293212890625
140976,0.0895538330078125,0.9965972900390624,0.17041015625
140977,0.0895538330078125,0.9965972900390624,0.17041015625
140978,0.0791778564453125,1.059371948242188,0.2303619384765625
140979,0.12347412109375,1.06927490234375,0.422882080078125
140980,0.25018310546875,1.015106201171875,0.622283935546875
140981,0.3856964111328125,0.86480712890625,0.712738037109375
140982,0.4888153076171875,0.6707305908203125,0.67462158203125
140983,0.4911346435546875,0.4141998291015625,0.53790283203125
140984,0.3589935302734375,0.1806793212890625,0.327972412109375
140985,0.2077178955078125,0.0312347412109375,0.1249542236328125
140986,0.1250762939453125,-0.048248291015625,-0.0173187255859375
140987,0.1087799072265625,-0.080902099609375,-0.12237548828125
140988,0.123443603515625,-0.1405181884765625,-0.2026519775390625
140989,0.1669769287109375,-0.244720458984375,-0.3197021484375
140990,0.1669769287109375,-0.244720458984375,-0.3197021484375
140991,0.2061614990234375,-0.23236083984375,-0.3405303955078125
140992,0.3010406494140625,-0.0927886962890625,-0.3010101318359375
140993,0.3010406494140625,-0.0927886962890625,-0.3010101318359375
140994,0.2104644775390625,0.039276123046875,-0.2090301513671875
140995,0.024383544921875,0.1707305908203125,-0.0645599365234375
140996,-0.162200927734375,0.2793731689453125,0.1065521240234375
140997,-0.4372100830078125,0.3454437255859375,0.231689453125
140998,-0.4372100830078125,0.3454437255859375,0.231689453125
140999,-0.51446533203125,0.307525634765625,0.1095123291015625
141000,-0.4126434326171875,0.3341827392578125,-0.0332183837890625
141001,-0.4126434326171875,0.3341827392578125,-0.0332183837890625
141002,-0.350921630859375,0.3148040771484375,-0.0839691162109375
141003,-0.3368377685546875,0.310546875,-0.12322998046875
141004,-0.3588104248046875,0.3018951416015625,-0.113525390625
141005,-0.38995361328125,0.2505950927734375,-0.118438720703125
141006,-0.38995361328125,0.2505950927734375,-0.118438720703125
141007,-0.418853759765625,0.1754913330078125,-0.1342010498046875
141008,-0.31756591796875,-0.089874267578125,0.2267608642578125
141009,-0.51251220703125,-0.183013916015625,1.1405029296875
141010,-0.51251220703125,-0.183013916015625,1.1405029296875
141011,-1.30303955078125,0.5677032470703125,3.460159301757812
141012,-2.589141845703125,2.464767456054688,5.170211791992188
141013,-0.672515869140625,4.8089599609375,2.010208129882812
141014,-0.672515869140625,4.8089599609375,2.010208129882812
141015,-0.0911102294921875,3.36993408203125,-0.1190338134765625
141016,-0.70989990234375,2.18853759765625,0.157806396484375
141017,-1.63604736328125,1.607894897460938,0.28167724609375
141018,-2.56134033203125,1.453338623046875,0.023101806640625
141019,-3.31982421875,1.983047485351562,0.8748626708984375
141020,-2.913726806640625,2.28839111328125,1.658660888671875
141021,-1.956436157226562,2.520919799804688,1.123260498046875
141022,-0.776275634765625,2.697250366210938,1.027801513671875
141023,0.2331695556640625,1.954910278320312,0.81640625
141024,0.51934814453125,1.291275024414062,0.98687744140625
141025,0.626983642578125,0.91033935546875,0.95367431640625
141026,0.6775360107421875,0.8631134033203125,0.545379638671875
141027,0.5487060546875,0.8860015869140625,0.0997467041015625
141028,0.4239501953125,0.960113525390625,-0.05877685546875
141029,0.466644287109375,0.8088531494140625,0.444427490234375
141030,0.466644287109375,0.8088531494140625,0.444427490234375
141031,0.501739501953125,0.66607666015625,0.6533050537109375
141032,0.5758819580078125,0.59002685546875,0.8112335205078125
141033,0.4908294677734375,0.459136962890625,0.531768798828125
141034,0.4908294677734375,0.459136962890625,0.531768798828125
141035,0.3987884521484375,0.41265869140625,0.24786376953125
141036,0.265350341796875,0.3575286865234375,0.0389251708984375
141037,0.133941650390625,0.2292633056640625,-0.0710601806640625
141038,0.054534912109375,0.125152587890625,-0.0556793212890625
141039,0.0506134033203125,0.100189208984375,-0.026763916015625
141040,0.072479248046875,0.0833740234375,-0.0618896484375
141041,0.0750579833984375,0.063934326171875,-0.1077728271484375
141042,0.0638885498046875,0.05279541015625,-0.1663360595703125
141043,0.0742034912109375,0.038665771484375,-0.204803466796875
141044,0.087066650390625,0.0165557861328125,-0.22540283203125
141045,0.1009979248046875,0.0116119384765625,-0.1981353759765625
141046,0.1291351318359375,0.0367889404296875,-0.1421356201171875
141047,0.1454925537109375,0.0533294677734375,-0.0646820068359375
141048,0.136505126953125,0.037841796875,0.0379791259765625
141049,0.095428466796875,0.02178955078125,0.1434173583984375
141050,0.095428466796875,0.02178955078125,0.1434173583984375
141051,0.0371551513671875,0.023956298828125,0.1903533935546875
141052,-0.10198974609375,0.041015625,-0.0040435791015625
141053,-0.262664794921875,0.1287841796875,-0.335113525390625
141054,-0.262664794921875,0.1287841796875,-0.335113525390625
141055,-0.3462677001953125,0.1506500244140625,-0.3284759521484375
141056,-0.4452972412109375,0.1757659912109375,-0.2678985595703125
141057,-0.5589447021484375,0.22369384765625,-0.2687225341796875
141058,-0.447265625,0.214508056640625,0.01129150390625
141059,-0.4152679443359375,-0.2268524169921875,0.43798828125
141060,-1.061386108398438,-0.4384765625,0.919677734375
141061,-2.399322509765625,-0.127593994140625,1.88397216796875
141062,-4.232955932617188,0.7255706787109375,3.878768920898438
141063,-4.148239135742188,2.072540283203125,4.565536499023438
141064,-1.82708740234375,2.186676025390625,2.413665771484375
141065,-0.1288299560546875,2.86138916015625,1.977432250976562
141066,-0.1288299560546875,2.86138916015625,1.977432250976562
141067,-0.6437835693359375,3.584976196289062,0.6666259765625
141068,-1.216278076171875,3.337814331054688,0.40728759765625
141069,-1.94085693359375,2.359039306640625,0.553619384765625
141070,-2.494735717773438,1.724151611328125,0.8990478515625
141071,-2.25396728515625,1.177734375,1.392654418945312
141072,-1.373916625976562,0.9280853271484376,1.65814208984375
141073,-0.8572845458984375,1.653289794921875,1.363784790039062
141074,0.1002044677734375,1.635787963867188,1.095474243164062
141075,0.5424957275390625,1.401458740234375,0.9168701171875
141076,0.7659759521484375,1.155502319335938,0.880523681640625
141077,0.649566650390625,0.6908416748046875,0.5296783447265625
141078,0.649566650390625,0.6908416748046875,0.5296783447265625
141079,0.3156280517578125,0.662811279296875,0.310455322265625
141080,0.2257843017578125,0.8523101806640625,0.2683868408203125
141081,0.3896636962890625,1.042709350585938,0.36285400390625
141082,0.3896636962890625,1.042709350585938,0.36285400390625
141083,0.5299072265625,0.9189300537109376,0.446044921875
141084,0.6426544189453125,0.7718963623046875,0.440673828125
141085,0.7205047607421875,0.5139312744140625,0.29925537109375
141086,0.7205047607421875,0.5139312744140625,0.29925537109375
141087,0.6931304931640625,0.3420257568359375,0.195770263671875
141088,0.583343505859375,0.172760009765625,0.1436767578125
141089,0.390869140625,0.0551300048828125,0.110382080078125
141090,0.390869140625,0.0551300048828125,0.110382080078125
141091,0.303985595703125,0.0078125,0.020538330078125
141092,0.17718505859375,-0.0355072021484375,-0.09564208984375
141093,0.0748291015625,-0.0589447021484375,-0.167755126953125
141094,0.0222320556640625,-0.071685791015625,-0.2198028564453125
141095,0.00885009765625,-0.0873565673828125,-0.2236175537109375
141096,0.0274658203125,-0.1168975830078125,-0.191497802734375
141097,0.0280609130859375,-0.139984130859375,-0.109619140625
141098,0.0280609130859375,-0.139984130859375,-0.109619140625
141099,-0.008331298828125,-0.1187744140625,-0.05572509765625
141100,-0.085845947265625,-0.0912933349609375,0.0100250244140625
141101,-0.2444915771484375,-0.000457763671875,0.179473876953125
141102,-0.2444915771484375,-0.000457763671875,0.179473876953125
141103,-0.218170166015625,0.0585784912109375,0.2315521240234375
141104,-0.1742095947265625,0.0680999755859375,0.274810791015625
141105,-0.162384033203125,0.0520477294921875,0.3072662353515625
141106,-0.162384033203125,0.0520477294921875,0.3072662353515625
141107,-0.22711181640625,0.053741455078125,0.2378692626953125
141108,-0.355743408203125,0.050506591796875,0.135711669921875
141109,-0.5436553955078125,0.071136474609375,0.0727691650390625
141110,-0.71044921875,0.1128082275390625,0.146270751953125
141111,-0.6684112548828125,0.14910888671875,0.4738006591796875
141112,-0.680755615234375,0.305419921875,0.8140869140625
141113,-2.65399169921875,2.4605712890625,3.218460083007812
141114,-2.65399169921875,2.4605712890625,3.218460083007812
141115,-3.767547607421875,4.880538940429688,3.421173095703125
141116,-2.100601196289062,5.376678466796875,2.0416259765625
141117,-0.699920654296875,3.976333618164062,0.26953125
141118,-0.3565826416015625,2.382781982421875,0.7651519775390625
141119,-0.4355621337890625,1.331817626953125,1.298294067382812
141120,-0.8682708740234375,0.8305816650390625,0.7330322265625
141121,-1.146255493164062,0.882781982421875,0.479461669921875
141122,-1.16436767578125,1.240875244140625,1.009048461914062
141123,-1.1453857421875,1.708328247070312,1.416000366210938
141124,-0.9658355712890624,1.969131469726562,1.17547607421875
141125,-0.17022705078125,1.56103515625,0.719940185546875
141126,-0.17022705078125,1.56103515625,0.719940185546875
141127,0.0101776123046875,1.193771362304688,0.8864898681640625
141128,0.2407379150390625,0.7553558349609375,0.866241455078125
141129,0.43023681640625,0.4282989501953125,0.5852813720703125
141130,0.412689208984375,0.2882232666015625,0.3840789794921875
141131,0.243865966796875,0.374420166015625,0.41070556640625
141132,0.157379150390625,0.612060546875,0.5637969970703125
141133,0.2336883544921875,0.8045196533203125,0.6541290283203125
141134,0.35443115234375,0.9191436767578124,0.6615753173828125
141135,0.4151153564453125,1.012039184570312,0.635009765625
141136,0.420318603515625,1.078475952148438,0.5978851318359375
141137,0.3817291259765625,1.06298828125,0.4974517822265625
141138,0.2769012451171875,0.9086151123046876,0.3500213623046875
141139,0.1679229736328125,0.6857147216796875,0.2693328857421875
141140,0.099273681640625,0.4788360595703125,0.2254486083984375
141141,0.04644775390625,0.3015289306640625,0.1179962158203125
141142,0.0438995361328125,0.1540069580078125,-0.0262298583984375
141143,0.11822509765625,0.018218994140625,-0.210601806640625
141144,0.1860198974609375,-0.1353302001953125,-0.4169158935546875
141145,0.263641357421875,-0.286956787109375,-0.6258697509765625
141146,0.263641357421875,-0.286956787109375,-0.6258697509765625
141147,0.2746429443359375,-0.2622833251953125,-0.5662078857421875
141148,0.2394561767578125,-0.211151123046875,-0.363739013671875
141149,0.2000732421875,-0.1203765869140625,-0.0917510986328125
141150,0.1676788330078125,-0.0206146240234375,0.1378326416015625
141151,0.120361328125,0.0572357177734375,0.29644775390625
141152,0.058074951171875,0.14129638671875,0.3428802490234375
141153,-0.0199737548828125,0.231781005859375,0.27508544921875
141154,-0.1617889404296875,0.2850341796875,0.1626434326171875
141155,-0.3733978271484375,0.261962890625,0.0366668701171875
141156,-0.7067718505859375,0.087493896484375,-0.24920654296875
141157,-0.7067718505859375,0.087493896484375,-0.24920654296875
141158,-0.739166259765625,0.0590057373046875,-0.2903900146484375
141159,-0.73681640625,0.029754638671875,-0.186859130859375
141160,-0.730194091796875,0.0002288818359375,-0.053466796875
141161,-0.6864166259765625,-0.0629119873046875,0.1601715087890625
141162,-0.5735626220703125,-0.1087799072265625,0.5817413330078125
141163,-0.644287109375,0.046722412109375,1.372482299804688
141164,-0.98333740234375,0.7813720703125,2.973526000976562
141165,-2.051071166992188,2.863601684570312,3.586685180664062
141166,-2.8123779296875,4.460128784179688,3.2366943359375
141167,-1.644073486328125,3.646759033203125,2.007095336914062
141168,-0.5834197998046875,2.1767578125,0.87945556640625
141169,-1.201797485351562,0.8984222412109375,1.90972900390625
141170,-1.201797485351562,0.8984222412109375,1.90972900390625
141171,-1.581802368164062,0.9598236083984376,0.7140655517578125
141172,-1.717361450195312,1.495834350585938,0.6229095458984375
141173,-1.74462890625,2.3431396484375,1.025253295898438
141174,-1.424453735351562,3.43548583984375,1.089889526367188
141175,-0.8479156494140625,3.93634033203125,0.910614013671875
141176,-0.212066650390625,3.021926879882812,0.8512725830078125
141177,0.3585662841796875,1.463790893554688,1.0264892578125
141178,0.77337646484375,0.5308685302734375,1.3812255859375
141179,0.9463653564453124,0.189727783203125,1.463516235351562
141180,0.74481201171875,0.0609893798828125,1.198333740234375
141181,0.3443603515625,0.1148223876953125,0.576507568359375
141182,0.1519775390625,0.369140625,0.2859344482421875
141183,0.16217041015625,0.670806884765625,0.4043121337890625
141184,0.3084869384765625,0.9696044921875,0.6085968017578125
141185,0.4686431884765625,1.11181640625,0.692779541015625
141186,0.5599365234375,1.059326171875,0.69024658203125
141187,0.666412353515625,0.8773956298828125,0.632080078125
141188,0.741058349609375,0.6656494140625,0.5421142578125
141189,0.6178436279296875,0.46185302734375,0.4105224609375
141190,0.4067230224609375,0.3389892578125,0.2423095703125
141191,0.2393646240234375,0.2604217529296875,0.1040802001953125
141192,0.12322998046875,0.1538238525390625,-0.0086669921875
141193,0.0186004638671875,0.036041259765625,-0.0930938720703125
141194,-0.063323974609375,-0.06890869140625,-0.141510009765625
141195,-0.1128997802734375,-0.145263671875,-0.2257537841796875
141196,-0.111053466796875,-0.2134552001953125,-0.302581787109375
141197,-0.05657958984375,-0.275115966796875,-0.3140716552734375
141198,0.010528564453125,-0.2927093505859375,-0.28350830078125
141199,0.057220458984375,-0.287628173828125,-0.2201995849609375
141200,0.09234619140625,-0.200653076171875,-0.0747528076171875
141201,0.09234619140625,-0.200653076171875,-0.0747528076171875
141202,0.0650177001953125,-0.104583740234375,-0.028564453125
141203,-0.0135498046875,0.0042572021484375,-0.002655029296875
141204,-0.1219635009765625,0.1097259521484375,0.022430419921875
141205,-0.2317352294921875,0.18133544921875,0.0382843017578125
141206,-0.2317352294921875,0.18133544921875,0.0382843017578125
141207,-0.30792236328125,0.2121734619140625,0.0154876708984375
141208,-0.22491455078125,0.1183013916015625,-0.074310302734375
141209,-0.22491455078125,0.1183013916015625,-0.074310302734375
141210,-0.107177734375,0.0439910888671875,-0.0277252197265625
141211,0.020538330078125,-0.0135650634765625,0.020416259765625
141212,0.0010223388671875,-0.221710205078125,-0.0062255859375
141213,0.0010223388671875,-0.221710205078125,-0.0062255859375
141214,0.2628021240234375,-0.491363525390625,0.4250030517578125
141215,0.29547119140625,-0.5799407958984375,0.6909332275390625
141216,-0.449188232421875,-0.1723480224609375,2.0699462890625
141217,-1.921112060546875,1.250961303710938,4.31829833984375
141218,-4.455703735351562,3.838470458984375,4.61077880859375
141219,-4.642623901367188,5.222152709960938,2.225357055664062
141220,-2.6142578125,3.985031127929688,0.5854949951171875
141221,-1.397247314453125,2.384506225585938,1.239181518554688
141222,-0.78033447265625,1.679885864257812,1.368499755859375
141223,-0.637420654296875,1.197738647460938,-0.02825927734375
141224,-1.191619873046875,1.180160522460938,-0.269561767578125
141225,-1.974624633789062,2.173568725585938,0.9380950927734376
141226,-1.974624633789062,2.173568725585938,0.9380950927734376
141227,-1.672439575195312,2.454986572265625,1.526397705078125
141228,-0.6917724609375,1.915969848632812,0.99688720703125
141229,-0.6917724609375,1.915969848632812,0.99688720703125
141230,0.5196380615234375,0.7801361083984375,0.804656982421875
141231,1.215850830078125,0.3779296875,1.267486572265625
141232,1.437057495117188,0.3173980712890625,1.420501708984375
141233,1.348724365234375,0.322113037109375,1.218841552734375
141234,0.862823486328125,0.166839599609375,0.81707763671875
141235,0.4992218017578125,0.3098602294921875,0.6168975830078125
141236,0.4932403564453125,0.622314453125,0.4984283447265625
141237,0.69451904296875,0.95263671875,0.2877349853515625
141238,0.69451904296875,0.95263671875,0.2877349853515625
141239,0.6200714111328125,1.046615600585938,0.286773681640625
141240,0.1919403076171875,0.9593048095703124,0.1926727294921875
141241,0.1919403076171875,0.9593048095703124,0.1926727294921875
141242,0.040252685546875,0.6617584228515625,0.175628662109375
141243,-0.0101470947265625,0.3405914306640625,0.1923828125
141244,-0.0400848388671875,0.11944580078125,0.1836090087890625
141245,0.071380615234375,-0.1923828125,0.16766357421875
141246,0.071380615234375,-0.1923828125,0.16766357421875
141247,0.0966644287109375,-0.293853759765625,0.025360107421875
141248,0.1011962890625,-0.353485107421875,-0.1556396484375
141249,0.1392669677734375,-0.35333251953125,-0.32000732421875
141250,0.1847076416015625,-0.284454345703125,-0.4170989990234375
141251,0.1847076416015625,-0.284454345703125,-0.4170989990234375
141252,0.2773284912109375,-0.1658172607421875,-0.35186767578125
141253,0.2865142822265625,-0.096099853515625,-0.28594970703125
141254,0.26165771484375,0.004119873046875,-0.1935272216796875
141255,0.20904541015625,0.1125030517578125,-0.0724334716796875
141256,0.1152801513671875,0.1990814208984375,0.047210693359375
141257,0.0114593505859375,0.25152587890625,0.13702392578125
141258,-0.0700836181640625,0.26617431640625,0.14788818359375
141259,-0.1334381103515625,0.2231292724609375,0.085784912109375
141260,-0.200408935546875,0.1673736572265625,-0.0130157470703125
141261,-0.264434814453125,0.1477508544921875,-0.0613250732421875
141262,-0.341064453125,0.1334991455078125,-0.07598876953125
141263,-0.4703826904296875,0.1050872802734375,-0.138946533203125
141264,-0.298065185546875,-0.3729095458984375,0.201416015625
141265,-0.298065185546875,-0.3729095458984375,0.201416015625
141266,-0.728271484375,-0.8880462646484375,-0.0299835205078125
141267,-2.066314697265625,-1.154388427734375,0.4631500244140625
141268,-3.578689575195312,-0.637054443359375,2.368682861328125
141269,-4.141937255859375,0.8956146240234375,3.335372924804688
141270,-4.17431640625,2.725418090820312,2.244461059570312
141271,-3.63720703125,4.028839111328125,1.8846435546875
141272,-2.058425903320312,4.673248291015625,2.2996826171875
141273,-0.3979339599609375,4.962081909179688,1.469314575195312
141274,0.4493408203125,4.18890380859375,0.114501953125
141275,-0.3332061767578125,2.451751708984375,-0.4734954833984375
141276,-1.975265502929688,0.887908935546875,0.6721954345703125
141277,-1.975265502929688,0.887908935546875,0.6721954345703125
141278,-2.134170532226562,0.78778076171875,1.276931762695312
141279,-2.01397705078125,0.9679718017578124,1.402191162109375
141280,-1.293121337890625,1.258956909179688,0.827484130859375
141281,0.0702362060546875,1.560455322265625,0.18817138671875
141282,0.0702362060546875,1.560455322265625,0.18817138671875
141283,0.41778564453125,1.622695922851562,0.437591552734375
141284,0.76104736328125,1.73834228515625,0.5381622314453125
141285,1.011825561523438,1.742172241210938,0.621612548828125
141286,1.028182983398438,1.500534057617188,0.6084136962890625
141287,0.9296722412109376,1.119873046875,0.5174713134765625
141288,0.96142578125,0.7809906005859375,0.4836883544921875
141289,0.9469451904296876,0.58038330078125,0.441680908203125
141290,0.8329010009765625,0.4458465576171875,0.3875579833984375
141291,0.7201690673828125,0.355194091796875,0.2954254150390625
141292,0.6124267578125,0.2902679443359375,0.148895263671875
141293,0.4690399169921875,0.1751251220703125,0.011566162109375
141294,0.31494140625,0.06085205078125,-0.0685272216796875
141295,0.172637939453125,0.00146484375,-0.128265380859375
141296,0.0836639404296875,-0.0272064208984375,-0.14581298828125
141297,0.04644775390625,-0.0496826171875,-0.147552490234375
141298,0.0786285400390625,-0.0774383544921875,-0.127899169921875
141299,0.143951416015625,-0.0678253173828125,-0.134857177734375
141300,0.2173614501953125,-0.00537109375,-0.153045654296875
141301,0.2173614501953125,-0.00537109375,-0.153045654296875
141302,0.256317138671875,0.0152740478515625,-0.18975830078125
141303,0.2563323974609375,0.028717041015625,-0.1689453125
141304,0.227783203125,0.0487060546875,-0.07293701171875
141305,0.1598968505859375,0.06591796875,-0.001922607421875
141306,0.0484161376953125,0.05780029296875,-0.00347900390625
141307,-0.0426483154296875,0.0096588134765625,-0.049224853515625
141308,-0.1236724853515625,-0.0533599853515625,-0.07958984375
141309,-0.1236724853515625,-0.0533599853515625,-0.07958984375
141310,-0.158966064453125,-0.044647216796875,-0.0426177978515625
141311,-0.2014007568359375,0.0063018798828125,0.0362701416015625
141312,-0.2740325927734375,0.10589599609375,0.07672119140625
141313,-0.3387451171875,0.17578125,0.030792236328125
141314,-0.3387451171875,0.17578125,0.030792236328125
141315,-0.467376708984375,0.1610565185546875,-0.09454345703125
141316,-0.7708282470703125,-0.097076416015625,-0.1085357666015625
141317,-0.7998199462890625,-0.29656982421875,0.171051025390625
141318,-1.138214111328125,-0.1371917724609375,1.422927856445312
141319,-1.96966552734375,0.67755126953125,4.8310546875
141320,-4.541778564453125,4.199844360351562,5.961288452148438
141321,-3.570053100585938,5.457916259765625,2.718231201171875
141322,-0.449981689453125,3.137191772460938,0.5348052978515625
141323,0.397705078125,2.026031494140625,-0.405426025390625
141324,-0.05633544921875,1.5897216796875,-0.49658203125
141325,-1.1248779296875,1.40924072265625,-0.6893463134765625
141326,-1.1248779296875,1.40924072265625,-0.6893463134765625
141327,-2.157943725585938,1.33477783203125,0.2765960693359375
141328,-3.706344604492188,2.977935791015625,0.92938232421875
141329,-3.706344604492188,2.977935791015625,0.92938232421875
141330,-1.827682495117188,2.33697509765625,1.413192749023438
141331,-0.039825439453125,2.065017700195312,0.25933837890625
141332,1.2320556640625,1.742416381835938,-0.1711883544921875
141333,1.967239379882812,1.343048095703125,0.403900146484375
141334,1.919189453125,1.121932983398438,1.01629638671875
141335,1.318923950195312,0.877410888671875,0.968292236328125
141336,0.6209716796875,0.7915802001953125,0.4700164794921875
141337,0.4122772216796875,0.9938201904296876,0.377227783203125
141338,0.356658935546875,1.033172607421875,0.3521728515625
141339,0.3668212890625,0.989044189453125,0.3601837158203125
141340,0.33721923828125,0.9223785400390624,0.408599853515625
141341,0.2013397216796875,0.8208465576171875,0.402618408203125
141342,0.0660552978515625,0.665557861328125,0.343536376953125
141343,-0.03839111328125,0.4718475341796875,0.2821502685546875
141344,-0.1576080322265625,0.1572418212890625,0.1195220947265625
141345,-0.1576080322265625,0.1572418212890625,0.1195220947265625
141346,-0.1888275146484375,0.0317840576171875,0.0847625732421875
141347,-0.1271514892578125,-0.1308135986328125,0.1031646728515625
141348,0.0305938720703125,-0.2568359375,0.0711669921875
141349,0.2335052490234375,-0.289154052734375,0.008056640625
141350,0.391326904296875,-0.30517578125,-0.087188720703125
141351,0.4509429931640625,-0.29180908203125,-0.1837158203125
141352,0.4062347412109375,-0.2536163330078125,-0.2302093505859375
141353,0.108489990234375,-0.0366363525390625,-0.1861419677734375
141354,0.108489990234375,-0.0366363525390625,-0.1861419677734375
141355,-0.0838165283203125,0.066925048828125,-0.116973876953125
141356,-0.265289306640625,0.16357421875,-0.0202178955078125
141357,-0.4068756103515625,0.2650909423828125,0.0565643310546875
141358,-0.4954071044921875,0.3461151123046875,0.0562744140625
141359,-0.542877197265625,0.391326904296875,-0.0162811279296875
141360,-0.5258636474609375,0.4024505615234375,-0.0800628662109375
141361,-0.486480712890625,0.3717498779296875,-0.102691650390625
141362,-0.47344970703125,0.3282928466796875,-0.084442138671875
141363,-0.5139007568359375,0.3050384521484375,-0.02984619140625
141364,-0.60540771484375,0.3023681640625,0.08172607421875
141365,-0.7273101806640625,0.301513671875,0.217376708984375
141366,-0.87689208984375,0.244720458984375,0.35198974609375
141367,-0.9091339111328124,0.0397796630859375,0.693206787109375
141368,-0.595489501953125,-0.281829833984375,1.21038818359375
141369,-0.9065093994140624,-0.0265045166015625,1.321807861328125
141370,-1.538803100585938,0.7325439453125,1.841079711914062
141371,-1.730239868164062,1.72332763671875,2.482452392578125
141372,-1.9599609375,2.966827392578125,2.937942504882812
141373,-1.644912719726562,3.81646728515625,2.26092529296875
141374,-0.7756805419921875,3.897003173828125,1.277786254882812
141375,-0.602081298828125,3.122634887695312,1.435195922851562
141376,-0.903411865234375,1.797317504882812,0.6181640625
141377,-0.903411865234375,1.797317504882812,0.6181640625
141378,-1.095901489257812,1.44598388671875,0.675018310546875
141379,-0.823211669921875,1.164474487304688,1.086929321289062
141380,-0.420684814453125,1.268753051757812,0.9910888671875
141381,-0.4014892578125,1.367111206054688,0.8914947509765625
141382,-0.3929443359375,1.155364990234375,1.060653686523438
141383,-0.1174163818359375,0.9381256103515624,1.214370727539062
141384,0.695068359375,0.7117462158203125,0.7364044189453125
141385,0.695068359375,0.7117462158203125,0.7364044189453125
141386,0.84381103515625,0.724517822265625,0.4540557861328125
141387,0.7722015380859375,0.8640899658203125,0.4045867919921875
141388,0.5964508056640625,1.0587158203125,0.5751953125
141389,0.5964508056640625,1.0587158203125,0.5751953125
141390,0.6817626953125,1.0025634765625,0.60528564453125
141391,0.7115478515625,0.961456298828125,0.5703887939453125
141392,0.6425628662109375,0.9281158447265624,0.4447174072265625
141393,0.472381591796875,0.850555419921875,0.2876129150390625
141394,0.472381591796875,0.850555419921875,0.2876129150390625
141395,0.2616119384765625,0.7582550048828125,0.1731719970703125
141396,-0.07916259765625,0.4923553466796875,-0.045257568359375
141397,-0.204132080078125,0.3070831298828125,-0.131866455078125
141398,-0.2418365478515625,0.1337738037109375,-0.196868896484375
141399,-0.2039794921875,-0.0134429931640625,-0.2576904296875
141400,-0.098724365234375,-0.1958160400390625,-0.3170013427734375
141401,-0.098724365234375,-0.1958160400390625,-0.3170013427734375
141402,-0.0453643798828125,-0.2374114990234375,-0.3543548583984375
141403,-0.0166473388671875,-0.2005767822265625,-0.3886260986328125
141404,0.06683349609375,-0.0748443603515625,-0.2422027587890625
141405,0.06683349609375,-0.0748443603515625,-0.2422027587890625
141406,0.093963623046875,-0.01495361328125,-0.135406494140625
141407,0.0767974853515625,0.006011962890625,0.0127410888671875
141408,-0.21728515625,-0.0775146484375,0.3110504150390625
141409,-0.21728515625,-0.0775146484375,0.3110504150390625
141410,-0.531494140625,-0.1753082275390625,0.356353759765625
141411,-0.8793792724609375,-0.290557861328125,0.2675933837890625
141412,-1.103302001953125,-0.30413818359375,-0.179962158203125
141413,-1.103302001953125,-0.30413818359375,-0.179962158203125
141414,-1.100448608398438,-0.2723388671875,-0.2504425048828125
141415,-0.9482269287109376,-0.2816925048828125,-0.02716064453125
141416,-0.6693267822265625,-0.369781494140625,0.2487640380859375
141417,-0.4300079345703125,-0.4376983642578125,0.8099365234375
141418,-0.4300079345703125,-0.4376983642578125,0.8099365234375
141419,-0.71746826171875,-0.1475982666015625,1.6190185546875
141420,-3.093490600585938,2.36932373046875,3.348007202148438
141421,-3.093490600585938,2.36932373046875,3.348007202148438
141422,-3.699005126953125,4.4024658203125,3.146224975585938
141423,-2.1678466796875,4.797698974609375,1.919525146484375
141424,0.4459228515625,2.376785278320312,1.293487548828125
141425,0.4459228515625,2.376785278320312,1.293487548828125
141426,0.4459228515625,2.376785278320312,1.293487548828125
141427,-0.4659881591796875,1.474655151367188,0.434417724609375
141428,-0.955291748046875,1.370025634765625,0.546844482421875
141429,-0.946807861328125,1.560195922851562,1.254470825195312
141430,-0.8527984619140625,1.843399047851562,1.646331787109375
141431,-0.830322265625,1.976425170898438,1.569122314453125
141432,-0.688385009765625,1.817047119140625,1.28204345703125
141433,-0.266845703125,1.56024169921875,1.042694091796875
141434,-0.266845703125,1.56024169921875,1.042694091796875
141435,0.323211669921875,1.316497802734375,0.9393463134765624
141436,0.291412353515625,1.29144287109375,0.367401123046875
141437,0.291412353515625,1.29144287109375,0.367401123046875
141438,0.291412353515625,1.29144287109375,0.367401123046875
141439,0.2457733154296875,1.488571166992188,0.4905242919921875
141440,0.6016998291015625,1.154266357421875,0.6183013916015625
141441,0.7117767333984375,0.926177978515625,0.625946044921875
141442,0.7599639892578125,0.7648162841796875,0.513702392578125
141443,0.7234954833984375,0.62664794921875,0.3226470947265625
141444,0.5973968505859375,0.553009033203125,0.11224365234375
141445,0.2241363525390625,0.3778228759765625,-0.1040496826171875
141446,0.2241363525390625,0.3778228759765625,-0.1040496826171875
141447,0.0740203857421875,0.231719970703125,-0.136383056640625
141448,-0.0648651123046875,0.0415802001953125,-0.15966796875
141449,-0.0648651123046875,0.0415802001953125,-0.15966796875
141450,-0.12396240234375,-0.096832275390625,-0.1774444580078125
141451,-0.12396240234375,-0.096832275390625,-0.1774444580078125
141452,-0.265228271484375,-0.37152099609375,-0.229339599609375
141453,-0.265228271484375,-0.37152099609375,-0.229339599609375
141454,-0.265228271484375,-0.37152099609375,-0.229339599609375
141455,-0.2419586181640625,-0.372955322265625,-0.2148895263671875
141456,-0.1994476318359375,-0.31085205078125,-0.15887451171875
141457,-0.2038726806640625,-0.28863525390625,-0.085906982421875
141458,-0.236785888671875,-0.2140045166015625,-0.0032806396484375
141459,-0.3040771484375,-0.069610595703125,0.07281494140625
141460,-0.4792938232421875,0.2225799560546875,0.2140350341796875
141461,-0.4792938232421875,0.2225799560546875,0.2140350341796875
141462,-0.4792938232421875,0.2225799560546875,0.2140350341796875
141463,-0.5069427490234375,0.31170654296875,0.2077789306640625
141464,-0.3688507080078125,0.371551513671875,-0.23876953125
141465,-0.3688507080078125,0.371551513671875,-0.23876953125
141466,-0.3943023681640625,0.297454833984375,-0.1791229248046875
141467,-0.4394989013671875,0.1960296630859375,-0.0045013427734375
141468,-0.478179931640625,0.120758056640625,0.3024749755859375
141469,-0.317901611328125,0.0302734375,0.7735595703125
141470,-0.317901611328125,0.0302734375,0.7735595703125
141471,-0.0440673828125,0.010040283203125,1.313507080078125
141472,-0.5874481201171875,1.3828125,3.35980224609375
141473,-0.675048828125,3.123580932617188,3.438262939453125
141474,-0.675048828125,3.123580932617188,3.438262939453125
141475,-0.392364501953125,4.3795166015625,2.444625854492188
141476,-1.497055053710938,2.33624267578125,1.329971313476562
141477,-1.497055053710938,2.33624267578125,1.329971313476562
141478,-2.034210205078125,1.47076416015625,1.396499633789062
141479,-2.10919189453125,1.195541381835938,1.15179443359375
141480,-1.271255493164062,1.604385375976562,1.37335205078125
141481,-1.271255493164062,1.604385375976562,1.37335205078125
141482,-0.9282073974609376,2.005706787109375,1.064193725585938
141483,-0.6555938720703125,2.192611694335938,0.936737060546875
141484,-0.01605224609375,2.037429809570312,0.8362579345703125
141485,-0.01605224609375,2.037429809570312,0.8362579345703125
141486,0.2530670166015625,1.576995849609375,0.78533935546875
141487,0.3014678955078125,0.982513427734375,0.6162872314453125
141488,0.0182037353515625,0.8308258056640625,0.684295654296875
141489,0.0182037353515625,0.8308258056640625,0.684295654296875
141490,0.1114044189453125,1.092071533203125,0.799591064453125
141491,0.3135223388671875,1.096405029296875,0.7759857177734375
141492,0.6119384765625,0.8493804931640625,0.6111907958984375
141493,0.6119384765625,0.8493804931640625,0.6111907958984375
141494,0.718719482421875,0.68389892578125,0.371917724609375
141495,0.7541046142578125,0.507110595703125,0.096038818359375
141496,0.526885986328125,0.2523193359375,-0.2123870849609375
141497,0.526885986328125,0.2523193359375,-0.2123870849609375
141498,0.526885986328125,0.2523193359375,-0.2123870849609375
141499,0.3684539794921875,0.1251373291015625,-0.1724700927734375
141500,0.1422271728515625,-0.0670623779296875,-0.1316375732421875
141501,0.1422271728515625,-0.0670623779296875,-0.1316375732421875
141502,0.1422271728515625,-0.0670623779296875,-0.1316375732421875
141503,0.099334716796875,-0.07568359375,-0.147125244140625
141504,-0.047454833984375,-0.141265869140625,-0.2198028564453125
141505,-0.047454833984375,-0.141265869140625,-0.2198028564453125
141506,-0.1013641357421875,-0.12176513671875,-0.2325592041015625
141507,-0.1337738037109375,-0.072052001953125,-0.2420654296875
141508,-0.226531982421875,0.080413818359375,-0.2018585205078125
141509,-0.226531982421875,0.080413818359375,-0.2018585205078125
141510,-0.3154296875,0.113128662109375,-0.1635284423828125
141511,-0.374267578125,0.12481689453125,-0.1617431640625
141512,-0.4292144775390625,0.083160400390625,-0.229248046875
141513,-0.4292144775390625,0.083160400390625,-0.229248046875
141514,-0.411285400390625,0.060943603515625,-0.264251708984375
141515,-0.3516998291015625,0.03302001953125,-0.2894134521484375
141516,-0.277191162109375,-0.11236572265625,-0.1412353515625
141517,-0.277191162109375,-0.11236572265625,-0.1412353515625
141518,-0.287811279296875,-0.2125244140625,0.1114044189453125
141519,-0.1654510498046875,-0.319366455078125,0.600555419921875
141520,0.0212860107421875,-0.1153106689453125,2.781326293945312
141521,0.0212860107421875,-0.1153106689453125,2.781326293945312
141522,-1.096786499023438,0.669403076171875,3.760482788085938
141523,-1.623199462890625,1.809005737304688,4.08441162109375
141524,-1.362289428710938,2.462051391601562,2.887939453125
141525,-1.362289428710938,2.462051391601562,2.887939453125
141526,-0.7127227783203125,2.51763916015625,1.532760620117188
141527,-0.7127227783203125,2.51763916015625,1.532760620117188
141528,-1.289566040039062,1.918685913085938,0.011474609375
141529,-1.289566040039062,1.918685913085938,0.011474609375
141530,-1.289566040039062,1.918685913085938,0.011474609375
141531,-1.806732177734375,1.9442138671875,1.141220092773438
141532,-1.09075927734375,1.054443359375,1.3759765625
141533,-1.09075927734375,1.054443359375,1.3759765625
141534,-0.59063720703125,0.9956512451171876,1.173324584960938
141535,-0.2076873779296875,1.138870239257812,1.014007568359375
141536,0.41387939453125,1.327911376953125,0.794586181640625
141537,0.41387939453125,1.327911376953125,0.794586181640625
141538,0.4583282470703125,1.260772705078125,0.77606201171875
141539,0.4583282470703125,1.260772705078125,0.77606201171875
141540,0.249481201171875,0.8011322021484375,0.965545654296875
141541,0.249481201171875,0.8011322021484375,0.965545654296875
141542,0.30291748046875,0.7248687744140625,0.920745849609375
141543,0.4276885986328125,0.6983184814453125,0.9063568115234376
141544,0.692535400390625,0.5245819091796875,0.7333831787109375
141545,0.692535400390625,0.5245819091796875,0.7333831787109375
141546,0.692535400390625,0.5245819091796875,0.7333831787109375
141547,0.67578125,0.4471435546875,0.49603271484375
141548,0.368072509765625,0.1847991943359375,-0.173797607421875
141549,0.368072509765625,0.1847991943359375,-0.173797607421875
141550,0.2097320556640625,0.1192626953125,-0.2510986328125
141551,0.2097320556640625,0.1192626953125,-0.2510986328125
141552,-0.0541534423828125,-0.045928955078125,-0.318511962890625
141553,-0.0541534423828125,-0.045928955078125,-0.318511962890625
141554,-0.104461669921875,-0.0788726806640625,-0.367034912109375
141555,-0.104461669921875,-0.0788726806640625,-0.367034912109375
141556,0.005279541015625,-0.0816192626953125,-0.1922607421875
141557,0.005279541015625,-0.0816192626953125,-0.1922607421875
141558,0.005279541015625,-0.0816192626953125,-0.1922607421875
141559,0.0704345703125,-0.0446624755859375,-0.07830810546875
141560,0.1511688232421875,0.1746063232421875,0.2281646728515625
141561,0.1511688232421875,0.1746063232421875,0.2281646728515625
141562,0.1175384521484375,0.2673187255859375,0.301666259765625
141563,0.1175384521484375,0.2673187255859375,0.301666259765625
141564,-0.1337738037109375,0.27813720703125,0.21966552734375
141565,-0.1337738037109375,0.27813720703125,0.21966552734375
141566,-0.1337738037109375,0.27813720703125,0.21966552734375
141567,-0.2216796875,0.1448211669921875,0.0952606201171875
141568,-0.5690765380859375,-0.3380279541015625,-0.1250152587890625
141569,-0.5690765380859375,-0.3380279541015625,-0.1250152587890625
141570,-0.685882568359375,-0.4257659912109375,0.0529937744140625
141571,-0.685882568359375,-0.4257659912109375,0.0529937744140625
141572,-0.3729400634765625,-0.1646881103515625,1.550277709960938
141573,-0.3729400634765625,-0.1646881103515625,1.550277709960938
141574,-1.6370849609375,1.14251708984375,2.415771484375
141575,-3.331283569335938,3.758697509765625,3.498458862304688
141576,-1.800689697265625,5.913955688476562,2.73834228515625
141577,-1.800689697265625,5.913955688476562,2.73834228515625
141578,-0.3153533935546875,2.889007568359375,1.510528564453125
141579,-0.3153533935546875,2.889007568359375,1.510528564453125
141580,-0.04278564453125,0.751678466796875,0.3753509521484375
141581,-0.04278564453125,0.751678466796875,0.3753509521484375
141582,-0.5827178955078125,1.210433959960938,0.6011505126953125
141583,-0.9144744873046876,1.773239135742188,0.4813079833984375
141584,-1.63543701171875,2.860916137695312,1.544662475585938
141585,-1.63543701171875,2.860916137695312,1.544662475585938
141586,-1.264083862304688,2.04229736328125,1.239990234375
141587,-0.245452880859375,1.09454345703125,0.848846435546875
141588,0.8019561767578125,0.8355712890625,0.6603851318359375
141589,0.8019561767578125,0.8355712890625,0.6603851318359375
141590,0.8019561767578125,0.8355712890625,0.6603851318359375
141591,0.7875823974609375,0.8020477294921875,0.8189849853515625
141592,0.363189697265625,0.6523284912109375,0.71435546875
141593,0.363189697265625,0.6523284912109375,0.71435546875
141594,0.363189697265625,0.6523284912109375,0.71435546875
141595,0.3917388916015625,0.7268218994140625,0.64715576171875
141596,0.560699462890625,0.7056732177734375,0.1644287109375
141597,0.560699462890625,0.7056732177734375,0.1644287109375
141598,0.5073394775390625,0.571319580078125,0.019256591796875
141599,0.3884735107421875,0.357330322265625,-0.0615234375
141600,0.198455810546875,0.043975830078125,-0.1202545166015625
141601,0.198455810546875,0.043975830078125,-0.1202545166015625
141602,0.198455810546875,0.043975830078125,-0.1202545166015625
141603,0.1199493408203125,-0.0274505615234375,-0.0858917236328125
141604,0.0211639404296875,-0.265106201171875,-0.1819305419921875
141605,0.0211639404296875,-0.265106201171875,-0.1819305419921875
141606,0.0211639404296875,-0.265106201171875,-0.1819305419921875
141607,0.022491455078125,-0.2167510986328125,-0.236114501953125
141608,-0.010955810546875,-0.1168060302734375,-0.0436859130859375
141609,-0.010955810546875,-0.1168060302734375,-0.0436859130859375
141610,-0.010955810546875,-0.1168060302734375,-0.0436859130859375
141611,-0.00616455078125,-0.0853118896484375,0.0605926513671875
141612,-0.1863861083984375,0.1001434326171875,0.260833740234375
141613,-0.1863861083984375,0.1001434326171875,0.260833740234375
141614,-0.1863861083984375,0.1001434326171875,0.260833740234375
141615,-0.3636016845703125,0.101531982421875,0.2061614990234375
141616,-0.5297088623046875,-0.1015777587890625,-0.0782623291015625
141617,-0.452545166015625,-0.212738037109375,-0.142059326171875
141618,-0.452545166015625,-0.212738037109375,-0.142059326171875
141619,-0.302459716796875,-0.315399169921875,-0.149566650390625
141620,0.145660400390625,-0.533660888671875,0.0701751708984375
141621,0.145660400390625,-0.533660888671875,0.0701751708984375
141622,0.2024688720703125,-0.4745330810546875,0.1712493896484375
141623,0.3325347900390625,-0.3615264892578125,0.4729156494140625
141624,-0.24627685546875,1.198684692382812,2.713638305664062
141625,-0.24627685546875,1.198684692382812,2.713638305664062
141626,-2.170501708984375,4.944473266601562,4.149383544921875
141627,-2.170501708984375,4.944473266601562,4.149383544921875
141628,-0.9559173583984376,2.323135375976562,0.8075714111328125
141629,-0.9559173583984376,2.323135375976562,0.8075714111328125
141630,-0.59033203125,0.8974456787109375,1.93414306640625
141631,-0.596099853515625,0.3357391357421875,1.135711669921875
141632,-1.020095825195312,1.196792602539062,-0.323883056640625
141633,-1.020095825195312,1.196792602539062,-0.323883056640625
141634,-1.020095825195312,1.196792602539062,-0.323883056640625
141635,-1.276107788085938,1.801742553710938,0.2371978759765625
141636,-1.51544189453125,2.114105224609375,1.903366088867188
141637,-1.51544189453125,2.114105224609375,1.903366088867188
141638,-0.4539031982421875,0.640167236328125,1.1959228515625
141639,0.50848388671875,0.216400146484375,1.114349365234375
141640,1.082550048828125,0.490814208984375,1.199249267578125
141641,1.082550048828125,0.490814208984375,1.199249267578125
141642,1.082550048828125,0.490814208984375,1.199249267578125
141643,0.8256072998046875,0.5553436279296875,0.9726715087890624
141644,0.15087890625,0.7918548583984375,0.53802490234375
141645,0.15087890625,0.7918548583984375,0.53802490234375
141646,0.3045654296875,0.90753173828125,0.40753173828125
141647,0.455169677734375,0.85540771484375,0.249908447265625
141648,0.534088134765625,0.760833740234375,0.156219482421875
141649,0.5577545166015625,0.6538238525390625,0.1142425537109375
141650,0.5577545166015625,0.6538238525390625,0.1142425537109375
141651,0.53570556640625,0.5039215087890625,0.0581512451171875
141652,0.25994873046875,-0.0133056640625,0.147979736328125
141653,0.25994873046875,-0.0133056640625,0.147979736328125
141654,0.25994873046875,-0.0133056640625,0.147979736328125
141655,0.2115631103515625,-0.06329345703125,0.149688720703125
141656,0.248748779296875,-0.110198974609375,-0.35565185546875
141657,0.248748779296875,-0.110198974609375,-0.35565185546875
141658,0.277923583984375,-0.0452880859375,-0.3152923583984375
141659,0.3299560546875,-0.009063720703125,-0.249969482421875
141660,0.3948974609375,0.0410308837890625,-0.108123779296875
141661,0.3948974609375,0.0410308837890625,-0.108123779296875
141662,0.38311767578125,0.053497314453125,-0.0430145263671875
141663,0.38311767578125,0.053497314453125,-0.0430145263671875
141664,0.0894622802734375,0.0102081298828125,0.2817535400390625
141665,0.0894622802734375,0.0102081298828125,0.2817535400390625
141666,-0.060943603515625,-0.0778045654296875,0.3734893798828125
141667,-0.180633544921875,-0.135833740234375,0.312896728515625
141668,-0.365997314453125,-0.202056884765625,0.1226043701171875
141669,-0.365997314453125,-0.202056884765625,0.1226043701171875
141670,-0.365997314453125,-0.202056884765625,0.1226043701171875
141671,-0.48272705078125,-0.2274322509765625,-0.025299072265625
141672,-0.747802734375,-0.454742431640625,0.257476806640625
141673,-0.747802734375,-0.454742431640625,0.257476806640625
141674,-1.061614990234375,-0.431182861328125,0.513702392578125
141675,-1.878677368164062,-0.3193206787109375,0.9551544189453124
141676,-4.403762817382812,3.056930541992188,3.12823486328125
141677,-4.403762817382812,3.056930541992188,3.12823486328125
141678,-4.232528686523438,5.160308837890625,2.084274291992188
141679,-4.232528686523438,5.160308837890625,2.084274291992188
141680,0.6085052490234375,2.0950927734375,1.557266235351562
141681,0.6085052490234375,2.0950927734375,1.557266235351562
141682,0.93560791015625,1.668930053710938,1.496780395507812
141683,0.6898345947265625,1.369903564453125,1.508560180664062
141684,-0.797821044921875,1.155776977539062,0.967315673828125
141685,-0.797821044921875,1.155776977539062,0.967315673828125
141686,-1.25830078125,1.540908813476562,1.203170776367188
141687,-1.25830078125,1.540908813476562,1.203170776367188
141688,-0.6305694580078125,1.11627197265625,0.6819305419921875
141689,-0.6305694580078125,1.11627197265625,0.6819305419921875
141690,0.0128173828125,0.873016357421875,0.5582733154296875
141691,0.471954345703125,0.7928314208984375,0.5538177490234375
141692,0.8028717041015625,0.7433319091796875,0.5233306884765625
141693,0.8028717041015625,0.7433319091796875,0.5233306884765625
141694,0.62115478515625,0.665008544921875,0.56439208984375
141695,0.3556365966796875,0.6352081298828125,0.64251708984375
141696,0.2945404052734375,0.81817626953125,0.607421875
141697,0.2945404052734375,0.81817626953125,0.607421875
141698,0.435150146484375,0.8301239013671875,0.548858642578125
141699,0.60845947265625,0.801971435546875,0.4987945556640625
141700,0.745086669921875,0.74981689453125,0.3270111083984375
141701,0.745086669921875,0.74981689453125,0.3270111083984375
141702,0.745086669921875,0.74981689453125,0.3270111083984375
141703,0.7479095458984375,0.6380615234375,0.16778564453125
141704,0.4420623779296875,0.172454833984375,-0.0423736572265625
141705,0.4420623779296875,0.172454833984375,-0.0423736572265625
141706,0.4420623779296875,0.172454833984375,-0.0423736572265625
141707,0.3514556884765625,0.0558319091796875,-0.1191558837890625
141708,0.3129730224609375,-0.2336578369140625,-0.23828125
141709,0.3129730224609375,-0.2336578369140625,-0.23828125
141710,0.37872314453125,-0.1820526123046875,-0.1480560302734375
141711,0.37872314453125,-0.1820526123046875,-0.1480560302734375
141712,0.44464111328125,-0.0493011474609375,-0.056884765625
141713,0.44464111328125,-0.0493011474609375,-0.056884765625
141714,0.43804931640625,-0.0213623046875,-0.0553741455078125
141715,0.43804931640625,-0.0213623046875,-0.0553741455078125
141716,0.243072509765625,0.0823822021484375,0.2691192626953125
141717,0.243072509765625,0.0823822021484375,0.2691192626953125
141718,0.243072509765625,0.0823822021484375,0.2691192626953125
141719,0.1196746826171875,0.119781494140625,0.3618316650390625
141720,-0.376678466796875,-0.1185760498046875,0.180511474609375
141721,-0.376678466796875,-0.1185760498046875,0.180511474609375
141722,-0.5598297119140625,-0.2464752197265625,0.1067962646484375
141723,-0.73199462890625,-0.359161376953125,0.0885772705078125
141724,-0.787689208984375,-0.3267059326171875,-0.1266326904296875
141725,-0.787689208984375,-0.3267059326171875,-0.1266326904296875
141726,-0.742767333984375,-0.368927001953125,0.0959014892578125
141727,-0.8616943359375,-0.3575439453125,0.7427520751953125
141728,-3.336639404296875,1.955062866210938,3.11517333984375
141729,-3.336639404296875,1.955062866210938,3.11517333984375
141730,-4.766189575195312,5.140625,3.90802001953125
141731,-3.46942138671875,6.2642822265625,2.023696899414062
141732,-0.0765533447265625,2.105987548828125,1.054672241210938
141733,-0.0765533447265625,2.105987548828125,1.054672241210938
141734,0.288970947265625,1.014923095703125,1.295135498046875
141735,0.337646484375,0.7073516845703125,1.328048706054688
141736,-1.00128173828125,0.9554443359375,0.7438201904296875
141737,-1.00128173828125,0.9554443359375,0.7438201904296875
141738,-1.341644287109375,1.275833129882812,0.6651611328125
141739,-1.596939086914062,1.847122192382812,1.1085205078125
141740,-1.809295654296875,1.988128662109375,1.17822265625
141741,-1.384719848632812,1.475051879882812,0.8339385986328125
141742,-0.584075927734375,0.9035797119140624,0.58984375
141743,0.134765625,0.5997467041015625,0.5249786376953125
141744,0.8110198974609375,0.7159423828125,0.574432373046875
141745,0.8110198974609375,0.7159423828125,0.574432373046875
141746,0.8110198974609375,0.7159423828125,0.574432373046875
141747,0.775482177734375,0.9332733154296876,0.55657958984375
141748,0.516693115234375,1.006484985351562,0.4355621337890625
141749,0.5616455078125,0.9799346923828124,0.348358154296875
141750,0.72161865234375,0.9482269287109376,0.2867279052734375
141751,0.8402862548828125,0.9219970703125,0.2210845947265625
141752,0.7486419677734375,0.7084503173828125,0.0196685791015625
141753,0.7486419677734375,0.7084503173828125,0.0196685791015625
141754,0.7486419677734375,0.7084503173828125,0.0196685791015625
141755,0.602294921875,0.4291839599609375,-0.0944366455078125
141756,0.2189788818359375,0.0631103515625,-0.0887451171875
141757,0.2189788818359375,0.0631103515625,-0.0887451171875
141758,0.1741790771484375,-0.0376739501953125,-0.1343841552734375
141759,0.1563262939453125,-0.113067626953125,-0.18548583984375
141760,0.1655731201171875,-0.1300506591796875,-0.1204986572265625
141761,0.1655731201171875,-0.1300506591796875,-0.1204986572265625
141762,0.1844024658203125,-0.10491943359375,-0.024017333984375
141763,0.2005462646484375,-0.10931396484375,0.0548095703125
141764,0.2466888427734375,-0.15045166015625,0.0732269287109375
141765,0.2466888427734375,-0.15045166015625,0.0732269287109375
141766,0.2307891845703125,-0.135986328125,0.1033935546875
141767,0.1575469970703125,-0.100311279296875,0.178680419921875
141768,-0.140716552734375,-0.0014190673828125,0.23126220703125
141769,-0.140716552734375,-0.0014190673828125,0.23126220703125
141770,-0.2789306640625,-0.031829833984375,0.2292327880859375
141771,-0.37249755859375,-0.0807342529296875,0.132415771484375
141772,-0.2292633056640625,-0.040191650390625,0.0039215087890625
141773,-0.2292633056640625,-0.040191650390625,0.0039215087890625
141774,-0.0656585693359375,0.004425048828125,0.1121673583984375
141775,0.0977630615234375,0.1151885986328125,0.3538970947265625
141776,0.279388427734375,0.582763671875,1.345535278320312
141777,0.279388427734375,0.582763671875,1.345535278320312
141778,0.0465545654296875,1.303314208984375,2.2432861328125
141779,-0.6418609619140625,2.9462890625,2.4990234375
141780,-1.560256958007812,4.251541137695312,1.68194580078125
141781,-1.560256958007812,4.251541137695312,1.68194580078125
141782,-1.616989135742188,3.093963623046875,0.82012939453125
141783,-1.245391845703125,2.151641845703125,1.087661743164062
141784,-1.156570434570312,0.9282989501953124,0.5143280029296875
141785,-1.156570434570312,0.9282989501953124,0.5143280029296875
141786,-1.276168823242188,1.431671142578125,0.4572601318359375
141787,-1.028915405273438,2.275466918945312,0.8150482177734375
141788,-0.278106689453125,2.715713500976562,1.66436767578125
141789,-0.278106689453125,2.715713500976562,1.66436767578125
141790,0.14324951171875,1.843612670898438,1.383224487304688
141791,0.2742462158203125,1.130477905273438,1.127334594726562
141792,0.328338623046875,0.72003173828125,0.9651947021484376
141793,0.328338623046875,0.72003173828125,0.9651947021484376
141794,0.1939697265625,0.769683837890625,0.6116180419921875
141795,-0.090362548828125,0.9234771728515624,0.3485260009765625
141796,-0.5781402587890625,1.257614135742188,0.46630859375
141797,-0.5781402587890625,1.257614135742188,0.46630859375
141798,-0.58758544921875,1.311614990234375,0.46807861328125
141799,-0.3431243896484375,1.30584716796875,0.462158203125
141800,0.1325836181640625,1.211318969726562,0.44512939453125
141801,0.5526123046875,1.024337768554688,0.37554931640625
141802,0.704864501953125,0.7757568359375,0.2700958251953125
141803,0.5922698974609375,0.49517822265625,0.113861083984375
141804,0.3602752685546875,0.0440521240234375,-0.0189208984375
141805,0.3602752685546875,0.0440521240234375,-0.0189208984375
141806,0.3649749755859375,-0.0424346923828125,-0.0684967041015625
141807,0.3928375244140625,-0.1102447509765625,-0.146087646484375
141808,0.380035400390625,-0.2707366943359375,-0.3710174560546875
141809,0.380035400390625,-0.2707366943359375,-0.3710174560546875
141810,0.341033935546875,-0.2794647216796875,-0.5129852294921875
141811,0.3015289306640625,-0.2051544189453125,-0.5525360107421875
141812,0.192840576171875,-0.0267333984375,-0.382171630859375
141813,0.192840576171875,-0.0267333984375,-0.382171630859375
141814,0.1136932373046875,0.0378570556640625,-0.2064971923828125
141815,0.026336669921875,0.062164306640625,0.004180908203125
141816,-0.1891021728515625,0.0324859619140625,0.337738037109375
141817,-0.1891021728515625,0.0324859619140625,0.337738037109375
141818,-0.32696533203125,0.0291900634765625,0.4130401611328125
141819,-0.43243408203125,0.0318450927734375,0.395416259765625
141820,-0.55401611328125,-0.0859375,0.232330322265625
141821,-0.55401611328125,-0.0859375,0.232330322265625
141822,-0.5467987060546875,-0.1619873046875,0.096527099609375
141823,-0.467315673828125,-0.21868896484375,-0.003265380859375
141824,-0.114044189453125,-0.2379913330078125,0.22381591796875
141825,-0.114044189453125,-0.2379913330078125,0.22381591796875
141826,0.1426544189453125,-0.2048797607421875,0.4005889892578125
141827,0.1426544189453125,-0.2048797607421875,0.4005889892578125
141828,0.4496917724609375,0.5146942138671875,1.065048217773438
141829,0.4496917724609375,0.5146942138671875,1.065048217773438
141830,-0.3629913330078125,1.246017456054688,2.155471801757812
141831,-1.461074829101562,2.774505615234375,3.39166259765625
141832,-2.684783935546875,4.637619018554688,2.338729858398438
141833,-2.684783935546875,4.637619018554688,2.338729858398438
141834,-1.73065185546875,3.105865478515625,1.23333740234375
141835,-1.049774169921875,1.866012573242188,1.349365234375
141836,-0.7439727783203125,0.980865478515625,0.3130035400390625
141837,-0.7439727783203125,0.980865478515625,0.3130035400390625
141838,-0.9029693603515624,1.466278076171875,0.27410888671875
141839,-1.037750244140625,2.000396728515625,0.785186767578125
141840,-1.0389404296875,3.118499755859375,1.40460205078125
141841,-1.0389404296875,3.118499755859375,1.40460205078125
141842,-0.816925048828125,2.494476318359375,1.116806030273438
141843,-0.2448883056640625,1.465408325195312,0.9022979736328124
141844,0.9053955078125,0.788330078125,0.8885498046875
141845,0.9053955078125,0.788330078125,0.8885498046875
141846,1.10650634765625,0.7643280029296875,0.878082275390625
141847,1.10650634765625,0.7643280029296875,0.878082275390625
141848,0.7010345458984375,0.687896728515625,0.9384765625
141849,0.4008026123046875,0.7800750732421875,0.8490753173828125
141850,0.2686920166015625,0.9746551513671876,0.6720733642578125
141851,0.3691558837890625,1.086959838867188,0.475982666015625
141852,0.7464599609375,0.7931976318359375,0.20257568359375
141853,0.7464599609375,0.7931976318359375,0.20257568359375
141854,0.7612152099609375,0.564361572265625,0.2070770263671875
141855,0.646026611328125,0.331390380859375,0.1643524169921875
141856,0.3681793212890625,-0.0578765869140625,0.1737060546875
141857,0.3681793212890625,-0.0578765869140625,0.1737060546875
141858,0.2797698974609375,-0.1337738037109375,0.127532958984375
141859,0.203216552734375,-0.2095794677734375,-0.0525665283203125
141860,0.11376953125,-0.213104248046875,-0.3929443359375
141861,0.11376953125,-0.213104248046875,-0.3929443359375
141862,0.064422607421875,-0.1619415283203125,-0.4170074462890625
141863,0.019989013671875,-0.1326446533203125,-0.339385986328125
141864,-0.0307159423828125,-0.1460113525390625,-0.21295166015625
141865,-0.0307159423828125,-0.1460113525390625,-0.21295166015625
141866,-0.0307159423828125,-0.1460113525390625,-0.21295166015625
141867,-0.058990478515625,-0.171966552734375,-0.0816192626953125
141868,-0.1382904052734375,-0.200347900390625,0.163055419921875
141869,-0.2407073974609375,-0.1652374267578125,0.1977081298828125
141870,-0.307830810546875,-0.0917205810546875,0.2122802734375
141871,-0.36920166015625,-0.0102996826171875,0.190093994140625
141872,-0.32537841796875,0.0454559326171875,-0.045867919921875
141873,-0.32537841796875,0.0454559326171875,-0.045867919921875
141874,-0.1896820068359375,0.01068115234375,-0.0565948486328125
141875,-0.021209716796875,-0.0609588623046875,0.0762481689453125
141876,0.14984130859375,-0.1402587890625,0.2631988525390625
141877,0.30059814453125,-0.1932373046875,0.5247039794921875
141878,0.30059814453125,-0.1932373046875,0.5247039794921875
141879,0.3964080810546875,-0.1497955322265625,0.83245849609375
141880,-0.6064605712890625,1.098922729492188,2.196975708007812
141881,-0.6064605712890625,1.098922729492188,2.196975708007812
141882,-1.914794921875,2.442703247070312,2.820770263671875
141883,-3.572982788085938,4.040878295898438,2.969696044921875
141884,-2.671768188476562,3.098678588867188,1.668807983398438
141885,-2.671768188476562,3.098678588867188,1.668807983398438
141886,-1.716781616210938,1.478424072265625,1.41204833984375
141887,-1.16949462890625,0.8673248291015625,1.171798706054688
141888,-0.81610107421875,1.301956176757812,-0.0040435791015625
141889,-0.81610107421875,1.301956176757812,-0.0040435791015625
141890,-0.81610107421875,1.301956176757812,-0.0040435791015625
141891,-0.9577789306640624,1.706527709960938,0.59576416015625
141892,-0.9173126220703124,1.44091796875,1.360565185546875
141893,-0.9173126220703124,1.44091796875,1.360565185546875
141894,-0.574737548828125,0.889129638671875,1.206802368164062
141895,-0.2042999267578125,0.601409912109375,1.009063720703125
141896,-0.0202789306640625,0.724639892578125,0.719268798828125
141897,-0.0202789306640625,0.724639892578125,0.719268798828125
141898,-0.07012939453125,0.7722015380859375,0.6684112548828125
141899,-0.0078887939453125,0.7239532470703125,0.6380157470703125
141900,0.129608154296875,0.662628173828125,0.6692962646484375
141901,0.2966461181640625,0.650177001953125,0.772064208984375
141902,0.2966461181640625,0.650177001953125,0.772064208984375
141903,0.52508544921875,0.788848876953125,0.7956085205078125
141904,0.50811767578125,0.7258453369140625,0.29766845703125
141905,0.50811767578125,0.7258453369140625,0.29766845703125
141906,0.40582275390625,0.6377105712890625,0.10205078125
141907,0.3439788818359375,0.44921875,0.015960693359375
141908,0.3109283447265625,0.1804962158203125,0.0345458984375
141909,0.3109283447265625,0.1804962158203125,0.0345458984375
141910,0.3003692626953125,0.081695556640625,0.0350189208984375
141911,0.3003692626953125,0.081695556640625,0.0350189208984375
141912,0.324188232421875,-0.1104278564453125,-0.4275970458984375
141913,0.324188232421875,-0.1104278564453125,-0.4275970458984375
141914,0.3437652587890625,-0.0179595947265625,-0.3271484375
141915,0.37799072265625,0.074798583984375,-0.18426513671875
141916,0.35693359375,0.1626434326171875,-0.025115966796875
141917,0.35693359375,0.1626434326171875,-0.025115966796875
141918,0.3043670654296875,0.158935546875,0.0693359375
141919,0.2784271240234375,0.1398162841796875,0.1314544677734375
141920,0.199371337890625,0.1111602783203125,0.17230224609375
141921,0.199371337890625,0.1111602783203125,0.17230224609375
141922,0.1212158203125,0.0825042724609375,0.170501708984375
141923,0.067779541015625,0.0291290283203125,0.224609375
141924,0.01214599609375,-0.0545196533203125,0.35394287109375
141925,0.01214599609375,-0.0545196533203125,0.35394287109375
141926,-0.03558349609375,-0.175567626953125,0.40277099609375
141927,-0.1180419921875,-0.4550628662109375,0.4543914794921875
141928,-0.631561279296875,-0.75030517578125,0.1443939208984375
141929,-0.631561279296875,-0.75030517578125,0.1443939208984375
141930,-1.015365600585938,-0.8239898681640625,0.1174774169921875
141931,-1.959075927734375,-1.205078125,0.2412261962890625
141932,-3.589385986328125,1.135543823242188,2.662826538085938
141933,-3.589385986328125,1.135543823242188,2.662826538085938
141934,-3.589385986328125,1.135543823242188,2.662826538085938
141935,-3.99346923828125,2.733963012695312,1.773895263671875
141936,-1.732421875,3.213394165039062,2.996414184570312
141937,-1.732421875,3.213394165039062,2.996414184570312
141938,-0.5651397705078125,4.12225341796875,1.841873168945312
141939,0.1705474853515625,3.357192993164062,1.038681030273438
141940,-0.6790618896484375,0.89324951171875,1.488632202148438
141941,-0.6790618896484375,0.89324951171875,1.488632202148438
141942,-0.918182373046875,0.45220947265625,1.192779541015625
141943,-0.8835296630859375,0.4845733642578125,0.6152191162109375
