time_idx,accelerometerAccelerationX(G),accelerometerAccelerationY(G),accelerometerAccelerationZ(G)
20000,0.1763763427734375,-0.9284515380859376,-0.3367156982421875
20001,0.1865386962890625,-0.93017578125,-0.3310089111328125
20002,0.1991729736328125,-0.9312744140625,-0.3260955810546875
20003,0.2205810546875,-0.93701171875,-0.3211669921875
20004,0.2205810546875,-0.93701171875,-0.3211669921875
20005,0.2284088134765625,-0.9369659423828124,-0.321197509765625
20006,0.2287445068359375,-0.939178466796875,-0.3211212158203125
20007,0.224517822265625,-0.937957763671875,-0.332427978515625
20008,0.224517822265625,-0.937957763671875,-0.332427978515625
20009,0.224517822265625,-0.937957763671875,-0.332427978515625
20010,0.21356201171875,-0.941375732421875,-0.3401641845703125
20011,0.1851043701171875,-0.9354248046875,-0.3644561767578125
20012,0.1851043701171875,-0.9354248046875,-0.3644561767578125
20013,0.1851043701171875,-0.9354248046875,-0.3644561767578125
20014,0.17041015625,-0.927215576171875,-0.3672943115234375
20015,0.143157958984375,-0.9022216796875,-0.365447998046875
20016,0.143157958984375,-0.9022216796875,-0.365447998046875
20017,0.1335906982421875,-0.9024810791015624,-0.3562164306640625
20018,0.1265411376953125,-0.9100799560546876,-0.35272216796875
20019,0.127288818359375,-0.9192657470703124,-0.344482421875
20020,0.127288818359375,-0.9192657470703124,-0.344482421875
20021,0.127288818359375,-0.9192657470703124,-0.344482421875
20022,0.132171630859375,-0.9237518310546876,-0.33953857421875
20023,0.16741943359375,-0.936676025390625,-0.3238983154296875
20024,0.16741943359375,-0.936676025390625,-0.3238983154296875
20025,0.16741943359375,-0.936676025390625,-0.3238983154296875
20026,0.18084716796875,-0.93804931640625,-0.322113037109375
20027,0.196929931640625,-0.930633544921875,-0.3251800537109375
20028,0.196929931640625,-0.930633544921875,-0.3251800537109375
20029,0.196929931640625,-0.930633544921875,-0.3251800537109375
20030,0.2068328857421875,-0.926361083984375,-0.3283538818359375
20031,0.2273712158203125,-0.922607421875,-0.3192138671875
20032,0.2273712158203125,-0.922607421875,-0.3192138671875
20033,0.2273712158203125,-0.922607421875,-0.3192138671875
20034,0.2323760986328125,-0.928314208984375,-0.318267822265625
20035,0.2392425537109375,-0.94573974609375,-0.3109893798828125
20036,0.2392425537109375,-0.94573974609375,-0.3109893798828125
20037,0.23980712890625,-0.9493408203125,-0.313385009765625
20038,0.2374420166015625,-0.9518890380859376,-0.320068359375
20039,0.209503173828125,-0.9465789794921876,-0.3347320556640625
20040,0.209503173828125,-0.9465789794921876,-0.3347320556640625
20041,0.191925048828125,-0.9376220703125,-0.3339996337890625
20042,0.174957275390625,-0.925689697265625,-0.333404541015625
20043,0.157196044921875,-0.9053497314453124,-0.33489990234375
20044,0.157196044921875,-0.9053497314453124,-0.33489990234375
20045,0.157196044921875,-0.9053497314453124,-0.33489990234375
20046,0.1529693603515625,-0.90380859375,-0.337127685546875
20047,0.1307830810546875,-0.9326324462890624,-0.3229522705078125
20048,0.1307830810546875,-0.9326324462890624,-0.3229522705078125
20049,0.1307830810546875,-0.9326324462890624,-0.3229522705078125
20050,0.1349334716796875,-0.9322662353515624,-0.31414794921875
20051,0.1356201171875,-0.9322662353515624,-0.34661865234375
20052,0.1475830078125,-0.9298858642578124,-0.345611572265625
20053,0.1475830078125,-0.9298858642578124,-0.345611572265625
20054,0.153167724609375,-0.9266510009765624,-0.3401336669921875
20055,0.19097900390625,-0.9133758544921876,-0.3219757080078125
20056,0.19097900390625,-0.9133758544921876,-0.3219757080078125
20057,0.19097900390625,-0.9133758544921876,-0.3219757080078125
20058,0.2030487060546875,-0.912109375,-0.320404052734375
20059,0.2297821044921875,-0.9218902587890624,-0.3053131103515625
20060,0.2297821044921875,-0.9218902587890624,-0.3053131103515625
20061,0.2297821044921875,-0.9218902587890624,-0.3053131103515625
20062,0.23944091796875,-0.9272308349609376,-0.3040008544921875
20063,0.2577667236328125,-0.9361724853515624,-0.305328369140625
20064,0.2577667236328125,-0.9361724853515624,-0.305328369140625
20065,0.2647857666015625,-0.938262939453125,-0.30609130859375
20066,0.2647857666015625,-0.938262939453125,-0.30609130859375
20067,0.2756195068359375,-0.9536285400390624,-0.298828125
20068,0.2756195068359375,-0.9536285400390624,-0.298828125
20069,0.2756195068359375,-0.9536285400390624,-0.298828125
20070,0.2725372314453125,-0.9573822021484376,-0.296478271484375
20071,0.2453155517578125,-0.941497802734375,-0.2912750244140625
20072,0.2453155517578125,-0.941497802734375,-0.2912750244140625
20073,0.2386627197265625,-0.936553955078125,-0.287872314453125
20074,0.235626220703125,-0.930877685546875,-0.2873992919921875
20075,0.2476959228515625,-0.9313201904296876,-0.2775421142578125
20076,0.2476959228515625,-0.9313201904296876,-0.2775421142578125
20077,0.2476959228515625,-0.9313201904296876,-0.2775421142578125
20078,0.258514404296875,-0.9342498779296876,-0.276123046875
20079,0.264678955078125,-0.943572998046875,-0.2691497802734375
20080,0.264678955078125,-0.943572998046875,-0.2691497802734375
20081,0.264678955078125,-0.943572998046875,-0.2691497802734375
20082,0.256103515625,-0.94586181640625,-0.27044677734375
20083,0.211944580078125,-0.9493560791015624,-0.29669189453125
20084,0.211944580078125,-0.9493560791015624,-0.29669189453125
20085,0.199127197265625,-0.9528350830078124,-0.307830810546875
20086,0.19244384765625,-0.94976806640625,-0.3213653564453125
20087,0.17547607421875,-0.947906494140625,-0.320281982421875
20088,0.17547607421875,-0.947906494140625,-0.320281982421875
20089,0.169677734375,-0.9437408447265624,-0.3194427490234375
20090,0.1626739501953125,-0.9403228759765624,-0.316680908203125
20091,0.15625,-0.9364471435546876,-0.3018951416015625
20092,0.15625,-0.9364471435546876,-0.3018951416015625
20093,0.15625,-0.9364471435546876,-0.3018951416015625
20094,0.1614532470703125,-0.9341583251953124,-0.295379638671875
20095,0.1902313232421875,-0.9356842041015624,-0.2854461669921875
20096,0.1902313232421875,-0.9356842041015624,-0.2854461669921875
20097,0.1983184814453125,-0.949859619140625,-0.2858734130859375
20098,0.1983184814453125,-0.949859619140625,-0.2858734130859375
20099,0.2197418212890625,-0.9591827392578124,-0.28582763671875
20100,0.2197418212890625,-0.9591827392578124,-0.28582763671875
20101,0.22479248046875,-0.9551544189453124,-0.292236328125
20102,0.222808837890625,-0.952606201171875,-0.2967376708984375
20103,0.2112274169921875,-0.93505859375,-0.294677734375
20104,0.2112274169921875,-0.93505859375,-0.294677734375
20105,0.2055511474609375,-0.9280242919921876,-0.2939453125
20106,0.2055511474609375,-0.9280242919921876,-0.2939453125
20107,0.1928863525390625,-0.9145965576171876,-0.2901153564453125
20108,0.1928863525390625,-0.9145965576171876,-0.2901153564453125
20109,0.1923980712890625,-0.9159393310546876,-0.291259765625
20110,0.1924285888671875,-0.9220123291015624,-0.29229736328125
20111,0.2017822265625,-0.9362640380859376,-0.2851104736328125
20112,0.2017822265625,-0.9362640380859376,-0.2851104736328125
20113,0.2072906494140625,-0.9486083984375,-0.2815093994140625
20114,0.2165985107421875,-0.9587554931640624,-0.27935791015625
20115,0.2315216064453125,-0.9682464599609376,-0.2682342529296875
20116,0.2315216064453125,-0.9682464599609376,-0.2682342529296875
20117,0.2315216064453125,-0.9682464599609376,-0.2682342529296875
20118,0.2345123291015625,-0.9686737060546876,-0.2650299072265625
20119,0.220794677734375,-0.9517364501953124,-0.2706146240234375
20120,0.220794677734375,-0.9517364501953124,-0.2706146240234375
20121,0.2241668701171875,-0.9294891357421876,-0.2785186767578125
20122,0.2241668701171875,-0.9294891357421876,-0.2785186767578125
20123,0.2431182861328125,-0.8895263671875,-0.282196044921875
20124,0.2431182861328125,-0.8895263671875,-0.282196044921875
20125,0.2431182861328125,-0.8895263671875,-0.282196044921875
20126,0.2436065673828125,-0.8913116455078125,-0.289093017578125
20127,0.222137451171875,-0.92626953125,-0.309173583984375
20128,0.222137451171875,-0.92626953125,-0.309173583984375
20129,0.2095947265625,-0.9347076416015624,-0.31298828125
20130,0.197662353515625,-0.937652587890625,-0.3137969970703125
20131,0.181671142578125,-0.93017578125,-0.322052001953125
20132,0.181671142578125,-0.93017578125,-0.322052001953125
20133,0.171905517578125,-0.924774169921875,-0.3263092041015625
20134,0.1614837646484375,-0.9180755615234376,-0.333526611328125
20135,0.146331787109375,-0.9021453857421876,-0.346588134765625
20136,0.146331787109375,-0.9021453857421876,-0.346588134765625
20137,0.146331787109375,-0.9021453857421876,-0.346588134765625
20138,0.1459197998046875,-0.8937530517578125,-0.3536224365234375
20139,0.1674346923828125,-0.88323974609375,-0.3741912841796875
20140,0.1674346923828125,-0.88323974609375,-0.3741912841796875
20141,0.1866912841796875,-0.88470458984375,-0.379425048828125
20142,0.1866912841796875,-0.88470458984375,-0.379425048828125
20143,0.242034912109375,-0.8850250244140625,-0.3958282470703125
20144,0.242034912109375,-0.8850250244140625,-0.3958282470703125
20145,0.2528533935546875,-0.886993408203125,-0.3949127197265625
20146,0.2591400146484375,-0.8832244873046875,-0.391326904296875
20147,0.2557373046875,-0.868743896484375,-0.3904876708984375
20148,0.2529449462890625,-0.861419677734375,-0.3907470703125
20149,0.2560272216796875,-0.8530426025390625,-0.4033660888671875
20150,0.2598114013671875,-0.841644287109375,-0.4160614013671875
20151,0.263214111328125,-0.8183441162109375,-0.413177490234375
20152,0.263214111328125,-0.8183441162109375,-0.413177490234375
20153,0.263214111328125,-0.8183441162109375,-0.413177490234375
20154,0.274139404296875,-0.8137969970703125,-0.414703369140625
20155,0.343475341796875,-0.8619384765625,-0.436676025390625
20156,0.343475341796875,-0.8619384765625,-0.436676025390625
20157,0.343475341796875,-0.8619384765625,-0.436676025390625
20158,0.3641510009765625,-0.889190673828125,-0.439239501953125
20159,0.3503570556640625,-0.917816162109375,-0.416229248046875
20160,0.3503570556640625,-0.917816162109375,-0.416229248046875
20161,0.308990478515625,-0.9362640380859376,-0.4151611328125
20162,0.308990478515625,-0.9362640380859376,-0.4151611328125
20163,0.1440887451171875,-0.9982757568359376,-0.45904541015625
20164,0.1440887451171875,-0.9982757568359376,-0.45904541015625
20165,0.102020263671875,-0.9809417724609376,-0.433563232421875
20166,0.0642547607421875,-0.9516754150390624,-0.412689208984375
20167,0.0442657470703125,-0.896575927734375,-0.3328094482421875
20168,0.0442657470703125,-0.896575927734375,-0.3328094482421875
20169,0.0264892578125,-0.882171630859375,-0.2962188720703125
20170,-0.001312255859375,-0.88763427734375,-0.2778778076171875
20171,-0.0352783203125,-0.94879150390625,-0.263763427734375
20172,-0.0352783203125,-0.94879150390625,-0.263763427734375
20173,-0.0242462158203125,-0.9887847900390624,-0.2863616943359375
20174,-0.0141754150390625,-1.044357299804688,-0.33001708984375
20175,-0.0335235595703125,-1.150360107421875,-0.4196014404296875
20176,-0.0335235595703125,-1.150360107421875,-0.4196014404296875
20177,-0.0335235595703125,-1.150360107421875,-0.4196014404296875
20178,-0.044158935546875,-1.170257568359375,-0.451751708984375
20179,-0.08624267578125,-1.022918701171875,-0.4659881591796875
20180,-0.08624267578125,-1.022918701171875,-0.4659881591796875
20181,-0.08624267578125,-1.022918701171875,-0.4659881591796875
20182,-0.1008148193359375,-0.9689483642578124,-0.420166015625
20183,-0.040679931640625,-0.875,-0.3411102294921875
20184,-0.040679931640625,-0.875,-0.3411102294921875
20185,-0.040679931640625,-0.875,-0.3411102294921875
20186,-0.012542724609375,-0.87469482421875,-0.3463897705078125
20187,0.0724029541015625,-0.8856658935546875,-0.3967132568359375
20188,0.0724029541015625,-0.8856658935546875,-0.3967132568359375
20189,0.0941925048828125,-0.9375152587890624,-0.30694580078125
20190,0.0941925048828125,-0.9375152587890624,-0.30694580078125
20191,-0.01080322265625,-0.975006103515625,-0.3772735595703125
20192,-0.01080322265625,-0.975006103515625,-0.3772735595703125
20193,0.0038299560546875,-0.9825897216796876,-0.3600311279296875
20194,-0.0364532470703125,-0.959075927734375,-0.3554229736328125
20195,-0.0687103271484375,-0.9217681884765624,-0.4060821533203125
20196,-0.0687103271484375,-0.9217681884765624,-0.4060821533203125
20197,-0.03253173828125,-0.91998291015625,-0.4198150634765625
20198,-0.00189208984375,-0.914337158203125,-0.4066925048828125
20199,0.044769287109375,-0.9463348388671876,-0.4205169677734375
20200,0.044769287109375,-0.9463348388671876,-0.4205169677734375
20201,0.03961181640625,-0.9629364013671876,-0.38995361328125
20202,0.0254058837890625,-0.967193603515625,-0.34893798828125
20203,-0.0136260986328125,-0.9612579345703124,-0.3412933349609375
20204,-0.0136260986328125,-0.9612579345703124,-0.3412933349609375
20205,-0.0136260986328125,-0.9612579345703124,-0.3412933349609375
20206,-0.0327301025390625,-0.9535675048828124,-0.3562164306640625
20207,-0.0690765380859375,-0.9432220458984376,-0.3793792724609375
20208,-0.0690765380859375,-0.9432220458984376,-0.3793792724609375
20209,-0.0690765380859375,-0.9432220458984376,-0.3793792724609375
20210,-0.073150634765625,-0.9402313232421876,-0.39935302734375
20211,-0.0626220703125,-0.9236602783203124,-0.4149017333984375
20212,-0.0626220703125,-0.9236602783203124,-0.4149017333984375
20213,-0.0626220703125,-0.9236602783203124,-0.4149017333984375
20214,-0.06512451171875,-0.91937255859375,-0.414947509765625
20215,-0.0753173828125,-0.93768310546875,-0.444793701171875
20216,-0.0753173828125,-0.93768310546875,-0.444793701171875
20217,-0.0753173828125,-0.93768310546875,-0.444793701171875
20218,-0.0720977783203125,-0.9365234375,-0.444854736328125
20219,-0.066375732421875,-0.9115447998046876,-0.4293212890625
20220,-0.066375732421875,-0.9115447998046876,-0.4293212890625
20221,-0.0699920654296875,-0.90631103515625,-0.41229248046875
20222,-0.06951904296875,-0.9014739990234376,-0.4084930419921875
20223,-0.0882720947265625,-0.88482666015625,-0.4050445556640625
20224,-0.0882720947265625,-0.88482666015625,-0.4050445556640625
20225,-0.1064910888671875,-0.8802337646484375,-0.3953094482421875
20226,-0.1064910888671875,-0.8802337646484375,-0.3953094482421875
20227,-0.138671875,-0.879913330078125,-0.4333953857421875
20228,-0.138671875,-0.879913330078125,-0.4333953857421875
20229,-0.1552581787109375,-0.886444091796875,-0.4277191162109375
20230,-0.1632537841796875,-0.8853302001953125,-0.4388885498046875
20231,-0.167205810546875,-0.8971710205078125,-0.44464111328125
20232,-0.167205810546875,-0.8971710205078125,-0.44464111328125
20233,-0.1633453369140625,-0.9063873291015624,-0.4394378662109375
20234,-0.1633453369140625,-0.9063873291015624,-0.4394378662109375
20235,-0.1402435302734375,-0.914031982421875,-0.3894195556640625
20236,-0.1402435302734375,-0.914031982421875,-0.3894195556640625
20237,-0.1831512451171875,-0.8987579345703125,-0.4022674560546875
20238,-0.1704254150390625,-0.9224853515625,-0.4033355712890625
20239,-0.16162109375,-0.924163818359375,-0.37127685546875
20240,-0.16162109375,-0.924163818359375,-0.37127685546875
20241,-0.16162109375,-0.924163818359375,-0.37127685546875
20242,-0.1581878662109375,-0.92724609375,-0.37030029296875
20243,-0.1579742431640625,-0.9086761474609376,-0.374908447265625
20244,-0.1579742431640625,-0.9086761474609376,-0.374908447265625
20245,-0.155181884765625,-0.902801513671875,-0.373687744140625
20246,-0.1568756103515625,-0.8966827392578125,-0.370941162109375
20247,-0.173309326171875,-0.8949127197265625,-0.36920166015625
20248,-0.173309326171875,-0.8949127197265625,-0.36920166015625
20249,-0.1853179931640625,-0.891693115234375,-0.3625335693359375
20250,-0.19842529296875,-0.8811187744140625,-0.355712890625
20251,-0.2148895263671875,-0.8766326904296875,-0.344970703125
20252,-0.228546142578125,-0.8756103515625,-0.33013916015625
20253,-0.23785400390625,-0.87725830078125,-0.326446533203125
20254,-0.242156982421875,-0.8909454345703125,-0.3208160400390625
20255,-0.238311767578125,-0.9210357666015624,-0.3383941650390625
20256,-0.238311767578125,-0.9210357666015624,-0.3383941650390625
20257,-0.238311767578125,-0.9210357666015624,-0.3383941650390625
20258,-0.2221527099609375,-0.930511474609375,-0.36163330078125
20259,-0.210418701171875,-0.934234619140625,-0.353485107421875
20260,-0.210418701171875,-0.934234619140625,-0.353485107421875
20261,-0.1816558837890625,-0.9373321533203124,-0.42645263671875
20262,-0.1268157958984375,-0.95843505859375,-0.47735595703125
20263,0.0001068115234375,-0.9979705810546876,-0.6443634033203125
20264,0.0001068115234375,-0.9979705810546876,-0.6443634033203125
20265,0.05517578125,-1.013717651367188,-0.6764984130859375
20266,0.05517578125,-1.013717651367188,-0.6764984130859375
20267,0.0876922607421875,-1.082809448242188,-0.249481201171875
20268,0.0876922607421875,-1.082809448242188,-0.249481201171875
20269,0.1032867431640625,-1.099472045898438,-0.0957183837890625
20270,0.146514892578125,-1.07745361328125,-0.000823974609375
20271,0.222930908203125,-0.9622955322265624,-0.2241058349609375
20272,0.222930908203125,-0.9622955322265624,-0.2241058349609375
20273,0.2416229248046875,-0.9299163818359376,-0.282379150390625
20274,0.2579803466796875,-0.912506103515625,-0.3176116943359375
20275,0.33306884765625,-0.9283599853515624,-0.4097747802734375
20276,0.33306884765625,-0.9283599853515624,-0.4097747802734375
20277,0.375946044921875,-0.94158935546875,-0.426300048828125
20278,0.4090118408203125,-0.9507598876953124,-0.4307708740234375
20279,0.4298248291015625,-0.968994140625,-0.410247802734375
20280,0.4298248291015625,-0.968994140625,-0.410247802734375
20281,0.4136810302734375,-0.9655609130859376,-0.3704986572265625
20282,0.3846435546875,-0.950958251953125,-0.2982330322265625
20283,0.328582763671875,-0.9771881103515624,-0.18023681640625
20284,0.328582763671875,-0.9771881103515624,-0.18023681640625
20285,0.295318603515625,-0.9949188232421876,-0.1332855224609375
20286,0.2743377685546875,-0.9898223876953124,-0.12127685546875
20287,0.2633819580078125,-0.9516448974609376,-0.1881103515625
20288,0.2633819580078125,-0.9516448974609376,-0.1881103515625
20289,0.2547454833984375,-0.9393310546875,-0.218719482421875
20290,0.2547454833984375,-0.9393310546875,-0.218719482421875
20291,0.2373809814453125,-0.9375152587890624,-0.2686767578125
20292,0.2373809814453125,-0.9375152587890624,-0.2686767578125
20293,0.2228240966796875,-0.9442596435546876,-0.264678955078125
20294,0.2068023681640625,-0.957977294921875,-0.2448883056640625
20295,0.1691436767578125,-0.981109619140625,-0.2242889404296875
20296,0.1691436767578125,-0.981109619140625,-0.2242889404296875
20297,0.1536102294921875,-0.9842071533203124,-0.2017364501953125
20298,0.1139984130859375,-1.008163452148438,-0.181732177734375
20299,0.087646484375,-1.001083374023438,-0.1822052001953125
20300,0.087646484375,-1.001083374023438,-0.1822052001953125
20301,0.07684326171875,-1.017837524414062,-0.19482421875
20302,0.079864501953125,-1.024398803710938,-0.2200927734375
20303,0.1031646728515625,-1.024505615234375,-0.2371826171875
20304,0.1031646728515625,-1.024505615234375,-0.2371826171875
20305,0.1031646728515625,-1.024505615234375,-0.2371826171875
20306,0.129608154296875,-0.99981689453125,-0.242767333984375
20307,0.1773681640625,-0.92181396484375,-0.2318267822265625
20308,0.1773681640625,-0.92181396484375,-0.2318267822265625
20309,0.17010498046875,-0.9073638916015624,-0.23004150390625
20310,0.1682586669921875,-0.8910064697265625,-0.2183380126953125
20311,0.162567138671875,-0.882904052734375,-0.196533203125
20312,0.162567138671875,-0.882904052734375,-0.196533203125
20313,0.1648406982421875,-0.901092529296875,-0.1940155029296875
20314,0.17132568359375,-0.9206390380859376,-0.184112548828125
20315,0.188720703125,-0.9689788818359376,-0.1611175537109375
20316,0.188720703125,-0.9689788818359376,-0.1611175537109375
20317,0.1951751708984375,-0.9862518310546876,-0.1512603759765625
20318,0.1951751708984375,-0.9862518310546876,-0.1512603759765625
20319,0.2117767333984375,-1.04071044921875,-0.1280517578125
20320,0.2117767333984375,-1.04071044921875,-0.1280517578125
20321,0.20989990234375,-1.051422119140625,-0.1265411376953125
20322,0.1992645263671875,-1.071670532226562,-0.128265380859375
20323,0.1394195556640625,-1.04815673828125,-0.1924285888671875
20324,0.1394195556640625,-1.04815673828125,-0.1924285888671875
20325,0.1695098876953125,-1.051116943359375,-0.1223297119140625
20326,0.16766357421875,-0.9879150390625,-0.0601043701171875
20327,0.0523834228515625,-0.994659423828125,-0.1281585693359375
20328,0.0523834228515625,-0.994659423828125,-0.1281585693359375
20329,0.0523834228515625,-0.994659423828125,-0.1281585693359375
20330,0.07281494140625,-1.034423828125,-0.08319091796875
20331,0.09796142578125,-1.027679443359375,-0.2413177490234375
20332,0.09796142578125,-1.027679443359375,-0.2413177490234375
20333,0.1054840087890625,-1.058685302734375,-0.267608642578125
20334,0.1440582275390625,-1.104202270507812,-0.34112548828125
20335,0.2458648681640625,-1.118255615234375,-0.5164337158203125
20336,0.2458648681640625,-1.118255615234375,-0.5164337158203125
20337,0.2421417236328125,-1.115936279296875,-0.3958740234375
20338,0.154205322265625,-1.148574829101562,-0.195037841796875
20339,0.0858154296875,-1.038116455078125,-0.241912841796875
20340,0.0858154296875,-1.038116455078125,-0.241912841796875
20341,0.0855865478515625,-0.9465179443359376,-0.2190704345703125
20342,0.0855865478515625,-0.9465179443359376,-0.2190704345703125
20343,0.0908966064453125,-1.042587280273438,-0.204742431640625
20344,0.0908966064453125,-1.042587280273438,-0.204742431640625
20345,0.127685546875,-1.046661376953125,-0.2216949462890625
20346,0.20526123046875,-1.022857666015625,-0.2386932373046875
20347,0.2054290771484375,-0.928619384765625,-0.37359619140625
20348,0.2054290771484375,-0.928619384765625,-0.37359619140625
20349,0.19403076171875,-0.9115447998046876,-0.4197998046875
20350,0.1761016845703125,-0.9039306640625,-0.4207916259765625
20351,0.1468963623046875,-0.887786865234375,-0.39324951171875
20352,0.106719970703125,-0.87225341796875,-0.3597869873046875
20353,0.0615081787109375,-0.867584228515625,-0.31878662109375
20354,0.0254974365234375,-0.8634185791015625,-0.2883758544921875
20355,0.0104217529296875,-0.8763275146484375,-0.2830963134765625
20356,0.0104217529296875,-0.8763275146484375,-0.2830963134765625
20357,0.019866943359375,-0.889434814453125,-0.3026580810546875
20358,0.0268096923828125,-0.89251708984375,-0.3227996826171875
20359,0.05255126953125,-0.8986663818359375,-0.37152099609375
20360,0.05255126953125,-0.8986663818359375,-0.37152099609375
20361,0.05706787109375,-0.89874267578125,-0.3657379150390625
20362,0.060791015625,-0.903564453125,-0.35516357421875
20363,0.07330322265625,-0.906463623046875,-0.3227996826171875
20364,0.07330322265625,-0.906463623046875,-0.3227996826171875
20365,0.07330322265625,-0.906463623046875,-0.3227996826171875
20366,0.077972412109375,-0.90863037109375,-0.2999725341796875
20367,0.098846435546875,-0.953369140625,-0.252685546875
20368,0.098846435546875,-0.953369140625,-0.252685546875
20369,0.1100311279296875,-0.970123291015625,-0.243743896484375
20370,0.117156982421875,-0.9933319091796876,-0.2522125244140625
20371,0.1180877685546875,-1.028717041015625,-0.2581634521484375
20372,0.1180877685546875,-1.028717041015625,-0.2581634521484375
20373,0.1128387451171875,-1.039352416992188,-0.26239013671875
20374,0.10589599609375,-1.046417236328125,-0.2608489990234375
20375,0.094879150390625,-1.03448486328125,-0.2344512939453125
20376,0.094879150390625,-1.03448486328125,-0.2344512939453125
20377,0.08453369140625,-1.016830444335938,-0.2366790771484375
20378,0.08453369140625,-1.016830444335938,-0.2366790771484375
20379,0.039886474609375,-0.95379638671875,-0.231719970703125
20380,0.039886474609375,-0.95379638671875,-0.231719970703125
20381,0.0302581787109375,-0.9427642822265624,-0.24078369140625
20382,0.0289459228515625,-0.9401397705078124,-0.2399139404296875
20383,0.0467987060546875,-0.9341888427734376,-0.230010986328125
20384,0.0467987060546875,-0.9341888427734376,-0.230010986328125
20385,0.056732177734375,-0.9304046630859376,-0.23883056640625
20386,0.0616455078125,-0.9233245849609376,-0.2487335205078125
20387,0.0740509033203125,-0.8894500732421875,-0.2597808837890625
20388,0.0740509033203125,-0.8894500732421875,-0.2597808837890625
20389,0.0623016357421875,-0.8773345947265625,-0.223175048828125
20390,0.0673828125,-0.8779449462890625,-0.2183990478515625
20391,0.087371826171875,-0.879669189453125,-0.2556915283203125
20392,0.12457275390625,-0.8953094482421875,-0.276611328125
20393,0.088043212890625,-0.8845367431640625,-0.1156768798828125
20394,0.0809783935546875,-0.89453125,-0.20343017578125
20395,0.12744140625,-0.8491058349609375,-0.238067626953125
20396,0.12744140625,-0.8491058349609375,-0.238067626953125
20397,0.126953125,-0.830718994140625,-0.1973419189453125
20398,0.126953125,-0.830718994140625,-0.1973419189453125
20399,0.15045166015625,-0.8380889892578125,-0.2302093505859375
20400,0.1662750244140625,-0.8674774169921875,-0.22894287109375
20401,0.1711273193359375,-0.9186553955078124,-0.2194976806640625
20402,0.1491851806640625,-0.97259521484375,-0.1953125
20403,0.0944061279296875,-1.002639770507812,-0.1707916259765625
20404,0.0944061279296875,-1.002639770507812,-0.1707916259765625
20405,0.0836181640625,-1.007400512695312,-0.191131591796875
20406,0.084136962890625,-1.004653930664062,-0.2085723876953125
20407,0.0833740234375,-0.986328125,-0.2095947265625
20408,0.092315673828125,-0.9672088623046876,-0.20269775390625
20409,0.1045074462890625,-0.9480743408203124,-0.2011260986328125
20410,0.1186676025390625,-0.9373626708984376,-0.201324462890625
20411,0.138336181640625,-0.93255615234375,-0.2017822265625
20412,0.138336181640625,-0.93255615234375,-0.2017822265625
20413,0.147705078125,-0.930572509765625,-0.192779541015625
20414,0.1555328369140625,-0.9268646240234376,-0.1797637939453125
20415,0.157958984375,-0.92462158203125,-0.1646575927734375
20416,0.157958984375,-0.92462158203125,-0.1646575927734375
20417,0.1424560546875,-0.93170166015625,-0.159759521484375
20418,0.1286773681640625,-0.9427337646484376,-0.1609344482421875
20419,0.1119384765625,-0.961700439453125,-0.1798858642578125
20420,0.1119384765625,-0.961700439453125,-0.1798858642578125
20421,0.1081390380859375,-0.96832275390625,-0.1902923583984375
20422,0.10028076171875,-0.978607177734375,-0.1964263916015625
20423,0.076568603515625,-0.9756927490234376,-0.211151123046875
20424,0.076568603515625,-0.9756927490234376,-0.211151123046875
20425,0.0697021484375,-0.96380615234375,-0.2144927978515625
20426,0.07550048828125,-0.953948974609375,-0.2179718017578125
20427,0.0931549072265625,-0.9137115478515624,-0.21600341796875
20428,0.0931549072265625,-0.9137115478515624,-0.21600341796875
20429,0.0958709716796875,-0.90753173828125,-0.2227325439453125
20430,0.1152801513671875,-0.90875244140625,-0.2323760986328125
20431,0.1265716552734375,-0.913665771484375,-0.232208251953125
20432,0.1265716552734375,-0.913665771484375,-0.232208251953125
20433,0.1248931884765625,-0.92950439453125,-0.2361297607421875
20434,0.1149444580078125,-0.9276580810546876,-0.2298583984375
20435,0.12762451171875,-0.9559478759765624,-0.25537109375
20436,0.12762451171875,-0.9559478759765624,-0.25537109375
20437,0.1423797607421875,-0.9723663330078124,-0.2607269287109375
20438,0.17523193359375,-0.9933013916015624,-0.257354736328125
20439,0.2129974365234375,-0.9871673583984376,-0.295562744140625
20440,0.2129974365234375,-0.9871673583984376,-0.295562744140625
20441,0.174285888671875,-0.9388427734375,-0.3015899658203125
20442,0.1534881591796875,-0.92938232421875,-0.31951904296875
20443,0.1728668212890625,-0.904693603515625,-0.36798095703125
20444,0.1728668212890625,-0.904693603515625,-0.36798095703125
20445,0.19793701171875,-0.9117431640625,-0.3894500732421875
20446,0.20135498046875,-0.9249114990234376,-0.392333984375
20447,0.27349853515625,-0.9468536376953124,-0.3537750244140625
20448,0.27349853515625,-0.9468536376953124,-0.3537750244140625
20449,0.2996978759765625,-0.9490814208984376,-0.357330322265625
20450,0.332916259765625,-0.93792724609375,-0.3282928466796875
20451,0.357879638671875,-0.909881591796875,-0.3184967041015625
20452,0.3555450439453125,-0.8607177734375,-0.328826904296875
20453,0.353851318359375,-0.8205108642578125,-0.3491973876953125
20454,0.3359527587890625,-0.78076171875,-0.3820648193359375
20455,0.299468994140625,-0.748504638671875,-0.430633544921875
20456,0.299468994140625,-0.748504638671875,-0.430633544921875
20457,0.2879638671875,-0.7334136962890625,-0.4321746826171875
20458,0.2854766845703125,-0.7474822998046875,-0.4516143798828125
20459,0.3057403564453125,-0.78076171875,-0.4148101806640625
20460,0.3057403564453125,-0.78076171875,-0.4148101806640625
20461,0.32269287109375,-0.8455963134765625,-0.4173583984375
20462,0.3501739501953125,-0.8785400390625,-0.4186553955078125
20463,0.371185302734375,-0.87353515625,-0.4503326416015625
20464,0.3717041015625,-0.8679962158203125,-0.465087890625
20465,0.374176025390625,-0.82391357421875,-0.4711761474609375
20466,0.3794097900390625,-0.7886199951171875,-0.4897003173828125
20467,0.40234375,-0.7302093505859375,-0.50592041015625
20468,0.40234375,-0.7302093505859375,-0.50592041015625
20469,0.4126739501953125,-0.710357666015625,-0.5147705078125
20470,0.4337158203125,-0.70855712890625,-0.52581787109375
20471,0.477142333984375,-0.6865997314453125,-0.5416717529296875
20472,0.477142333984375,-0.6865997314453125,-0.5416717529296875
20473,0.4983673095703125,-0.6734771728515625,-0.539459228515625
20474,0.523406982421875,-0.6744842529296875,-0.5362091064453125
20475,0.585479736328125,-0.7032470703125,-0.53338623046875
20476,0.585479736328125,-0.7032470703125,-0.53338623046875
20477,0.6018829345703125,-0.715911865234375,-0.536224365234375
20478,0.61566162109375,-0.7194671630859375,-0.539215087890625
20479,0.640625,-0.738494873046875,-0.5638427734375
20480,0.640625,-0.738494873046875,-0.5638427734375
20481,0.6381988525390625,-0.729736328125,-0.5908203125
20482,0.6338653564453125,-0.7095947265625,-0.6114044189453125
20483,0.6035919189453125,-0.673583984375,-0.6356201171875
20484,0.6035919189453125,-0.673583984375,-0.6356201171875
20485,0.6017913818359375,-0.6555328369140625,-0.642120361328125
20486,0.5956573486328125,-0.655731201171875,-0.6533966064453125
20487,0.58935546875,-0.680908203125,-0.6610565185546875
20488,0.58935546875,-0.680908203125,-0.6610565185546875
20489,0.5850677490234375,-0.7034454345703125,-0.6671142578125
20490,0.5821075439453125,-0.7232666015625,-0.67584228515625
20491,0.56329345703125,-0.738525390625,-0.6625213623046875
20492,0.56329345703125,-0.738525390625,-0.6625213623046875
20493,0.555267333984375,-0.724578857421875,-0.6590576171875
20494,0.555267333984375,-0.724578857421875,-0.6590576171875
20495,0.5252532958984375,-0.67279052734375,-0.655792236328125
20496,0.5252532958984375,-0.67279052734375,-0.655792236328125
20497,0.5186767578125,-0.6620941162109375,-0.6593170166015625
20498,0.5145263671875,-0.660125732421875,-0.65936279296875
20499,0.5032806396484375,-0.6537628173828125,-0.6499786376953125
20500,0.5032806396484375,-0.6537628173828125,-0.6499786376953125
20501,0.49700927734375,-0.6567535400390625,-0.646148681640625
20502,0.4880523681640625,-0.6611480712890625,-0.643768310546875
20503,0.4813079833984375,-0.67193603515625,-0.652069091796875
20504,0.4813079833984375,-0.67193603515625,-0.652069091796875
20505,0.48162841796875,-0.673980712890625,-0.6517333984375
20506,0.4855499267578125,-0.67559814453125,-0.65411376953125
20507,0.4926605224609375,-0.676666259765625,-0.6511688232421875
20508,0.49688720703125,-0.6709442138671875,-0.6526641845703125
20509,0.5015411376953125,-0.6581268310546875,-0.6468658447265625
20510,0.505279541015625,-0.645782470703125,-0.6374969482421875
20511,0.5003204345703125,-0.616485595703125,-0.6360321044921875
20512,0.5003204345703125,-0.616485595703125,-0.6360321044921875
20513,0.4935302734375,-0.6024627685546875,-0.6383209228515625
20514,0.486419677734375,-0.587005615234375,-0.6359405517578125
20515,0.4750823974609375,-0.57244873046875,-0.6320648193359375
20516,0.468505859375,-0.55987548828125,-0.63494873046875
20517,0.4639129638671875,-0.5497589111328125,-0.632537841796875
20518,0.457183837890625,-0.5543670654296875,-0.645294189453125
20519,0.4404754638671875,-0.5615997314453125,-0.6524505615234375
20520,0.4404754638671875,-0.5615997314453125,-0.6524505615234375
20521,0.437652587890625,-0.565093994140625,-0.6475372314453125
20522,0.43994140625,-0.57012939453125,-0.643951416015625
20523,0.4551544189453125,-0.58392333984375,-0.62841796875
20524,0.4551544189453125,-0.58392333984375,-0.62841796875
20525,0.46478271484375,-0.5847320556640625,-0.62115478515625
20526,0.4757537841796875,-0.5833587646484375,-0.6125640869140625
20527,0.48602294921875,-0.577178955078125,-0.6083526611328125
20528,0.494873046875,-0.569549560546875,-0.594512939453125
20529,0.5084686279296875,-0.566314697265625,-0.576202392578125
20530,0.5151519775390625,-0.5631103515625,-0.5750885009765625
20531,0.5086822509765625,-0.5778961181640625,-0.5501708984375
20532,0.5086822509765625,-0.5778961181640625,-0.5501708984375
20533,0.507568359375,-0.59027099609375,-0.551544189453125
20534,0.5140838623046875,-0.6018524169921875,-0.5510406494140625
20535,0.54266357421875,-0.618438720703125,-0.5756683349609375
20536,0.54266357421875,-0.618438720703125,-0.5756683349609375
20537,0.5541229248046875,-0.6211090087890625,-0.5995330810546875
20538,0.56341552734375,-0.62286376953125,-0.61248779296875
20539,0.560150146484375,-0.642913818359375,-0.632415771484375
20540,0.560150146484375,-0.642913818359375,-0.632415771484375
20541,0.5544891357421875,-0.65771484375,-0.64117431640625
20542,0.5392303466796875,-0.6663970947265625,-0.6364288330078125
20543,0.5347442626953125,-0.6662139892578125,-0.6327056884765625
20544,0.5347442626953125,-0.6662139892578125,-0.6327056884765625
20545,0.5436553955078125,-0.6521759033203125,-0.6286468505859375
20546,0.55120849609375,-0.638824462890625,-0.6340789794921875
20547,0.5506134033203125,-0.5963134765625,-0.6444244384765625
20548,0.5506134033203125,-0.5963134765625,-0.6444244384765625
20549,0.5421142578125,-0.58319091796875,-0.6369476318359375
20550,0.5269927978515625,-0.5769195556640625,-0.62237548828125
20551,0.5105133056640625,-0.5825653076171875,-0.6066131591796875
20552,0.497528076171875,-0.5943603515625,-0.5920257568359375
20553,0.4961700439453125,-0.605438232421875,-0.5878143310546875
20554,0.5011444091796875,-0.6175537109375,-0.591949462890625
20555,0.5106964111328125,-0.6309967041015625,-0.5841064453125
20556,0.5106964111328125,-0.6309967041015625,-0.5841064453125
20557,0.512603759765625,-0.6331939697265625,-0.5726776123046875
20558,0.514678955078125,-0.6351318359375,-0.5577850341796875
20559,0.526519775390625,-0.634185791015625,-0.53509521484375
20560,0.526519775390625,-0.634185791015625,-0.53509521484375
20561,0.5336151123046875,-0.631561279296875,-0.5285491943359375
20562,0.537567138671875,-0.6318817138671875,-0.52105712890625
20563,0.5508575439453125,-0.6209564208984375,-0.5192718505859375
20564,0.5508575439453125,-0.6209564208984375,-0.5192718505859375
20565,0.55645751953125,-0.618133544921875,-0.52374267578125
20566,0.56353759765625,-0.611907958984375,-0.5359039306640625
20567,0.5630340576171875,-0.582794189453125,-0.5330352783203125
20568,0.5630340576171875,-0.582794189453125,-0.5330352783203125
20569,0.567047119140625,-0.564849853515625,-0.544952392578125
20570,0.57098388671875,-0.5617218017578125,-0.5543365478515625
20571,0.580535888671875,-0.5661163330078125,-0.5555877685546875
20572,0.580535888671875,-0.5661163330078125,-0.5555877685546875
20573,0.580810546875,-0.567962646484375,-0.5406494140625
20574,0.5868988037109375,-0.5736541748046875,-0.5391998291015625
20575,0.5893402099609375,-0.581085205078125,-0.5330810546875
20576,0.5931243896484375,-0.5836181640625,-0.5360260009765625
20577,0.6009979248046875,-0.58673095703125,-0.540863037109375
20578,0.60614013671875,-0.588958740234375,-0.550079345703125
20579,0.6049652099609375,-0.596221923828125,-0.5765838623046875
20580,0.6049652099609375,-0.596221923828125,-0.5765838623046875
20581,0.595947265625,-0.5980987548828125,-0.57647705078125
20582,0.588226318359375,-0.5985260009765625,-0.572265625
20583,0.5833282470703125,-0.5972747802734375,-0.5700531005859375
20584,0.582183837890625,-0.597686767578125,-0.5684661865234375
20585,0.5819091796875,-0.59912109375,-0.56689453125
20586,0.5839080810546875,-0.5987396240234375,-0.561767578125
20587,0.5903778076171875,-0.595245361328125,-0.552978515625
20588,0.5959014892578125,-0.5916900634765625,-0.547607421875
20589,0.600738525390625,-0.5835113525390625,-0.5498046875
20590,0.6046142578125,-0.578094482421875,-0.5595245361328125
20591,0.60150146484375,-0.570159912109375,-0.5759735107421875
20592,0.60150146484375,-0.570159912109375,-0.5759735107421875
20593,0.6004486083984375,-0.56842041015625,-0.572845458984375
20594,0.6058502197265625,-0.571685791015625,-0.566650390625
20595,0.6064910888671875,-0.5709228515625,-0.556915283203125
20596,0.59893798828125,-0.5721893310546875,-0.5523681640625
20597,0.5877227783203125,-0.5732421875,-0.55377197265625
20598,0.58544921875,-0.587799072265625,-0.5512237548828125
20599,0.5861053466796875,-0.597320556640625,-0.5517730712890625
20600,0.5951385498046875,-0.616180419921875,-0.558807373046875
20601,0.5872650146484375,-0.6282958984375,-0.557769775390625
20602,0.5806427001953125,-0.625701904296875,-0.5643157958984375
20603,0.5736236572265625,-0.6150665283203125,-0.561614990234375
20604,0.5736236572265625,-0.6150665283203125,-0.561614990234375
20605,0.576446533203125,-0.607421875,-0.5490875244140625
20606,0.5861358642578125,-0.59796142578125,-0.5464324951171875
20607,0.593536376953125,-0.6033782958984375,-0.5461273193359375
20608,0.59326171875,-0.6108551025390625,-0.540496826171875
20609,0.58721923828125,-0.619903564453125,-0.541473388671875
20610,0.57525634765625,-0.62677001953125,-0.5466766357421875
20611,0.5550079345703125,-0.6256866455078125,-0.540771484375
20612,0.5550079345703125,-0.6256866455078125,-0.540771484375
20613,0.558319091796875,-0.61968994140625,-0.53802490234375
20614,0.568115234375,-0.61328125,-0.539215087890625
20615,0.57672119140625,-0.609100341796875,-0.5370941162109375
20616,0.5821990966796875,-0.6054534912109375,-0.5319671630859375
20617,0.5832977294921875,-0.6064453125,-0.5316619873046875
20618,0.5802764892578125,-0.6075286865234375,-0.537322998046875
20619,0.554779052734375,-0.6067047119140625,-0.552337646484375
20620,0.554779052734375,-0.6067047119140625,-0.552337646484375
20621,0.54339599609375,-0.6048126220703125,-0.564971923828125
20622,0.5378265380859375,-0.6030731201171875,-0.5753021240234375
20623,0.5225067138671875,-0.606170654296875,-0.5951690673828125
20624,0.5225067138671875,-0.606170654296875,-0.5951690673828125
20625,0.5151824951171875,-0.61236572265625,-0.5938873291015625
20626,0.5100860595703125,-0.6183929443359375,-0.5933380126953125
20627,0.514892578125,-0.62249755859375,-0.591033935546875
20628,0.5211181640625,-0.630950927734375,-0.58685302734375
20629,0.528350830078125,-0.633453369140625,-0.5879669189453125
20630,0.5401611328125,-0.6280364990234375,-0.5820770263671875
20631,0.551666259765625,-0.6419677734375,-0.5625152587890625
20632,0.551666259765625,-0.6419677734375,-0.5625152587890625
20633,0.5514984130859375,-0.6496429443359375,-0.5474090576171875
20634,0.54876708984375,-0.659759521484375,-0.54461669921875
20635,0.5363616943359375,-0.6695556640625,-0.5415496826171875
20636,0.517303466796875,-0.6800384521484375,-0.5282745361328125
20637,0.5038604736328125,-0.6848297119140625,-0.517608642578125
20638,0.496185302734375,-0.6883544921875,-0.515167236328125
20639,0.5030670166015625,-0.6864776611328125,-0.5245361328125
20640,0.5185394287109375,-0.6856689453125,-0.529937744140625
20641,0.5339508056640625,-0.6821136474609375,-0.5296173095703125
20642,0.5372314453125,-0.670318603515625,-0.535858154296875
20643,0.536590576171875,-0.6578216552734375,-0.5394744873046875
20644,0.536590576171875,-0.6578216552734375,-0.5394744873046875
20645,0.5355987548828125,-0.6621856689453125,-0.5376434326171875
20646,0.53253173828125,-0.6696319580078125,-0.53363037109375
20647,0.5122833251953125,-0.71624755859375,-0.5415191650390625
20648,0.5122833251953125,-0.71624755859375,-0.5415191650390625
20649,0.504486083984375,-0.73309326171875,-0.5511016845703125
20650,0.504486083984375,-0.73309326171875,-0.5511016845703125
20651,0.492431640625,-0.75140380859375,-0.567779541015625
20652,0.482177734375,-0.7769927978515625,-0.57843017578125
20653,0.482177734375,-0.7769927978515625,-0.57843017578125
20654,0.467620849609375,-0.806396484375,-0.6118927001953125
20655,0.4818267822265625,-0.875030517578125,-0.62310791015625
20656,0.5050201416015625,-0.890838623046875,-0.584014892578125
20657,0.520965576171875,-0.8609619140625,-0.53411865234375
20658,0.4775390625,-0.81243896484375,-0.543304443359375
20659,0.48724365234375,-0.680755615234375,-0.4754791259765625
20660,0.48724365234375,-0.680755615234375,-0.4754791259765625
20661,0.48724365234375,-0.680755615234375,-0.4754791259765625
20662,0.5182647705078125,-0.6438446044921875,-0.6321563720703125
20663,0.61212158203125,-0.6605377197265625,-0.7005767822265625
20664,0.6280364990234375,-0.720672607421875,-0.7144012451171875
20665,0.5906829833984375,-0.787078857421875,-0.6950836181640625
20666,0.552001953125,-0.805145263671875,-0.56317138671875
20667,0.5041961669921875,-0.82958984375,-0.41619873046875
20668,0.464813232421875,-0.84710693359375,-0.3519287109375
20669,0.464813232421875,-0.84710693359375,-0.3519287109375
20670,0.4365692138671875,-0.821807861328125,-0.34698486328125
20671,0.3450775146484375,-0.776763916015625,-0.3703155517578125
20672,0.2936859130859375,-0.76019287109375,-0.43316650390625
20673,0.2936859130859375,-0.76019287109375,-0.43316650390625
20674,0.25146484375,-0.750885009765625,-0.472198486328125
20675,0.1960296630859375,-0.7664031982421875,-0.5473480224609375
20676,0.1631927490234375,-0.82330322265625,-0.5724639892578125
20677,0.1455841064453125,-0.84710693359375,-0.60076904296875
20678,0.1455841064453125,-0.84710693359375,-0.60076904296875
20679,0.088043212890625,-0.9034881591796876,-0.6086578369140625
20680,0.0569305419921875,-0.89178466796875,-0.6251678466796875
20681,0.0569305419921875,-0.89178466796875,-0.6251678466796875
20682,0.037200927734375,-0.8825225830078125,-0.62811279296875
20683,0.0346527099609375,-0.8563079833984375,-0.6224517822265625
20684,0.0477294921875,-0.8483734130859375,-0.6076202392578125
20685,0.0699005126953125,-0.841033935546875,-0.6112518310546875
20686,0.09942626953125,-0.8336944580078125,-0.6039276123046875
20687,0.11639404296875,-0.8352813720703125,-0.5831298828125
20688,0.136962890625,-0.827484130859375,-0.59161376953125
20689,0.1520843505859375,-0.835357666015625,-0.5829925537109375
20690,0.14208984375,-0.8428497314453125,-0.574462890625
20691,0.1229705810546875,-0.855865478515625,-0.57147216796875
20692,0.114410400390625,-0.8637237548828125,-0.54913330078125
20693,0.09478759765625,-0.8770751953125,-0.542938232421875
20694,0.0883636474609375,-0.8509521484375,-0.540374755859375
20695,0.08758544921875,-0.856964111328125,-0.5117950439453125
20696,0.0895233154296875,-0.8462982177734375,-0.4861297607421875
20697,0.0895233154296875,-0.8462982177734375,-0.4861297607421875
20698,0.078277587890625,-0.839263916015625,-0.4633636474609375
20699,0.078277587890625,-0.839263916015625,-0.4633636474609375
20700,0.0644073486328125,-0.799591064453125,-0.4928436279296875
20701,0.0706634521484375,-0.7810516357421875,-0.5280609130859375
20702,0.124969482421875,-0.7861328125,-0.5923309326171875
20703,-0.0282135009765625,-0.798431396484375,-0.278778076171875
20704,0.001861572265625,-0.806243896484375,-0.482421875
20705,0.0378875732421875,-0.820770263671875,-0.4665374755859375
20706,0.047698974609375,-0.8280181884765625,-0.382568359375
20707,0.087249755859375,-0.84625244140625,-0.3969879150390625
20708,0.133392333984375,-0.8687286376953125,-0.407257080078125
20709,0.133392333984375,-0.8687286376953125,-0.407257080078125
20710,0.17633056640625,-0.8701019287109375,-0.4063873291015625
20711,0.2467193603515625,-0.8820343017578125,-0.3766021728515625
20712,0.246551513671875,-0.8826904296875,-0.366302490234375
20713,0.2275238037109375,-0.869903564453125,-0.3583526611328125
20714,0.210662841796875,-0.8536834716796875,-0.339019775390625
20715,0.19818115234375,-0.84942626953125,-0.334930419921875
20716,0.20257568359375,-0.8465576171875,-0.3193359375
20717,0.2278594970703125,-0.8829498291015625,-0.3186187744140625
20718,0.1851043701171875,-0.9174041748046876,-0.4420318603515625
20719,0.1251678466796875,-0.871002197265625,-0.4972686767578125
20720,0.0962371826171875,-0.8512725830078125,-0.460662841796875
20721,0.0547637939453125,-0.8626861572265625,-0.436187744140625
20722,0.0115966796875,-0.8577880859375,-0.4520263671875
20723,-0.0244598388671875,-0.8569488525390625,-0.4409942626953125
20724,-0.0479736328125,-0.8844451904296875,-0.3953704833984375
20725,-0.0446319580078125,-0.91748046875,-0.4004974365234375
20726,-0.0252227783203125,-0.9435882568359376,-0.382080078125
20727,0.007568359375,-1.000625610351562,-0.3458404541015625
20728,0.0308837890625,-1.042266845703125,-0.3328857421875
20729,0.059600830078125,-1.053298950195312,-0.3160858154296875
20730,0.0827178955078125,-1.069076538085938,-0.2893829345703125
20731,0.0794525146484375,-1.05194091796875,-0.2829742431640625
20732,0.073150634765625,-1.020294189453125,-0.2624053955078125
20733,0.0680694580078125,-0.99383544921875,-0.233428955078125
20734,0.0521697998046875,-0.964569091796875,-0.20831298828125
20735,0.0279998779296875,-0.95025634765625,-0.18853759765625
20736,0.005279541015625,-0.94012451171875,-0.170989990234375
20737,-0.0146331787109375,-0.9201202392578124,-0.151885986328125
20738,-0.02398681640625,-0.918548583984375,-0.1426849365234375
20739,-0.03411865234375,-0.9064483642578124,-0.1472930908203125
20740,-0.0433349609375,-0.9181365966796876,-0.1661529541015625
20741,-0.048614501953125,-0.9281158447265624,-0.1750030517578125
20742,-0.0431976318359375,-0.931243896484375,-0.1529083251953125
20743,-0.03179931640625,-0.93994140625,-0.155364990234375
20744,-0.0274658203125,-0.93804931640625,-0.1422882080078125
20745,-0.0249481201171875,-0.9444427490234376,-0.0941162109375
20746,-0.01702880859375,-0.9649810791015624,-0.0614471435546875
20747,-0.0208892822265625,-0.972442626953125,-0.0336761474609375
20748,-0.027191162109375,-0.988922119140625,-0.0213623046875
20749,-0.0214996337890625,-1.012252807617188,-0.013946533203125
20750,-0.018402099609375,-1.020919799804688,0.0048675537109375
20751,-0.0179290771484375,-1.037216186523438,0.0013885498046875
20752,-0.0168914794921875,-1.050308227539062,-0.0145416259765625
20753,-0.01385498046875,-1.060348510742188,-0.045806884765625
20754,-0.019256591796875,-1.060028076171875,-0.0784454345703125
20755,-0.053619384765625,-1.033889770507812,-0.2341766357421875
20756,-0.0206298828125,-1.046127319335938,-0.3139190673828125
20757,0.0193023681640625,-1.010772705078125,-0.0609893798828125
20758,-0.0340728759765625,-1.0054931640625,0.259490966796875
20759,-0.0359344482421875,-1.071319580078125,0.0056610107421875
20760,-0.0780792236328125,-0.948455810546875,-0.1390838623046875
20761,-0.20062255859375,-0.98797607421875,-0.0863037109375
20762,-0.18243408203125,-0.9782867431640624,0.026275634765625
20763,-0.16058349609375,-0.95526123046875,0.029388427734375
20764,-0.1233062744140625,-0.9343414306640624,-0.0850830078125
20765,-0.0919342041015625,-0.9326629638671876,-0.1605072021484375
20766,-0.055816650390625,-0.9771728515625,-0.2332611083984375
20767,0.0040283203125,-1.028350830078125,-0.312896728515625
20768,0.07147216796875,-1.06890869140625,-0.4637298583984375
20769,0.123443603515625,-1.124130249023438,-0.5209808349609375
20770,0.1801300048828125,-1.165176391601562,-0.6246490478515625
20771,0.2715911865234375,-1.234634399414062,-0.6848297119140625
20772,0.2715911865234375,-1.234634399414062,-0.6848297119140625
20773,0.3157501220703125,-1.205459594726562,-0.633819580078125
20774,0.3716278076171875,-1.15380859375,-0.6125335693359375
20775,0.462982177734375,-1.024612426757812,-0.5371856689453125
20776,0.462982177734375,-1.024612426757812,-0.5371856689453125
20777,0.481353759765625,-0.9542999267578124,-0.4487457275390625
20778,0.486114501953125,-0.9166107177734376,-0.348541259765625
20779,0.4667205810546875,-0.8981170654296875,-0.2398223876953125
20780,0.4092559814453125,-0.8827972412109375,-0.149261474609375
20781,0.3462677001953125,-0.881561279296875,-0.153900146484375
20782,0.30157470703125,-0.9031829833984376,-0.20831298828125
20783,0.1940155029296875,-0.9553070068359376,-0.2481842041015625
20784,0.1940155029296875,-0.9553070068359376,-0.2481842041015625
20785,0.1616973876953125,-0.94580078125,-0.27105712890625
20786,0.133148193359375,-0.92340087890625,-0.3060760498046875
20787,0.10546875,-0.90057373046875,-0.3277587890625
20788,0.0962066650390625,-0.8825836181640625,-0.3230133056640625
20789,0.0985565185546875,-0.8640899658203125,-0.3294525146484375
20790,0.11114501953125,-0.8559112548828125,-0.3397979736328125
20791,0.16070556640625,-0.8470611572265625,-0.3275604248046875
20792,0.16070556640625,-0.8470611572265625,-0.3275604248046875
20793,0.1794281005859375,-0.8531646728515625,-0.3260955810546875
20794,0.1893463134765625,-0.865692138671875,-0.30572509765625
20795,0.2040557861328125,-0.9125823974609376,-0.2895050048828125
20796,0.2040557861328125,-0.9125823974609376,-0.2895050048828125
20797,0.211639404296875,-0.933837890625,-0.2737274169921875
20798,0.2163238525390625,-0.9552459716796876,-0.2601165771484375
20799,0.2174072265625,-0.96795654296875,-0.2516632080078125
20800,0.2179718017578125,-0.9774322509765624,-0.239105224609375
20801,0.2180328369140625,-0.9796905517578124,-0.23065185546875
20802,0.218719482421875,-0.9831085205078124,-0.227081298828125
20803,0.2140655517578125,-0.9892120361328124,-0.2205963134765625
20804,0.209075927734375,-0.989166259765625,-0.212677001953125
20805,0.19842529296875,-0.97821044921875,-0.2060394287109375
20806,0.18658447265625,-0.9662933349609376,-0.2081298828125
20807,0.15423583984375,-0.9630889892578124,-0.22613525390625
20808,0.15423583984375,-0.9630889892578124,-0.22613525390625
20809,0.1409912109375,-0.9569549560546876,-0.242706298828125
20810,0.13006591796875,-0.952392578125,-0.2645721435546875
20811,0.1169891357421875,-0.955291748046875,-0.28515625
20812,0.1169891357421875,-0.955291748046875,-0.28515625
20813,0.1143035888671875,-0.9578857421875,-0.288543701171875
20814,0.116119384765625,-0.9564361572265624,-0.302642822265625
20815,0.14617919921875,-0.9564056396484376,-0.3809051513671875
20816,0.14617919921875,-0.9564056396484376,-0.3809051513671875
20817,0.1696014404296875,-0.9642791748046876,-0.40789794921875
20818,0.1993865966796875,-0.968170166015625,-0.42730712890625
20819,0.233367919921875,-0.966766357421875,-0.4416046142578125
20820,0.26568603515625,-0.9694061279296876,-0.4425201416015625
20821,0.2896575927734375,-0.968994140625,-0.4304656982421875
20822,0.2896575927734375,-0.968994140625,-0.4304656982421875
20823,0.2996826171875,-0.961883544921875,-0.4102325439453125
20824,0.2877197265625,-0.9593353271484376,-0.3927764892578125
20825,0.257293701171875,-0.9494171142578124,-0.3761138916015625
20826,0.257293701171875,-0.9494171142578124,-0.3761138916015625
20827,0.1693572998046875,-0.9051055908203124,-0.334808349609375
20828,0.1335296630859375,-0.896575927734375,-0.3280181884765625
20829,0.109893798828125,-0.894439697265625,-0.3214111328125
20830,0.114471435546875,-0.8900146484375,-0.300201416015625
20831,0.1278076171875,-0.8978118896484375,-0.2776031494140625
20832,0.127227783203125,-0.907958984375,-0.28436279296875
20833,0.1287994384765625,-0.91680908203125,-0.365234375
20834,0.1002655029296875,-0.92681884765625,-0.2031402587890625
20835,0.0329437255859375,-0.90594482421875,-0.307769775390625
20836,0.080810546875,-0.8980255126953125,-0.393096923828125
20837,0.06964111328125,-0.8778533935546875,-0.3639373779296875
20838,0.0439453125,-0.889404296875,-0.37677001953125
20839,0.0251617431640625,-0.906158447265625,-0.4026641845703125
20840,0.02215576171875,-0.9269561767578124,-0.387939453125
20841,0.0184783935546875,-0.9436187744140624,-0.3871002197265625
20842,0.0251922607421875,-0.9633331298828124,-0.3915557861328125
20843,0.030181884765625,-0.984344482421875,-0.322601318359375
20844,0.030181884765625,-0.984344482421875,-0.322601318359375
20845,0.03729248046875,-0.9890594482421876,-0.283050537109375
20846,0.0445404052734375,-0.986175537109375,-0.26275634765625
20847,0.0705413818359375,-0.96466064453125,-0.300994873046875
20848,0.0705413818359375,-0.96466064453125,-0.300994873046875
20849,0.080078125,-0.952728271484375,-0.3314666748046875
20850,0.0792999267578125,-0.9401702880859376,-0.3271026611328125
20851,0.0671844482421875,-0.9342803955078124,-0.3075408935546875
20852,0.0608062744140625,-0.9363250732421876,-0.3014068603515625
20853,0.058441162109375,-0.937042236328125,-0.2975311279296875
20854,0.0602569580078125,-0.936614990234375,-0.2949371337890625
20855,0.0667572021484375,-0.938690185546875,-0.2972412109375
20856,0.0685882568359375,-0.9494476318359376,-0.294921875
20857,0.069183349609375,-0.9630889892578124,-0.296234130859375
20858,0.0738525390625,-0.9640655517578124,-0.2979583740234375
20859,0.07763671875,-0.971099853515625,-0.2997283935546875
20860,0.0831451416015625,-0.9790191650390624,-0.30450439453125
20861,0.0814056396484375,-0.98443603515625,-0.30389404296875
20862,0.0836029052734375,-0.9863128662109376,-0.29974365234375
20863,0.0781402587890625,-0.985137939453125,-0.2979888916015625
20864,0.0781402587890625,-0.985137939453125,-0.2979888916015625
20865,0.067718505859375,-0.9783477783203124,-0.292236328125
20866,0.067718505859375,-0.9783477783203124,-0.292236328125
20867,0.052734375,-0.9541168212890624,-0.296234130859375
20868,0.052734375,-0.9541168212890624,-0.296234130859375
20869,0.050323486328125,-0.9475860595703124,-0.3007354736328125
20870,0.05096435546875,-0.9440460205078124,-0.3016510009765625
20871,0.0565643310546875,-0.940216064453125,-0.302276611328125
20872,0.0565643310546875,-0.940216064453125,-0.302276611328125
20873,0.06103515625,-0.941802978515625,-0.301788330078125
20874,0.0583038330078125,-0.956207275390625,-0.2975311279296875
20875,0.0320587158203125,-0.9754791259765624,-0.3023834228515625
20876,0.0320587158203125,-0.9754791259765624,-0.3023834228515625
20877,0.01446533203125,-0.9875640869140624,-0.3000640869140625
20878,-0.000213623046875,-0.995574951171875,-0.3818206787109375
20879,-0.0178680419921875,-1.006973266601562,-0.2484130859375
20880,-0.082489013671875,-1.00506591796875,-0.173492431640625
20881,-0.073486328125,-1.00146484375,-0.277435302734375
20882,-0.0380096435546875,-1.019485473632812,-0.256317138671875
20883,0.0067138671875,-0.9962921142578124,-0.26922607421875
20884,0.0067138671875,-0.9962921142578124,-0.26922607421875
20885,0.0298004150390625,-0.9845428466796876,-0.2946319580078125
20886,0.033721923828125,-0.9758453369140624,-0.2866973876953125
20887,0.002777099609375,-0.9704742431640624,-0.2540740966796875
20888,0.002777099609375,-0.9704742431640624,-0.2540740966796875
20889,0.0036773681640625,-0.974365234375,-0.256622314453125
20890,-0.0118408203125,-0.9691314697265624,-0.241851806640625
20891,-0.0152130126953125,-0.9650726318359376,-0.2342376708984375
20892,-0.0152130126953125,-0.9650726318359376,-0.2342376708984375
20893,-0.0062103271484375,-0.96923828125,-0.2324676513671875
20894,-0.0003509521484375,-0.972076416015625,-0.227813720703125
20895,0.0068206787109375,-0.9879608154296876,-0.2373504638671875
20896,0.0068206787109375,-0.9879608154296876,-0.2373504638671875
20897,0.0188446044921875,-0.9972686767578124,-0.2824249267578125
20898,0.0310516357421875,-0.992340087890625,-0.3253021240234375
20899,0.0350189208984375,-0.987762451171875,-0.3198699951171875
20900,0.03076171875,-0.990081787109375,-0.27069091796875
20901,0.0270233154296875,-0.9940185546875,-0.2105560302734375
20902,0.0357666015625,-0.9908599853515624,-0.1619873046875
20903,0.095367431640625,-1.001510620117188,-0.0784912109375
20904,0.095367431640625,-1.001510620117188,-0.0784912109375
20905,0.0894317626953125,-0.9849090576171876,-0.1219482421875
20906,0.11566162109375,-0.9943084716796876,-0.189453125
20907,0.0613861083984375,-1.009017944335938,-0.2515716552734375
20908,0.0613861083984375,-1.009017944335938,-0.2515716552734375
20909,0.0293731689453125,-1.019668579101562,-0.2877044677734375
20910,0.0030364990234375,-1.018524169921875,-0.2978973388671875
20911,-0.041290283203125,-0.9918670654296876,-0.23883056640625
20912,-0.041290283203125,-0.9918670654296876,-0.23883056640625
20913,-0.0477447509765625,-0.9844207763671876,-0.2310943603515625
20914,-0.027008056640625,-0.967315673828125,-0.2161712646484375
20915,0.0054779052734375,-0.9545135498046876,-0.2022705078125
20916,0.04058837890625,-0.9480133056640624,-0.2035980224609375
20917,0.0728912353515625,-0.942901611328125,-0.1910552978515625
20918,0.1060333251953125,-0.9486083984375,-0.1770477294921875
20919,0.1332244873046875,-0.942962646484375,-0.17767333984375
20920,0.142578125,-0.948699951171875,-0.15985107421875
20921,0.1406097412109375,-0.95416259765625,-0.1588897705078125
20922,0.129486083984375,-0.959228515625,-0.1527557373046875
20923,0.105743408203125,-0.975006103515625,-0.142791748046875
20924,0.105743408203125,-0.975006103515625,-0.142791748046875
20925,0.0965576171875,-0.99114990234375,-0.1408233642578125
20926,0.084136962890625,-1.020217895507812,-0.1377716064453125
20927,0.084136962890625,-1.020217895507812,-0.1377716064453125
20928,0.07806396484375,-1.033050537109375,-0.1330718994140625
20929,0.0719146728515625,-1.037582397460938,-0.1323699951171875
20930,0.0714263916015625,-1.038894653320312,-0.1313934326171875
20931,0.0695037841796875,-1.0374755859375,-0.130828857421875
20932,0.0733795166015625,-1.023956298828125,-0.1319122314453125
20933,0.0768585205078125,-1.011627197265625,-0.128814697265625
20934,0.078369140625,-0.9964447021484376,-0.130401611328125
20935,0.0871734619140625,-0.97406005859375,-0.1305999755859375
20936,0.0871734619140625,-0.97406005859375,-0.1305999755859375
20937,0.091827392578125,-0.9664154052734376,-0.1289520263671875
20938,0.0948333740234375,-0.963409423828125,-0.1303253173828125
20939,0.095703125,-0.9606170654296876,-0.1309051513671875
20940,0.099456787109375,-0.9656982421875,-0.1297454833984375
20941,0.1055755615234375,-0.975006103515625,-0.1241607666015625
20942,0.110382080078125,-0.9786224365234376,-0.1273345947265625
20943,0.11199951171875,-0.9844970703125,-0.12200927734375
20944,0.113861083984375,-0.9897003173828124,-0.1201629638671875
20945,0.117706298828125,-0.988739013671875,-0.1168975830078125
20946,0.1156158447265625,-0.98992919921875,-0.1162567138671875
20947,0.113494873046875,-0.994232177734375,-0.1136322021484375
20948,0.113494873046875,-0.994232177734375,-0.1136322021484375
20949,0.112335205078125,-0.9900054931640624,-0.1150360107421875
20950,0.11090087890625,-0.985565185546875,-0.11492919921875
20951,0.10699462890625,-0.98699951171875,-0.10919189453125
20952,0.101104736328125,-0.98699951171875,-0.1107177734375
20953,0.09381103515625,-0.9889373779296876,-0.112762451171875
20954,0.091094970703125,-0.991943359375,-0.1116790771484375
20955,0.082672119140625,-0.9951324462890624,-0.109832763671875
20956,0.082672119140625,-0.9951324462890624,-0.109832763671875
20957,0.0792694091796875,-0.997528076171875,-0.1028594970703125
20958,0.0779571533203125,-0.99981689453125,-0.09759521484375
20959,0.0800933837890625,-0.99896240234375,-0.0977325439453125
20960,0.079986572265625,-1.000198364257812,-0.095672607421875
20961,0.0820159912109375,-0.99957275390625,-0.1016845703125
20962,0.08135986328125,-0.994842529296875,-0.1038665771484375
20963,0.0815887451171875,-0.9917144775390624,-0.1084442138671875
20964,0.08258056640625,-0.9919281005859376,-0.1074371337890625
20965,0.08526611328125,-0.9952545166015624,-0.10247802734375
20966,0.0872955322265625,-1.0001220703125,-0.100006103515625
20967,0.0887603759765625,-1.00018310546875,-0.1000823974609375
20968,0.0920562744140625,-0.9975738525390624,-0.1031951904296875
20969,0.093353271484375,-0.998504638671875,-0.104583740234375
20970,0.0931243896484375,-1.002838134765625,-0.1054534912109375
20971,0.0914306640625,-1.000442504882812,-0.1063232421875
20972,0.09332275390625,-0.994232177734375,-0.107879638671875
20973,0.094390869140625,-0.9898529052734376,-0.1043853759765625
20974,0.0926971435546875,-0.9906768798828124,-0.0993499755859375
20975,0.093536376953125,-0.9942474365234376,-0.0993194580078125
20976,0.093536376953125,-0.9942474365234376,-0.0993194580078125
20977,0.0924224853515625,-0.990936279296875,-0.10321044921875
20978,0.08746337890625,-0.993408203125,-0.0963134765625
20979,0.0845184326171875,-1.000991821289062,-0.0908355712890625
20980,0.0845184326171875,-1.000991821289062,-0.0908355712890625
20981,0.0841064453125,-0.9999847412109376,-0.0963592529296875
20982,0.0872650146484375,-1.002899169921875,-0.0961761474609375
20983,0.0883331298828125,-1.006103515625,-0.093505859375
20984,0.089630126953125,-1.004730224609375,-0.092926025390625
20985,0.0936431884765625,-1.002456665039062,-0.09375
20986,0.0956878662109375,-0.9954986572265624,-0.0938568115234375
20987,0.0957794189453125,-0.9881591796875,-0.09661865234375
20988,0.0957794189453125,-0.9881591796875,-0.09661865234375
20989,0.09613037109375,-0.98529052734375,-0.098114013671875
20990,0.0960845947265625,-0.98858642578125,-0.0955352783203125
20991,0.09710693359375,-0.992523193359375,-0.0911407470703125
20992,0.0939788818359375,-0.996185302734375,-0.08782958984375
20993,0.0932769775390625,-0.995391845703125,-0.0877227783203125
20994,0.0945587158203125,-0.994171142578125,-0.08880615234375
20995,0.0892486572265625,-0.9985809326171876,-0.0848388671875
20996,0.0892486572265625,-0.9985809326171876,-0.0848388671875
20997,0.0888824462890625,-0.998779296875,-0.089447021484375
20998,0.0878448486328125,-1.002609252929688,-0.0849456787109375
20999,0.0897064208984375,-0.9993743896484376,-0.0843505859375
21000,0.0886688232421875,-0.9937744140625,-0.092498779296875
21001,0.0906829833984375,-0.994354248046875,-0.0915679931640625
21002,0.09307861328125,-0.990081787109375,-0.0908660888671875
21003,0.095367431640625,-0.9860076904296876,-0.0922088623046875
21004,0.09869384765625,-0.9847869873046876,-0.0915679931640625
21005,0.09869384765625,-0.9849853515625,-0.0921630859375
21006,0.1005096435546875,-0.988800048828125,-0.0928497314453125
21007,0.100341796875,-0.9910125732421876,-0.08807373046875
21008,0.1010894775390625,-0.9931488037109376,-0.0828704833984375
21009,0.10150146484375,-0.9950103759765624,-0.082672119140625
21010,0.101959228515625,-0.99658203125,-0.079254150390625
21011,0.102081298828125,-0.9925079345703124,-0.0796051025390625
21012,0.102081298828125,-0.9925079345703124,-0.0796051025390625
21013,0.099945068359375,-0.9939727783203124,-0.0798492431640625
21014,0.099456787109375,-0.9943084716796876,-0.0809783935546875
21015,0.098358154296875,-0.994354248046875,-0.0758056640625
21016,0.09881591796875,-0.99609375,-0.077606201171875
21017,0.098846435546875,-1.000015258789062,-0.07293701171875
21018,0.10040283203125,-1.00244140625,-0.073272705078125
21019,0.1039886474609375,-1.0040283203125,-0.074554443359375
21020,0.107025146484375,-1.002304077148438,-0.0794219970703125
21021,0.10894775390625,-1.003494262695312,-0.0789337158203125
21022,0.108612060546875,-1.002471923828125,-0.074493408203125
21023,0.107177734375,-0.99566650390625,-0.067352294921875
21024,0.107177734375,-0.99566650390625,-0.067352294921875
21025,0.1079559326171875,-0.9937591552734376,-0.067413330078125
21026,0.1081390380859375,-0.9967803955078124,-0.06793212890625
21027,0.113739013671875,-0.99188232421875,-0.0717315673828125
21028,0.113739013671875,-0.99188232421875,-0.0717315673828125
21029,0.1172332763671875,-0.988128662109375,-0.07269287109375
21030,0.1165313720703125,-0.988037109375,-0.070831298828125
21031,0.1164703369140625,-0.9876708984375,-0.07568359375
21032,0.1165924072265625,-0.99017333984375,-0.076385498046875
21033,0.1156463623046875,-0.9898223876953124,-0.0742340087890625
21034,0.1122894287109375,-0.9885406494140624,-0.069091796875
21035,0.1112060546875,-0.99188232421875,-0.0640869140625
21036,0.1099700927734375,-0.9940185546875,-0.0602874755859375
21037,0.1081390380859375,-0.9957275390625,-0.0579071044921875
21038,0.1091766357421875,-0.9971771240234376,-0.061187744140625
21039,0.11065673828125,-0.998779296875,-0.066070556640625
21040,0.11065673828125,-0.998779296875,-0.066070556640625
21041,0.1099700927734375,-0.9962158203125,-0.067901611328125
21042,0.10687255859375,-0.99365234375,-0.063507080078125
21043,0.103515625,-0.9870452880859376,-0.06005859375
21044,0.103515625,-0.9870452880859376,-0.06005859375
21045,0.1070556640625,-0.985870361328125,-0.064239501953125
21046,0.1069793701171875,-0.9872283935546876,-0.06317138671875
21047,0.104827880859375,-0.991455078125,-0.062042236328125
21048,0.1046600341796875,-0.9962310791015624,-0.0590362548828125
21049,0.104583740234375,-1.000030517578125,-0.0586090087890625
21050,0.104461669921875,-1.002365112304688,-0.0601654052734375
21051,0.105316162109375,-1.000625610351562,-0.0622406005859375
21052,0.1051177978515625,-0.999481201171875,-0.0613555908203125
21053,0.103546142578125,-0.9951171875,-0.059844970703125
21054,0.1019287109375,-0.9910888671875,-0.059356689453125
21055,0.10162353515625,-0.9960174560546876,-0.05712890625
21056,0.10162353515625,-0.9960174560546876,-0.05712890625
21057,0.101104736328125,-0.9993896484375,-0.05419921875
21058,0.101715087890625,-1.001541137695312,-0.0521697998046875
21059,0.101715087890625,-1.001541137695312,-0.0521697998046875
21060,0.101654052734375,-1.001937866210938,-0.051605224609375
21061,0.1041259765625,-1.000991821289062,-0.053802490234375
21062,0.1054840087890625,-0.999755859375,-0.055877685546875
21063,0.106231689453125,-0.9996337890625,-0.057830810546875
21064,0.1053619384765625,-0.997406005859375,-0.060272216796875
21065,0.1034698486328125,-0.999359130859375,-0.0587158203125
21066,0.1021728515625,-1.001571655273438,-0.054840087890625
21067,0.10467529296875,-1.001937866210938,-0.05615234375
21068,0.10467529296875,-1.001937866210938,-0.05615234375
21069,0.1061248779296875,-1.00103759765625,-0.0572052001953125
21070,0.107757568359375,-0.998748779296875,-0.0586700439453125
21071,0.1098785400390625,-0.9959259033203124,-0.0522613525390625
21072,0.1098785400390625,-0.9959259033203124,-0.0522613525390625
21073,0.1101837158203125,-0.9979248046875,-0.04949951171875
21074,0.1103515625,-1.000625610351562,-0.04913330078125
21075,0.1110382080078125,-1.000503540039062,-0.0515289306640625
21076,0.1110382080078125,-1.000503540039062,-0.0515289306640625
21077,0.112640380859375,-0.9964599609375,-0.05487060546875
21078,0.1136474609375,-0.9947967529296876,-0.057525634765625
21079,0.1136474609375,-0.9947967529296876,-0.057525634765625
21080,0.11077880859375,-0.9948577880859376,-0.0546112060546875
21081,0.1098480224609375,-0.9958953857421876,-0.0524444580078125
21082,0.10845947265625,-0.99737548828125,-0.053375244140625
21083,0.1097564697265625,-1.003524780273438,-0.0521392822265625
21084,0.1097564697265625,-1.003524780273438,-0.0521392822265625
21085,0.1109466552734375,-1.00433349609375,-0.054351806640625
21086,0.1121978759765625,-1.007110595703125,-0.054840087890625
21087,0.1119232177734375,-1.008331298828125,-0.0536041259765625
21088,0.1116180419921875,-1.00665283203125,-0.0517120361328125
21089,0.1099853515625,-1.0050048828125,-0.0521697998046875
21090,0.109039306640625,-0.99920654296875,-0.0584716796875
21091,0.10919189453125,-0.9958038330078124,-0.0584259033203125
21092,0.10919189453125,-0.9958038330078124,-0.0584259033203125
21093,0.1082000732421875,-0.9949188232421876,-0.057830810546875
21094,0.1095733642578125,-0.9925994873046876,-0.0534820556640625
21095,0.1111907958984375,-0.992950439453125,-0.0549774169921875
21096,0.111663818359375,-0.9933319091796876,-0.0572509765625
21097,0.11138916015625,-0.993560791015625,-0.0603179931640625
21098,0.1091766357421875,-0.99224853515625,-0.0565643310546875
21099,0.1091766357421875,-0.99224853515625,-0.0565643310546875
21100,0.109100341796875,-0.9911041259765624,-0.058258056640625
21101,0.109710693359375,-0.9925994873046876,-0.0587005615234375
21102,0.110321044921875,-0.9941253662109376,-0.0610504150390625
21103,0.1095428466796875,-0.996063232421875,-0.057586669921875
21104,0.110076904296875,-0.9979248046875,-0.0546875
21105,0.1114501953125,-0.9992218017578124,-0.057098388671875
21106,0.111724853515625,-1.001052856445312,-0.053619384765625
21107,0.112823486328125,-0.99822998046875,-0.056976318359375
21108,0.112823486328125,-0.99822998046875,-0.056976318359375
21109,0.1138916015625,-0.9944915771484376,-0.0618896484375
21110,0.114654541015625,-0.995361328125,-0.0578765869140625
21111,0.1152191162109375,-0.99957275390625,-0.0553741455078125
21112,0.115386962890625,-0.9999542236328124,-0.0566253662109375
21113,0.1160125732421875,-0.9974517822265624,-0.0572967529296875
21114,0.113983154296875,-0.994049072265625,-0.057373046875
21115,0.113983154296875,-0.994049072265625,-0.057373046875
21116,0.11505126953125,-0.9952239990234376,-0.05670166015625
21117,0.1150054931640625,-0.997772216796875,-0.054595947265625
21118,0.1121063232421875,-1.001022338867188,-0.0585174560546875
21119,0.1121063232421875,-1.001022338867188,-0.0585174560546875
21120,0.1102752685546875,-1.001602172851562,-0.055999755859375
21121,0.1093597412109375,-1.001693725585938,-0.0526123046875
21122,0.1089019775390625,-1.000961303710938,-0.052764892578125
21123,0.1089019775390625,-1.000961303710938,-0.052764892578125
21124,0.1101531982421875,-1.00164794921875,-0.05279541015625
21125,0.1116485595703125,-1.0001220703125,-0.05535888671875
21126,0.1117095947265625,-0.9994964599609376,-0.0545196533203125
21127,0.11370849609375,-0.99542236328125,-0.0569305419921875
21128,0.11370849609375,-0.99542236328125,-0.0569305419921875
21129,0.1154327392578125,-0.9905853271484376,-0.0586090087890625
21130,0.1144256591796875,-0.992431640625,-0.051605224609375
21131,0.1148834228515625,-0.9952239990234376,-0.053466796875
21132,0.11248779296875,-0.9991912841796876,-0.0547027587890625
21133,0.1104583740234375,-1.003280639648438,-0.050567626953125
21134,0.1112518310546875,-1.007186889648438,-0.0510406494140625
21135,0.1112518310546875,-1.007186889648438,-0.0510406494140625
21136,0.1121673583984375,-1.005386352539062,-0.053619384765625
21137,0.1139678955078125,-1.005081176757812,-0.0547943115234375
21138,0.11126708984375,-0.9943084716796876,-0.052032470703125
21139,0.11126708984375,-0.9943084716796876,-0.052032470703125
21140,0.11126708984375,-0.9943084716796876,-0.052032470703125
21141,0.109344482421875,-0.996063232421875,-0.0510406494140625
21142,0.1087493896484375,-0.998260498046875,-0.0521240234375
21143,0.1089019775390625,-0.9967498779296876,-0.05108642578125
21144,0.108612060546875,-0.9960784912109376,-0.0542144775390625
21145,0.1092071533203125,-0.9968109130859376,-0.05596923828125
21146,0.1082305908203125,-0.995635986328125,-0.05450439453125
21147,0.1082305908203125,-0.995635986328125,-0.05450439453125
21148,0.1086578369140625,-0.99871826171875,-0.050872802734375
21149,0.1096038818359375,-0.9998016357421876,-0.0512847900390625
21150,0.1099090576171875,-0.9998779296875,-0.0512542724609375
21151,0.1107635498046875,-0.9987030029296876,-0.049102783203125
21152,0.112518310546875,-0.9989471435546876,-0.0489959716796875
21153,0.1134490966796875,-0.99847412109375,-0.051788330078125
21154,0.11395263671875,-0.9979248046875,-0.050262451171875
21155,0.11614990234375,-1.0010986328125,-0.050018310546875
21156,0.1178131103515625,-1.002883911132812,-0.053375244140625
21157,0.1177825927734375,-1.001632690429688,-0.051116943359375
21158,0.1181182861328125,-0.9980621337890624,-0.0513153076171875
21159,0.1181182861328125,-0.9980621337890624,-0.0513153076171875
21160,0.11834716796875,-0.997711181640625,-0.050079345703125
21161,0.11993408203125,-0.995849609375,-0.0525665283203125
21162,0.121490478515625,-0.992340087890625,-0.0520172119140625
21163,0.1209564208984375,-0.99224853515625,-0.0523834228515625
21164,0.1195526123046875,-0.9941253662109376,-0.0532073974609375
21165,0.1195526123046875,-0.9941253662109376,-0.0532073974609375
21166,0.1163330078125,-0.9984130859375,-0.05169677734375
21167,0.11431884765625,-0.995361328125,-0.048858642578125
21168,0.1148681640625,-0.9942779541015624,-0.0501556396484375
21169,0.1148681640625,-0.9942779541015624,-0.0501556396484375
21170,0.1164703369140625,-0.99468994140625,-0.0505218505859375
21171,0.118743896484375,-0.9991302490234376,-0.04888916015625
21172,0.118743896484375,-0.9991302490234376,-0.04888916015625
21173,0.1207733154296875,-1.0025634765625,-0.0471343994140625
21174,0.122528076171875,-1.000473022460938,-0.047760009765625
21175,0.1236419677734375,-0.996002197265625,-0.04791259765625
21176,0.1233978271484375,-0.9962310791015624,-0.048553466796875
21177,0.1222686767578125,-0.9944305419921876,-0.048980712890625
21178,0.120452880859375,-0.994415283203125,-0.0500335693359375
21179,0.120452880859375,-0.994415283203125,-0.0500335693359375
21180,0.1192474365234375,-0.9982757568359376,-0.0492095947265625
21181,0.1186981201171875,-0.9995269775390624,-0.0489501953125
21182,0.11871337890625,-0.9986419677734376,-0.0479888916015625
21183,0.11871337890625,-0.9986419677734376,-0.0479888916015625
21184,0.11871337890625,-0.9986419677734376,-0.0479888916015625
21185,0.1198883056640625,-0.9982147216796876,-0.046417236328125
21186,0.1218109130859375,-0.9983062744140624,-0.047332763671875
21187,0.1216278076171875,-0.9978485107421876,-0.0486297607421875
21188,0.1219635009765625,-0.996826171875,-0.046173095703125
21189,0.1213836669921875,-0.9968414306640624,-0.044403076171875
21190,0.12066650390625,-0.9986724853515624,-0.044830322265625
21191,0.1203765869140625,-1.000228881835938,-0.045806884765625
21192,0.121490478515625,-1.004608154296875,-0.0460662841796875
21193,0.1206512451171875,-1.000961303710938,-0.043548583984375
21194,0.11993408203125,-0.9999237060546876,-0.044158935546875
21195,0.1194915771484375,-1.002792358398438,-0.0462799072265625
21196,0.120697021484375,-0.9996490478515624,-0.0439910888671875
21197,0.1206512451171875,-0.9931488037109376,-0.0450286865234375
21198,0.1169281005859375,-0.9937896728515624,-0.0427703857421875
21199,0.1169281005859375,-0.9937896728515624,-0.0427703857421875
21200,0.1155548095703125,-0.9940185546875,-0.04345703125
21201,0.1154937744140625,-0.994659423828125,-0.04217529296875
21202,0.119598388671875,-0.9981842041015624,-0.04412841796875
21203,0.119598388671875,-0.9981842041015624,-0.04412841796875
21204,0.1182708740234375,-0.9982452392578124,-0.042724609375
21205,0.119232177734375,-0.999542236328125,-0.0401153564453125
21206,0.1195068359375,-0.9999542236328124,-0.0409698486328125
21207,0.12060546875,-0.998291015625,-0.0418243408203125
21208,0.12060546875,-0.998291015625,-0.0418243408203125
21209,0.12139892578125,-0.998870849609375,-0.0411376953125
21210,0.118804931640625,-0.999481201171875,-0.04290771484375
21211,0.1158447265625,-1.000106811523438,-0.041473388671875
21212,0.1158447265625,-1.000106811523438,-0.041473388671875
21213,0.11474609375,-0.9962921142578124,-0.0391387939453125
21214,0.11676025390625,-0.9926910400390624,-0.039581298828125
21215,0.1168060302734375,-0.99090576171875,-0.0387420654296875
21216,0.1187591552734375,-0.9916229248046876,-0.036651611328125
21217,0.119598388671875,-0.992156982421875,-0.038177490234375
21218,0.120391845703125,-0.9976806640625,-0.041046142578125
21219,0.120391845703125,-0.9976806640625,-0.041046142578125
21220,0.1227569580078125,-0.9991455078125,-0.0433502197265625
21221,0.12261962890625,-0.9998626708984376,-0.042022705078125
21222,0.121124267578125,-0.9983978271484376,-0.037750244140625
21223,0.121124267578125,-0.9983978271484376,-0.037750244140625
21224,0.1197052001953125,-1.00018310546875,-0.0362548828125
21225,0.1193084716796875,-1.00164794921875,-0.0357208251953125
21226,0.1190185546875,-1.003265380859375,-0.034881591796875
21227,0.1182708740234375,-1.001495361328125,-0.034698486328125
21228,0.118988037109375,-1.000747680664062,-0.0348968505859375
21229,0.118988037109375,-1.000747680664062,-0.0348968505859375
21230,0.1190643310546875,-0.9978179931640624,-0.03472900390625
21231,0.1191864013671875,-0.99835205078125,-0.0339202880859375
21232,0.1191864013671875,-0.99835205078125,-0.0339202880859375
21233,0.1205291748046875,-0.9975433349609376,-0.035888671875
21234,0.122314453125,-0.989837646484375,-0.038177490234375
21235,0.121246337890625,-0.9892120361328124,-0.039306640625
21236,0.1208648681640625,-0.993133544921875,-0.038177490234375
21237,0.1222991943359375,-0.995849609375,-0.0384521484375
21238,0.12152099609375,-0.9983673095703124,-0.036102294921875
21239,0.12152099609375,-0.9983673095703124,-0.036102294921875
21240,0.120697021484375,-1.000869750976562,-0.036407470703125
21241,0.12152099609375,-1.002593994140625,-0.03338623046875
21242,0.1225738525390625,-1.004440307617188,-0.0325469970703125
21243,0.1234893798828125,-1.005569458007812,-0.033172607421875
21244,0.1251068115234375,-1.008499145507812,-0.035980224609375
21245,0.127044677734375,-1.007110595703125,-0.03643798828125
21246,0.126983642578125,-0.99639892578125,-0.0359344482421875
21247,0.1274871826171875,-0.993438720703125,-0.0389251708984375
21248,0.1290740966796875,-0.99505615234375,-0.04119873046875
21249,0.1290740966796875,-0.99505615234375,-0.04119873046875
21250,0.1297607421875,-0.9946746826171876,-0.040618896484375
21251,0.1298065185546875,-0.9922332763671876,-0.0422821044921875
21252,0.1298065185546875,-0.9922332763671876,-0.0422821044921875
21253,0.129638671875,-0.9919891357421876,-0.0403289794921875
21254,0.1292724609375,-0.993316650390625,-0.03961181640625
21255,0.130096435546875,-0.9931640625,-0.0393524169921875
21256,0.1312713623046875,-0.9928741455078124,-0.03973388671875
21257,0.1307220458984375,-0.995025634765625,-0.038116455078125
21258,0.1297607421875,-0.997833251953125,-0.0410614013671875
21259,0.1297607421875,-0.997833251953125,-0.0410614013671875
21260,0.129730224609375,-0.9995880126953124,-0.0428009033203125
21261,0.1293487548828125,-1.0008544921875,-0.0434722900390625
21262,0.1292724609375,-1.000518798828125,-0.0418548583984375
21263,0.1277008056640625,-1.001571655273438,-0.044036865234375
21264,0.1272735595703125,-0.9978485107421876,-0.0438690185546875
21265,0.1275177001953125,-0.994842529296875,-0.040008544921875
21266,0.12847900390625,-0.9961700439453124,-0.040252685546875
21267,0.12847900390625,-0.9961700439453124,-0.040252685546875
21268,0.1303863525390625,-0.996124267578125,-0.0378875732421875
21269,0.131622314453125,-0.9975128173828124,-0.03753662109375
21270,0.131927490234375,-0.9972991943359376,-0.0379486083984375
21271,0.130035400390625,-0.995452880859375,-0.0384521484375
21272,0.130035400390625,-0.995452880859375,-0.0384521484375
21273,0.1297607421875,-0.99609375,-0.039764404296875
21274,0.1278228759765625,-0.9931488037109376,-0.04034423828125
21275,0.1278228759765625,-0.9931488037109376,-0.04034423828125
21276,0.1290130615234375,-0.9926300048828124,-0.039398193359375
21277,0.1302490234375,-0.9913177490234376,-0.0397491455078125
21278,0.131744384765625,-0.993316650390625,-0.0407257080078125
21279,0.1316680908203125,-0.996063232421875,-0.041595458984375
21280,0.131744384765625,-0.9977264404296876,-0.039825439453125
21281,0.131103515625,-0.9987945556640624,-0.0390777587890625
21282,0.131072998046875,-0.99749755859375,-0.0427398681640625
21283,0.1320953369140625,-0.993133544921875,-0.043548583984375
21284,0.1320953369140625,-0.993133544921875,-0.043548583984375
21285,0.1312255859375,-0.9930419921875,-0.0423126220703125
21286,0.134307861328125,-0.9951629638671876,-0.0387420654296875
21287,0.134307861328125,-0.9951629638671876,-0.0387420654296875
21288,0.1347198486328125,-0.9931793212890624,-0.03863525390625
21289,0.1330108642578125,-0.99395751953125,-0.039093017578125
21290,0.1311798095703125,-0.995086669921875,-0.0372772216796875
21291,0.128387451171875,-1.00042724609375,-0.0390625
21292,0.128387451171875,-1.00042724609375,-0.0390625
21293,0.1270294189453125,-1.0020751953125,-0.0402374267578125
21294,0.1272735595703125,-1.000778198242188,-0.042266845703125
21295,0.1275177001953125,-0.995849609375,-0.04510498046875
21296,0.12872314453125,-0.9925079345703124,-0.044403076171875
21297,0.1296539306640625,-0.9900665283203124,-0.0426025390625
21298,0.1317596435546875,-0.99114990234375,-0.0409088134765625
21299,0.13348388671875,-0.993011474609375,-0.0374908447265625
21300,0.13348388671875,-0.993011474609375,-0.0374908447265625
21301,0.13525390625,-0.9964141845703124,-0.03717041015625
21302,0.13525390625,-0.9964141845703124,-0.03717041015625
21303,0.13360595703125,-0.9991455078125,-0.039703369140625
21304,0.13360595703125,-0.9991455078125,-0.039703369140625
21305,0.131866455078125,-0.99652099609375,-0.0393218994140625
21306,0.132568359375,-0.996307373046875,-0.0390472412109375
21307,0.132568359375,-0.996307373046875,-0.0390472412109375
21308,0.1324005126953125,-0.995391845703125,-0.0376129150390625
21309,0.13214111328125,-0.9951629638671876,-0.037445068359375
21310,0.131683349609375,-0.997833251953125,-0.0396270751953125
21311,0.131683349609375,-0.997833251953125,-0.0396270751953125
21312,0.133148193359375,-0.9964752197265624,-0.0390167236328125
21313,0.134307861328125,-0.995941162109375,-0.0418548583984375
21314,0.1336822509765625,-0.9956207275390624,-0.0431060791015625
21315,0.1331939697265625,-0.9951019287109376,-0.042449951171875
21316,0.1331939697265625,-0.9951019287109376,-0.042449951171875
21317,0.1325836181640625,-0.994903564453125,-0.041015625
21318,0.13165283203125,-0.9968719482421876,-0.0389251708984375
21319,0.13165283203125,-0.9968719482421876,-0.0389251708984375
21320,0.1330718994140625,-0.9964141845703124,-0.038604736328125
21321,0.1330718994140625,-0.9964141845703124,-0.038604736328125
21322,0.1337890625,-0.99761962890625,-0.0374603271484375
21323,0.13507080078125,-0.9969329833984376,-0.03973388671875
21324,0.13507080078125,-0.9969329833984376,-0.03973388671875
21325,0.13427734375,-0.998138427734375,-0.0416717529296875
21326,0.1336822509765625,-0.9962310791015624,-0.0437164306640625
21327,0.1336822509765625,-0.9962310791015624,-0.0437164306640625
21328,0.1330413818359375,-0.9946136474609376,-0.044342041015625
21329,0.13250732421875,-0.9922943115234376,-0.0445709228515625
21330,0.1310272216796875,-0.992218017578125,-0.04345703125
21331,0.1310272216796875,-0.992218017578125,-0.04345703125
21332,0.1309967041015625,-0.992431640625,-0.0438690185546875
21333,0.1309967041015625,-0.992431640625,-0.0438690185546875
21334,0.1327972412109375,-0.99853515625,-0.041473388671875
21335,0.1327972412109375,-0.99853515625,-0.041473388671875
21336,0.132080078125,-0.9976348876953124,-0.0438079833984375
21337,0.1308746337890625,-0.995574951171875,-0.04449462890625
21338,0.1293792724609375,-0.9952392578125,-0.0443878173828125
21339,0.1299285888671875,-0.996826171875,-0.0432281494140625
21340,0.131591796875,-0.99725341796875,-0.041168212890625
21341,0.1309051513671875,-0.995269775390625,-0.041717529296875
21342,0.128448486328125,-0.9933624267578124,-0.045501708984375
21343,0.128448486328125,-0.9933624267578124,-0.045501708984375
21344,0.12713623046875,-0.9930572509765624,-0.044403076171875
21345,0.127105712890625,-0.99151611328125,-0.0447845458984375
21346,0.128662109375,-0.993682861328125,-0.045867919921875
21347,0.1298675537109375,-0.9950714111328124,-0.0479736328125
21348,0.12860107421875,-0.996002197265625,-0.045928955078125
21349,0.1267242431640625,-0.997406005859375,-0.0439300537109375
21350,0.12518310546875,-0.995880126953125,-0.042572021484375
21351,0.1237640380859375,-0.99639892578125,-0.0409393310546875
21352,0.12396240234375,-0.99578857421875,-0.04156494140625
21353,0.124359130859375,-0.9925079345703124,-0.045379638671875
21354,0.1261444091796875,-0.990081787109375,-0.0491790771484375
21355,0.128662109375,-0.988037109375,-0.0496826171875
21356,0.128662109375,-0.988037109375,-0.0496826171875
21357,0.131927490234375,-0.9889068603515624,-0.04925537109375
21358,0.1329345703125,-0.989593505859375,-0.04632568359375
21359,0.1337738037109375,-0.993438720703125,-0.046142578125
21360,0.1341400146484375,-0.993133544921875,-0.04608154296875
21361,0.1315155029296875,-0.992706298828125,-0.04547119140625
21362,0.130096435546875,-0.99176025390625,-0.04693603515625
21363,0.130096435546875,-0.99176025390625,-0.04693603515625
21364,0.128997802734375,-0.991119384765625,-0.0455780029296875
21365,0.128753662109375,-0.9904937744140624,-0.04632568359375
21366,0.128387451171875,-0.9935150146484376,-0.045867919921875
21367,0.131439208984375,-0.99517822265625,-0.050506591796875
21368,0.131072998046875,-0.9918060302734376,-0.0507659912109375
21369,0.1326904296875,-0.99383544921875,-0.0494232177734375
21370,0.137359619140625,-0.9869384765625,-0.053619384765625
21371,0.137359619140625,-0.9869384765625,-0.053619384765625
21372,0.134918212890625,-0.986907958984375,-0.0544891357421875
21373,0.137237548828125,-0.989044189453125,-0.0574798583984375
21374,0.1375579833984375,-0.984375,-0.0582733154296875
21375,0.1375579833984375,-0.984375,-0.0582733154296875
21376,0.13818359375,-0.9810333251953124,-0.0588836669921875
21377,0.139373779296875,-0.985076904296875,-0.058380126953125
21378,0.1385650634765625,-0.985107421875,-0.0576324462890625
21379,0.1385650634765625,-0.985107421875,-0.0576324462890625
21380,0.1385650634765625,-0.985107421875,-0.0576324462890625
21381,0.1370849609375,-0.97918701171875,-0.064697265625
21382,0.14117431640625,-0.9794769287109376,-0.06927490234375
21383,0.14117431640625,-0.9794769287109376,-0.06927490234375
21384,0.14117431640625,-0.9794769287109376,-0.06927490234375
21385,0.1418304443359375,-0.9773406982421876,-0.0751800537109375
21386,0.139892578125,-0.9561920166015624,-0.0826263427734375
21387,0.139892578125,-0.9561920166015624,-0.0826263427734375
21388,0.1417999267578125,-0.9581451416015624,-0.08648681640625
21389,0.1422882080078125,-0.968994140625,-0.0817718505859375
21390,0.144805908203125,-0.9796295166015624,-0.0813446044921875
21391,0.144805908203125,-0.9796295166015624,-0.0813446044921875
21392,0.14654541015625,-0.989044189453125,-0.0797576904296875
21393,0.14654541015625,-0.989044189453125,-0.0797576904296875
21394,0.1502532958984375,-0.99560546875,-0.0851287841796875
21395,0.1502532958984375,-0.99560546875,-0.0851287841796875
21396,0.152099609375,-0.99041748046875,-0.0851593017578125
21397,0.151214599609375,-0.9846038818359376,-0.0889892578125
21398,0.14654541015625,-0.98248291015625,-0.091949462890625
21399,0.14654541015625,-0.98248291015625,-0.091949462890625
21400,0.143096923828125,-0.984832763671875,-0.093902587890625
21401,0.142486572265625,-0.98675537109375,-0.095001220703125
21402,0.1439971923828125,-0.9932403564453124,-0.0918731689453125
21403,0.1439971923828125,-0.9932403564453124,-0.0918731689453125
21404,0.144622802734375,-0.9914093017578124,-0.095062255859375
21405,0.1436614990234375,-0.9966278076171876,-0.1009979248046875
21406,0.146331787109375,-0.9931182861328124,-0.1067657470703125
21407,0.146331787109375,-0.9931182861328124,-0.1067657470703125
21408,0.1479034423828125,-0.989013671875,-0.1121368408203125
21409,0.1519775390625,-0.98773193359375,-0.1119384765625
21410,0.162322998046875,-0.9864959716796876,-0.115325927734375
21411,0.162322998046875,-0.9864959716796876,-0.115325927734375
21412,0.162322998046875,-0.9864959716796876,-0.115325927734375
21413,0.1667327880859375,-0.986328125,-0.1174774169921875
21414,0.1788787841796875,-0.9820709228515624,-0.1181488037109375
21415,0.179412841796875,-0.977783203125,-0.1209716796875
21416,0.179412841796875,-0.977783203125,-0.1209716796875
21417,0.1784515380859375,-0.976776123046875,-0.1272735595703125
21418,0.1739349365234375,-0.9751739501953124,-0.1287841796875
21419,0.1739349365234375,-0.9751739501953124,-0.1287841796875
21420,0.17645263671875,-0.975250244140625,-0.1336669921875
21421,0.17327880859375,-0.974151611328125,-0.13751220703125
21422,0.1716461181640625,-0.9846649169921876,-0.141448974609375
21423,0.1716461181640625,-0.9846649169921876,-0.141448974609375
21424,0.1716461181640625,-0.9846649169921876,-0.141448974609375
21425,0.1744384765625,-0.9859619140625,-0.1497955322265625
21426,0.1864013671875,-0.9953765869140624,-0.155059814453125
21427,0.1864013671875,-0.9953765869140624,-0.155059814453125
21428,0.1895751953125,-0.99481201171875,-0.157867431640625
21429,0.1895751953125,-0.99481201171875,-0.157867431640625
21430,0.189727783203125,-0.9846954345703124,-0.1650543212890625
21431,0.189727783203125,-0.9846954345703124,-0.1650543212890625
21432,0.18731689453125,-0.984100341796875,-0.1658477783203125
21433,0.1891632080078125,-0.98126220703125,-0.1780853271484375
21434,0.1956787109375,-0.98040771484375,-0.1857147216796875
21435,0.1956787109375,-0.98040771484375,-0.1857147216796875
21436,0.19464111328125,-0.97918701171875,-0.1796875
21437,0.19464111328125,-0.97918701171875,-0.1796875
21438,0.20416259765625,-0.9739227294921876,-0.1886444091796875
21439,0.20416259765625,-0.9739227294921876,-0.1886444091796875
21440,0.20416259765625,-0.9739227294921876,-0.1886444091796875
21441,0.2015838623046875,-0.96649169921875,-0.18792724609375
21442,0.213043212890625,-0.97039794921875,-0.1953277587890625
21443,0.213043212890625,-0.97039794921875,-0.1953277587890625
21444,0.21136474609375,-0.9664154052734376,-0.1968231201171875
21445,0.212310791015625,-0.9635467529296876,-0.199676513671875
21446,0.211456298828125,-0.9635772705078124,-0.20416259765625
21447,0.211456298828125,-0.9635772705078124,-0.20416259765625
21448,0.213623046875,-0.9661407470703124,-0.2110443115234375
21449,0.213623046875,-0.9661407470703124,-0.2110443115234375
21450,0.21038818359375,-0.9551544189453124,-0.218597412109375
21451,0.21038818359375,-0.9551544189453124,-0.218597412109375
21452,0.21038818359375,-0.9551544189453124,-0.218597412109375
21453,0.207855224609375,-0.9505767822265624,-0.20928955078125
21454,0.225555419921875,-0.9470672607421876,-0.223876953125
21455,0.225555419921875,-0.9470672607421876,-0.223876953125
21456,0.225555419921875,-0.9470672607421876,-0.223876953125
21457,0.22869873046875,-0.9462127685546876,-0.2173004150390625
21458,0.253265380859375,-0.963653564453125,-0.2195892333984375
21459,0.253265380859375,-0.963653564453125,-0.2195892333984375
21460,0.253265380859375,-0.963653564453125,-0.2195892333984375
21461,0.2530670166015625,-0.9633636474609376,-0.2092132568359375
21462,0.2546539306640625,-0.9531707763671876,-0.2327423095703125
21463,0.2546539306640625,-0.9531707763671876,-0.2327423095703125
21464,0.2546539306640625,-0.9531707763671876,-0.2327423095703125
21465,0.2525482177734375,-0.9457550048828124,-0.2254180908203125
21466,0.2584075927734375,-0.9419403076171876,-0.2349700927734375
21467,0.2584075927734375,-0.9419403076171876,-0.2349700927734375
21468,0.2616424560546875,-0.9433441162109376,-0.2440338134765625
21469,0.25927734375,-0.945343017578125,-0.236663818359375
21470,0.254913330078125,-0.9427947998046876,-0.243896484375
21471,0.254913330078125,-0.9427947998046876,-0.243896484375
21472,0.254913330078125,-0.9427947998046876,-0.243896484375
21473,0.2501068115234375,-0.9396209716796876,-0.2447662353515625
21474,0.24267578125,-0.9453277587890624,-0.246978759765625
21475,0.24267578125,-0.9453277587890624,-0.246978759765625
21476,0.239471435546875,-0.946563720703125,-0.2464752197265625
21477,0.239471435546875,-0.946563720703125,-0.2464752197265625
21478,0.23486328125,-0.9554290771484376,-0.2540740966796875
21479,0.23486328125,-0.9554290771484376,-0.2540740966796875
21480,0.2318267822265625,-0.9519500732421876,-0.2535858154296875
21481,0.22943115234375,-0.9539642333984376,-0.25335693359375
21482,0.2265167236328125,-0.9485626220703124,-0.2517547607421875
21483,0.2265167236328125,-0.9485626220703124,-0.2517547607421875
21484,0.226165771484375,-0.9451904296875,-0.24725341796875
21485,0.226531982421875,-0.941925048828125,-0.2527618408203125
21486,0.2264404296875,-0.9422607421875,-0.2576446533203125
21487,0.2264404296875,-0.9422607421875,-0.2576446533203125
21488,0.2264404296875,-0.9422607421875,-0.2576446533203125
21489,0.226593017578125,-0.9376220703125,-0.2564544677734375
21490,0.227020263671875,-0.9361724853515624,-0.259490966796875
21491,0.227020263671875,-0.9361724853515624,-0.259490966796875
21492,0.227020263671875,-0.9361724853515624,-0.259490966796875
21493,0.227142333984375,-0.93865966796875,-0.260406494140625
21494,0.22467041015625,-0.93890380859375,-0.2601470947265625
21495,0.22467041015625,-0.93890380859375,-0.2601470947265625
21496,0.2302093505859375,-0.933013916015625,-0.2600860595703125
21497,0.231597900390625,-0.9322662353515624,-0.25958251953125
21498,0.231597900390625,-0.93402099609375,-0.272369384765625
21499,0.231597900390625,-0.93402099609375,-0.272369384765625
21500,0.2279205322265625,-0.9388885498046876,-0.27313232421875
21501,0.226959228515625,-0.944671630859375,-0.2717742919921875
21502,0.2291107177734375,-0.9544830322265624,-0.2711944580078125
21503,0.2291107177734375,-0.9544830322265624,-0.2711944580078125
21504,0.2291107177734375,-0.9544830322265624,-0.2711944580078125
21505,0.2313995361328125,-0.957763671875,-0.2645111083984375
21506,0.2405548095703125,-0.9586334228515624,-0.2624359130859375
21507,0.2405548095703125,-0.9586334228515624,-0.2624359130859375
21508,0.2405548095703125,-0.9586334228515624,-0.2624359130859375
21509,0.2471160888671875,-0.9566497802734376,-0.2677154541015625
21510,0.251953125,-0.945281982421875,-0.2632598876953125
21511,0.251953125,-0.945281982421875,-0.2632598876953125
21512,0.2535400390625,-0.9439544677734376,-0.2610931396484375
21513,0.2535400390625,-0.9439544677734376,-0.2610931396484375
21514,0.2631683349609375,-0.9363555908203124,-0.26983642578125
21515,0.2631683349609375,-0.9363555908203124,-0.26983642578125
21516,0.2685546875,-0.940582275390625,-0.274383544921875
21517,0.27392578125,-0.942138671875,-0.271636962890625
21518,0.2793121337890625,-0.9498291015625,-0.256744384765625
21519,0.2793121337890625,-0.9498291015625,-0.256744384765625
21520,0.281280517578125,-0.9512786865234376,-0.2503509521484375
21521,0.280303955078125,-0.95379638671875,-0.2425537109375
21522,0.2692413330078125,-0.95526123046875,-0.2450714111328125
21523,0.2692413330078125,-0.95526123046875,-0.2450714111328125
21524,0.2569427490234375,-0.951751708984375,-0.248382568359375
21525,0.24224853515625,-0.9479217529296876,-0.2477569580078125
21526,0.2203216552734375,-0.941864013671875,-0.2536773681640625
21527,0.2203216552734375,-0.941864013671875,-0.2536773681640625
21528,0.2127685546875,-0.942047119140625,-0.260498046875
21529,0.2060699462890625,-0.9482269287109376,-0.2587127685546875
21530,0.1971282958984375,-0.945465087890625,-0.255950927734375
21531,0.1971282958984375,-0.945465087890625,-0.255950927734375
21532,0.1944732666015625,-0.9442291259765624,-0.2550048828125
21533,0.1911468505859375,-0.94439697265625,-0.257171630859375
21534,0.1963653564453125,-0.9465179443359376,-0.255157470703125
21535,0.1963653564453125,-0.9465179443359376,-0.255157470703125
21536,0.2021636962890625,-0.9493255615234376,-0.261688232421875
21537,0.2082366943359375,-0.948486328125,-0.259490966796875
21538,0.22564697265625,-0.936767578125,-0.26129150390625
21539,0.22564697265625,-0.936767578125,-0.26129150390625
21540,0.23431396484375,-0.934326171875,-0.2613067626953125
21541,0.2415618896484375,-0.93853759765625,-0.2583465576171875
21542,0.2420196533203125,-0.9446868896484376,-0.2560882568359375
21543,0.2420196533203125,-0.9446868896484376,-0.2560882568359375
21544,0.24090576171875,-0.94342041015625,-0.2487640380859375
21545,0.2454376220703125,-0.9415740966796876,-0.243988037109375
21546,0.24114990234375,-0.9327850341796876,-0.247344970703125
21547,0.24114990234375,-0.9327850341796876,-0.247344970703125
21548,0.2379913330078125,-0.9310455322265624,-0.2537384033203125
21549,0.2353973388671875,-0.9286651611328124,-0.256195068359375
21550,0.2319488525390625,-0.91888427734375,-0.266632080078125
21551,0.2319488525390625,-0.91888427734375,-0.266632080078125
21552,0.2288818359375,-0.9178314208984376,-0.269195556640625
21553,0.2250518798828125,-0.9106292724609376,-0.2725677490234375
21554,0.2269134521484375,-0.9018402099609376,-0.2704315185546875
21555,0.2269134521484375,-0.9018402099609376,-0.2704315185546875
21556,0.230499267578125,-0.898223876953125,-0.2725677490234375
21557,0.230499267578125,-0.898223876953125,-0.2725677490234375
21558,0.234161376953125,-0.8960113525390625,-0.2677459716796875
21559,0.2390289306640625,-0.89935302734375,-0.26507568359375
21560,0.2449798583984375,-0.9024505615234376,-0.260955810546875
21561,0.2468109130859375,-0.9080657958984376,-0.2593231201171875
21562,0.252838134765625,-0.91552734375,-0.260101318359375
21563,0.252838134765625,-0.91552734375,-0.260101318359375
21564,0.2504119873046875,-0.92095947265625,-0.2616729736328125
21565,0.243438720703125,-0.929168701171875,-0.2670135498046875
21566,0.233917236328125,-0.9290771484375,-0.271697998046875
21567,0.2174530029296875,-0.9302978515625,-0.27008056640625
21568,0.2061004638671875,-0.92889404296875,-0.2706756591796875
21569,0.1976165771484375,-0.928985595703125,-0.27056884765625
21570,0.2093505859375,-0.926971435546875,-0.2574615478515625
21571,0.2093505859375,-0.926971435546875,-0.2574615478515625
21572,0.22662353515625,-0.9272003173828124,-0.2607574462890625
21573,0.23712158203125,-0.929443359375,-0.2734527587890625
21574,0.2495880126953125,-0.9334869384765624,-0.2835235595703125
21575,0.2595977783203125,-0.934326171875,-0.294464111328125
21576,0.263946533203125,-0.9364013671875,-0.30517578125
21577,0.26690673828125,-0.94122314453125,-0.317901611328125
21578,0.270355224609375,-0.9498748779296876,-0.3311309814453125
21579,0.2717132568359375,-0.959930419921875,-0.3464508056640625
21580,0.2678680419921875,-0.965057373046875,-0.3701324462890625
21581,0.258270263671875,-0.970123291015625,-0.3664703369140625
21582,0.242431640625,-0.963226318359375,-0.354766845703125
21583,0.242431640625,-0.963226318359375,-0.354766845703125
21584,0.2368927001953125,-0.955841064453125,-0.3660430908203125
21585,0.233978271484375,-0.9460296630859376,-0.381744384765625
21586,0.223358154296875,-0.940673828125,-0.43310546875
21587,0.223358154296875,-0.940673828125,-0.43310546875
21588,0.223358154296875,-0.940673828125,-0.43310546875
21589,0.2178497314453125,-0.9406280517578124,-0.464019775390625
21590,0.1601104736328125,-0.941070556640625,-0.4789276123046875
21591,0.1601104736328125,-0.941070556640625,-0.4789276123046875
21592,0.1322021484375,-0.92523193359375,-0.4553680419921875
21593,0.107818603515625,-0.9071197509765624,-0.426513671875
21594,0.077606201171875,-0.86474609375,-0.4024200439453125
21595,0.077606201171875,-0.86474609375,-0.4024200439453125
21596,0.08123779296875,-0.8458099365234375,-0.4163055419921875
21597,0.08123779296875,-0.8458099365234375,-0.4163055419921875
21598,0.106658935546875,-0.8301544189453125,-0.4759979248046875
21599,0.122772216796875,-0.831817626953125,-0.5069732666015625
21600,0.136077880859375,-0.841064453125,-0.53424072265625
21601,0.1323089599609375,-0.8458404541015625,-0.5413055419921875
21602,0.09979248046875,-0.869476318359375,-0.53509521484375
21603,0.09979248046875,-0.869476318359375,-0.53509521484375
21604,0.09979248046875,-0.869476318359375,-0.53509521484375
21605,0.072418212890625,-0.890960693359375,-0.5413665771484375
21606,0.0589599609375,-0.8825836181640625,-0.5285186767578125
21607,0.0316314697265625,-0.8809967041015625,-0.5151214599609375
21608,0.019195556640625,-0.8850555419921875,-0.481689453125
21609,0.0350341796875,-0.8930816650390625,-0.49041748046875
21610,0.086822509765625,-0.8947906494140625,-0.539154052734375
21611,0.086822509765625,-0.8947906494140625,-0.539154052734375
21612,0.105804443359375,-0.893585205078125,-0.52581787109375
21613,0.1186981201171875,-0.888458251953125,-0.5054779052734375
21614,0.1114501953125,-0.88702392578125,-0.4496002197265625
21615,0.1114501953125,-0.88702392578125,-0.4496002197265625
21616,0.1019744873046875,-0.87994384765625,-0.4321136474609375
21617,0.083953857421875,-0.887451171875,-0.429473876953125
21618,0.05438232421875,-0.8739166259765625,-0.448638916015625
21619,0.05438232421875,-0.8739166259765625,-0.448638916015625
21620,0.0500335693359375,-0.8705902099609375,-0.4712371826171875
21621,0.0360260009765625,-0.8688507080078125,-0.4987030029296875
21622,0.0279083251953125,-0.8748321533203125,-0.521636962890625
21623,0.0279083251953125,-0.8748321533203125,-0.521636962890625
21624,0.033721923828125,-0.8795928955078125,-0.538360595703125
21625,0.0511016845703125,-0.8797454833984375,-0.54248046875
21626,0.0721282958984375,-0.87054443359375,-0.5279998779296875
21627,0.0721282958984375,-0.87054443359375,-0.5279998779296875
21628,0.0738983154296875,-0.8645172119140625,-0.5156097412109375
21629,0.0637664794921875,-0.858306884765625,-0.5085296630859375
21630,0.0227813720703125,-0.8543243408203125,-0.5101470947265625
21631,0.0227813720703125,-0.8543243408203125,-0.5101470947265625
21632,0.0131988525390625,-0.855438232421875,-0.5173797607421875
21633,0.0114593505859375,-0.85321044921875,-0.527435302734375
21634,0.0117950439453125,-0.8531646728515625,-0.5290679931640625
21635,0.0106964111328125,-0.860382080078125,-0.5257110595703125
21636,-0.00262451171875,-0.8643341064453125,-0.52197265625
21637,-0.0068206787109375,-0.8671112060546875,-0.5136260986328125
21638,-0.0018463134765625,-0.8699493408203125,-0.5102996826171875
21639,-0.0018463134765625,-0.8699493408203125,-0.5102996826171875
21640,0.0027008056640625,-0.866546630859375,-0.513427734375
21641,0.0121917724609375,-0.8691558837890625,-0.514190673828125
21642,0.0230560302734375,-0.872406005859375,-0.51861572265625
21643,0.0320587158203125,-0.877410888671875,-0.525115966796875
21644,0.0511016845703125,-0.880584716796875,-0.5319976806640625
21645,0.0741119384765625,-0.8825225830078125,-0.5321044921875
21646,0.080841064453125,-0.871002197265625,-0.49163818359375
21647,0.080841064453125,-0.871002197265625,-0.49163818359375
21648,0.065826416015625,-0.8620758056640625,-0.4716644287109375
21649,0.0501251220703125,-0.853485107421875,-0.462615966796875
21650,0.0431671142578125,-0.8479766845703125,-0.4730072021484375
21651,0.0444488525390625,-0.844329833984375,-0.481719970703125
21652,0.049530029296875,-0.842926025390625,-0.4899139404296875
21653,0.049530029296875,-0.842926025390625,-0.4899139404296875
21654,0.0621490478515625,-0.849456787109375,-0.5115966796875
21655,0.0621490478515625,-0.849456787109375,-0.5115966796875
21656,0.0662689208984375,-0.8522796630859375,-0.519561767578125
21657,0.06829833984375,-0.8547515869140625,-0.5351104736328125
21658,0.071502685546875,-0.864532470703125,-0.568756103515625
21659,0.071502685546875,-0.864532470703125,-0.568756103515625
21660,0.0775299072265625,-0.8704986572265625,-0.5834197998046875
21661,0.0854034423828125,-0.877716064453125,-0.5833892822265625
21662,0.090423583984375,-0.8834228515625,-0.5693817138671875
21663,0.07806396484375,-0.881744384765625,-0.5431671142578125
21664,0.058013916015625,-0.8777313232421875,-0.5118255615234375
21665,0.0420379638671875,-0.8686065673828125,-0.490875244140625
21666,0.0234222412109375,-0.850494384765625,-0.4899444580078125
21667,0.0234222412109375,-0.850494384765625,-0.4899444580078125
21668,0.024627685546875,-0.8426971435546875,-0.4970703125
21669,0.0319671630859375,-0.838958740234375,-0.498046875
21670,0.0723724365234375,-0.8334503173828125,-0.5201263427734375
21671,0.0723724365234375,-0.8334503173828125,-0.5201263427734375
21672,0.0972442626953125,-0.8385772705078125,-0.5255126953125
21673,0.1139984130859375,-0.8450469970703125,-0.5165252685546875
21674,0.12335205078125,-0.8555145263671875,-0.5128936767578125
21675,0.13800048828125,-0.86724853515625,-0.5162506103515625
21676,0.15203857421875,-0.873199462890625,-0.5208892822265625
21677,0.156494140625,-0.873138427734375,-0.5233306884765625
21678,0.1391143798828125,-0.865814208984375,-0.509185791015625
21679,0.1391143798828125,-0.865814208984375,-0.509185791015625
21680,0.1295928955078125,-0.8638916015625,-0.512908935546875
21681,0.124664306640625,-0.8638458251953125,-0.518218994140625
21682,0.119293212890625,-0.85931396484375,-0.514862060546875
21683,0.110931396484375,-0.8544921875,-0.5107421875
21684,0.1049041748046875,-0.851043701171875,-0.5036468505859375
21685,0.1012725830078125,-0.847503662109375,-0.5033416748046875
21686,0.1059417724609375,-0.8458404541015625,-0.5205841064453125
21687,0.1059417724609375,-0.8458404541015625,-0.5205841064453125
21688,0.1081085205078125,-0.8465728759765625,-0.518646240234375
21689,0.1166534423828125,-0.8463287353515625,-0.518707275390625
21690,0.1166534423828125,-0.8463287353515625,-0.518707275390625
21691,0.121673583984375,-0.8421173095703125,-0.5192718505859375
21692,0.1262969970703125,-0.837890625,-0.5218353271484375
21693,0.130218505859375,-0.8331451416015625,-0.527008056640625
21694,0.13330078125,-0.8350830078125,-0.5350341796875
21695,0.1286163330078125,-0.8353424072265625,-0.531951904296875
21696,0.124298095703125,-0.836578369140625,-0.53179931640625
21697,0.1264495849609375,-0.8426055908203125,-0.531402587890625
21698,0.1267242431640625,-0.8555755615234375,-0.52880859375
21699,0.1267242431640625,-0.8555755615234375,-0.52880859375
21700,0.1195068359375,-0.862823486328125,-0.5200958251953125
21701,0.1140289306640625,-0.8672332763671875,-0.510040283203125
21702,0.11151123046875,-0.8673095703125,-0.5043182373046875
21703,0.1108551025390625,-0.8633270263671875,-0.5037689208984375
21704,0.1106414794921875,-0.858551025390625,-0.51141357421875
21705,0.1065826416015625,-0.8521881103515625,-0.5162200927734375
21706,0.112396240234375,-0.848052978515625,-0.535247802734375
21707,0.112396240234375,-0.848052978515625,-0.535247802734375
21708,0.1187896728515625,-0.848876953125,-0.5370025634765625
21709,0.1222076416015625,-0.850982666015625,-0.532073974609375
21710,0.1281890869140625,-0.8526611328125,-0.527557373046875
21711,0.1312103271484375,-0.8516998291015625,-0.5251312255859375
21712,0.1322784423828125,-0.852203369140625,-0.520751953125
21713,0.13519287109375,-0.851806640625,-0.5191497802734375
21714,0.1397552490234375,-0.8563385009765625,-0.5173492431640625
21715,0.1393280029296875,-0.854278564453125,-0.517974853515625
21716,0.1410369873046875,-0.8533477783203125,-0.5219268798828125
21717,0.1409912109375,-0.85052490234375,-0.5291290283203125
21718,0.139129638671875,-0.8441314697265625,-0.535919189453125
21719,0.139129638671875,-0.8441314697265625,-0.535919189453125
21720,0.1370697021484375,-0.84222412109375,-0.5344696044921875
21721,0.1354827880859375,-0.840728759765625,-0.530853271484375
21722,0.132354736328125,-0.83978271484375,-0.5288543701171875
21723,0.132354736328125,-0.83978271484375,-0.5288543701171875
21724,0.1316375732421875,-0.8386383056640625,-0.5312652587890625
21725,0.130218505859375,-0.836761474609375,-0.5357818603515625
21726,0.1226806640625,-0.83551025390625,-0.541839599609375
21727,0.1226806640625,-0.83551025390625,-0.541839599609375
21728,0.1165771484375,-0.8372344970703125,-0.54388427734375
21729,0.112518310546875,-0.841583251953125,-0.5442657470703125
21730,0.109832763671875,-0.844940185546875,-0.5424652099609375
21731,0.109832763671875,-0.844940185546875,-0.5424652099609375
21732,0.1152191162109375,-0.8416290283203125,-0.5374755859375
21733,0.125091552734375,-0.83782958984375,-0.5277862548828125
21734,0.1364288330078125,-0.8349609375,-0.5235137939453125
21735,0.1412353515625,-0.8190460205078125,-0.5162200927734375
21736,0.15869140625,-0.8161773681640625,-0.517852783203125
21737,0.177886962890625,-0.8136444091796875,-0.536956787109375
21738,0.178741455078125,-0.8077392578125,-0.54571533203125
21739,0.1848297119140625,-0.8073272705078125,-0.564422607421875
21740,0.1848297119140625,-0.8073272705078125,-0.564422607421875
21741,0.193634033203125,-0.822906494140625,-0.585601806640625
21742,0.1710205078125,-0.8301849365234375,-0.5567779541015625
21743,0.1710205078125,-0.8301849365234375,-0.5567779541015625
21744,0.158447265625,-0.83782958984375,-0.5522003173828125
21745,0.1421356201171875,-0.8458099365234375,-0.5495452880859375
21746,0.1222381591796875,-0.8518218994140625,-0.5467376708984375
21747,0.101715087890625,-0.8546600341796875,-0.5482177734375
21748,0.0859832763671875,-0.850311279296875,-0.55059814453125
21749,0.07806396484375,-0.8462371826171875,-0.5551300048828125
21750,0.076019287109375,-0.8447113037109375,-0.55914306640625
21751,0.0745391845703125,-0.8450469970703125,-0.5629730224609375
21752,0.07281494140625,-0.8477630615234375,-0.55780029296875
21753,0.0729217529296875,-0.851776123046875,-0.548248291015625
21754,0.087799072265625,-0.86016845703125,-0.52618408203125
21755,0.087799072265625,-0.86016845703125,-0.52618408203125
21756,0.100311279296875,-0.861602783203125,-0.5217132568359375
21757,0.1157379150390625,-0.8621826171875,-0.5230712890625
21758,0.1380767822265625,-0.8558502197265625,-0.5326385498046875
21759,0.1380767822265625,-0.8558502197265625,-0.5326385498046875
21760,0.14324951171875,-0.850433349609375,-0.5377044677734375
21761,0.144989013671875,-0.8467559814453125,-0.5410614013671875
21762,0.1446990966796875,-0.8469390869140625,-0.5437469482421875
21763,0.1422119140625,-0.8493194580078125,-0.5435791015625
21764,0.1374664306640625,-0.851837158203125,-0.5418243408203125
21765,0.132049560546875,-0.8535919189453125,-0.5391998291015625
21766,0.1223907470703125,-0.8516845703125,-0.5346527099609375
21767,0.1223907470703125,-0.8516845703125,-0.5346527099609375
21768,0.1206512451171875,-0.8502960205078125,-0.5367431640625
21769,0.1156005859375,-0.8462066650390625,-0.535858154296875
21770,0.1031646728515625,-0.8351898193359375,-0.5349578857421875
21771,0.1031646728515625,-0.8351898193359375,-0.5349578857421875
21772,0.101287841796875,-0.83184814453125,-0.5360260009765625
21773,0.10162353515625,-0.829925537109375,-0.5350799560546875
21774,0.1072845458984375,-0.8331146240234375,-0.5348052978515625
21775,0.1108551025390625,-0.8368988037109375,-0.5343017578125
21776,0.1106109619140625,-0.8409271240234375,-0.530670166015625
21777,0.1098480224609375,-0.847564697265625,-0.5312042236328125
21778,0.1064605712890625,-0.8504486083984375,-0.533966064453125
21779,0.1009063720703125,-0.8505859375,-0.532073974609375
21780,0.098175048828125,-0.8482208251953125,-0.5343780517578125
21781,0.095367431640625,-0.8443450927734375,-0.535064697265625
21782,0.0888824462890625,-0.8386077880859375,-0.53521728515625
21783,0.0888824462890625,-0.8386077880859375,-0.53521728515625
21784,0.087677001953125,-0.8369598388671875,-0.53448486328125
21785,0.086883544921875,-0.8377532958984375,-0.5312042236328125
21786,0.091064453125,-0.84283447265625,-0.524322509765625
21787,0.091064453125,-0.84283447265625,-0.524322509765625
21788,0.095794677734375,-0.84564208984375,-0.519805908203125
21789,0.1016998291015625,-0.84930419921875,-0.5139617919921875
21790,0.1016998291015625,-0.84930419921875,-0.5139617919921875
21791,0.105316162109375,-0.850982666015625,-0.513397216796875
21792,0.10809326171875,-0.8496856689453125,-0.5156097412109375
21793,0.1117095947265625,-0.8482818603515625,-0.5208740234375
21794,0.1180267333984375,-0.8423309326171875,-0.52734375
21795,0.1180267333984375,-0.8423309326171875,-0.52734375
21796,0.118865966796875,-0.8426666259765625,-0.530181884765625
21797,0.12054443359375,-0.8446044921875,-0.530426025390625
21798,0.1231231689453125,-0.8474578857421875,-0.5295562744140625
21799,0.1249542236328125,-0.850555419921875,-0.526947021484375
21800,0.1268463134765625,-0.8516693115234375,-0.524932861328125
21801,0.126556396484375,-0.85107421875,-0.5231475830078125
21802,0.124755859375,-0.849365234375,-0.5218353271484375
21803,0.1217193603515625,-0.8461151123046875,-0.5231781005859375
21804,0.118865966796875,-0.8426666259765625,-0.5243682861328125
21805,0.1150665283203125,-0.8405914306640625,-0.5270843505859375
21806,0.112060546875,-0.83966064453125,-0.531890869140625
21807,0.10894775390625,-0.8386993408203125,-0.5312042236328125
21808,0.10845947265625,-0.8381195068359375,-0.5308990478515625
21809,0.110260009765625,-0.8404693603515625,-0.52960205078125
21810,0.1159515380859375,-0.84783935546875,-0.5237884521484375
21811,0.1159515380859375,-0.84783935546875,-0.5237884521484375
21812,0.117889404296875,-0.853790283203125,-0.5177764892578125
21813,0.115753173828125,-0.856964111328125,-0.5130462646484375
21814,0.112762451171875,-0.8577423095703125,-0.511260986328125
21815,0.112274169921875,-0.8566436767578125,-0.513763427734375
21816,0.1113433837890625,-0.8568572998046875,-0.51715087890625
21817,0.112152099609375,-0.8550262451171875,-0.524261474609375
21818,0.112152099609375,-0.8550262451171875,-0.524261474609375
21819,0.112548828125,-0.85455322265625,-0.524139404296875
21820,0.113372802734375,-0.8555755615234375,-0.5222930908203125
21821,0.1132965087890625,-0.8553009033203125,-0.51934814453125
21822,0.114105224609375,-0.8562469482421875,-0.51531982421875
21823,0.114105224609375,-0.8562469482421875,-0.51531982421875
21824,0.1130523681640625,-0.85870361328125,-0.515777587890625
21825,0.1122589111328125,-0.8589630126953125,-0.5158233642578125
21826,0.1116790771484375,-0.8568878173828125,-0.51837158203125
21827,0.1112518310546875,-0.855194091796875,-0.520233154296875
21828,0.112060546875,-0.853363037109375,-0.522247314453125
21829,0.115020751953125,-0.852935791015625,-0.5222015380859375
21830,0.11700439453125,-0.853668212890625,-0.5221099853515625
21831,0.1193084716796875,-0.85516357421875,-0.5209197998046875
21832,0.119659423828125,-0.8574981689453125,-0.5185546875
21833,0.121795654296875,-0.8590087890625,-0.514739990234375
21834,0.1231231689453125,-0.8592071533203125,-0.5145263671875
21835,0.1242523193359375,-0.8602294921875,-0.512420654296875
21836,0.124267578125,-0.859771728515625,-0.511627197265625
21837,0.124481201171875,-0.8576812744140625,-0.5126190185546875
21838,0.1248931884765625,-0.8573455810546875,-0.514007568359375
21839,0.1253814697265625,-0.854522705078125,-0.5160369873046875
21840,0.1266021728515625,-0.8521270751953125,-0.5167236328125
21841,0.1280517578125,-0.850921630859375,-0.518707275390625
21842,0.1281890869140625,-0.8479766845703125,-0.5210418701171875
21843,0.126983642578125,-0.847259521484375,-0.5218048095703125
21844,0.124786376953125,-0.845916748046875,-0.5225830078125
21845,0.121307373046875,-0.846771240234375,-0.521728515625
21846,0.11920166015625,-0.846649169921875,-0.5216522216796875
21847,0.1177978515625,-0.8475799560546875,-0.52191162109375
21848,0.1166229248046875,-0.8480224609375,-0.521148681640625
21849,0.1177978515625,-0.8482666015625,-0.5208282470703125
21850,0.119049072265625,-0.847503662109375,-0.5205841064453125
21851,0.118804931640625,-0.8486328125,-0.5167694091796875
21852,0.1188507080078125,-0.8500213623046875,-0.515869140625
21853,0.118896484375,-0.8502044677734375,-0.5148162841796875
21854,0.1178741455078125,-0.8505859375,-0.51837158203125
21855,0.1178741455078125,-0.8505859375,-0.51837158203125
21856,0.11761474609375,-0.8511810302734375,-0.52105712890625
21857,0.11822509765625,-0.850128173828125,-0.5211334228515625
21858,0.118743896484375,-0.8502044677734375,-0.5215606689453125
21859,0.11859130859375,-0.849090576171875,-0.51953125
21860,0.1202239990234375,-0.8474578857421875,-0.5179901123046875
21861,0.1220855712890625,-0.8484954833984375,-0.5182037353515625
21862,0.12298583984375,-0.849609375,-0.5193023681640625
21863,0.1228790283203125,-0.84954833984375,-0.5187530517578125
21864,0.1222686767578125,-0.8497161865234375,-0.5196533203125
21865,0.122161865234375,-0.8505096435546875,-0.520538330078125
21866,0.12225341796875,-0.850738525390625,-0.5194854736328125
21867,0.120758056640625,-0.8517608642578125,-0.52130126953125
21868,0.11846923828125,-0.853546142578125,-0.5198822021484375
21869,0.1165618896484375,-0.852142333984375,-0.5195770263671875
21870,0.1145782470703125,-0.8516387939453125,-0.5177764892578125
21871,0.114410400390625,-0.8525390625,-0.5140380859375
21872,0.1180572509765625,-0.855804443359375,-0.5131683349609375
21873,0.1205291748046875,-0.8575592041015625,-0.511962890625
21874,0.12396240234375,-0.8610382080078125,-0.5110015869140625
21875,0.125946044921875,-0.863677978515625,-0.5096588134765625
21876,0.1283721923828125,-0.8650054931640625,-0.507659912109375
21877,0.129058837890625,-0.8656005859375,-0.5068817138671875
21878,0.1294097900390625,-0.8650360107421875,-0.50579833984375
21879,0.1268157958984375,-0.86602783203125,-0.5028533935546875
21880,0.123138427734375,-0.8668060302734375,-0.5047149658203125
21881,0.119232177734375,-0.8680267333984375,-0.5076751708984375
21882,0.1121673583984375,-0.8711700439453125,-0.51629638671875
21883,0.1121673583984375,-0.8711700439453125,-0.51629638671875
21884,0.1118621826171875,-0.87286376953125,-0.51904296875
21885,0.11248779296875,-0.874176025390625,-0.521087646484375
21886,0.1151580810546875,-0.8766326904296875,-0.5175628662109375
21887,0.116729736328125,-0.87835693359375,-0.51141357421875
21888,0.11431884765625,-0.878662109375,-0.505279541015625
21889,0.11077880859375,-0.877532958984375,-0.5009002685546875
21890,0.10791015625,-0.8766021728515625,-0.5013885498046875
21891,0.105865478515625,-0.8769378662109375,-0.5034942626953125
21892,0.105194091796875,-0.8765716552734375,-0.5069580078125
21893,0.10406494140625,-0.875946044921875,-0.511322021484375
21894,0.1054840087890625,-0.876007080078125,-0.515380859375
21895,0.107696533203125,-0.876861572265625,-0.5180816650390625
21896,0.1111602783203125,-0.8755950927734375,-0.5167388916015625
21897,0.1166839599609375,-0.8728485107421875,-0.5144195556640625
21898,0.126312255859375,-0.869232177734375,-0.5049285888671875
21899,0.126312255859375,-0.869232177734375,-0.5049285888671875
21900,0.127899169921875,-0.8667144775390625,-0.497283935546875
21901,0.1318206787109375,-0.86627197265625,-0.49237060546875
21902,0.1318206787109375,-0.86627197265625,-0.49237060546875
21903,0.134002685546875,-0.8637237548828125,-0.4912261962890625
21904,0.1353912353515625,-0.86083984375,-0.4928741455078125
21905,0.1343841552734375,-0.8590850830078125,-0.4936981201171875
21906,0.132720947265625,-0.8581085205078125,-0.4944915771484375
21907,0.128997802734375,-0.8599700927734375,-0.496002197265625
21908,0.12652587890625,-0.863128662109375,-0.49615478515625
21909,0.1224212646484375,-0.8670654296875,-0.4936981201171875
21910,0.1196441650390625,-0.8723907470703125,-0.49127197265625
21911,0.1159820556640625,-0.8773956298828125,-0.4870147705078125
21912,0.113067626953125,-0.882720947265625,-0.4815826416015625
21913,0.111419677734375,-0.888153076171875,-0.4792022705078125
21914,0.1105194091796875,-0.88958740234375,-0.475830078125
21915,0.10955810546875,-0.89013671875,-0.474517822265625
21916,0.108795166015625,-0.890869140625,-0.4764404296875
21917,0.1128997802734375,-0.8922576904296875,-0.4855804443359375
21918,0.1169891357421875,-0.8927154541015625,-0.4963226318359375
21919,0.1240997314453125,-0.8928070068359375,-0.4977874755859375
21920,0.13226318359375,-0.8930206298828125,-0.49884033203125
21921,0.1393585205078125,-0.8941650390625,-0.495391845703125
21922,0.14056396484375,-0.89642333984375,-0.4764404296875
21923,0.14056396484375,-0.89642333984375,-0.4764404296875
21924,0.134796142578125,-0.898712158203125,-0.4630279541015625
21925,0.12255859375,-0.89898681640625,-0.4444732666015625
21926,0.12255859375,-0.89898681640625,-0.4444732666015625
21927,0.1183624267578125,-0.89630126953125,-0.4430389404296875
21928,0.1144256591796875,-0.895050048828125,-0.446258544921875
21929,0.1078948974609375,-0.8926849365234375,-0.446746826171875
21930,0.1036224365234375,-0.8909454345703125,-0.4461517333984375
21931,0.104766845703125,-0.8914337158203125,-0.4522247314453125
21932,0.10125732421875,-0.88787841796875,-0.44647216796875
21933,0.090240478515625,-0.8914337158203125,-0.4369354248046875
21934,0.090240478515625,-0.8914337158203125,-0.4369354248046875
21935,0.0893096923828125,-0.8915557861328125,-0.435882568359375
