time_idx,accelerometerAccelerationX(G),accelerometerAccelerationY(G),accelerometerAccelerationZ(G)
60000,0.2259368896484375,-0.7751312255859375,0.0127716064453125
60001,0.2084503173828125,-0.8096466064453125,-0.1061859130859375
60002,0.205078125,-0.8649139404296875,-0.166900634765625
60003,0.1943206787109375,-0.954345703125,-0.177734375
60004,0.1766510009765625,-1.047454833984375,-0.19427490234375
60005,0.140716552734375,-1.147933959960938,-0.2256622314453125
60006,0.0839996337890625,-1.23089599609375,-0.266082763671875
60007,0.0335693359375,-1.280624389648438,-0.33221435546875
60008,0.0103912353515625,-1.28594970703125,-0.426788330078125
60009,-0.020721435546875,-1.271453857421875,-0.516021728515625
60010,-0.0497589111328125,-1.251495361328125,-0.485565185546875
60011,-0.0590362548828125,-1.238555908203125,-0.3598480224609375
60012,-0.066986083984375,-1.222518920898438,-0.20391845703125
60013,-0.08465576171875,-1.19158935546875,-0.1055450439453125
60014,-0.1096343994140625,-1.13623046875,0.007415771484375
60015,-0.11676025390625,-1.059814453125,0.24542236328125
60016,-0.1172027587890625,-1.0257568359375,0.340789794921875
60017,-0.093597412109375,-0.9913787841796876,0.1512908935546875
60018,-0.06695556640625,-0.9377593994140624,-0.0464630126953125
60019,-0.0560455322265625,-0.8907928466796875,-0.0871734619140625
60020,-0.0299530029296875,-0.8320770263671875,-0.018218994140625
60021,0.0042877197265625,-0.7670745849609375,0.06939697265625
60022,0.020904541015625,-0.716552734375,0.0892486572265625
60023,0.032806396484375,-0.6660919189453125,0.0701446533203125
60024,0.06146240234375,-0.611541748046875,0.029815673828125
60025,0.109100341796875,-0.5940399169921875,-0.0144805908203125
60026,0.14532470703125,-0.6169891357421875,-0.0724639892578125
60027,0.1687469482421875,-0.6719207763671875,-0.157135009765625
60028,0.1725311279296875,-0.77056884765625,-0.251068115234375
60029,0.1864013671875,-0.849578857421875,-0.3248443603515625
60030,0.200164794921875,-0.9064483642578124,-0.3998260498046875
60031,0.221405029296875,-0.924163818359375,-0.4559478759765625
60032,0.252471923828125,-0.9306488037109376,-0.49444580078125
60033,0.280914306640625,-0.963104248046875,-0.5108795166015625
60034,0.2991485595703125,-1.0068359375,-0.4783782958984375
60035,0.3048858642578125,-1.066574096679688,-0.4195098876953125
60036,0.298675537109375,-1.139389038085938,-0.3572235107421875
60037,0.276763916015625,-1.220138549804688,-0.281280517578125
60038,0.2498779296875,-1.289627075195312,-0.1941375732421875
60039,0.2272796630859375,-1.336318969726562,-0.14794921875
60040,0.212554931640625,-1.358840942382812,-0.14984130859375
60041,0.187103271484375,-1.362579345703125,-0.14501953125
60042,0.150726318359375,-1.365188598632812,-0.12396240234375
60043,0.107147216796875,-1.362289428710938,-0.086181640625
60044,0.0495452880859375,-1.362091064453125,-0.01678466796875
60045,-0.01470947265625,-1.354507446289062,0.0486907958984375
60046,-0.066192626953125,-1.268814086914062,0.105194091796875
60047,-0.1107635498046875,-1.144851684570312,0.156341552734375
60048,-0.136962890625,-1.021575927734375,0.1772308349609375
60049,-0.12957763671875,-0.9286956787109376,0.2102813720703125
60050,-0.0774993896484375,-0.8858184814453125,0.2586517333984375
60051,-0.00225830078125,-0.8994598388671875,0.27508544921875
60052,0.0673675537109375,-0.9092254638671876,0.2626953125
60053,0.1130523681640625,-0.8993072509765625,0.2471923828125
60054,0.14324951171875,-0.8773651123046875,0.2177734375
60055,0.159637451171875,-0.83758544921875,0.189544677734375
60056,0.1897125244140625,-0.779998779296875,0.16058349609375
60057,0.2041168212890625,-0.7509765625,0.12493896484375
60058,0.217864990234375,-0.7387847900390625,0.0822296142578125
60059,0.21221923828125,-0.7752532958984375,0.063446044921875
60060,0.201171875,-0.82318115234375,0.082550048828125
60061,0.1758575439453125,-0.8720703125,0.14111328125
60062,0.138153076171875,-0.9019927978515624,0.200286865234375
60063,0.116790771484375,-0.9117584228515624,0.2161712646484375
60064,0.1038055419921875,-0.9471282958984376,0.1850433349609375
60065,0.0994110107421875,-1.001541137695312,0.1385040283203125
60066,0.09857177734375,-1.063980102539062,0.097503662109375
60067,0.1004180908203125,-1.089691162109375,0.049102783203125
60068,0.10235595703125,-1.088088989257812,-0.0223846435546875
60069,0.0943145751953125,-1.099533081054688,-0.1021728515625
60070,0.06585693359375,-1.104019165039062,-0.1715545654296875
60071,0.0315704345703125,-1.082870483398438,-0.2308349609375
60072,-0.01519775390625,-1.051376342773438,-0.2973480224609375
60073,-0.0503692626953125,-1.011245727539062,-0.35931396484375
60074,-0.0640106201171875,-0.9786529541015624,-0.3927154541015625
60075,-0.0812530517578125,-0.9811553955078124,-0.407928466796875
60076,-0.1075592041015625,-1.008926391601562,-0.392364501953125
60077,-0.12445068359375,-1.029953002929688,-0.3519439697265625
60078,-0.11602783203125,-1.05657958984375,-0.3206939697265625
60079,-0.0705108642578125,-1.083816528320312,-0.301788330078125
60080,0.0434722900390625,-1.074981689453125,-0.1701507568359375
60081,0.14556884765625,-1.059173583984375,0.00213623046875
60082,0.2069091796875,-1.05462646484375,0.1460418701171875
60083,0.24945068359375,-1.037506103515625,0.2270660400390625
60084,0.275787353515625,-1.005477905273438,0.23040771484375
60085,0.301422119140625,-0.97747802734375,0.2063446044921875
60086,0.3430938720703125,-0.9696807861328124,0.2175140380859375
60087,0.393096923828125,-0.952850341796875,0.2564544677734375
60088,0.4481353759765625,-0.9131927490234376,0.2733001708984375
60089,0.5039825439453125,-0.8588409423828125,0.26226806640625
60090,0.5330810546875,-0.83001708984375,0.2220306396484375
60091,0.5142364501953125,-0.8519287109375,0.1634674072265625
60092,0.45001220703125,-0.9022674560546876,0.1186370849609375
60093,0.389923095703125,-0.896759033203125,0.067352294921875
60094,0.324859619140625,-0.880096435546875,-0.03424072265625
60095,0.238677978515625,-0.9083251953125,-0.1513519287109375
60096,0.1535797119140625,-0.979736328125,-0.2421722412109375
60097,0.07611083984375,-1.089630126953125,-0.3469085693359375
60098,0.0178985595703125,-1.210189819335938,-0.4923248291015625
60099,-0.0133819580078125,-1.305450439453125,-0.6552734375
60100,-0.0249786376953125,-1.366806030273438,-0.7819671630859375
60101,-0.02142333984375,-1.35186767578125,-0.77703857421875
60102,-0.025115966796875,-1.226150512695312,-0.6276397705078125
60103,-0.02618408203125,-1.076873779296875,-0.368927001953125
60104,-0.03082275390625,-0.9546661376953124,-0.1970977783203125
60105,-0.0531005859375,-0.8323211669921875,-0.1103057861328125
60106,-0.068603515625,-0.705291748046875,-0.05328369140625
60107,-0.083770751953125,-0.6219024658203125,-0.0301666259765625
60108,-0.0999298095703125,-0.6178741455078125,-0.0140533447265625
60109,-0.1127166748046875,-0.6930999755859375,0.0245819091796875
60110,-0.0895538330078125,-0.802520751953125,0.07183837890625
60111,-0.0334930419921875,-0.8971099853515625,0.0894012451171875
60112,0.0344390869140625,-0.969390869140625,0.0602874755859375
60113,0.1019134521484375,-1.029998779296875,0.0167083740234375
60114,0.1680450439453125,-1.091873168945312,-0.00628662109375
60115,0.21710205078125,-1.134475708007812,-0.026824951171875
60116,0.241119384765625,-1.159088134765625,-0.0283966064453125
60117,0.2412109375,-1.1632080078125,0.0151519775390625
60118,0.2299652099609375,-1.157562255859375,0.0900115966796875
60119,0.22528076171875,-1.125595092773438,0.1310882568359375
60120,0.2444915771484375,-1.075393676757812,0.149139404296875
60121,0.2723388671875,-1.0537109375,0.167022705078125
60122,0.3101806640625,-1.060089111328125,0.1926727294921875
60123,0.34490966796875,-1.100845336914062,0.2262725830078125
60124,0.364898681640625,-1.155197143554688,0.2716217041015625
60125,0.3674774169921875,-1.193267822265625,0.2976226806640625
60126,0.3220062255859375,-1.191726684570312,0.2881927490234375
60127,0.24755859375,-1.120819091796875,0.2486572265625
60128,0.1944580078125,-1.02484130859375,0.2493896484375
60129,0.161224365234375,-0.921630859375,0.2705535888671875
60130,0.133026123046875,-0.844207763671875,0.296478271484375
60131,0.1161346435546875,-0.777740478515625,0.333343505859375
60132,0.1146392822265625,-0.72412109375,0.36737060546875
60133,0.130706787109375,-0.6890411376953125,0.383026123046875
60134,0.172149658203125,-0.696258544921875,0.381683349609375
60135,0.22454833984375,-0.73809814453125,0.3736572265625
60136,0.236907958984375,-0.7817230224609375,0.357330322265625
60137,0.218963623046875,-0.8543548583984375,0.26202392578125
60138,0.191680908203125,-0.94610595703125,0.131103515625
60139,0.16400146484375,-1.024002075195312,0.020782470703125
60140,0.1269378662109375,-1.093093872070312,-0.059234619140625
60141,0.092681884765625,-1.15777587890625,-0.1240692138671875
60142,0.0689697265625,-1.216217041015625,-0.1628265380859375
60143,0.0482177734375,-1.275192260742188,-0.14666748046875
60144,0.0381927490234375,-1.318145751953125,-0.08001708984375
60145,0.049713134765625,-1.345596313476562,-0.0300750732421875
60146,0.0722808837890625,-1.357162475585938,-0.0335693359375
60147,0.093597412109375,-1.346328735351562,-0.072174072265625
60148,0.1091156005859375,-1.307830810546875,-0.0999755859375
60149,0.1225128173828125,-1.237442016601562,-0.1169586181640625
60150,0.120941162109375,-1.166732788085938,-0.1356201171875
60151,0.105194091796875,-1.096267700195312,-0.16241455078125
60152,0.0929718017578125,-1.024993896484375,-0.189849853515625
60153,0.100372314453125,-0.950347900390625,-0.17376708984375
60154,0.1100006103515625,-0.8693389892578125,-0.127777099609375
60155,0.1102752685546875,-0.79827880859375,-0.055206298828125
60156,0.113922119140625,-0.744964599609375,0.0375823974609375
60157,0.129913330078125,-0.7144012451171875,0.127227783203125
60158,0.1669769287109375,-0.707183837890625,0.183807373046875
60159,0.22430419921875,-0.6963348388671875,0.1900177001953125
60160,0.2732086181640625,-0.7085418701171875,0.1555938720703125
60161,0.3134002685546875,-0.744140625,0.051605224609375
60162,0.3446197509765625,-0.771514892578125,-0.083160400390625
60163,0.3577117919921875,-0.8115386962890625,-0.1803436279296875
60164,0.356475830078125,-0.8333740234375,-0.248992919921875
60165,0.334136962890625,-0.836090087890625,-0.279632568359375
60166,0.283233642578125,-0.8519287109375,-0.317626953125
60167,0.2288360595703125,-0.8582611083984375,-0.37957763671875
60168,0.1810302734375,-0.8284454345703125,-0.4575653076171875
60169,0.1542816162109375,-0.7923126220703125,-0.5470428466796875
60170,0.1246337890625,-0.8025970458984375,-0.6151885986328125
60171,0.098236083984375,-0.832366943359375,-0.60736083984375
60172,0.0776824951171875,-0.8813323974609375,-0.558563232421875
60173,0.091644287109375,-0.938446044921875,-0.4869842529296875
60174,0.1335601806640625,-0.9981689453125,-0.3845977783203125
60175,0.1875457763671875,-1.098358154296875,-0.275177001953125
60176,0.2381591796875,-1.233367919921875,-0.154022216796875
60177,0.279693603515625,-1.380020141601562,-0.015777587890625
60178,0.320526123046875,-1.508255004882812,0.1487579345703125
60179,0.3328857421875,-1.540328979492188,0.2571258544921875
60180,0.2811126708984375,-1.442031860351562,0.28240966796875
60181,0.1990203857421875,-1.28582763671875,0.26397705078125
60182,0.120452880859375,-1.144882202148438,0.2446746826171875
60183,0.033111572265625,-1.064834594726562,0.24322509765625
60184,-0.1238555908203125,-1.013671875,0.2496185302734375
60185,-0.2855224609375,-1.053329467773438,0.2630615234375
60186,-0.3027801513671875,-1.134979248046875,0.318939208984375
60187,-0.2437286376953125,-1.137435913085938,0.345306396484375
60188,-0.130523681640625,-1.171218872070312,0.3401641845703125
60189,-0.0241851806640625,-1.187484741210938,0.27178955078125
60190,0.0416259765625,-1.136093139648438,0.2132415771484375
60191,0.0910491943359375,-1.048187255859375,0.2324371337890625
60192,0.0799407958984375,-0.972900390625,0.2638397216796875
60193,0.0205841064453125,-0.909698486328125,0.267730712890625
60194,-0.0304718017578125,-0.843353271484375,0.2538604736328125
60195,-0.0654144287109375,-0.759765625,0.2235107421875
60196,-0.097320556640625,-0.6765899658203125,0.1897430419921875
60197,-0.1133575439453125,-0.5955047607421875,0.1627044677734375
60198,-0.1074066162109375,-0.5480194091796875,0.138946533203125
60199,-0.08935546875,-0.548431396484375,0.1257171630859375
60200,-0.042266845703125,-0.5871124267578125,0.10919189453125
60201,0.01385498046875,-0.6901092529296875,0.0662994384765625
60202,0.0523223876953125,-0.85205078125,0.0384368896484375
60203,0.0810394287109375,-1.058868408203125,0.0322723388671875
60204,0.0912628173828125,-1.31585693359375,0.008575439453125
60205,0.111541748046875,-1.500137329101562,-0.055084228515625
60206,0.1831817626953125,-1.445785522460938,-0.124481201171875
60207,0.2532501220703125,-1.34100341796875,-0.2252655029296875
60208,0.305938720703125,-1.310470581054688,-0.31927490234375
60209,0.3318634033203125,-1.31268310546875,-0.3197021484375
60210,0.3131256103515625,-1.303024291992188,-0.2376861572265625
60211,0.2379913330078125,-1.232864379882812,-0.1932525634765625
60212,0.159332275390625,-1.11767578125,-0.197998046875
60213,0.0999603271484375,-1.012557983398438,-0.1915740966796875
60214,0.0587005615234375,-0.9510345458984376,-0.1551971435546875
60215,0.031829833984375,-0.91607666015625,-0.130126953125
60216,0.0053253173828125,-0.8865814208984375,-0.1020965576171875
60217,-0.0082550048828125,-0.8284454345703125,-0.075653076171875
60218,-0.0814971923828125,-0.7843017578125,-0.0551300048828125
60219,-0.061798095703125,-0.8071746826171875,0.037200927734375
60220,0.0800628662109375,-0.805511474609375,0.2030487060546875
60221,0.1688690185546875,-0.821075439453125,0.202423095703125
60222,0.2102813720703125,-0.8744354248046875,0.1121368408203125
60223,0.23052978515625,-0.930999755859375,0.03582763671875
60224,0.2150115966796875,-0.9949798583984376,0.04510498046875
60225,0.1738739013671875,-1.0655517578125,0.0944366455078125
60226,0.1265106201171875,-1.127410888671875,0.11798095703125
60227,0.0612335205078125,-1.200881958007812,0.10009765625
60228,0.0142974853515625,-1.303176879882812,0.0841064453125
60229,-0.005126953125,-1.395477294921875,0.0511627197265625
60230,-0.0045318603515625,-1.416900634765625,-0.0062255859375
60231,-0.009674072265625,-1.315216064453125,-0.1479034423828125
60232,-0.0303497314453125,-1.153182983398438,-0.3030548095703125
60233,-0.0526123046875,-0.9779205322265624,-0.38165283203125
60234,-0.0461883544921875,-0.849761962890625,-0.4123992919921875
60235,0.0267181396484375,-0.776641845703125,-0.3985595703125
60236,0.1005096435546875,-0.775726318359375,-0.350494384765625
60237,0.1502227783203125,-0.84686279296875,-0.3078765869140625
60238,0.1803131103515625,-0.95001220703125,-0.25347900390625
60239,0.2051239013671875,-1.005020141601562,-0.166595458984375
60240,0.184722900390625,-0.981903076171875,-0.052337646484375
60241,0.128662109375,-0.8921661376953125,0.0193328857421875
60242,0.065338134765625,-0.833984375,-0.01556396484375
60243,0.0294036865234375,-0.8144073486328125,-0.0835723876953125
60244,0.0276336669921875,-0.8149261474609375,-0.1319732666015625
60245,0.00335693359375,-0.871368408203125,-0.1445465087890625
60246,-0.0442962646484375,-0.952362060546875,-0.0744171142578125
60247,-0.079620361328125,-1.034820556640625,0.0133514404296875
60248,-0.0131988525390625,-1.10052490234375,0.1363983154296875
60249,0.063934326171875,-1.10260009765625,0.1329345703125
60250,0.114349365234375,-1.045562744140625,-0.01373291015625
60251,0.1551971435546875,-0.9855804443359376,-0.114837646484375
60252,0.16766357421875,-1.00482177734375,-0.1371307373046875
60253,0.156890869140625,-1.049850463867188,-0.094329833984375
60254,0.140411376953125,-1.0758056640625,-0.0033111572265625
60255,0.1397247314453125,-1.093826293945312,0.0927581787109375
60256,0.144378662109375,-1.110366821289062,0.158599853515625
60257,0.1714324951171875,-1.105056762695312,0.1224517822265625
60258,0.1979522705078125,-1.08978271484375,0.021728515625
60259,0.233917236328125,-1.031539916992188,-0.00830078125
60260,0.2717132568359375,-0.9662017822265624,0.074981689453125
60261,0.2924652099609375,-0.9364166259765624,0.2149658203125
60262,0.30523681640625,-0.9211578369140624,0.338226318359375
60263,0.2755279541015625,-0.8957672119140625,0.396453857421875
60264,0.1772918701171875,-0.812652587890625,0.385009765625
60265,0.106842041015625,-0.7395172119140625,0.3216400146484375
60266,0.07696533203125,-0.6783905029296875,0.279083251953125
60267,0.047027587890625,-0.6559600830078125,0.256988525390625
60268,0.0111541748046875,-0.686126708984375,0.290069580078125
60269,-0.0366668701171875,-0.749267578125,0.3781890869140625
60270,-0.0748138427734375,-0.813446044921875,0.442657470703125
60271,-0.0714263916015625,-0.8573150634765625,0.433441162109375
60272,-0.0644989013671875,-0.91107177734375,0.328277587890625
60273,-0.03985595703125,-0.999969482421875,0.24822998046875
60274,-0.001129150390625,-1.102005004882812,0.183502197265625
60275,0.0073699951171875,-1.185440063476562,0.1072845458984375
60276,-0.01385498046875,-1.264328002929688,0.037200927734375
60277,-0.050384521484375,-1.36492919921875,-0.0539398193359375
60278,-0.071563720703125,-1.48468017578125,-0.0737457275390625
60279,-0.0427093505859375,-1.530960083007812,-0.0137176513671875
60280,0.0359039306640625,-1.479263305664062,0.045257568359375
60281,0.1011962890625,-1.4051513671875,0.065582275390625
60282,0.1263275146484375,-1.320831298828125,0.084747314453125
60283,0.100372314453125,-1.23626708984375,0.059783935546875
60284,0.0192108154296875,-1.16033935546875,-0.0206756591796875
60285,-0.07470703125,-1.089614868164062,-0.1055908203125
60286,-0.1410064697265625,-1.015869140625,-0.171295166015625
60287,-0.1993408203125,-0.9651336669921876,-0.1986236572265625
60288,-0.26507568359375,-0.9242095947265624,-0.2077178955078125
60289,-0.327362060546875,-0.899017333984375,-0.181488037109375
60290,-0.343475341796875,-0.868560791015625,-0.10174560546875
60291,-0.3065948486328125,-0.8339996337890625,0.03204345703125
60292,-0.2361602783203125,-0.8232421875,0.1251373291015625
60293,-0.14434814453125,-0.83001708984375,0.1162261962890625
60294,-0.060302734375,-0.836883544921875,0.026763916015625
60295,-0.0292816162109375,-0.834869384765625,-0.08990478515625
60296,-0.015350341796875,-0.8413543701171875,-0.177825927734375
60297,0.0125274658203125,-0.8600006103515625,-0.2349853515625
60298,0.026580810546875,-0.886199951171875,-0.2823944091796875
60299,0.041229248046875,-0.8844451904296875,-0.32330322265625
60300,0.0521697998046875,-0.864410400390625,-0.34564208984375
60301,0.071990966796875,-0.8484954833984375,-0.3416290283203125
60302,0.1053924560546875,-0.8382110595703125,-0.3210296630859375
60303,0.144287109375,-0.843658447265625,-0.3269500732421875
60304,0.155609130859375,-0.908660888671875,-0.3432159423828125
60305,0.150177001953125,-0.9863128662109376,-0.328460693359375
60306,0.1475677490234375,-1.018661499023438,-0.2978057861328125
60307,0.138702392578125,-1.01947021484375,-0.2753143310546875
60308,0.11895751953125,-1.010025024414062,-0.2405548095703125
60309,0.0973968505859375,-1.01654052734375,-0.1792144775390625
60310,0.070556640625,-1.046493530273438,-0.1194305419921875
60311,0.0447540283203125,-1.093399047851562,-0.0702972412109375
60312,0.0174560546875,-1.168487548828125,-0.0381622314453125
60313,-0.018524169921875,-1.266998291015625,-0.0046844482421875
60314,-0.0648193359375,-1.349105834960938,0.0485076904296875
60315,-0.103973388671875,-1.352752685546875,0.1003570556640625
60316,-0.1047821044921875,-1.281234741210938,0.186767578125
60317,-0.060302734375,-1.141998291015625,0.3283538818359375
60318,-0.0185394287109375,-1.042572021484375,0.3971099853515625
60319,0.0077362060546875,-1.006622314453125,0.345428466796875
60320,0.0192413330078125,-0.9859619140625,0.22344970703125
60321,0.0359344482421875,-0.9446563720703124,0.141815185546875
60322,0.046173095703125,-0.9162750244140624,0.1177215576171875
60323,0.0686798095703125,-0.8944549560546875,0.13128662109375
60324,0.095245361328125,-0.897735595703125,0.1548919677734375
60325,0.12823486328125,-0.9155426025390624,0.164703369140625
60326,0.168731689453125,-0.9332275390625,0.1400604248046875
60327,0.2113494873046875,-0.9531097412109376,0.10003662109375
60328,0.2503814697265625,-0.986663818359375,0.090576171875
60329,0.2950897216796875,-1.010955810546875,0.1054840087890625
60330,0.3321533203125,-1.018951416015625,0.1121673583984375
60331,0.3498992919921875,-1.007568359375,0.1011962890625
60332,0.3394775390625,-0.972747802734375,0.0769195556640625
60333,0.2921600341796875,-0.8859710693359375,0.069488525390625
60334,0.246063232421875,-0.812713623046875,0.1051788330078125
60335,0.2178955078125,-0.7593231201171875,0.1229248046875
60336,0.1963043212890625,-0.7168426513671875,0.1094207763671875
60337,0.1744232177734375,-0.7066192626953125,0.0843505859375
60338,0.1465301513671875,-0.75396728515625,0.0799407958984375
60339,0.116943359375,-0.8941192626953125,0.12823486328125
60340,0.1091156005859375,-1.072525024414062,0.2276153564453125
60341,0.11199951171875,-1.241119384765625,0.3494873046875
60342,0.12347412109375,-1.313018798828125,0.4204864501953125
60343,0.1197357177734375,-1.233489990234375,0.2777557373046875
60344,0.0789031982421875,-1.130233764648438,0.0363922119140625
60345,0.0496826171875,-1.020172119140625,-0.1533203125
60346,0.0281219482421875,-0.98236083984375,-0.283294677734375
60347,0.0189971923828125,-1.025588989257812,-0.3637237548828125
60348,0.024444580078125,-1.09490966796875,-0.3808135986328125
60349,0.031707763671875,-1.165481567382812,-0.2745208740234375
60350,0.030487060546875,-1.240005493164062,-0.0686492919921875
60351,0.0583038330078125,-1.251007080078125,0.164398193359375
60352,0.1201934814453125,-1.194473266601562,0.3055419921875
60353,0.1967620849609375,-1.085525512695312,0.289520263671875
60354,0.213134765625,-0.9930267333984376,0.1504364013671875
60355,0.211181640625,-0.9406280517578124,7.62939453125e-05
60356,0.191436767578125,-0.925994873046875,-0.082489013671875
60357,0.1590728759765625,-0.9301605224609376,-0.0827789306640625
60358,0.1402130126953125,-0.9447174072265624,0.0005035400390625
60359,0.12799072265625,-0.95953369140625,0.06768798828125
60360,0.093719482421875,-0.98779296875,-0.0032501220703125
60361,0.0550384521484375,-1.004379272460938,-0.1420440673828125
60362,0.0400390625,-0.9954071044921876,-0.2218017578125
60363,0.0404052734375,-0.9763641357421876,-0.26788330078125
60364,0.04791259765625,-0.96722412109375,-0.3205108642578125
60365,0.0712738037109375,-0.95965576171875,-0.37786865234375
60366,0.1035308837890625,-0.96923828125,-0.439544677734375
60367,0.1235504150390625,-0.9857177734375,-0.4520111083984375
60368,0.1098785400390625,-0.9809417724609376,-0.354888916015625
60369,0.0698394775390625,-0.9507598876953124,-0.1967010498046875
60370,0.009735107421875,-0.9263916015625,-0.08685302734375
60371,-0.05535888671875,-0.91070556640625,-0.027801513671875
60372,-0.1052398681640625,-0.880218505859375,-0.0178985595703125
60373,-0.133209228515625,-0.84991455078125,-0.0514373779296875
60374,-0.1409759521484375,-0.8350067138671875,-0.089447021484375
60375,-0.1179351806640625,-0.830078125,-0.124603271484375
60376,-0.060882568359375,-0.8496246337890625,-0.1590118408203125
60377,0.00360107421875,-0.9050445556640624,-0.1741180419921875
60378,0.049652099609375,-0.996490478515625,-0.1494293212890625
60379,0.094268798828125,-1.0643310546875,-0.104461669921875
60380,0.129180908203125,-1.109237670898438,-0.073150634765625
60381,0.1517333984375,-1.200592041015625,-0.013946533203125
60382,0.131195068359375,-1.383560180664062,0.0990447998046875
60383,0.1302642822265625,-1.349136352539062,0.19390869140625
60384,0.2009735107421875,-1.138397216796875,0.1935272216796875
60385,0.277801513671875,-1.086135864257812,0.1868896484375
60386,0.3548583984375,-1.137176513671875,0.175750732421875
60387,0.43023681640625,-1.196258544921875,0.1664276123046875
60388,0.4990234375,-1.229705810546875,0.174774169921875
60389,0.5480194091796875,-1.249237060546875,0.201019287109375
60390,0.563018798828125,-1.251876831054688,0.2564239501953125
60391,0.5623321533203125,-1.199737548828125,0.333099365234375
60392,0.5507354736328125,-1.098648071289062,0.3968353271484375
60393,0.5236358642578125,-0.9750518798828124,0.4151611328125
60394,0.4980010986328125,-0.8605194091796875,0.3911285400390625
60395,0.469970703125,-0.771209716796875,0.362060546875
60396,0.4397125244140625,-0.6923828125,0.3288421630859375
60397,0.39959716796875,-0.624420166015625,0.3037872314453125
60398,0.354766845703125,-0.5774688720703125,0.2976837158203125
60399,0.3081207275390625,-0.5548858642578125,0.3128814697265625
60400,0.263092041015625,-0.5803680419921875,0.3343963623046875
60401,0.2317657470703125,-0.656005859375,0.3099822998046875
60402,0.2229461669921875,-0.7524566650390625,0.2248077392578125
60403,0.2301483154296875,-0.846588134765625,0.1266021728515625
60404,0.2522125244140625,-0.9673919677734376,0.0373077392578125
60405,0.277862548828125,-1.104965209960938,-0.0250701904296875
60406,0.2939453125,-1.262542724609375,-0.0710906982421875
60407,0.2972259521484375,-1.407363891601562,-0.12969970703125
60408,0.2867279052734375,-1.490219116210938,-0.23870849609375
60409,0.25286865234375,-1.486984252929688,-0.327117919921875
60410,0.196075439453125,-1.415008544921875,-0.3560028076171875
60411,0.13214111328125,-1.30291748046875,-0.3347930908203125
60412,0.0683441162109375,-1.19677734375,-0.283905029296875
60413,0.0132293701171875,-1.133575439453125,-0.2335662841796875
60414,-0.037078857421875,-1.110824584960938,-0.179534912109375
60415,-0.089599609375,-1.104690551757812,-0.127593994140625
60416,-0.1286468505859375,-1.057571411132812,-0.078765869140625
60417,-0.150543212890625,-0.9830474853515624,-0.030487060546875
60418,-0.1491851806640625,-0.8901824951171875,0.0276031494140625
60419,-0.1281280517578125,-0.80181884765625,0.082427978515625
60420,-0.08892822265625,-0.7364501953125,0.097015380859375
60421,-0.0359344482421875,-0.7019195556640625,0.03009033203125
60422,0.0133209228515625,-0.686126708984375,-0.0850372314453125
60423,0.0511016845703125,-0.670928955078125,-0.1673431396484375
60424,0.080535888671875,-0.6692352294921875,-0.2143402099609375
60425,0.0966033935546875,-0.666839599609375,-0.2574615478515625
60426,0.1024322509765625,-0.6661834716796875,-0.31268310546875
60427,0.0970001220703125,-0.6720123291015625,-0.384002685546875
60428,0.0849456787109375,-0.6937255859375,-0.454681396484375
60429,0.0785369873046875,-0.73065185546875,-0.499237060546875
60430,0.078887939453125,-0.7763824462890625,-0.5204620361328125
60431,0.0870361328125,-0.8182220458984375,-0.5204925537109375
60432,0.1046905517578125,-0.8521728515625,-0.5138702392578125
60433,0.1805572509765625,-0.8848876953125,-0.5225982666015625
60434,0.2651214599609375,-0.9758453369140624,-0.55023193359375
60435,0.3173980712890625,-1.11700439453125,-0.5311279296875
60436,0.352203369140625,-1.2318115234375,-0.4310302734375
60437,0.361083984375,-1.321044921875,-0.28033447265625
60438,0.37017822265625,-1.384140014648438,-0.13079833984375
60439,0.3712921142578125,-1.420639038085938,-0.0066375732421875
60440,0.366973876953125,-1.405914306640625,0.059356689453125
60441,0.349945068359375,-1.338180541992188,0.0963287353515625
60442,0.2813568115234375,-1.27685546875,0.1048126220703125
60443,0.2104949951171875,-1.200027465820312,0.097869873046875
60444,0.140594482421875,-1.118301391601562,0.1358184814453125
60445,0.000244140625,-1.067947387695312,0.175537109375
60446,-0.096771240234375,-1.060943603515625,0.638336181640625
60447,-0.171600341796875,-1.188003540039062,0.76727294921875
60448,-0.2437286376953125,-1.266616821289062,0.4458160400390625
60449,-0.23388671875,-1.19146728515625,0.2244873046875
60450,-0.147491455078125,-1.008804321289062,0.13189697265625
60451,-0.075775146484375,-0.8325958251953125,0.0958404541015625
60452,-0.0385589599609375,-0.8251495361328125,0.1189117431640625
60453,-0.0137786865234375,-0.93988037109375,0.19610595703125
60454,0.0573577880859375,-0.9708251953125,0.309417724609375
60455,0.1295318603515625,-0.976806640625,0.4178009033203125
60456,0.1813812255859375,-0.9921112060546876,0.4693145751953125
60457,0.207977294921875,-1.01214599609375,0.45269775390625
60458,0.19317626953125,-1.021820068359375,0.4041290283203125
60459,0.1450347900390625,-0.9495697021484376,0.37548828125
60460,0.088623046875,-0.783233642578125,0.34765625
60461,0.0573883056640625,-0.6526641845703125,0.274078369140625
60462,0.0347137451171875,-0.5635833740234375,0.2010955810546875
60463,0.0181732177734375,-0.5093231201171875,0.1825408935546875
60464,0.0084686279296875,-0.493316650390625,0.19482421875
60465,-0.001983642578125,-0.5209808349609375,0.19464111328125
60466,-0.009033203125,-0.622283935546875,0.1739349365234375
60467,0.00775146484375,-0.7783203125,0.1457366943359375
60468,0.0335540771484375,-0.94073486328125,0.1109771728515625
60469,0.0567779541015625,-1.099258422851562,0.063873291015625
60470,0.0868682861328125,-1.238265991210938,-0.0003204345703125
60471,0.105987548828125,-1.344635009765625,-0.1380767822265625
60472,0.1046600341796875,-1.4080810546875,-0.2306060791015625
60473,0.1120758056640625,-1.415985107421875,-0.2263031005859375
60474,0.1176300048828125,-1.388580322265625,-0.1186676025390625
60475,0.1240997314453125,-1.33990478515625,0.010406494140625
60476,0.1382293701171875,-1.298492431640625,0.0865020751953125
60477,0.1627960205078125,-1.262344360351562,0.0779266357421875
60478,0.1962890625,-1.244384765625,0.02557373046875
60479,0.2295684814453125,-1.250015258789062,-0.039459228515625
60480,0.2674407958984375,-1.237899780273438,-0.06231689453125
60481,0.2982635498046875,-1.183486938476562,-0.032806396484375
60482,0.3188934326171875,-1.101303100585938,0.00677490234375
60483,0.323272705078125,-0.994354248046875,0.0285491943359375
60484,0.3042449951171875,-0.8832550048828125,0.0284576416015625
60485,0.2804718017578125,-0.779571533203125,0.0065765380859375
60486,0.26373291015625,-0.6944580078125,-0.02838134765625
60487,0.2546539306640625,-0.6430206298828125,-0.0612640380859375
60488,0.2422027587890625,-0.6410675048828125,-0.0833282470703125
60489,0.219635009765625,-0.7012786865234375,-0.10821533203125
60490,0.1989898681640625,-0.83551025390625,-0.144622802734375
60491,0.1663665771484375,-1.014892578125,-0.22772216796875
60492,0.1390228271484375,-1.155227661132812,-0.319366455078125
60493,0.11480712890625,-1.22991943359375,-0.379364013671875
60494,0.0740966796875,-1.236068725585938,-0.4162750244140625
60495,0.0232696533203125,-1.156768798828125,-0.4114990234375
60496,-0.013214111328125,-1.028656005859375,-0.3511199951171875
60497,-0.0495147705078125,-0.9309539794921876,-0.3025665283203125
60498,-0.07952880859375,-0.8849334716796875,-0.289764404296875
60499,-0.0861053466796875,-0.84674072265625,-0.27801513671875
60500,-0.0749053955078125,-0.8188323974609375,-0.276031494140625
60501,-0.0574493408203125,-0.8107452392578125,-0.285003662109375
60502,-0.0389556884765625,-0.8270721435546875,-0.31256103515625
60503,-0.0326690673828125,-0.8949432373046875,-0.3227691650390625
60504,-0.0200958251953125,-0.985198974609375,-0.268310546875
60505,0.0043182373046875,-1.046615600585938,-0.1793365478515625
60506,0.0150604248046875,-1.129226684570312,-0.098907470703125
60507,-0.0255126953125,-1.297470092773438,-0.0420989990234375
60508,-0.0348358154296875,-1.300369262695312,0.031402587890625
60509,0.0170440673828125,-1.067901611328125,0.061492919921875
60510,0.0684051513671875,-0.9002685546875,0.085174560546875
60511,0.1369171142578125,-0.8858795166015625,0.1850433349609375
60512,0.2335662841796875,-0.9601287841796876,0.373565673828125
60513,0.342987060546875,-1.04974365234375,0.54376220703125
60514,0.4436187744140625,-1.149368286132812,0.593231201171875
60515,0.5006866455078125,-1.287155151367188,0.5186614990234375
60516,0.5034942626953125,-1.408279418945312,0.4944305419921875
60517,0.5106658935546875,-1.448013305664062,0.4343719482421875
60518,0.51959228515625,-1.377029418945312,0.3652801513671875
60519,0.49603271484375,-1.232208251953125,0.32208251953125
60520,0.4105682373046875,-1.075851440429688,0.327423095703125
60521,0.3014373779296875,-0.9380035400390624,0.345550537109375
60522,0.223297119140625,-0.8284912109375,0.339874267578125
60523,0.16705322265625,-0.7264862060546875,0.3218994140625
60524,0.12249755859375,-0.634796142578125,0.3243408203125
60525,0.0910186767578125,-0.5706634521484375,0.3516998291015625
60526,0.0721893310546875,-0.538787841796875,0.325164794921875
60527,0.0626220703125,-0.54632568359375,0.2560882568359375
60528,0.06964111328125,-0.5989837646484375,0.192626953125
60529,0.0764617919921875,-0.73077392578125,0.1448211669921875
60530,0.0743865966796875,-0.9241180419921876,0.10052490234375
60531,0.0503387451171875,-1.101242065429688,0.0256500244140625
60532,-0.0052032470703125,-1.261138916015625,-0.079925537109375
60533,-0.078216552734375,-1.361160278320312,-0.1417083740234375
60534,-0.1403045654296875,-1.372787475585938,-0.19732666015625
60535,-0.1757049560546875,-1.331787109375,-0.2657012939453125
60536,-0.154144287109375,-1.256790161132812,-0.326263427734375
60537,-0.0732574462890625,-1.210220336914062,-0.318756103515625
60538,0.0388946533203125,-1.193206787109375,-0.2925567626953125
60539,0.0928802490234375,-1.183303833007812,-0.3005828857421875
60540,0.085235595703125,-1.198196411132812,-0.266082763671875
60541,0.049560546875,-1.209518432617188,-0.1819000244140625
60542,0.0018310546875,-1.163955688476562,-0.127197265625
60543,-0.04986572265625,-1.092971801757812,-0.0955657958984375
60544,-0.084442138671875,-0.9887847900390624,-0.04534912109375
60545,-0.1104278564453125,-0.90179443359375,0.0369873046875
60546,-0.14410400390625,-0.8392791748046875,0.132781982421875
60547,-0.178863525390625,-0.778533935546875,0.2057647705078125
60548,-0.2079315185546875,-0.711669921875,0.2141265869140625
60549,-0.2315673828125,-0.6317291259765625,0.1470947265625
60550,-0.2442626953125,-0.5537567138671875,0.031890869140625
60551,-0.2519683837890625,-0.5278778076171875,-0.0868988037109375
60552,-0.241180419921875,-0.58233642578125,-0.1689453125
60553,-0.1981658935546875,-0.683380126953125,-0.2334747314453125
60554,-0.1201934814453125,-0.777008056640625,-0.2874755859375
60555,-0.044097900390625,-0.865753173828125,-0.3440704345703125
60556,0.0094757080078125,-0.94317626953125,-0.43499755859375
60557,0.0548248291015625,-0.988250732421875,-0.522796630859375
60558,0.092376708984375,-0.981597900390625,-0.5940704345703125
60559,0.0909271240234375,-0.9507293701171876,-0.666107177734375
60560,0.1158294677734375,-0.9492645263671876,-0.7269287109375
60561,0.22039794921875,-1.054702758789062,-0.75726318359375
60562,0.2910308837890625,-1.186859130859375,-0.8001708984375
60563,0.311431884765625,-1.29595947265625,-0.733306884765625
60564,0.320709228515625,-1.31072998046875,-0.5354766845703125
60565,0.319549560546875,-1.288040161132812,-0.3546600341796875
60566,0.291015625,-1.280624389648438,-0.2136688232421875
60567,0.254547119140625,-1.345733642578125,-0.1287689208984375
60568,0.2000274658203125,-1.45355224609375,-0.090362548828125
60569,0.1463470458984375,-1.464859008789062,-0.0186767578125
60570,0.0968017578125,-1.32769775390625,0.0632476806640625
60571,0.0605316162109375,-1.151290893554688,0.10418701171875
60572,0.0056610107421875,-1.01153564453125,0.3183441162109375
60573,-0.07958984375,-0.9450531005859376,0.7013702392578125
60574,-0.151092529296875,-0.989532470703125,0.9169769287109376
60575,-0.1584930419921875,-1.059326171875,0.9381866455078124
60576,-0.0929412841796875,-1.108596801757812,0.9708404541015624
60577,-0.0225372314453125,-1.126815795898438,0.7794647216796875
60578,0.0215911865234375,-1.132659912109375,0.4877777099609375
60579,0.0553741455078125,-1.108627319335938,0.3140869140625
60580,0.065399169921875,-1.058212280273438,0.25067138671875
60581,0.0556488037109375,-0.97406005859375,0.2407684326171875
60582,0.03472900390625,-0.9062957763671876,0.226593017578125
60583,0.0195770263671875,-0.8477325439453125,0.204498291015625
60584,0.008697509765625,-0.78594970703125,0.1772308349609375
60585,-0.015838623046875,-0.7434539794921875,0.1574554443359375
60586,-0.0443115234375,-0.73028564453125,0.1374969482421875
60587,-0.0549468994140625,-0.7514190673828125,0.14166259765625
60588,-0.047454833984375,-0.774505615234375,0.1546630859375
60589,-0.042327880859375,-0.801910400390625,0.1550140380859375
60590,-0.0379180908203125,-0.8462677001953125,0.168060302734375
60591,-0.0233306884765625,-0.9157562255859376,0.1453857421875
60592,-0.009429931640625,-0.9918060302734376,0.0765380859375
60593,-0.00482177734375,-1.051223754882812,0.0003204345703125
60594,0.00799560546875,-1.101455688476562,-0.06439208984375
60595,0.0158233642578125,-1.151031494140625,-0.1291351318359375
60596,0.014312744140625,-1.174606323242188,-0.2140045166015625
60597,0.0009765625,-1.1746826171875,-0.29095458984375
60598,-0.001983642578125,-1.139892578125,-0.346038818359375
60599,-0.01776123046875,-1.101852416992188,-0.4043426513671875
60600,-0.0435791015625,-1.078353881835938,-0.4475250244140625
60601,-0.1219940185546875,-1.06634521484375,-0.4272613525390625
60602,-0.1129302978515625,-1.11920166015625,-0.3094329833984375
60603,-0.074127197265625,-1.245498657226562,-0.1493682861328125
60604,-0.050079345703125,-1.308013916015625,-0.057037353515625
60605,-0.0021209716796875,-1.256195068359375,-0.03131103515625
60606,0.0410614013671875,-1.091293334960938,0.0046539306640625
60607,0.063232421875,-0.9482879638671876,0.101959228515625
60608,0.08392333984375,-0.84814453125,0.2222900390625
60609,0.115081787109375,-0.7756805419921875,0.3025970458984375
60610,0.1468048095703125,-0.719573974609375,0.28729248046875
60611,0.169921875,-0.691009521484375,0.19757080078125
60612,0.1878662109375,-0.72528076171875,0.1078948974609375
60613,0.1754608154296875,-0.838104248046875,0.040618896484375
60614,0.142669677734375,-0.9579010009765624,-0.025146484375
60615,0.0955352783203125,-1.04144287109375,-0.10174560546875
60616,0.03240966796875,-1.094940185546875,-0.1883392333984375
60617,-0.0437469482421875,-1.123703002929688,-0.279632568359375
60618,-0.1116180419921875,-1.129241943359375,-0.361663818359375
60619,-0.1683807373046875,-1.103546142578125,-0.413726806640625
60620,-0.214935302734375,-1.048263549804688,-0.424957275390625
60621,-0.2459869384765625,-0.984344482421875,-0.40179443359375
60622,-0.2559051513671875,-0.934295654296875,-0.3671112060546875
60623,-0.23590087890625,-0.901641845703125,-0.356689453125
60624,-0.189910888671875,-0.885101318359375,-0.3769683837890625
60625,-0.12042236328125,-0.876861572265625,-0.40423583984375
60626,-0.0440521240234375,-0.888214111328125,-0.4445953369140625
60627,0.0318756103515625,-0.9468994140625,-0.46112060546875
60628,0.0911865234375,-1.047256469726562,-0.3919219970703125
60629,0.124359130859375,-1.15447998046875,-0.2791595458984375
60630,0.0835418701171875,-1.391387939453125,-0.175506591796875
60631,0.03106689453125,-1.48040771484375,-0.019439697265625
60632,0.07373046875,-1.148406982421875,0.113739013671875
60633,0.1153564453125,-0.9113311767578124,0.1574554443359375
60634,0.136566162109375,-0.916290283203125,0.1657562255859375
60635,0.16949462890625,-1.009246826171875,0.1688995361328125
60636,0.2275543212890625,-1.038131713867188,0.1898956298828125
60637,0.3049468994140625,-1.001220703125,0.228179931640625
60638,0.3703155517578125,-0.9880828857421876,0.3065185546875
60639,0.41217041015625,-0.9973297119140624,0.392791748046875
60640,0.4324493408203125,-1.025192260742188,0.4475860595703125
60641,0.4393463134765625,-1.06622314453125,0.4411773681640625
60642,0.4254608154296875,-1.099334716796875,0.3734283447265625
60643,0.384918212890625,-1.093917846679688,0.306884765625
60644,0.311248779296875,-1.023757934570312,0.243621826171875
60645,0.269012451171875,-0.931610107421875,0.2009124755859375
60646,0.2813262939453125,-0.8547821044921875,0.182464599609375
60647,0.2905426025390625,-0.8040771484375,0.1915130615234375
60648,0.3042144775390625,-0.7662353515625,0.2083282470703125
60649,0.3202972412109375,-0.7455902099609375,0.239837646484375
60650,0.3117523193359375,-0.7431182861328125,0.26458740234375
60651,0.2961273193359375,-0.7382049560546875,0.2543182373046875
60652,0.2544097900390625,-0.7584381103515625,0.198028564453125
60653,0.2130584716796875,-0.8026885986328125,0.1459503173828125
60654,0.1934661865234375,-0.8581085205078125,0.0991668701171875
60655,0.18994140625,-0.9241790771484376,0.039215087890625
60656,0.193359375,-1.005279541015625,-0.0280609130859375
60657,0.2031707763671875,-1.096206665039062,-0.104949951171875
60658,0.200531005859375,-1.201812744140625,-0.1604156494140625
60659,0.1763458251953125,-1.301177978515625,-0.1865081787109375
60660,0.115631103515625,-1.385818481445312,-0.2086944580078125
60661,-0.0001373291015625,-1.490081787109375,-0.2753143310546875
60662,-0.134033203125,-1.496551513671875,-0.3084259033203125
60663,-0.1714019775390625,-1.219955444335938,-0.251708984375
60664,-0.2009735107421875,-1.0635986328125,-0.2097930908203125
60665,-0.220916748046875,-1.085617065429688,-0.1746826171875
60666,-0.205352783203125,-1.102005004882812,-0.114227294921875
60667,-0.2235870361328125,-1.073226928710938,-0.074676513671875
60668,-0.19073486328125,-1.0576171875,-0.02301025390625
60669,-0.0796966552734375,-1.007034301757812,0.175506591796875
60670,-0.0232086181640625,-0.950164794921875,0.384674072265625
60671,-0.00640869140625,-0.92730712890625,0.50830078125
60672,-0.011810302734375,-0.9024658203125,0.4492340087890625
60673,-0.024688720703125,-0.8494720458984375,0.2703399658203125
60674,-0.0329742431640625,-0.781646728515625,0.1351165771484375
60675,-0.031768798828125,-0.73394775390625,0.06463623046875
60676,-0.01678466796875,-0.7122802734375,0.014007568359375
60677,-0.0004730224609375,-0.70343017578125,-0.0538177490234375
60678,0.010101318359375,-0.70782470703125,-0.123077392578125
60679,0.0399017333984375,-0.72442626953125,-0.173553466796875
60680,0.0696868896484375,-0.75738525390625,-0.201171875
60681,0.097198486328125,-0.7982177734375,-0.239105224609375
60682,0.1234283447265625,-0.8243865966796875,-0.292449951171875
60683,0.1400604248046875,-0.8165435791015625,-0.3546600341796875
60684,0.151397705078125,-0.816558837890625,-0.407989501953125
60685,0.1771087646484375,-0.855377197265625,-0.479736328125
60686,0.217498779296875,-0.9267730712890624,-0.5912322998046875
60687,0.2850341796875,-0.98760986328125,-0.7349853515625
60688,0.3475799560546875,-1.053680419921875,-0.9209747314453124
60689,0.380828857421875,-1.173004150390625,-1.050079345703125
60690,0.3866119384765625,-1.304046630859375,-1.00604248046875
60691,0.3618316650390625,-1.337600708007812,-0.7930755615234375
60692,0.2889556884765625,-1.310134887695312,-0.54705810546875
60693,0.1972198486328125,-1.289276123046875,-0.337921142578125
60694,0.133453369140625,-1.308334350585938,-0.140625
60695,0.1067962646484375,-1.358444213867188,0.044647216796875
60696,0.080413818359375,-1.470001220703125,0.1795196533203125
60697,0.03759765625,-1.486358642578125,0.2546844482421875
60698,-0.0119476318359375,-1.280807495117188,0.5532073974609375
60699,-0.0655975341796875,-1.109695434570312,0.695220947265625
60700,-0.038330078125,-1.002685546875,0.6489410400390625
60701,0.0426025390625,-1.000350952148438,0.6631011962890625
60702,0.105224609375,-1.070388793945312,0.6090240478515625
60703,0.1475830078125,-1.103118896484375,0.5218658447265625
60704,0.1822509765625,-1.115127563476562,0.4260406494140625
60705,0.1974029541015625,-1.1173095703125,0.3506317138671875
60706,0.2186126708984375,-1.065704345703125,0.2782440185546875
60707,0.2422637939453125,-0.98919677734375,0.2324981689453125
60708,0.243865966796875,-0.942413330078125,0.1956939697265625
60709,0.2054595947265625,-0.9076690673828124,0.16497802734375
60710,0.15087890625,-0.8389129638671875,0.155914306640625
60711,0.0984649658203125,-0.792236328125,0.1377410888671875
60712,0.0616455078125,-0.7772216796875,0.13177490234375
60713,0.04559326171875,-0.752685546875,0.1479644775390625
60714,0.0147247314453125,-0.7383880615234375,0.1650390625
60715,-0.034149169921875,-0.7081756591796875,0.1764373779296875
60716,-0.050079345703125,-0.6935577392578125,0.2003326416015625
60717,-0.01220703125,-0.6647491455078125,0.2410888671875
60718,0.07366943359375,-0.679656982421875,0.2354736328125
60719,0.12188720703125,-0.7392120361328125,0.140655517578125
60720,0.1339111328125,-0.8265228271484375,0.0440673828125
60721,0.1204681396484375,-0.9388427734375,0.0197296142578125
60722,0.095794677734375,-1.047515869140625,0.011199951171875
60723,0.0638275146484375,-1.148147583007812,-0.08795166015625
60724,0.031158447265625,-1.235198974609375,-0.18914794921875
60725,-0.005523681640625,-1.291839599609375,-0.2689971923828125
60726,-0.034881591796875,-1.295318603515625,-0.3358306884765625
60727,-0.0421905517578125,-1.24151611328125,-0.3654632568359375
60728,-0.032440185546875,-1.169708251953125,-0.35211181640625
60729,-0.0088653564453125,-1.113555908203125,-0.3359375
60730,0.0326385498046875,-1.060623168945312,-0.2989654541015625
60731,0.06884765625,-1.037689208984375,-0.2499847412109375
60732,0.088043212890625,-1.023468017578125,-0.1918487548828125
60733,0.1129150390625,-1.0001220703125,-0.127197265625
60734,0.1399993896484375,-0.98065185546875,-0.0721435546875
60735,0.1626434326171875,-0.96746826171875,-0.0113372802734375
60736,0.188323974609375,-0.9613800048828124,0.042999267578125
60737,0.209259033203125,-0.9665985107421876,0.1112060546875
60738,0.2287445068359375,-0.980682373046875,0.2031097412109375
60739,0.2317962646484375,-1.017120361328125,0.31500244140625
60740,0.208831787109375,-1.072982788085938,0.4047393798828125
60741,0.1539154052734375,-1.120391845703125,0.3751983642578125
60742,0.07977294921875,-1.137176513671875,0.2125091552734375
60743,0.017120361328125,-1.124343872070312,0.055908203125
60744,-0.0247039794921875,-1.112060546875,-0.0456695556640625
60745,-0.054840087890625,-1.097930908203125,-0.129608154296875
60746,-0.0804443359375,-1.075485229492188,-0.220458984375
60747,-0.100341796875,-1.0499267578125,-0.3171539306640625
60748,-0.1180877685546875,-1.030654907226562,-0.3961639404296875
60749,-0.1284027099609375,-1.006103515625,-0.4299468994140625
60750,-0.13555908203125,-0.9828338623046876,-0.41986083984375
60751,-0.13409423828125,-0.95330810546875,-0.3728790283203125
60752,-0.1156158447265625,-0.9067230224609376,-0.3106842041015625
60753,-0.0762176513671875,-0.8621368408203125,-0.2642822265625
60754,-0.035888671875,-0.8251495361328125,-0.24591064453125
60755,0.00347900390625,-0.8074798583984375,-0.25543212890625
60756,0.0294189453125,-0.8222808837890625,-0.272003173828125
60757,0.045257568359375,-0.8584442138671875,-0.2578887939453125
60758,0.0518341064453125,-0.914306640625,-0.2186279296875
60759,0.052520751953125,-0.9863739013671876,-0.1438751220703125
60760,0.0612640380859375,-1.040496826171875,-0.029266357421875
60761,0.07635498046875,-1.076797485351562,0.0687713623046875
60762,0.082305908203125,-1.1519775390625,0.157135009765625
60763,0.085174560546875,-1.204452514648438,0.234832763671875
60764,0.127593994140625,-1.094863891601562,0.264739990234375
60765,0.18133544921875,-0.98455810546875,0.2511749267578125
60766,0.2275390625,-0.9737701416015624,0.2189178466796875
60767,0.27777099609375,-1.007904052734375,0.2042236328125
60768,0.3151397705078125,-1.056015014648438,0.209716796875
60769,0.3377838134765625,-1.115646362304688,0.24365234375
60770,0.362213134765625,-1.141387939453125,0.314117431640625
60771,0.384429931640625,-1.16363525390625,0.3733978271484375
60772,0.3955230712890625,-1.18829345703125,0.393157958984375
60773,0.3956146240234375,-1.160079956054688,0.3484954833984375
60774,0.39361572265625,-1.014266967773438,0.3268585205078125
60775,0.3516082763671875,-0.887420654296875,0.358673095703125
60776,0.3331756591796875,-0.827239990234375,0.26812744140625
60777,0.342193603515625,-0.7805328369140625,0.216644287109375
60778,0.3557281494140625,-0.76092529296875,0.2414093017578125
60779,0.36016845703125,-0.795806884765625,0.2990875244140625
60780,0.35302734375,-0.854278564453125,0.351898193359375
60781,0.337860107421875,-0.8885955810546875,0.3568878173828125
60782,0.3243408203125,-0.872406005859375,0.2987213134765625
60783,0.3171234130859375,-0.8341827392578125,0.17633056640625
60784,0.3070220947265625,-0.8428497314453125,0.0296478271484375
60785,0.2858123779296875,-0.903778076171875,-0.1104736328125
60786,0.2696990966796875,-1.004592895507812,-0.2525634765625
60787,0.2542572021484375,-1.107620239257812,-0.344757080078125
60788,0.2119140625,-1.217666625976562,-0.34881591796875
60789,0.162841796875,-1.303848266601562,-0.316802978515625
60790,0.1420440673828125,-1.34576416015625,-0.3395843505859375
60791,0.138916015625,-1.358505249023438,-0.3974761962890625
60792,0.133880615234375,-1.322463989257812,-0.433349609375
60793,0.122589111328125,-1.2266845703125,-0.3686065673828125
60794,0.1016082763671875,-1.107498168945312,-0.153533935546875
60795,0.08624267578125,-1.003631591796875,0.049591064453125
60796,0.0874481201171875,-0.9308624267578124,0.2065277099609375
60797,0.12322998046875,-0.8746185302734375,0.2274169921875
60798,0.149658203125,-0.8293609619140625,0.133819580078125
60799,0.154449462890625,-0.7964324951171875,0.0528564453125
60800,0.156585693359375,-0.76690673828125,0.032684326171875
60801,0.17584228515625,-0.751800537109375,0.032470703125
60802,0.2107696533203125,-0.7558135986328125,0.041412353515625
60803,0.228546142578125,-0.8166656494140625,0.0564422607421875
60804,0.2244415283203125,-0.8656158447265625,0.060302734375
60805,0.2086181640625,-0.8562164306640625,0.0032196044921875
60806,0.19964599609375,-0.8101806640625,-0.092864990234375
60807,0.195953369140625,-0.7564849853515625,-0.17047119140625
60808,0.188385009765625,-0.7275238037109375,-0.211029052734375
60809,0.178375244140625,-0.74420166015625,-0.2443084716796875
60810,0.1763458251953125,-0.782379150390625,-0.2751007080078125
60811,0.164642333984375,-0.8541412353515625,-0.32891845703125
60812,0.139068603515625,-0.9477996826171876,-0.4087982177734375
60813,0.1276397705078125,-1.04052734375,-0.511016845703125
60814,0.1287689208984375,-1.14093017578125,-0.62872314453125
60815,0.135009765625,-1.247344970703125,-0.7247161865234375
60816,0.1309051513671875,-1.3182373046875,-0.7617034912109375
60817,0.1138916015625,-1.332931518554688,-0.7369842529296875
60818,0.086181640625,-1.293960571289062,-0.630859375
60819,0.0486602783203125,-1.242538452148438,-0.4603729248046875
60820,0.0252532958984375,-1.221893310546875,-0.2806396484375
60821,0.01416015625,-1.211715698242188,-0.1379547119140625
60822,0.0206146240234375,-1.197540283203125,-0.0571441650390625
60823,0.0353851318359375,-1.193527221679688,-0.0078125
60824,0.0386962890625,-1.20526123046875,0.028076171875
60825,-0.005767822265625,-1.197433471679688,0.1189727783203125
60826,-0.12664794921875,-1.182479858398438,0.3730621337890625
60827,-0.0998992919921875,-1.1470947265625,0.584991455078125
60828,0.031951904296875,-1.06280517578125,0.635009765625
60829,0.0918426513671875,-1.03692626953125,0.539642333984375
60830,0.118865966796875,-0.9811248779296876,0.353973388671875
60831,0.13836669921875,-0.9374237060546876,0.269805908203125
60832,0.1891326904296875,-0.8726348876953125,0.2857666015625
60833,0.2303009033203125,-0.8530426025390625,0.31024169921875
60834,0.26007080078125,-0.8640899658203125,0.339263916015625
60835,0.25653076171875,-0.8827362060546875,0.38848876953125
60836,0.198486328125,-0.8703155517578125,0.4653778076171875
60837,0.08563232421875,-0.79766845703125,0.5222015380859375
60838,0.003082275390625,-0.70318603515625,0.506378173828125
60839,-0.0353851318359375,-0.6400604248046875,0.4541168212890625
60840,-0.0694580078125,-0.5850677490234375,0.3967132568359375
60841,-0.1163177490234375,-0.5358734130859375,0.341217041015625
60842,-0.134735107421875,-0.5394287109375,0.3199920654296875
60843,-0.1290130615234375,-0.5975341796875,0.3177642822265625
60844,-0.09478759765625,-0.723907470703125,0.3040008544921875
60845,-0.0303192138671875,-0.87066650390625,0.2451629638671875
60846,0.01678466796875,-1.010498046875,0.1729736328125
60847,0.0528564453125,-1.138214111328125,0.124847412109375
60848,0.094451904296875,-1.234756469726562,0.0867462158203125
60849,0.1369476318359375,-1.259124755859375,-0.0146636962890625
60850,0.200469970703125,-1.248992919921875,-0.1645355224609375
60851,0.2574005126953125,-1.249496459960938,-0.299560546875
60852,0.29962158203125,-1.247161865234375,-0.376922607421875
60853,0.312469482421875,-1.261322021484375,-0.43206787109375
60854,0.319793701171875,-1.27313232421875,-0.48345947265625
60855,0.3234710693359375,-1.27740478515625,-0.486663818359375
60856,0.300628662109375,-1.27099609375,-0.464080810546875
60857,0.24981689453125,-1.238357543945312,-0.4639892578125
60858,0.1732177734375,-1.201034545898438,-0.425323486328125
60859,0.1201171875,-1.171966552734375,-0.2609405517578125
60860,0.087188720703125,-1.132064819335938,-0.02587890625
60861,0.0671539306640625,-1.075408935546875,0.1513671875
60862,0.080810546875,-0.9872589111328124,0.216888427734375
60863,0.141204833984375,-0.8843536376953125,0.1584930419921875
60864,0.206817626953125,-0.8275604248046875,0.0681915283203125
60865,0.2286376953125,-0.8282318115234375,0.00732421875
60866,0.1969757080078125,-0.8845977783203125,-0.0410308837890625
60867,0.1504669189453125,-0.948822021484375,-0.0920257568359375
60868,0.1165924072265625,-0.994781494140625,-0.142120361328125
60869,0.0863800048828125,-1.03521728515625,-0.1866455078125
60870,0.0488128662109375,-1.047836303710938,-0.2148895263671875
60871,0.0110931396484375,-1.048858642578125,-0.23321533203125
60872,-0.016571044921875,-1.0389404296875,-0.2400665283203125
60873,-0.04010009765625,-1.0048828125,-0.2550048828125
60874,-0.0702056884765625,-0.9776153564453124,-0.29638671875
60875,-0.10009765625,-0.9547576904296876,-0.3421478271484375
60876,-0.12445068359375,-0.935394287109375,-0.3771820068359375
60877,-0.147979736328125,-0.929656982421875,-0.399658203125
60878,-0.166168212890625,-0.9320220947265624,-0.4126129150390625
60879,-0.1652984619140625,-0.9362030029296876,-0.43756103515625
60880,-0.1566314697265625,-0.9580535888671876,-0.46337890625
60881,-0.128387451171875,-0.987945556640625,-0.448883056640625
60882,-0.055816650390625,-1.0260009765625,-0.3483428955078125
60883,0.00408935546875,-1.1075439453125,-0.2415771484375
60884,-0.007232666015625,-1.316253662109375,-0.178131103515625
60885,-0.0372467041015625,-1.4544677734375,-0.0893707275390625
60886,0.0068359375,-1.154464721679688,0.02801513671875
60887,0.055084228515625,-0.9064483642578124,0.1213836669921875
60888,0.09100341796875,-0.8860931396484375,0.2160491943359375
60889,0.1230926513671875,-0.9708404541015624,0.2933807373046875
60890,0.1657562255859375,-1.033248901367188,0.3111114501953125
60891,0.209808349609375,-1.055831909179688,0.321563720703125
60892,0.24395751953125,-1.056320190429688,0.3086395263671875
60893,0.27069091796875,-1.074050903320312,0.2604522705078125
60894,0.302032470703125,-1.1060791015625,0.1838836669921875
60895,0.3397064208984375,-1.122756958007812,0.122100830078125
60896,0.36846923828125,-1.124267578125,0.099090576171875
60897,0.37567138671875,-1.117507934570312,0.1044769287109375
60898,0.3731536865234375,-1.067825317382812,0.127593994140625
60899,0.339447021484375,-0.987335205078125,0.157470703125
60900,0.2752838134765625,-0.890899658203125,0.1682586669921875
60901,0.2365570068359375,-0.8045196533203125,0.1712799072265625
60902,0.224029541015625,-0.7418670654296875,0.1713714599609375
60903,0.2275848388671875,-0.68182373046875,0.176513671875
60904,0.229949951171875,-0.642822265625,0.2015380859375
60905,0.23150634765625,-0.632110595703125,0.236328125
60906,0.23480224609375,-0.6551666259765625,0.3063201904296875
60907,0.228363037109375,-0.7152252197265625,0.31427001953125
60908,0.2219696044921875,-0.774017333984375,0.2209625244140625
60909,0.2249908447265625,-0.832366943359375,0.105010986328125
60910,0.2283935546875,-0.90631103515625,0.0285491943359375
60911,0.2300567626953125,-1.005447387695312,-0.0064849853515625
60912,0.23333740234375,-1.115859985351562,-0.0215301513671875
60913,0.2308197021484375,-1.225021362304688,-0.0660552978515625
60914,0.2178955078125,-1.309646606445312,-0.15380859375
60915,0.1969757080078125,-1.346328735351562,-0.2527923583984375
60916,0.1413421630859375,-1.349075317382812,-0.3165130615234375
60917,0.071533203125,-1.303451538085938,-0.3470306396484375
60918,0.0137481689453125,-1.22113037109375,-0.3679656982421875
60919,-0.0269317626953125,-1.15386962890625,-0.379730224609375
60920,-0.0487518310546875,-1.14495849609375,-0.380889892578125
60921,-0.0471343994140625,-1.16302490234375,-0.345672607421875
60922,-0.0266876220703125,-1.144927978515625,-0.2864990234375
60923,-0.022369384765625,-1.105667114257812,-0.2485504150390625
60924,-0.03802490234375,-1.070175170898438,-0.1734619140625
60925,-0.0550384521484375,-1.006149291992188,-0.0818634033203125
60926,-0.075775146484375,-0.9254913330078124,0.006011962890625
60927,-0.0945587158203125,-0.8404388427734375,0.0868072509765625
60928,-0.1104278564453125,-0.7619781494140625,0.1502838134765625
60929,-0.12481689453125,-0.7081298828125,0.1609039306640625
60930,-0.1324920654296875,-0.6971893310546875,0.06719970703125
60931,-0.1125335693359375,-0.7361297607421875,-0.104095458984375
60932,-0.080078125,-0.7999114990234375,-0.2479400634765625
60933,-0.0591888427734375,-0.8608856201171875,-0.3421783447265625
60934,-0.034698486328125,-0.91864013671875,-0.414031982421875
60935,-0.0155181884765625,-0.955841064453125,-0.4772491455078125
60936,-0.000152587890625,-0.9508514404296876,-0.5107269287109375
60937,0.0062103271484375,-0.9043121337890624,-0.50616455078125
60938,0.032928466796875,-0.8461761474609375,-0.4561309814453125
60939,0.0828094482421875,-0.80133056640625,-0.388885498046875
60940,0.1394805908203125,-0.7926788330078125,-0.3556060791015625
60941,0.1927032470703125,-0.8147735595703125,-0.346954345703125
60942,0.2335968017578125,-0.8546600341796875,-0.348419189453125
60943,0.2640838623046875,-0.9149169921875,-0.3563079833984375
60944,0.2879486083984375,-0.98577880859375,-0.36309814453125
60945,0.30181884765625,-1.055816650390625,-0.3382415771484375
60946,0.30841064453125,-1.122467041015625,-0.2803955078125
60947,0.3026275634765625,-1.171920776367188,-0.1965179443359375
60948,0.2914581298828125,-1.211502075195312,-0.134185791015625
60949,0.2604827880859375,-1.246414184570312,-0.12127685546875
60950,0.218414306640625,-1.275039672851562,-0.102935791015625
60951,0.1849517822265625,-1.289138793945312,-0.0321807861328125
60952,0.1261138916015625,-1.290069580078125,0.0959625244140625
60953,0.0344390869140625,-1.246337890625,0.2894439697265625
60954,-0.052978515625,-1.132369995117188,0.5084075927734375
60955,-0.125152587890625,-1.031829833984375,0.64349365234375
60956,-0.178924560546875,-0.9972686767578124,0.6663665771484375
60957,-0.1738128662109375,-0.9997711181640624,0.606048583984375
60958,-0.08367919921875,-1.030105590820312,0.476898193359375
60959,0.02276611328125,-1.02490234375,0.3094940185546875
60960,0.07879638671875,-0.9977264404296876,0.2058868408203125
60961,0.1178436279296875,-0.938385009765625,0.11737060546875
60962,0.1365203857421875,-0.8756103515625,0.03076171875
60963,0.1521759033203125,-0.8085479736328125,-0.0131072998046875
60964,0.1531982421875,-0.7840423583984375,0.0064544677734375
60965,0.13238525390625,-0.7971649169921875,0.072021484375
60966,0.121185302734375,-0.797882080078125,0.1343231201171875
60967,0.1061248779296875,-0.7926788330078125,0.175933837890625
60968,0.092681884765625,-0.7781219482421875,0.1943206787109375
60969,0.0866851806640625,-0.780914306640625,0.2007598876953125
60970,0.08673095703125,-0.809051513671875,0.202484130859375
60971,0.0882568359375,-0.85443115234375,0.19805908203125
60972,0.089080810546875,-0.9242706298828124,0.1631622314453125
60973,0.081756591796875,-1.023300170898438,0.0927581787109375
60974,0.058258056640625,-1.1429443359375,-0.001190185546875
60975,0.05108642578125,-1.240432739257812,-0.0843048095703125
60976,0.0514373779296875,-1.31414794921875,-0.1534271240234375
60977,0.0515899658203125,-1.339080810546875,-0.2163238525390625
60978,0.0752105712890625,-1.318878173828125,-0.2645111083984375
60979,0.0848846435546875,-1.28759765625,-0.3017578125
60980,0.09381103515625,-1.241378784179688,-0.3206024169921875
60981,0.109130859375,-1.206069946289062,-0.312591552734375
60982,0.13299560546875,-1.172088623046875,-0.2666473388671875
60983,0.1591949462890625,-1.149063110351562,-0.2063446044921875
60984,0.1868743896484375,-1.130294799804688,-0.1568450927734375
60985,0.2263031005859375,-1.091171264648438,-0.142059326171875
60986,0.2543792724609375,-1.012939453125,-0.1390533447265625
60987,0.25628662109375,-0.950836181640625,-0.1149139404296875
60988,0.257781982421875,-0.88446044921875,-0.0635223388671875
60989,0.27093505859375,-0.82647705078125,0.019378662109375
60990,0.3048858642578125,-0.7893829345703125,0.1180877685546875
60991,0.33642578125,-0.7848052978515625,0.2032012939453125
60992,0.360992431640625,-0.7856597900390625,0.19244384765625
60993,0.3634033203125,-0.8192901611328125,0.104461669921875
60994,0.34173583984375,-0.8854217529296875,0.0182037353515625
60995,0.3072509765625,-0.9550933837890624,-0.0437469482421875
60996,0.2654876708984375,-1.0255126953125,-0.0988616943359375
60997,0.213714599609375,-1.089523315429688,-0.1745758056640625
60998,0.146331787109375,-1.135589599609375,-0.2453765869140625
60999,0.076904296875,-1.153656005859375,-0.2819366455078125
61000,0.00238037109375,-1.121566772460938,-0.2873077392578125
61001,-0.0549163818359375,-1.04803466796875,-0.30023193359375
61002,-0.09197998046875,-0.9642791748046876,-0.3109283447265625
61003,-0.1275634765625,-0.89666748046875,-0.3041534423828125
61004,-0.1518096923828125,-0.8432769775390625,-0.301727294921875
61005,-0.15899658203125,-0.8103179931640625,-0.303680419921875
61006,-0.1469879150390625,-0.799224853515625,-0.3134307861328125
61007,-0.1254730224609375,-0.8134613037109375,-0.34539794921875
61008,-0.0965118408203125,-0.8645477294921875,-0.369903564453125
61009,-0.0457305908203125,-0.9546356201171876,-0.3282623291015625
61010,0.0283203125,-1.042373657226562,-0.2442169189453125
61011,0.080596923828125,-1.13580322265625,-0.1572113037109375
61012,0.0996551513671875,-1.288375854492188,-0.0562896728515625
61013,0.088104248046875,-1.444595336914062,0.072662353515625
61014,0.132080078125,-1.343856811523438,0.1899871826171875
61015,0.2058563232421875,-1.125335693359375,0.2296905517578125
61016,0.2730712890625,-1.032608032226562,0.221038818359375
61017,0.3178558349609375,-1.058380126953125,0.18353271484375
61018,0.3423004150390625,-1.094772338867188,0.1566619873046875
61019,0.346710205078125,-1.111297607421875,0.15399169921875
61020,0.3477783203125,-1.090744018554688,0.17376708984375
61021,0.33636474609375,-1.081787109375,0.1767120361328125
61022,0.332183837890625,-1.0640869140625,0.1522369384765625
61023,0.3350372314453125,-1.026123046875,0.13323974609375
61024,0.3343048095703125,-0.998046875,0.143280029296875
61025,0.322235107421875,-0.97625732421875,0.16796875
61026,0.2606658935546875,-0.9332733154296876,0.1822357177734375
61027,0.2299346923828125,-0.88385009765625,0.21923828125
61028,0.2382659912109375,-0.8387908935546875,0.27264404296875
61029,0.2305145263671875,-0.80859375,0.290313720703125
61030,0.213348388671875,-0.778961181640625,0.2593231201171875
61031,0.188262939453125,-0.7523193359375,0.2180328369140625
61032,0.1618804931640625,-0.7289276123046875,0.233245849609375
61033,0.1302337646484375,-0.73590087890625,0.208282470703125
61034,0.1021270751953125,-0.773895263671875,0.1474609375
61035,0.081756591796875,-0.841217041015625,0.08245849609375
61036,0.0807037353515625,-0.938323974609375,0.03680419921875
61037,0.07440185546875,-1.067794799804688,0.013519287109375
61038,0.0201568603515625,-1.243988037109375,-0.046478271484375
61039,-0.067901611328125,-1.398773193359375,-0.1630401611328125
61040,-0.1587677001953125,-1.38385009765625,-0.27227783203125
61041,-0.2111358642578125,-1.207443237304688,-0.33941650390625
61042,-0.238250732421875,-1.099227905273438,-0.3620147705078125
61043,-0.25830078125,-1.086700439453125,-0.337158203125
61044,-0.2435760498046875,-1.113693237304688,-0.2642974853515625
61045,-0.16204833984375,-1.090805053710938,-0.197906494140625
61046,-0.0392608642578125,-1.056793212890625,-0.1510772705078125
61047,0.053466796875,-1.037826538085938,-0.110198974609375
61048,0.10107421875,-1.01123046875,-0.101531982421875
61049,0.1214447021484375,-0.9832916259765624,-0.116455078125
61050,0.1334075927734375,-0.9725799560546876,-0.1455841064453125
61051,0.1242828369140625,-1.005783081054688,-0.1555023193359375
61052,0.0904693603515625,-1.0430908203125,-0.1238861083984375
61053,0.0227508544921875,-1.046356201171875,-0.045166015625
61054,-0.0344085693359375,-0.995391845703125,0.0930633544921875
61055,-0.05908203125,-0.8922882080078125,0.2937164306640625
61056,-0.0555877685546875,-0.7701416015625,0.512908935546875
61057,-0.0240325927734375,-0.70916748046875,0.560211181640625
61058,0.0362701416015625,-0.6773681640625,0.342559814453125
61059,0.0661468505859375,-0.6790313720703125,0.0738372802734375
61060,0.052032470703125,-0.686004638671875,-0.146728515625
61061,0.058746337890625,-0.7117767333984375,-0.3009033203125
61062,0.0692901611328125,-0.75738525390625,-0.40679931640625
61063,0.08880615234375,-0.7960662841796875,-0.4617462158203125
61064,0.1300048828125,-0.8197479248046875,-0.4628753662109375
61065,0.1865692138671875,-0.83868408203125,-0.4370269775390625
61066,0.2275543212890625,-0.8778533935546875,-0.4118499755859375
61067,0.2432403564453125,-0.9568328857421876,-0.3885955810546875
61068,0.24853515625,-1.032135009765625,-0.331451416015625
61069,0.2654571533203125,-1.079208374023438,-0.2729034423828125
61070,0.288665771484375,-1.101531982421875,-0.2724456787109375
61071,0.2982330322265625,-1.129364013671875,-0.2996673583984375
61072,0.2902374267578125,-1.165557861328125,-0.3358001708984375
61073,0.2726287841796875,-1.187667846679688,-0.3710479736328125
61074,0.229095458984375,-1.205734252929688,-0.3905029296875
61075,0.166412353515625,-1.228179931640625,-0.384368896484375
61076,0.11578369140625,-1.243560791015625,-0.3601531982421875
61077,0.0817413330078125,-1.262680053710938,-0.304534912109375
61078,0.0384368896484375,-1.360031127929688,-0.2271728515625
61079,-0.01483154296875,-1.545928955078125,-0.0904998779296875
61080,-0.0584564208984375,-1.581253051757812,0.13287353515625
61081,-0.0786285400390625,-1.364761352539062,0.3367919921875
61082,-0.1285858154296875,-1.175048828125,0.4534759521484375
61083,-0.127288818359375,-1.050048828125,0.4962158203125
61084,-0.0334014892578125,-1.003875732421875,0.446502685546875
61085,0.0959014892578125,-1.01361083984375,0.348358154296875
61086,0.1168212890625,-0.9922027587890624,0.2700653076171875
61087,0.1022186279296875,-0.95465087890625,0.225616455078125
61088,0.1004486083984375,-0.900604248046875,0.201202392578125
61089,0.100250244140625,-0.8543548583984375,0.199371337890625
61090,0.103240966796875,-0.8303070068359375,0.2040863037109375
61091,0.1046142578125,-0.8216400146484375,0.1983795166015625
61092,0.0996856689453125,-0.810943603515625,0.1844482421875
61093,0.0845794677734375,-0.788818359375,0.1672821044921875
61094,0.068023681640625,-0.7534637451171875,0.151580810546875
61095,0.061859130859375,-0.7060394287109375,0.128326416015625
61096,0.0642852783203125,-0.6743927001953125,0.108642578125
61097,0.0751495361328125,-0.671142578125,0.080535888671875
61098,0.092254638671875,-0.6950225830078125,0.0672760009765625
61099,0.1148529052734375,-0.7405853271484375,0.0850372314453125
61100,0.1403656005859375,-0.8099365234375,0.1103973388671875
61101,0.1563720703125,-0.9046783447265624,0.1415557861328125
61102,0.172576904296875,-1.022933959960938,0.1681365966796875
61103,0.183258056640625,-1.14813232421875,0.1459503173828125
61104,0.1807403564453125,-1.265533447265625,0.0793914794921875
61105,0.1641845703125,-1.33575439453125,0.00909423828125
61106,0.125701904296875,-1.3466796875,-0.0638427734375
61107,0.0815277099609375,-1.286819458007812,-0.1494140625
61108,0.0481109619140625,-1.203384399414062,-0.248992919921875
61109,0.020111083984375,-1.087295532226562,-0.2991180419921875
61110,0.0020294189453125,-0.969085693359375,-0.300872802734375
61111,0.0023651123046875,-0.900299072265625,-0.2927093505859375
61112,0.0297088623046875,-0.8801116943359375,-0.272552490234375
61113,0.0907440185546875,-0.9031524658203124,-0.23504638671875
61114,0.166961669921875,-0.9400634765625,-0.1689605712890625
61115,0.2400665283203125,-0.9971771240234376,-0.0549774169921875
61116,0.2809906005859375,-1.100738525390625,0.1023712158203125
61117,0.31488037109375,-1.181427001953125,0.2593536376953125
61118,0.3511810302734375,-1.16827392578125,0.3133392333984375
61119,0.3581695556640625,-1.077239990234375,0.2422332763671875
61120,0.32080078125,-0.964447021484375,0.1561431884765625
61121,0.27239990234375,-0.8762969970703125,0.059356689453125
61122,0.2232208251953125,-0.8370361328125,-0.041259765625
61123,0.1783294677734375,-0.8433685302734375,-0.09918212890625
61124,0.15509033203125,-0.8729705810546875,-0.1033782958984375
61125,0.1473846435546875,-0.9764251708984376,-0.1094970703125
61126,0.109954833984375,-1.134658813476562,-0.1409912109375
61127,0.0679931640625,-1.241485595703125,-0.1994171142578125
61128,0.0410614013671875,-1.284683227539062,-0.2444915771484375
61129,0.019683837890625,-1.24871826171875,-0.2784423828125
61130,0.01416015625,-1.120223999023438,-0.288543701171875
61131,0.0155792236328125,-0.9840087890625,-0.2617340087890625
61132,-0.0010833740234375,-0.8927764892578125,-0.2175445556640625
61133,-0.02850341796875,-0.839111328125,-0.179168701171875
61134,-0.0556182861328125,-0.812255859375,-0.149871826171875
61135,-0.08062744140625,-0.807525634765625,-0.127044677734375
61136,-0.0993804931640625,-0.814178466796875,-0.105499267578125
61137,-0.1129150390625,-0.838470458984375,-0.089630126953125
61138,-0.11212158203125,-0.8883819580078125,-0.079742431640625
61139,-0.095916748046875,-0.951690673828125,-0.0663604736328125
61140,-0.056915283203125,-1.014862060546875,-0.062744140625
61141,-0.0020751953125,-1.074172973632812,-0.0724029541015625
61142,0.0503387451171875,-1.115875244140625,-0.08203125
61143,0.0940704345703125,-1.162643432617188,-0.088775634765625
61144,0.1177215576171875,-1.22314453125,-0.0772705078125
61145,0.1330413818359375,-1.246810913085938,-0.01727294921875
61146,0.1481781005859375,-1.224395751953125,0.043548583984375
61147,0.164703369140625,-1.174911499023438,0.067138671875
61148,0.1904754638671875,-1.114715576171875,0.1201629638671875
61149,0.2274322509765625,-1.074783325195312,0.2021331787109375
61150,0.2777252197265625,-1.0689697265625,0.2619781494140625
61151,0.323699951171875,-1.10064697265625,0.298248291015625
61152,0.3637542724609375,-1.132293701171875,0.313690185546875
61153,0.40423583984375,-1.138198852539062,0.3022308349609375
61154,0.42083740234375,-1.139007568359375,0.275390625
61155,0.4244384765625,-1.108673095703125,0.218536376953125
61156,0.4183349609375,-1.051986694335938,0.1417083740234375
61157,0.390289306640625,-0.9828033447265624,0.065948486328125
61158,0.34649658203125,-0.9015350341796876,0.018585205078125
61159,0.2819671630859375,-0.8383941650390625,0.001068115234375
61160,0.23211669921875,-0.8106689453125,-0.006195068359375
61161,0.2085113525390625,-0.789703369140625,0.01617431640625
61162,0.1891326904296875,-0.7674407958984375,0.0580596923828125
61163,0.173248291015625,-0.7453460693359375,0.1146697998046875
61164,0.1617889404296875,-0.721405029296875,0.1493377685546875
61165,0.1347503662109375,-0.7116546630859375,0.1450042724609375
61166,0.0978851318359375,-0.7143096923828125,0.1807403564453125
61167,0.056976318359375,-0.728363037109375,0.2353515625
61168,0.013641357421875,-0.7503662109375,0.334014892578125
61169,-0.021636962890625,-0.7874755859375,0.4256439208984375
61170,-0.0456085205078125,-0.855560302734375,0.385711669921875
61171,-0.085205078125,-0.9316253662109376,0.251861572265625
61172,-0.1931304931640625,-0.9771270751953124,0.11572265625
61173,-0.315093994140625,-1.058929443359375,0.00872802734375
61174,-0.246063232421875,-1.22576904296875,-0.0727081298828125
61175,-0.1427459716796875,-1.321121215820312,-0.117523193359375
61176,-0.082366943359375,-1.39276123046875,-0.1462554931640625
61177,-0.042327880859375,-1.429733276367188,-0.183746337890625
61178,-0.01177978515625,-1.408035278320312,-0.180328369140625
61179,0.00457763671875,-1.3524169921875,-0.1474151611328125
61180,0.0057373046875,-1.29510498046875,-0.1013641357421875
61181,0.0042572021484375,-1.226882934570312,-0.0581512451171875
61182,-0.007293701171875,-1.168228149414062,-0.0203399658203125
61183,-0.0367279052734375,-1.133316040039062,0.021484375
61184,-0.0690155029296875,-1.093643188476562,0.056915283203125
61185,-0.0910797119140625,-1.039947509765625,0.065032958984375
61186,-0.1070556640625,-0.9775543212890624,0.0982666015625
61187,-0.1072540283203125,-0.888275146484375,0.1826019287109375
61188,-0.10028076171875,-0.8036346435546875,0.277679443359375
61189,-0.086517333984375,-0.7501373291015625,0.34002685546875
61190,-0.0643768310546875,-0.7347412109375,0.2945404052734375
61191,-0.0310821533203125,-0.7475433349609375,0.1583251953125
61192,-0.00341796875,-0.779541015625,0.030670166015625
61193,0.0105438232421875,-0.8078765869140625,-0.0705413818359375
61194,0.0214080810546875,-0.8507843017578125,-0.1803131103515625
61195,0.030914306640625,-0.9001617431640625,-0.2982330322265625
61196,0.04315185546875,-0.93450927734375,-0.4276885986328125
61197,0.056365966796875,-0.9430084228515624,-0.54620361328125
61198,0.08746337890625,-0.923095703125,-0.61590576171875
61199,0.1302490234375,-0.90313720703125,-0.60784912109375
61200,0.169830322265625,-0.8976287841796875,-0.5347137451171875
61201,0.1891326904296875,-0.90545654296875,-0.472442626953125
61202,0.1938018798828125,-0.93402099609375,-0.430023193359375
61203,0.2018890380859375,-0.97637939453125,-0.399261474609375
61204,0.2217254638671875,-0.9993438720703124,-0.3848876953125
61205,0.2383880615234375,-1.042587280273438,-0.3981170654296875
61206,0.24542236328125,-1.111618041992188,-0.38916015625
61207,0.2331390380859375,-1.17071533203125,-0.334259033203125
61208,0.2133636474609375,-1.203933715820312,-0.206024169921875
61209,0.19024658203125,-1.213134765625,-0.0619964599609375
61210,0.1662750244140625,-1.222763061523438,0.032928466796875
61211,0.148223876953125,-1.2501220703125,0.083251953125
61212,0.1368255615234375,-1.270187377929688,0.1028594970703125
61213,0.101654052734375,-1.286392211914062,0.1474761962890625
61214,0.036865234375,-1.277511596679688,0.2499847412109375
61215,-0.0812530517578125,-1.19970703125,0.376739501953125
61216,-0.120513916015625,-1.066146850585938,0.4920806884765625
61217,-0.0773468017578125,-0.94061279296875,0.5334625244140625
61218,-0.0244903564453125,-0.9016571044921876,0.4520721435546875
61219,0.0501861572265625,-0.9183502197265624,0.3531951904296875
61220,0.0906524658203125,-0.928741455078125,0.296844482421875
61221,0.0923309326171875,-0.9110870361328124,0.257904052734375
61222,0.052703857421875,-0.901947021484375,0.24090576171875
61223,0.0205230712890625,-0.8785552978515625,0.2448883056640625
61224,0.004425048828125,-0.865203857421875,0.2466888427734375
61225,-0.0052337646484375,-0.831573486328125,0.232513427734375
61226,-0.0187835693359375,-0.797698974609375,0.199188232421875
61227,-0.0212554931640625,-0.74066162109375,0.1775665283203125
61228,-0.017822265625,-0.690948486328125,0.1449127197265625
61229,-0.003387451171875,-0.669830322265625,0.119537353515625
61230,0.0245208740234375,-0.6649627685546875,0.10003662109375
61231,0.05206298828125,-0.6705169677734375,0.090423583984375
61232,0.0731658935546875,-0.6919403076171875,0.0825347900390625
61233,0.0858917236328125,-0.7436065673828125,0.0737457275390625
61234,0.0992431640625,-0.8313446044921875,0.076171875
61235,0.1143798828125,-0.9365997314453124,0.0902557373046875
61236,0.133514404296875,-1.055282592773438,0.08172607421875
61237,0.1400909423828125,-1.18341064453125,0.029388427734375
61238,0.1425323486328125,-1.310989379882812,-0.0458221435546875
61239,0.143463134765625,-1.4169921875,-0.1385498046875
61240,0.1428680419921875,-1.484786987304688,-0.231781005859375
61241,0.1456756591796875,-1.483428955078125,-0.2816619873046875
61242,0.133514404296875,-1.429031372070312,-0.2732086181640625
61243,0.1081695556640625,-1.364654541015625,-0.22625732421875
61244,0.08984375,-1.300857543945312,-0.164825439453125
61245,0.0986480712890625,-1.236587524414062,-0.1026458740234375
61246,0.14923095703125,-1.169387817382812,-0.0095672607421875
61247,0.2050323486328125,-1.117401123046875,0.088592529296875
61248,0.2546844482421875,-1.074844360351562,0.1023101806640625
61249,0.3059844970703125,-1.030181884765625,0.0682525634765625
61250,0.3576812744140625,-0.9903717041015624,0.0595245361328125
61251,0.408477783203125,-0.9563751220703124,0.08209228515625
61252,0.4450225830078125,-0.92962646484375,0.1336822509765625
61253,0.4616241455078125,-0.89898681640625,0.159210205078125
61254,0.46356201171875,-0.8521575927734375,0.1480712890625
61255,0.4400482177734375,-0.8258819580078125,0.1157684326171875
61256,0.40155029296875,-0.8330230712890625,0.071624755859375
61257,0.3461761474609375,-0.8589935302734375,0.017791748046875
61258,0.2343902587890625,-0.8892364501953125,-0.047088623046875
61259,0.0984649658203125,-0.9110107421875,-0.1059112548828125
61260,0.023284912109375,-0.9314727783203124,-0.1598663330078125
61261,-0.030975341796875,-0.933685302734375,-0.196807861328125
61262,-0.0758056640625,-0.9228973388671876,-0.2364349365234375
61263,-0.1108551025390625,-0.912384033203125,-0.292633056640625
61264,-0.131927490234375,-0.8911895751953125,-0.3423309326171875
61265,-0.14398193359375,-0.8620147705078125,-0.362396240234375
61266,-0.1538238525390625,-0.8331146240234375,-0.362091064453125
61267,-0.1564483642578125,-0.826141357421875,-0.3624725341796875
61268,-0.15155029296875,-0.8548583984375,-0.3828277587890625
61269,-0.1320343017578125,-0.9048309326171876,-0.4092864990234375
61270,-0.08575439453125,-0.9615936279296876,-0.4163360595703125
61271,-0.0296478271484375,-1.025634765625,-0.3913726806640625
61272,0.0250244140625,-1.084060668945312,-0.36541748046875
61273,0.0593414306640625,-1.145797729492188,-0.3316802978515625
61274,0.072845458984375,-1.281814575195312,-0.291107177734375
61275,0.0523681640625,-1.44677734375,-0.2432098388671875
61276,0.100067138671875,-1.292861938476562,-0.1172943115234375
61277,0.1479949951171875,-1.0892333984375,0.0059814453125
61278,0.1854095458984375,-1.009857177734375,0.101898193359375
61279,0.2294921875,-1.009017944335938,0.1846923828125
61280,0.2744903564453125,-1.02069091796875,0.2141876220703125
61281,0.312103271484375,-1.022705078125,0.2044219970703125
61282,0.3447418212890625,-1.028091430664062,0.207672119140625
61283,0.37335205078125,-1.043533325195312,0.2454681396484375
61284,0.4022674560546875,-1.081069946289062,0.3009185791015625
61285,0.4248809814453125,-1.131591796875,0.332855224609375
61286,0.4382476806640625,-1.18194580078125,0.314849853515625
61287,0.44122314453125,-1.202880859375,0.2405242919921875
61288,0.4365081787109375,-1.167251586914062,0.1623077392578125
61289,0.4201812744140625,-1.058013916015625,0.1199188232421875
61290,0.385284423828125,-0.9263916015625,0.0910186767578125
61291,0.343536376953125,-0.8123321533203125,0.04254150390625
61292,0.306671142578125,-0.7165679931640625,0.01239013671875
61293,0.276824951171875,-0.660888671875,0.07061767578125
61294,0.25140380859375,-0.6553955078125,0.1468963623046875
61295,0.2468414306640625,-0.6649017333984375,0.21044921875
61296,0.23681640625,-0.695159912109375,0.23883056640625
61297,0.2238006591796875,-0.7313232421875,0.2303619384765625
61298,0.2132568359375,-0.77044677734375,0.1949310302734375
61299,0.2021942138671875,-0.8192901611328125,0.1767425537109375
61300,0.1967315673828125,-0.8938140869140625,0.1667633056640625
61301,0.1913604736328125,-0.9926910400390624,0.0889434814453125
61302,0.185455322265625,-1.092544555664062,-0.006317138671875
61303,0.1811676025390625,-1.184814453125,-0.066253662109375
61304,0.1888885498046875,-1.217437744140625,-0.11102294921875
61305,0.1746368408203125,-1.218536376953125,-0.198638916015625
61306,0.130096435546875,-1.218063354492188,-0.2674407958984375
61307,0.1036529541015625,-1.191986083984375,-0.2877044677734375
61308,0.07769775390625,-1.206130981445312,-0.29864501953125
61309,0.0513763427734375,-1.24981689453125,-0.305755615234375
61310,0.0409393310546875,-1.275680541992188,-0.2751007080078125
61311,0.0404205322265625,-1.301345825195312,-0.18963623046875
61312,0.0383758544921875,-1.335678100585938,-0.060394287109375
61313,0.0446014404296875,-1.345626831054688,0.087249755859375
61314,0.06634521484375,-1.300186157226562,0.20306396484375
61315,0.1064605712890625,-1.187423706054688,0.29449462890625
61316,0.139312744140625,-1.041732788085938,0.3402252197265625
61317,0.11279296875,-0.9082794189453124,0.3076629638671875
61318,0.0596923828125,-0.7997283935546875,0.220062255859375
61319,0.0240478515625,-0.7251434326171875,0.09893798828125
61320,-0.002227783203125,-0.68414306640625,-0.054656982421875
61321,-0.0158538818359375,-0.666717529296875,-0.1748809814453125
61322,-0.0162506103515625,-0.6746063232421875,-0.2040557861328125
61323,-0.0127105712890625,-0.7060546875,-0.21063232421875
61324,0.000823974609375,-0.7768707275390625,-0.236480712890625
61325,0.0191802978515625,-0.8473358154296875,-0.283782958984375
61326,0.0450897216796875,-0.8681640625,-0.3211517333984375
61327,0.0808868408203125,-0.814544677734375,-0.333770751953125
61328,0.11865234375,-0.7141876220703125,-0.3212890625
61329,0.145416259765625,-0.6386566162109375,-0.315948486328125
61330,0.1544952392578125,-0.6202239990234375,-0.32305908203125
61331,0.146759033203125,-0.661163330078125,-0.332672119140625
61332,0.1270294189453125,-0.73748779296875,-0.35260009765625
61333,0.1044921875,-0.8397216796875,-0.3826141357421875
61334,0.08233642578125,-0.950103759765625,-0.405792236328125
61335,0.103607177734375,-1.04541015625,-0.4179840087890625
61336,0.136077880859375,-1.151351928710938,-0.4300994873046875
61337,0.1356048583984375,-1.267013549804688,-0.387176513671875
61338,0.1422271728515625,-1.359115600585938,-0.255279541015625
61339,0.157501220703125,-1.421005249023438,-0.0831298828125
61340,0.1772003173828125,-1.42681884765625,0.032012939453125
61341,0.1631622314453125,-1.437332153320312,0.0438995361328125
61342,0.1162109375,-1.410675048828125,0.0614166259765625
61343,-0.0210723876953125,-1.324386596679688,0.13092041015625
61344,-0.16998291015625,-1.187759399414062,0.2770843505859375
61345,-0.1805877685546875,-1.024200439453125,0.4166107177734375
61346,-0.1501922607421875,-0.92596435546875,0.4470367431640625
61347,-0.098724365234375,-0.958038330078125,0.403656005859375
61348,0.0135498046875,-1.012924194335938,0.35260009765625
61349,0.102447509765625,-1.016448974609375,0.3453369140625
61350,0.170562744140625,-1.004806518554688,0.37542724609375
61351,0.228759765625,-0.9830169677734376,0.409271240234375
61352,0.2620849609375,-0.9632568359375,0.437713623046875
61353,0.2801666259765625,-0.924041748046875,0.4554595947265625
61354,0.2808837890625,-0.8710784912109375,0.434722900390625
61355,0.2579803466796875,-0.807281494140625,0.35662841796875
61356,0.2092742919921875,-0.7546844482421875,0.2709503173828125
61357,0.1414947509765625,-0.72503662109375,0.219573974609375
61358,0.059417724609375,-0.7064666748046875,0.1922607421875
61359,0.010528564453125,-0.71234130859375,0.171661376953125
61360,-0.034271240234375,-0.7461700439453125,0.157196044921875
61361,-0.0818634033203125,-0.8114013671875,0.127899169921875
61362,-0.12371826171875,-0.910125732421875,0.083160400390625
61363,-0.1396026611328125,-1.05181884765625,0.0356903076171875
61364,-0.1051483154296875,-1.195419311523438,0.0007781982421875
61365,-0.0491943359375,-1.263809204101562,-0.079132080078125
61366,-0.0125732421875,-1.266510009765625,-0.1855621337890625
61367,0.0110626220703125,-1.2537841796875,-0.274566650390625
61368,0.0181884765625,-1.219375610351562,-0.3642120361328125
61369,0.0046539306640625,-1.196212768554688,-0.4447174072265625
61370,-0.0024871826171875,-1.163162231445312,-0.4546661376953125
61371,6.103515625e-05,-1.111648559570312,-0.37933349609375
61372,0.01806640625,-1.076034545898438,-0.27191162109375
61373,0.0363616943359375,-1.073410034179688,-0.1777496337890625
61374,0.0617523193359375,-1.097030639648438,-0.092010498046875
61375,0.1009521484375,-1.109756469726562,-0.0023956298828125
61376,0.1292724609375,-1.098587036132812,0.08477783203125
61377,0.142913818359375,-1.0760498046875,0.129730224609375
61378,0.1436920166015625,-1.029144287109375,0.1338958740234375
61379,0.145050048828125,-0.952545166015625,0.124053955078125
61380,0.16583251953125,-0.867645263671875,0.1155548095703125
61381,0.208709716796875,-0.7883148193359375,0.107666015625
61382,0.250762939453125,-0.728607177734375,0.0988922119140625
61383,0.26995849609375,-0.732818603515625,0.051483154296875
61384,0.264068603515625,-0.795867919921875,-0.0124969482421875
61385,0.2420196533203125,-0.8924407958984375,-0.0542755126953125
61386,0.215057373046875,-1.031448364257812,-0.10205078125
61387,0.1826934814453125,-1.1942138671875,-0.1668701171875
61388,0.129974365234375,-1.339950561523438,-0.23626708984375
61389,0.075714111328125,-1.42047119140625,-0.3155364990234375
61390,0.0186004638671875,-1.412979125976562,-0.38519287109375
61391,-0.0409088134765625,-1.316879272460938,-0.4132080078125
61392,-0.083770751953125,-1.169830322265625,-0.409149169921875
61393,-0.1158905029296875,-1.05511474609375,-0.34747314453125
61394,-0.1376953125,-0.989227294921875,-0.2803802490234375
61395,-0.1601409912109375,-0.9393157958984376,-0.23779296875
61396,-0.1884307861328125,-0.9051361083984376,-0.2065277099609375
61397,-0.2084503173828125,-0.87664794921875,-0.1803131103515625
61398,-0.227386474609375,-0.856231689453125,-0.1757049560546875
61399,-0.2470703125,-0.8516845703125,-0.19671630859375
61400,-0.17840576171875,-0.910186767578125,-0.16485595703125
61401,-0.09783935546875,-0.9862213134765624,-0.1200714111328125
61402,-0.08984375,-1.185867309570312,-0.1075439453125
61403,-0.0907745361328125,-1.28326416015625,-0.0783233642578125
61404,-0.0225830078125,-1.056289672851562,-0.0153045654296875
61405,0.036376953125,-0.8793182373046875,0.0253753662109375
61406,0.0765838623046875,-0.8805389404296875,0.0579986572265625
61407,0.1160736083984375,-0.9524383544921876,0.1016693115234375
61408,0.1816558837890625,-0.980255126953125,0.16729736328125
61409,0.2537078857421875,-0.9881591796875,0.2244415283203125
61410,0.324066162109375,-1.011749267578125,0.2876739501953125
61411,0.3934326171875,-1.039398193359375,0.3352203369140625
61412,0.45166015625,-1.082412719726562,0.3467864990234375
61413,0.48028564453125,-1.149887084960938,0.32818603515625
61414,0.49566650390625,-1.191452026367188,0.2823486328125
61415,0.5109100341796875,-1.17401123046875,0.2295074462890625
61416,0.492095947265625,-1.10015869140625,0.2361297607421875
61417,0.4026641845703125,-0.986724853515625,0.3089752197265625
61418,0.2659912109375,-0.86724853515625,0.38250732421875
61419,0.175872802734375,-0.7928009033203125,0.4002838134765625
61420,0.123504638671875,-0.721466064453125,0.41424560546875
61421,0.0882720947265625,-0.636810302734375,0.4346466064453125
61422,0.058380126953125,-0.5615386962890625,0.4090423583984375
61423,0.0401153564453125,-0.4960479736328125,0.3873748779296875
61424,0.0418243408203125,-0.4767913818359375,0.3547821044921875
61425,0.053375244140625,-0.526885986328125,0.2469635009765625
61426,0.07537841796875,-0.6592254638671875,0.0908966064453125
61427,0.10479736328125,-0.8354339599609375,-0.03424072265625
61428,0.1090850830078125,-1.041046142578125,-0.099212646484375
61429,0.077423095703125,-1.246917724609375,-0.186981201171875
61430,0.0269012451171875,-1.445770263671875,-0.296630859375
61431,-0.0375823974609375,-1.62823486328125,-0.419708251953125
61432,-0.1194305419921875,-1.7469482421875,-0.488677978515625
61433,-0.1808929443359375,-1.703399658203125,-0.4563446044921875
61434,-0.191162109375,-1.481033325195312,-0.350494384765625
61435,-0.1513824462890625,-1.260910034179688,-0.2255096435546875
61436,-0.0543212890625,-1.11993408203125,-0.1068115234375
61437,0.0254058837890625,-1.085433959960938,-0.016876220703125
61438,0.074920654296875,-1.063720703125,-0.002777099609375
61439,0.0978851318359375,-1.051727294921875,-0.0240325927734375
61440,0.109375,-1.05096435546875,-0.0758209228515625
61441,0.1161651611328125,-1.022598266601562,-0.12652587890625
61442,0.1009979248046875,-0.965728759765625,-0.11602783203125
61443,0.055206298828125,-0.9090423583984376,-0.050018310546875
61444,0.0107269287109375,-0.845947265625,0.0535888671875
61445,-0.0217132568359375,-0.7765350341796875,0.1703033447265625
61446,-0.0505828857421875,-0.7063751220703125,0.24169921875
61447,-0.0853729248046875,-0.623931884765625,0.2482452392578125
61448,-0.0999298095703125,-0.5540771484375,0.145416259765625
61449,-0.100372314453125,-0.5172119140625,-0.0010833740234375
61450,-0.09991455078125,-0.5312652587890625,-0.1173553466796875
61451,-0.0789794921875,-0.5774383544921875,-0.1903076171875
61452,-0.0294189453125,-0.64288330078125,-0.2299652099609375
61453,0.0175628662109375,-0.7131500244140625,-0.2560272216796875
61454,0.045623779296875,-0.779388427734375,-0.30291748046875
61455,0.070281982421875,-0.8327484130859375,-0.3665008544921875
61456,0.0969390869140625,-0.8818511962890625,-0.435394287109375
61457,0.121185302734375,-0.9446868896484376,-0.5213470458984375
61458,0.1830596923828125,-1.00982666015625,-0.6361083984375
61459,0.271820068359375,-1.156204223632812,-0.79974365234375
61460,0.3443450927734375,-1.352767944335938,-0.9300384521484376
61461,0.385650634765625,-1.49609375,-0.87646484375
61462,0.4013671875,-1.534515380859375,-0.678192138671875
61463,0.3916015625,-1.496856689453125,-0.474395751953125
61464,0.337615966796875,-1.460708618164062,-0.333099365234375
61465,0.2769317626953125,-1.4298095703125,-0.2441558837890625
61466,0.241607666015625,-1.357864379882812,-0.172882080078125
61467,0.1986541748046875,-1.301177978515625,-0.084442138671875
61468,0.137115478515625,-1.30438232421875,0.0108184814453125
61469,0.059661865234375,-1.343399047851562,0.070343017578125
61470,-0.00341796875,-1.312835693359375,0.0860595703125
61471,-0.04974365234375,-1.128128051757812,0.26959228515625
61472,-0.1294708251953125,-0.9489593505859376,0.600067138671875
61473,-0.1168975830078125,-0.8245086669921875,0.6589508056640625
61474,-0.0023040771484375,-0.7706298828125,0.645843505859375
61475,0.08343505859375,-0.8495330810546875,0.52264404296875
61476,0.1123046875,-0.890869140625,0.3525848388671875
61477,0.1344451904296875,-0.8802947998046875,0.262786865234375
61478,0.121978759765625,-0.8936614990234375,0.218658447265625
61479,0.1174774169921875,-0.860443115234375,0.1838226318359375
61480,0.10369873046875,-0.808502197265625,0.1265411376953125
61481,0.0748748779296875,-0.7905120849609375,0.0740203857421875
61482,0.0460662841796875,-0.7789764404296875,0.054656982421875
61483,-0.00177001953125,-0.755218505859375,0.0890960693359375
61484,-0.08831787109375,-0.7266845703125,0.162994384765625
61485,-0.1651458740234375,-0.711669921875,0.2385101318359375
61486,-0.193572998046875,-0.707611083984375,0.3163604736328125
61487,-0.1963653564453125,-0.693389892578125,0.367034912109375
61488,-0.19366455078125,-0.731781005859375,0.327667236328125
61489,-0.1701507568359375,-0.84954833984375,0.210174560546875
61490,-0.1227264404296875,-1.026351928710938,0.0886688232421875
61491,-0.0997772216796875,-1.186798095703125,-0.0179443359375
61492,-0.095245361328125,-1.258163452148438,-0.056488037109375
61493,-0.0348052978515625,-1.223251342773438,-0.0701141357421875
61494,0.0233612060546875,-1.183944702148438,-0.1349029541015625
61495,0.05706787109375,-1.215438842773438,-0.298858642578125
61496,0.067962646484375,-1.267120361328125,-0.420623779296875
61497,0.0577850341796875,-1.271682739257812,-0.41119384765625
61498,0.056976318359375,-1.224411010742188,-0.3662261962890625
61499,0.0458831787109375,-1.167938232421875,-0.26055908203125
61500,0.01171875,-1.13653564453125,-0.187347412109375
61501,-0.0050201416015625,-1.1046142578125,-0.1557159423828125
61502,-0.0117645263671875,-1.069976806640625,-0.139007568359375
61503,-0.0028533935546875,-1.016555786132812,-0.1275634765625
61504,0.0440673828125,-0.948272705078125,-0.1253814697265625
61505,0.125152587890625,-0.899505615234375,-0.1031494140625
61506,0.212890625,-0.8732147216796875,-0.0016326904296875
61507,0.267486572265625,-0.8736419677734375,0.0529632568359375
61508,0.3063507080078125,-0.894439697265625,0.0291748046875
61509,0.32257080078125,-0.9354705810546876,-0.0350799560546875
61510,0.316131591796875,-0.996917724609375,-0.07781982421875
61511,0.313873291015625,-1.051284790039062,-0.08013916015625
61512,0.29876708984375,-1.124008178710938,-0.07598876953125
61513,0.2283172607421875,-1.188079833984375,-0.102020263671875
61514,0.111419677734375,-1.189666748046875,-0.12689208984375
61515,0.0374755859375,-1.174896240234375,-0.1359100341796875
61516,-0.02642822265625,-1.1549072265625,-0.1973876953125
61517,-0.0869903564453125,-1.115737915039062,-0.28570556640625
61518,-0.1571502685546875,-1.065673828125,-0.36614990234375
61519,-0.2400360107421875,-0.98974609375,-0.4221954345703125
61520,-0.397064208984375,-0.841583251953125,-0.4816741943359375
61521,-0.4537506103515625,-0.7367401123046875,-0.429229736328125
61522,-0.2522125244140625,-0.7414398193359375,-0.1857757568359375
61523,-0.1562652587890625,-0.71905517578125,-0.089202880859375
61524,-0.08355712890625,-0.768524169921875,-0.031402587890625
61525,-0.0137176513671875,-0.826904296875,0.020477294921875
61526,0.048736572265625,-0.87005615234375,0.0464935302734375
61527,0.082275390625,-0.9022064208984376,0.044708251953125
61528,0.097991943359375,-0.9444427490234376,0.0273284912109375
61529,0.0673675537109375,-1.083633422851562,0.0011749267578125
61530,0.0167694091796875,-1.20733642578125,0.0129547119140625
61531,0.0184173583984375,-1.102874755859375,0.072479248046875
61532,0.04852294921875,-0.95977783203125,0.139739990234375
61533,0.0789794921875,-0.936798095703125,0.194366455078125
61534,0.1271820068359375,-0.9909210205078124,0.2370147705078125
61535,0.1892852783203125,-1.057601928710938,0.2663116455078125
61536,0.2564849853515625,-1.10845947265625,0.2625885009765625
61537,0.3125762939453125,-1.156341552734375,0.2083587646484375
61538,0.3505706787109375,-1.20367431640625,0.1534423828125
61539,0.381866455078125,-1.219894409179688,0.120697021484375
61540,0.4030609130859375,-1.200698852539062,0.122711181640625
61541,0.4145660400390625,-1.141952514648438,0.1524810791015625
61542,0.408111572265625,-1.061599731445312,0.183502197265625
61543,0.37274169921875,-0.996917724609375,0.21282958984375
61544,0.3512115478515625,-0.944915771484375,0.245697021484375
61545,0.3419342041015625,-0.889556884765625,0.228515625
61546,0.318206787109375,-0.812896728515625,0.3167724609375
61547,0.281829833984375,-0.740264892578125,0.401885986328125
61548,0.2372283935546875,-0.684478759765625,0.4001617431640625
61549,0.18682861328125,-0.6580047607421875,0.3274993896484375
61550,0.1420745849609375,-0.678375244140625,0.2595367431640625
61551,0.114990234375,-0.7419281005859375,0.218048095703125
61552,0.10736083984375,-0.836181640625,0.192626953125
61553,0.1216583251953125,-0.93084716796875,0.1672515869140625
61554,0.1378173828125,-1.046844482421875,0.1284637451171875
61555,0.14208984375,-1.184829711914062,0.0593414306640625
61556,0.116302490234375,-1.33056640625,-0.0433807373046875
61557,0.0322265625,-1.467056274414062,-0.17718505859375
61558,-0.079437255859375,-1.528762817382812,-0.2918243408203125
61559,-0.2008209228515625,-1.497116088867188,-0.3373260498046875
61560,-0.2677764892578125,-1.298385620117188,-0.3121490478515625
61561,-0.3081817626953125,-1.123672485351562,-0.2666168212890625
61562,-0.3385772705078125,-1.071975708007812,-0.2144927978515625
61563,-0.1956329345703125,-1.100433349609375,-0.08489990234375
61564,-0.1217498779296875,-1.06585693359375,-0.0064849853515625
61565,-0.087982177734375,-1.038238525390625,0.0440216064453125
61566,-0.0634918212890625,-0.98846435546875,0.075531005859375
61567,-0.0576019287109375,-0.9281158447265624,0.1132965087890625
61568,-0.0745697021484375,-0.8545379638671875,0.140594482421875
61569,-0.0937042236328125,-0.7677764892578125,0.1490936279296875
61570,-0.11871337890625,-0.6881103515625,0.1373748779296875
61571,-0.1430816650390625,-0.6262664794921875,0.097503662109375
61572,-0.13018798828125,-0.5837554931640625,0.055419921875
61573,-0.0850830078125,-0.5731048583984375,-0.003448486328125
61574,-0.03924560546875,-0.5855865478515625,-0.1006317138671875
61575,-0.0212554931640625,-0.6352996826171875,-0.19451904296875
61576,0.005523681640625,-0.712127685546875,-0.2563629150390625
61577,0.0470733642578125,-0.790802001953125,-0.2962188720703125
61578,0.0863037109375,-0.851104736328125,-0.3276824951171875
61579,0.0882720947265625,-0.8876800537109375,-0.3707275390625
61580,0.063140869140625,-0.9212493896484376,-0.410675048828125
61581,0.1000213623046875,-0.94635009765625,-0.406463623046875
61582,0.2024078369140625,-0.985931396484375,-0.4300689697265625
61583,0.2532958984375,-1.103973388671875,-0.5018157958984375
61584,0.26513671875,-1.203231811523438,-0.5494842529296875
61585,0.27935791015625,-1.250518798828125,-0.55706787109375
61586,0.306243896484375,-1.264404296875,-0.5389862060546875
61587,0.3132171630859375,-1.275650024414062,-0.4673309326171875
61588,0.3093109130859375,-1.287124633789062,-0.3317718505859375
61589,0.2972259521484375,-1.317596435546875,-0.195281982421875
61590,0.2819671630859375,-1.359283447265625,-0.126007080078125
61591,0.2493896484375,-1.408462524414062,-0.1262359619140625
61592,0.21124267578125,-1.45062255859375,-0.110504150390625
61593,0.1638946533203125,-1.439010620117188,-0.0388641357421875
61594,0.09271240234375,-1.338088989257812,0.0775146484375
61595,0.00897216796875,-1.171249389648438,0.2234649658203125
61596,-0.081817626953125,-1.017623901367188,0.3744659423828125
61597,-0.1860809326171875,-0.917510986328125,0.506805419921875
61598,-0.183074951171875,-0.89691162109375,0.574859619140625
61599,-0.09088134765625,-0.940704345703125,0.558258056640625
61600,0.0281219482421875,-1.00897216796875,0.4857025146484375
61601,0.108367919921875,-1.07373046875,0.40789794921875
61602,0.1300201416015625,-1.080337524414062,0.3393096923828125
61603,0.1313018798828125,-1.043594360351562,0.2682952880859375
61604,0.1167755126953125,-0.992584228515625,0.18670654296875
61605,0.087188720703125,-0.9426422119140624,0.13470458984375
61606,0.0767974853515625,-0.8736114501953125,0.1565704345703125
61607,0.0720062255859375,-0.80523681640625,0.1904144287109375
61608,0.07080078125,-0.744842529296875,0.1971282958984375
61609,0.083038330078125,-0.6834716796875,0.192352294921875
61610,0.0954437255859375,-0.6242523193359375,0.1815338134765625
61611,0.108551025390625,-0.580841064453125,0.1586151123046875
61612,0.1194305419921875,-0.565032958984375,0.1362762451171875
61613,0.126556396484375,-0.576690673828125,0.1291961669921875
61614,0.1320037841796875,-0.64105224609375,0.1224517822265625
61615,0.1400909423828125,-0.7443084716796875,0.1093597412109375
61616,0.143341064453125,-0.864898681640625,0.0707550048828125
61617,0.14300537109375,-0.999603271484375,0.004608154296875
61618,0.1348876953125,-1.138259887695312,-0.0785675048828125
61619,0.1146392822265625,-1.27899169921875,-0.18560791015625
61620,0.1091766357421875,-1.375137329101562,-0.283111572265625
61621,0.1240386962890625,-1.375961303710938,-0.3399200439453125
61622,0.1587982177734375,-1.303970336914062,-0.32025146484375
61623,0.1796875,-1.216903686523438,-0.2661895751953125
61624,0.1741943359375,-1.14892578125,-0.230133056640625
61625,0.1753387451171875,-1.095413208007812,-0.1945037841796875
61626,0.187744140625,-1.045684814453125,-0.1435546875
61627,0.206634521484375,-1.020278930664062,-0.052490234375
61628,0.224945068359375,-1.015975952148438,0.0422821044921875
61629,0.244232177734375,-1.020828247070312,0.0861358642578125
61630,0.2720794677734375,-1.00408935546875,0.06658935546875
61631,0.3028717041015625,-0.9695281982421876,0.042755126953125
61632,0.3260498046875,-0.9429779052734376,0.068878173828125
61633,0.3407745361328125,-0.912689208984375,0.1387481689453125
61634,0.34375,-0.88970947265625,0.2189178466796875
61635,0.33306884765625,-0.8891448974609375,0.2510223388671875
61636,0.3248138427734375,-0.90399169921875,0.1905975341796875
61637,0.306365966796875,-0.940338134765625,0.0789794921875
61638,0.279632568359375,-0.9771881103515624,-0.00213623046875
61639,0.2492218017578125,-1.00250244140625,-0.0719146728515625
61640,0.2152557373046875,-1.046646118164062,-0.15185546875
61641,0.1699981689453125,-1.103103637695312,-0.2363128662109375
61642,0.1165008544921875,-1.159927368164062,-0.3282318115234375
61643,0.061065673828125,-1.205780029296875,-0.43267822265625
61644,-0.001495361328125,-1.218307495117188,-0.53619384765625
61645,-0.06329345703125,-1.186477661132812,-0.61773681640625
61646,-0.11041259765625,-1.129302978515625,-0.6472320556640625
61647,-0.1398773193359375,-1.07293701171875,-0.6282958984375
61648,-0.1476593017578125,-1.008056640625,-0.5741119384765625
61649,-0.142822265625,-0.9428253173828124,-0.4852142333984375
61650,-0.138031005859375,-0.893798828125,-0.3952484130859375
61651,-0.139892578125,-0.8593292236328125,-0.3085174560546875
61652,-0.144439697265625,-0.85302734375,-0.2400360107421875
61653,-0.1424102783203125,-0.8596954345703125,-0.172088623046875
61654,-0.1265869140625,-0.87579345703125,-0.10260009765625
61655,-0.071197509765625,-0.916168212890625,-0.013519287109375
61656,0.0135040283203125,-0.9826812744140624,0.083282470703125
61657,0.068511962890625,-1.056777954101562,0.1454620361328125
61658,0.1111297607421875,-1.11114501953125,0.168426513671875
61659,0.161834716796875,-1.100616455078125,0.1673126220703125
61660,0.218902587890625,-1.038726806640625,0.1898345947265625
61661,0.2793731689453125,-0.98614501953125,0.2494354248046875
61662,0.332489013671875,-0.9882049560546876,0.32696533203125
61663,0.4045562744140625,-1.029953002929688,0.3934326171875
61664,0.4762420654296875,-1.104141235351562,0.4605560302734375
61665,0.5168609619140625,-1.198440551757812,0.47296142578125
61666,0.529998779296875,-1.279266357421875,0.4096832275390625
61667,0.5278472900390625,-1.297103881835938,0.336395263671875
61668,0.4957733154296875,-1.250030517578125,0.330474853515625
61669,0.3940582275390625,-1.137924194335938,0.3954925537109375
61670,0.2764892578125,-0.960845947265625,0.3968353271484375
61671,0.2264404296875,-0.8404693603515625,0.3448638916015625
61672,0.2053680419921875,-0.72869873046875,0.3001861572265625
61673,0.1849517822265625,-0.635467529296875,0.258941650390625
61674,0.165435791015625,-0.570831298828125,0.24005126953125
61675,0.145050048828125,-0.5389862060546875,0.2245330810546875
61676,0.1254730224609375,-0.5454864501953125,0.198394775390625
61677,0.11370849609375,-0.6015777587890625,0.1470947265625
61678,0.1109771728515625,-0.7156219482421875,0.0692291259765625
61679,0.12274169921875,-0.85296630859375,0.0123443603515625
61680,0.138214111328125,-1.003402709960938,-0.008026123046875
61681,0.143585205078125,-1.168075561523438,-0.0299835205078125
61682,0.137481689453125,-1.328109741210938,-0.073883056640625
61683,0.11614990234375,-1.445404052734375,-0.1484832763671875
61684,0.08905029296875,-1.485549926757812,-0.2417755126953125
61685,0.057708740234375,-1.439315795898438,-0.3314666748046875
61686,0.037353515625,-1.325698852539062,-0.40765380859375
61687,0.0321807861328125,-1.1998291015625,-0.4223175048828125
61688,0.042694091796875,-1.126022338867188,-0.36029052734375
61689,0.06036376953125,-1.114212036132812,-0.2826690673828125
61690,0.073699951171875,-1.126663208007812,-0.244781494140625
61691,0.083648681640625,-1.161224365234375,-0.215576171875
61692,0.0777130126953125,-1.190689086914062,-0.1595001220703125
61693,0.038177490234375,-1.194381713867188,-0.04754638671875
61694,-0.0163726806640625,-1.156494140625,0.0803375244140625
61695,-0.0791168212890625,-1.082595825195312,0.152130126953125
61696,-0.145843505859375,-0.99517822265625,0.1763916015625
61697,-0.2190093994140625,-0.8870697021484375,0.1848602294921875
61698,-0.3647003173828125,-0.73687744140625,0.1700592041015625
61699,-0.3739013671875,-0.6625518798828125,0.244964599609375
61700,-0.297515869140625,-0.58111572265625,0.2658843994140625
61701,-0.196807861328125,-0.5166778564453125,0.21429443359375
61702,-0.112457275390625,-0.5001068115234375,0.0817413330078125
61703,-0.028717041015625,-0.5198211669921875,-0.0411529541015625
61704,0.0319976806640625,-0.5518341064453125,-0.13037109375
61705,0.0674591064453125,-0.584747314453125,-0.193267822265625
61706,0.115509033203125,-0.6314849853515625,-0.24017333984375
61707,0.1575775146484375,-0.7039337158203125,-0.3146209716796875
61708,0.196563720703125,-0.7896575927734375,-0.3831634521484375
61709,0.2201995849609375,-0.8882293701171875,-0.4497222900390625
61710,0.22650146484375,-0.98016357421875,-0.4908447265625
61711,0.2685089111328125,-1.120086669921875,-0.4780426025390625
61712,0.2890167236328125,-1.307235717773438,-0.468719482421875
61713,0.29376220703125,-1.476303100585938,-0.4271392822265625
61714,0.3061676025390625,-1.559402465820312,-0.3888092041015625
61715,0.309112548828125,-1.5589599609375,-0.4000091552734375
61716,0.288330078125,-1.5028076171875,-0.4373626708984375
61717,0.251800537109375,-1.405258178710938,-0.4237213134765625
61718,0.219146728515625,-1.275482177734375,-0.348724365234375
61719,0.1659698486328125,-1.168930053710938,-0.256744384765625
61720,0.0972747802734375,-1.140838623046875,-0.17132568359375
61721,0.031707763671875,-1.171249389648438,-0.0597686767578125
61722,0.0011749267578125,-1.142471313476562,0.0807952880859375
61723,-0.000701904296875,-1.046493530273438,0.1804962158203125
61724,-0.00634765625,-0.958709716796875,0.31396484375
61725,-0.0183258056640625,-0.9017333984375,0.6448516845703125
61726,-0.0308380126953125,-0.9215087890625,0.7261810302734375
61727,0.0077056884765625,-0.9422607421875,0.70501708984375
61728,0.086639404296875,-0.974151611328125,0.775848388671875
61729,0.130645751953125,-0.991424560546875,0.553192138671875
61730,0.14080810546875,-1.020339965820312,0.316436767578125
61731,0.1343994140625,-1.042816162109375,0.2583465576171875
61732,0.1184234619140625,-0.981292724609375,0.327545166015625
61733,0.081878662109375,-0.8913116455078125,0.362701416015625
61734,0.0493927001953125,-0.8106842041015625,0.3430023193359375
61735,0.0306854248046875,-0.7465362548828125,0.31292724609375
61736,0.01953125,-0.6912841796875,0.2826385498046875
61737,0.018402099609375,-0.658935546875,0.2636566162109375
61738,0.02850341796875,-0.664398193359375,0.2741241455078125
61739,0.0439453125,-0.7091217041015625,0.2843170166015625
61740,0.052947998046875,-0.7663421630859375,0.26641845703125
61741,0.05731201171875,-0.8392181396484375,0.2311248779296875
61742,0.0536651611328125,-0.94903564453125,0.1888427734375
61743,0.04364013671875,-1.072830200195312,0.1457672119140625
61744,0.0298614501953125,-1.186767578125,0.0882110595703125
61745,0.0173187255859375,-1.270675659179688,0.0099334716796875
61746,0.0079803466796875,-1.3099365234375,-0.0874786376953125
61747,7.62939453125e-05,-1.305160522460938,-0.2129974365234375
61748,-0.0145416259765625,-1.28619384765625,-0.349090576171875
61749,-0.0233612060546875,-1.254150390625,-0.4337158203125
61750,-0.0369720458984375,-1.2001953125,-0.452484130859375
61751,-0.0640411376953125,-1.141708374023438,-0.423553466796875
61752,-0.08868408203125,-1.097854614257812,-0.3252410888671875
61753,-0.0553436279296875,-1.068099975585938,-0.1749420166015625
61754,0.004486083984375,-1.038055419921875,-0.0634613037109375
61755,0.06103515625,-1.009994506835938,-0.0095977783203125
61756,0.112640380859375,-0.9829864501953124,-0.0027008056640625
61757,0.1507568359375,-0.9400177001953124,-0.0513916015625
61758,0.198455810546875,-0.8862762451171875,-0.1076507568359375
61759,0.2404327392578125,-0.8332672119140625,-0.1401214599609375
61760,0.26678466796875,-0.811614990234375,-0.136871337890625
61761,0.257720947265625,-0.8735809326171875,-0.10028076171875
61762,0.22906494140625,-1.006698608398438,-0.0341949462890625
61763,0.15667724609375,-1.147262573242188,0.022735595703125
61764,0.054962158203125,-1.236236572265625,0.0348358154296875
61765,-0.03363037109375,-1.28033447265625,0.0021820068359375
61766,-0.096771240234375,-1.275833129882812,-0.055450439453125
61767,-0.1430206298828125,-1.226242065429688,-0.1473846435546875
61768,-0.1795196533203125,-1.139541625976562,-0.2480926513671875
61769,-0.20947265625,-1.033218383789062,-0.3231201171875
61770,-0.23187255859375,-0.9185791015625,-0.3483123779296875
61771,-0.2469635009765625,-0.813812255859375,-0.3203125
61772,-0.245269775390625,-0.7573089599609375,-0.277587890625
61773,-0.1829833984375,-0.771392822265625,-0.22772216796875
61774,-0.143218994140625,-0.78509521484375,-0.19598388671875
61775,-0.118743896484375,-0.790740966796875,-0.17108154296875
61776,-0.0848236083984375,-0.7954864501953125,-0.141510009765625
61777,-0.0503997802734375,-0.8214111328125,-0.10882568359375
61778,-0.01708984375,-0.8897857666015625,-0.084564208984375
61779,0.0041351318359375,-0.999176025390625,-0.0407867431640625
61780,0.028839111328125,-1.114227294921875,0.0481109619140625
61781,0.0213775634765625,-1.3326416015625,0.1224365234375
61782,-0.02801513671875,-1.503631591796875,0.1888885498046875
61783,0.0219573974609375,-1.198410034179688,0.226654052734375
61784,0.0932159423828125,-0.8574066162109375,0.1993408203125
61785,0.1298980712890625,-0.793853759765625,0.1404266357421875
61786,0.1383056640625,-0.9103240966796876,0.0708465576171875
61787,0.15179443359375,-1.012054443359375,0.0185394287109375
61788,0.18621826171875,-1.031478881835938,0.0279998779296875
61789,0.223724365234375,-1.018936157226562,0.0929412841796875
61790,0.2490692138671875,-1.031387329101562,0.1447601318359375
61791,0.2790069580078125,-1.056137084960938,0.1714630126953125
61792,0.3096923828125,-1.089019775390625,0.174041748046875
61793,0.3333740234375,-1.118453979492188,0.1814117431640625
61794,0.3685760498046875,-1.101150512695312,0.208160400390625
61795,0.398406982421875,-1.056137084960938,0.2238006591796875
61796,0.393829345703125,-1.017333984375,0.179962158203125
61797,0.390869140625,-0.9247283935546876,0.1410369873046875
61798,0.38720703125,-0.8385772705078125,0.158416748046875
61799,0.3824005126953125,-0.8097991943359375,0.1944732666015625
61800,0.364105224609375,-0.819549560546875,0.2220916748046875
61801,0.31976318359375,-0.8536529541015625,0.2165985107421875
61802,0.2490997314453125,-0.869140625,0.2317657470703125
61803,0.1896820068359375,-0.8550262451171875,0.278961181640625
61804,0.157806396484375,-0.8422393798828125,0.2642059326171875
61805,0.14666748046875,-0.850860595703125,0.1688690185546875
61806,0.146240234375,-0.8987884521484375,0.0280609130859375
61807,0.15142822265625,-0.9731597900390624,-0.0901947021484375
61808,0.1501617431640625,-1.062637329101562,-0.15594482421875
61809,0.1276702880859375,-1.153152465820312,-0.204833984375
61810,0.0880889892578125,-1.227569580078125,-0.264892578125
61811,0.0431671142578125,-1.288223266601562,-0.3314361572265625
61812,-0.022308349609375,-1.327529907226562,-0.4018707275390625
61813,-0.07647705078125,-1.292861938476562,-0.40264892578125
61814,-0.11419677734375,-1.18902587890625,-0.3395538330078125
61815,-0.14434814453125,-1.08447265625,-0.2145843505859375
61816,-0.144500732421875,-1.007766723632812,-0.053619384765625
61817,-0.1166534423828125,-0.9606170654296876,0.084442138671875
61818,-0.04119873046875,-0.9609222412109376,0.18463134765625
61819,0.0352783203125,-0.9919586181640624,0.21173095703125
61820,0.052154541015625,-0.9986114501953124,0.1617279052734375
61821,0.05706787109375,-0.9852294921875,0.0935821533203125
61822,0.0618133544921875,-0.96807861328125,0.0498504638671875
61823,0.080963134765625,-0.9584503173828124,0.0548248291015625
61824,0.1004791259765625,-0.9764556884765624,0.0686492919921875
61825,0.1121368408203125,-0.97882080078125,0.0560760498046875
61826,0.1293182373046875,-0.950836181640625,0.00299072265625
61827,0.143463134765625,-0.9180145263671876,-0.08648681640625
61828,0.1515960693359375,-0.8868408203125,-0.17803955078125
61829,0.1498870849609375,-0.8712310791015625,-0.248626708984375
61830,0.148468017578125,-0.8488616943359375,-0.31488037109375
61831,0.1373291015625,-0.8337860107421875,-0.3690338134765625
61832,0.132110595703125,-0.824737548828125,-0.3842620849609375
61833,0.122589111328125,-0.8178558349609375,-0.3648834228515625
61834,0.1063995361328125,-0.811370849609375,-0.35418701171875
61835,0.1152801513671875,-0.7972259521484375,-0.361297607421875
61836,0.142547607421875,-0.792388916015625,-0.391998291015625
61837,0.16143798828125,-0.8216400146484375,-0.4592437744140625
61838,0.1810150146484375,-0.8749542236328125,-0.5172271728515625
61839,0.184967041015625,-0.951507568359375,-0.5316162109375
61840,0.186553955078125,-1.026153564453125,-0.5239105224609375
61841,0.183380126953125,-1.082992553710938,-0.4780731201171875
61842,0.1806488037109375,-1.130386352539062,-0.3810577392578125
61843,0.181884765625,-1.1834716796875,-0.239471435546875
61844,0.201385498046875,-1.223953247070312,-0.08941650390625
61845,0.2331695556640625,-1.254150390625,0.0182647705078125
61846,0.248687744140625,-1.2734375,0.0659332275390625
61847,0.2340850830078125,-1.285659790039062,0.0817718505859375
61848,0.1904754638671875,-1.302291870117188,0.11334228515625
61849,0.122528076171875,-1.30316162109375,0.1989898681640625
61850,0.057647705078125,-1.236968994140625,0.3171539306640625
61851,0.02569580078125,-1.126129150390625,0.3817291259765625
61852,0.0106658935546875,-1.0482177734375,0.39776611328125
61853,0.0145111083984375,-1.017318725585938,0.403076171875
61854,0.0330352783203125,-1.073471069335938,0.4111480712890625
61855,0.0718536376953125,-1.139114379882812,0.436981201171875
61856,0.0764617919921875,-1.159042358398438,0.4552154541015625
61857,0.0452880859375,-1.072799682617188,0.4333343505859375
61858,0.019866943359375,-0.9569091796875,0.32891845703125
61859,-0.0005645751953125,-0.88714599609375,0.249114990234375
61860,-0.017425537109375,-0.8453216552734375,0.2098236083984375
61861,-0.029998779296875,-0.818756103515625,0.2091522216796875
61862,-0.040924072265625,-0.7932281494140625,0.2022705078125
61863,-0.040618896484375,-0.7685394287109375,0.184814453125
61864,-0.0291290283203125,-0.74481201171875,0.15911865234375
61865,-0.01080322265625,-0.7286834716796875,0.1426544189453125
61866,0.0120086669921875,-0.7224578857421875,0.1476898193359375
61867,0.0461883544921875,-0.727294921875,0.1444854736328125
61868,0.0869140625,-0.7519378662109375,0.119476318359375
61869,0.124359130859375,-0.8087310791015625,0.080108642578125
61870,0.1545257568359375,-0.865509033203125,0.0366363525390625
61871,0.1676483154296875,-0.9327392578125,-0.0220794677734375
61872,0.17108154296875,-1.012619018554688,-0.098297119140625
61873,0.1797943115234375,-1.080520629882812,-0.1942138671875
61874,0.19903564453125,-1.143798828125,-0.2667236328125
61875,0.1934051513671875,-1.216445922851562,-0.319732666015625
61876,0.1794586181640625,-1.241546630859375,-0.344451904296875
61877,0.1528778076171875,-1.233840942382812,-0.3383331298828125
61878,0.1158294677734375,-1.229751586914062,-0.3275909423828125
61879,0.0943450927734375,-1.218215942382812,-0.313629150390625
61880,0.117279052734375,-1.197372436523438,-0.28240966796875
61881,0.17755126953125,-1.188705444335938,-0.1611328125
61882,0.23724365234375,-1.196868896484375,0.022216796875
61883,0.2700347900390625,-1.209762573242188,0.2033233642578125
61884,0.274078369140625,-1.180557250976562,0.3033599853515625
61885,0.2412261962890625,-1.088058471679688,0.307281494140625
61886,0.2068023681640625,-0.9819793701171876,0.2623138427734375
61887,0.187744140625,-0.89324951171875,0.2199249267578125
61888,0.175506591796875,-0.8188629150390625,0.1831512451171875
61889,0.1679229736328125,-0.755828857421875,0.166961669921875
61890,0.1685028076171875,-0.740814208984375,0.1426239013671875
61891,0.19024658203125,-0.7858428955078125,0.1168212890625
61892,0.2067413330078125,-0.8855438232421875,0.0860595703125
61893,0.20684814453125,-1.00799560546875,0.02801513671875
61894,0.1928253173828125,-1.131805419921875,-0.0601043701171875
61895,0.1664276123046875,-1.223358154296875,-0.1411590576171875
61896,0.1289215087890625,-1.264190673828125,-0.2031402587890625
61897,0.083282470703125,-1.244476318359375,-0.2693634033203125
61898,0.0171356201171875,-1.170303344726562,-0.3224029541015625
61899,-0.0293426513671875,-1.071441650390625,-0.3524169921875
61900,-0.0519256591796875,-0.97906494140625,-0.3680877685546875
61901,-0.0767822265625,-0.902801513671875,-0.3759765625
61902,-0.10369873046875,-0.8739166259765625,-0.39739990234375
61903,-0.1103363037109375,-0.842193603515625,-0.4178619384765625
61904,-0.0998687744140625,-0.8046722412109375,-0.425872802734375
61905,-0.076141357421875,-0.7805328369140625,-0.4185791015625
61906,-0.0459442138671875,-0.79278564453125,-0.4096221923828125
61907,-0.0084381103515625,-0.84893798828125,-0.38800048828125
61908,0.027618408203125,-0.923583984375,-0.328826904296875
61909,0.052978515625,-1.000320434570312,-0.2210845947265625
61910,0.0638885498046875,-1.060134887695312,-0.09442138671875
61911,0.0609283447265625,-1.109970092773438,0.040557861328125
61912,0.0532379150390625,-1.16790771484375,0.1437835693359375
61913,0.0109710693359375,-1.30157470703125,0.21514892578125
61914,-0.014862060546875,-1.300521850585938,0.2681884765625
61915,0.0329437255859375,-1.12017822265625,0.26507568359375
61916,0.08294677734375,-0.9870147705078124,0.2261505126953125
61917,0.1201629638671875,-0.964935302734375,0.22412109375
61918,0.1793670654296875,-0.999053955078125,0.2950592041015625
61919,0.235748291015625,-1.050537109375,0.35498046875
61920,0.289215087890625,-1.081207275390625,0.3797760009765625
61921,0.358551025390625,-1.099868774414062,0.4140625
61922,0.43365478515625,-1.136367797851562,0.460845947265625
61923,0.4841461181640625,-1.196868896484375,0.4928741455078125
61924,0.4937744140625,-1.220840454101562,0.53558349609375
61925,0.460235595703125,-1.150527954101562,0.5492095947265625
61926,0.3844146728515625,-0.9924774169921876,0.4307861328125
61927,0.2796783447265625,-0.831451416015625,0.306365966796875
61928,0.19805908203125,-0.722686767578125,0.241241455078125
61929,0.152435302734375,-0.6532745361328125,0.202362060546875
61930,0.127349853515625,-0.612030029296875,0.189422607421875
61931,0.1153411865234375,-0.605224609375,0.1775665283203125
61932,0.1136627197265625,-0.643463134765625,0.15277099609375
61933,0.121124267578125,-0.7372589111328125,0.1018218994140625
61934,0.140625,-0.842926025390625,0.027587890625
61935,0.153472900390625,-0.9457244873046876,-0.0452728271484375
61936,0.1431121826171875,-1.044357299804688,-0.087158203125
61937,0.122406005859375,-1.1351318359375,-0.11920166015625
61938,0.1002044677734375,-1.212112426757812,-0.1510772705078125
61939,0.0762481689453125,-1.273635864257812,-0.160552978515625
61940,0.0626373291015625,-1.29742431640625,-0.1898040771484375
61941,0.06890869140625,-1.289749145507812,-0.2126007080078125
61942,0.0584259033203125,-1.270645141601562,-0.238922119140625
61943,0.04132080078125,-1.229476928710938,-0.264129638671875
61944,0.027099609375,-1.183456420898438,-0.2743988037109375
61945,0.032318115234375,-1.12347412109375,-0.2674713134765625
61946,0.053314208984375,-1.060256958007812,-0.2438201904296875
61947,0.0574798583984375,-1.041900634765625,-0.21484375
61948,0.053680419921875,-1.019683837890625,-0.1658477783203125
61949,0.0468292236328125,-0.96807861328125,-0.1242828369140625
