time_idx,accelerometerAccelerationX(G),accelerometerAccelerationY(G),accelerometerAccelerationZ(G)
200000,-0.0126953125,-0.4975128173828125,0.3992767333984375
200001,0.0254364013671875,-0.4844512939453125,0.3026580810546875
200002,0.0619049072265625,-0.5236663818359375,0.2452545166015625
200003,0.064483642578125,-0.6348724365234375,0.2167205810546875
200004,0.048004150390625,-0.78070068359375,0.24383544921875
200005,0.0592803955078125,-0.8892974853515625,0.301513671875
200006,0.076202392578125,-1.019821166992188,0.284149169921875
200007,0.0434417724609375,-1.20660400390625,0.1634368896484375
200008,-0.0120697021484375,-1.39862060546875,-0.0286102294921875
200009,-0.088958740234375,-1.592620849609375,-0.2761993408203125
200010,-0.49395751953125,-2.134048461914062,-0.227447509765625
200011,-0.29730224609375,-1.530899047851562,-0.4293365478515625
200012,-0.128814697265625,-1.040603637695312,-0.744110107421875
200013,-0.4139251708984375,-1.365219116210938,-0.7427520751953125
200014,-0.3920745849609375,-1.216171264648438,-0.6133270263671875
200015,-0.250762939453125,-1.008148193359375,-0.57586669921875
200016,-0.205352783203125,-0.98748779296875,-0.5349578857421875
200017,-0.2361602783203125,-0.9780426025390624,-0.3304595947265625
200018,-0.216064453125,-0.8489837646484375,-0.135223388671875
200019,-0.2351531982421875,-0.7310791015625,-0.046417236328125
200020,-0.2647857666015625,-0.6029052734375,-0.0123443603515625
200021,-0.2721099853515625,-0.4839324951171875,-0.0225982666015625
200022,-0.2961273193359375,-0.3780670166015625,-0.07159423828125
200023,-0.3224334716796875,-0.3134918212890625,-0.1259307861328125
200024,-0.3011322021484375,-0.375152587890625,-0.17340087890625
200025,-0.28216552734375,-0.53778076171875,-0.2149658203125
200026,-0.29071044921875,-0.6875,-0.2649993896484375
200027,-0.302215576171875,-0.81793212890625,-0.312103271484375
200028,-0.30706787109375,-0.904083251953125,-0.3284759521484375
200029,-0.27386474609375,-0.9344940185546876,-0.3722381591796875
200030,-0.1901397705078125,-0.95770263671875,-0.467803955078125
200031,-0.1067657470703125,-1.026458740234375,-0.55413818359375
200032,-0.082122802734375,-1.188491821289062,-0.548004150390625
200033,-0.1282196044921875,-1.465133666992188,-0.450714111328125
200034,-0.149444580078125,-1.67156982421875,-0.3638916015625
200035,0.033599853515625,-1.31951904296875,-0.4207000732421875
200036,0.03607177734375,-1.379959106445312,-0.321258544921875
200037,-0.0232391357421875,-1.361343383789062,-0.3157501220703125
200038,-0.0428314208984375,-1.087890625,-0.344451904296875
200039,-0.1690216064453125,-0.9863433837890624,-0.292877197265625
200040,-0.275970458984375,-0.930877685546875,-0.2375640869140625
200041,-0.3345489501953125,-0.9090118408203124,-0.167327880859375
200042,-0.3973846435546875,-0.970245361328125,-0.0942840576171875
200043,-0.446533203125,-0.998382568359375,-0.03302001953125
200044,-0.4626922607421875,-0.98248291015625,-0.009246826171875
200045,-0.5103759765625,-1.040908813476562,0.0260009765625
200046,-0.560028076171875,-1.134048461914062,0.1476898193359375
200047,-0.5586395263671875,-1.068466186523438,0.8236236572265625
200048,-0.39532470703125,-1.050048828125,1.27105712890625
200049,-0.222198486328125,-1.083114624023438,0.955718994140625
200050,-0.1544952392578125,-1.05975341796875,0.8587646484375
200051,-0.0901641845703125,-1.022781372070312,0.93194580078125
200052,-0.0229339599609375,-0.9895172119140624,0.7676849365234375
200053,0.0089569091796875,-0.939971923828125,0.48687744140625
200054,0.0093994140625,-0.87994384765625,0.3609619140625
200055,-0.0169830322265625,-0.798858642578125,0.3383941650390625
200056,-0.0697174072265625,-0.73956298828125,0.3535919189453125
200057,-0.0902099609375,-0.66217041015625,0.360198974609375
200058,-0.0731353759765625,-0.5993194580078125,0.3583984375
200059,-0.0306549072265625,-0.57196044921875,0.3604583740234375
200060,0.00848388671875,-0.6012420654296875,0.3674774169921875
200061,0.0341339111328125,-0.6958160400390625,0.3653411865234375
200062,0.0531005859375,-0.82666015625,0.3687591552734375
200063,0.0509490966796875,-0.971954345703125,0.4029998779296875
200064,0.0523223876953125,-1.101333618164062,0.4340362548828125
200065,0.0511932373046875,-1.2313232421875,0.398223876953125
200066,0.0432281494140625,-1.380401611328125,0.274505615234375
200067,-0.0137939453125,-1.57135009765625,0.11480712890625
200068,-0.126068115234375,-1.849151611328125,-0.0433197021484375
200069,-0.0239715576171875,-1.695907592773438,-0.4695892333984375
200070,0.010833740234375,-1.547958374023438,-0.6671295166015625
200071,-0.0580291748046875,-1.569839477539062,-0.5282745361328125
200072,-0.111297607421875,-1.47723388671875,-0.431427001953125
200073,-0.2035064697265625,-1.384628295898438,-0.458740234375
200074,-0.2851715087890625,-1.283660888671875,-0.5209503173828125
200075,-0.2978973388671875,-1.101943969726562,-0.4837799072265625
200076,-0.251007080078125,-0.9084625244140624,-0.3746185302734375
200077,-0.2137451171875,-0.723297119140625,-0.223358154296875
200078,-0.16717529296875,-0.5815277099609375,-0.0280609130859375
200079,-0.117095947265625,-0.481842041015625,0.1118011474609375
200080,-0.0765533447265625,-0.42218017578125,0.169464111328125
200081,-0.0377655029296875,-0.39813232421875,0.1642608642578125
200082,-0.015472412109375,-0.423583984375,0.1190032958984375
200083,-0.0251007080078125,-0.5031585693359375,0.0559539794921875
200084,-0.0498046875,-0.6257781982421875,-0.0110931396484375
200085,-0.092010498046875,-0.7690582275390625,-0.0797576904296875
200086,-0.1237945556640625,-0.8740386962890625,-0.14691162109375
200087,-0.1502227783203125,-0.9503021240234376,-0.2404022216796875
200088,-0.179962158203125,-1.021224975585938,-0.340545654296875
200089,-0.2220458984375,-1.0909423828125,-0.42987060546875
200090,-0.2688446044921875,-1.144317626953125,-0.5353546142578125
200091,-0.3241424560546875,-1.186874389648438,-0.6541900634765625
200092,-0.369476318359375,-1.188369750976562,-0.78106689453125
200093,-0.9689788818359376,-2.13677978515625,-0.775299072265625
200094,-0.8417816162109375,-1.972991943359375,-0.3703460693359375
200095,0.2580108642578125,0.11956787109375,-0.5565185546875
200096,0.029052734375,-0.2841796875,-0.9298858642578124
200097,-0.6202850341796875,-1.475906372070312,-0.8769073486328125
200098,-0.45465087890625,-1.246047973632812,-0.5175018310546875
200099,-0.061981201171875,-0.5644073486328125,-0.350860595703125
200100,-0.3206634521484375,-0.937469482421875,-0.160614013671875
200101,-0.289154052734375,-0.8789215087890625,0.0259246826171875
200102,-0.2449188232421875,-0.8311920166015625,0.1409759521484375
200103,-0.3042449951171875,-0.93011474609375,0.2265777587890625
200104,-0.379486083984375,-1.012741088867188,0.5009918212890625
200105,-0.432159423828125,-1.139556884765625,0.55633544921875
200106,-0.344146728515625,-1.30255126953125,0.305999755859375
200107,-0.2313079833984375,-1.6229248046875,0.12677001953125
200108,-0.1373443603515625,-1.891677856445312,0.213165283203125
200109,-0.105804443359375,-1.983322143554688,0.460693359375
200110,-0.1348419189453125,-1.77783203125,0.6291961669921875
200111,-0.2053985595703125,-1.325576782226562,0.8363800048828125
200112,-0.142608642578125,-1.026702880859375,0.9052581787109376
200113,-0.057159423828125,-0.8644866943359375,0.7554473876953125
200114,-0.028961181640625,-0.6923370361328125,0.5946502685546875
200115,-0.01202392578125,-0.5364532470703125,0.4956207275390625
200116,0.017059326171875,-0.4360198974609375,0.4256439208984375
200117,0.05194091796875,-0.37689208984375,0.378173828125
200118,0.0968017578125,-0.331512451171875,0.352386474609375
200119,0.1421966552734375,-0.3152618408203125,0.3348388671875
200120,0.1846160888671875,-0.3555145263671875,0.30419921875
200121,0.2171478271484375,-0.4819488525390625,0.2623291015625
200122,0.2342071533203125,-0.699462890625,0.203369140625
200123,0.2270050048828125,-0.952911376953125,0.1439208984375
200124,0.1991424560546875,-1.19354248046875,0.0908050537109375
200125,0.14154052734375,-1.409622192382812,0.0770111083984375
200126,0.1088409423828125,-1.536026000976562,0.0872650146484375
200127,0.0837554931640625,-1.603424072265625,0.0186614990234375
200128,0.044403076171875,-1.610015869140625,-0.2119598388671875
200129,-0.0414886474609375,-1.513275146484375,-0.5092620849609375
200130,-0.191650390625,-1.414627075195312,-0.717010498046875
200131,-0.341339111328125,-1.353073120117188,-0.7738800048828125
200132,-0.4088592529296875,-1.266326904296875,-0.7525177001953125
200133,-0.4160308837890625,-1.175338745117188,-0.7496185302734375
200134,-0.383758544921875,-1.093353271484375,-0.67401123046875
200135,-0.335113525390625,-1.025299072265625,-0.50762939453125
200136,-0.306182861328125,-0.950592041015625,-0.35650634765625
200137,-0.26763916015625,-0.8461761474609375,-0.22412109375
200138,-0.2085418701171875,-0.7450408935546875,-0.1170654296875
200139,-0.1663970947265625,-0.6462249755859375,-0.06640625
200140,-0.1482086181640625,-0.5325775146484375,-0.0542755126953125
200141,-0.161895751953125,-0.4232177734375,-0.07171630859375
200142,-0.2288055419921875,-0.351959228515625,-0.115325927734375
200143,-0.3664398193359375,-0.37518310546875,-0.1400909423828125
200144,-0.31292724609375,-0.6139984130859375,-0.1140899658203125
200145,-0.2378387451171875,-0.8551177978515625,-0.1527252197265625
200146,-0.257354736328125,-1.022308349609375,-0.2542266845703125
200147,-0.2879486083984375,-1.14642333984375,-0.368743896484375
200148,-0.2928466796875,-1.213623046875,-0.4850311279296875
200149,-0.231170654296875,-1.1971435546875,-0.6053009033203125
200150,-0.122650146484375,-1.117691040039062,-0.7038421630859375
200151,-0.035430908203125,-1.08111572265625,-0.6994781494140625
200152,-0.0030517578125,-1.177459716796875,-0.592926025390625
200153,-0.0113525390625,-1.329177856445312,-0.3740081787109375
200154,-0.105072021484375,-1.627838134765625,-0.0794219970703125
200155,-0.2130584716796875,-1.76519775390625,0.084564208984375
200156,-0.043792724609375,-1.110549926757812,-0.066009521484375
200157,-0.1153717041015625,-1.0611572265625,-0.0810546875
200158,-0.213714599609375,-1.129196166992188,0.02117919921875
200159,-0.20465087890625,-0.9671783447265624,0.0621490478515625
200160,-0.2549896240234375,-0.920745849609375,0.0984954833984375
200161,-0.2820587158203125,-0.8722991943359375,0.1455841064453125
200162,-0.28277587890625,-0.85369873046875,0.385589599609375
200163,-0.3010711669921875,-0.983428955078125,0.6936798095703125
200164,-0.3744049072265625,-1.154083251953125,0.7552337646484375
200165,-0.31610107421875,-1.05804443359375,0.820465087890625
200166,-0.2822723388671875,-0.9393157958984376,0.8145904541015625
200167,-0.32769775390625,-0.9912109375,0.7765960693359375
200168,-0.296478271484375,-1.010513305664062,0.7430267333984375
200169,-0.234832763671875,-0.99072265625,0.586273193359375
200170,-0.16558837890625,-0.9395904541015624,0.3817596435546875
200171,-0.11444091796875,-0.8811492919921875,0.32470703125
200172,-0.0526123046875,-0.80120849609375,0.405853271484375
200173,-0.0032806396484375,-0.716461181640625,0.48797607421875
200174,0.0537109375,-0.6145172119140625,0.5172271728515625
200175,0.0985107421875,-0.5435333251953125,0.525054931640625
200176,0.116180419921875,-0.5516357421875,0.544769287109375
200177,0.12548828125,-0.617889404296875,0.5911407470703125
200178,0.1036376953125,-0.7900543212890625,0.62713623046875
200179,0.0981903076171875,-0.93597412109375,0.607147216796875
200180,0.076202392578125,-1.010147094726562,0.4588775634765625
200181,-0.000823974609375,-1.111190795898438,0.3054656982421875
200182,-0.0384368896484375,-1.158737182617188,0.161865234375
200183,-0.0839996337890625,-1.242538452148438,0.006805419921875
200184,-0.156005859375,-1.364700317382812,-0.0914459228515625
200185,-0.2536163330078125,-1.482009887695312,-0.10614013671875
200186,-0.3163604736328125,-1.574691772460938,-0.1255950927734375
200187,-0.28717041015625,-1.63037109375,-0.1916351318359375
200188,-0.2666168212890625,-1.610260009765625,-0.3064727783203125
200189,-0.2550048828125,-1.531814575195312,-0.408660888671875
200190,-0.206085205078125,-1.352920532226562,-0.4662322998046875
200191,-0.1446685791015625,-1.193252563476562,-0.28900146484375
200192,-0.1182403564453125,-1.104110717773438,-0.078887939453125
200193,-0.1035614013671875,-1.030120849609375,-0.000457763671875
200194,-0.0984344482421875,-0.9550628662109376,-0.04443359375
200195,-0.0785980224609375,-0.8654327392578125,-0.1071014404296875
200196,-0.053741455078125,-0.794219970703125,-0.1591796875
200197,-0.0366058349609375,-0.7366485595703125,-0.164703369140625
200198,-0.016632080078125,-0.6556243896484375,-0.156829833984375
200199,-0.00811767578125,-0.588165283203125,-0.1598968505859375
200200,-0.0179595947265625,-0.58935546875,-0.188507080078125
200201,-0.0474090576171875,-0.682647705078125,-0.244720458984375
200202,-0.0785369873046875,-0.8000030517578125,-0.300750732421875
200203,-0.136016845703125,-0.90606689453125,-0.3653411865234375
200204,-0.198028564453125,-0.9860992431640624,-0.4266510009765625
200205,-0.263336181640625,-1.013198852539062,-0.470855712890625
200206,-0.314208984375,-0.97332763671875,-0.5066070556640625
200207,-0.3407135009765625,-0.91265869140625,-0.5189056396484375
200208,-0.3477935791015625,-0.8576202392578125,-0.504974365234375
200209,-0.3257293701171875,-0.8235321044921875,-0.4644775390625
200210,-0.2765960693359375,-0.825775146484375,-0.428497314453125
200211,-0.240325927734375,-0.89697265625,-0.41400146484375
200212,-0.22906494140625,-0.9492340087890624,-0.3336334228515625
200213,-0.238494873046875,-0.96002197265625,-0.2188873291015625
200214,-0.274810791015625,-0.9337158203125,-0.0492095947265625
200215,-0.34979248046875,-0.88934326171875,0.232147216796875
200216,-0.4280548095703125,-0.8983917236328125,0.436798095703125
200217,-0.569366455078125,-1.293960571289062,0.3916778564453125
200218,-0.5673065185546875,-1.532501220703125,0.459869384765625
200219,-0.1208953857421875,-0.51617431640625,0.5034027099609375
200220,-0.156280517578125,-0.3560943603515625,0.4155426025390625
200221,-0.0797119140625,-0.372589111328125,0.3779144287109375
200222,0.0200653076171875,-0.6959686279296875,0.3537445068359375
200223,0.1280517578125,-1.16156005859375,0.44244384765625
200224,0.1591644287109375,-1.80718994140625,0.76092529296875
200225,0.17596435546875,-2.489654541015625,1.541427612304688
200226,0.205657958984375,-2.6820068359375,1.473876953125
200227,0.250457763671875,-2.06500244140625,0.850250244140625
200228,0.2216796875,-1.343643188476562,0.733245849609375
200229,0.1526031494140625,-0.98388671875,0.7229156494140625
200230,0.11590576171875,-0.7430267333984375,0.6404266357421875
200231,0.09698486328125,-0.5649261474609375,0.5030517578125
200232,0.07965087890625,-0.4498291015625,0.357391357421875
200233,0.070526123046875,-0.3869476318359375,0.2452239990234375
200234,0.072601318359375,-0.369659423828125,0.177459716796875
200235,0.075103759765625,-0.3952178955078125,0.147552490234375
200236,0.074188232421875,-0.4704742431640625,0.1508026123046875
200237,0.050201416015625,-0.595947265625,0.161346435546875
200238,0.00128173828125,-0.789581298828125,0.1491546630859375
200239,-0.0285491943359375,-1.01068115234375,0.15057373046875
200240,-0.0780181884765625,-1.269775390625,0.0950469970703125
200241,-0.1190643310546875,-1.528579711914062,-0.0383453369140625
200242,-0.1487579345703125,-1.765365600585938,-0.24090576171875
200243,-0.1627349853515625,-1.895431518554688,-0.409515380859375
200244,-0.1334381103515625,-1.847137451171875,-0.455078125
200245,-0.044097900390625,-1.657470703125,-0.3933868408203125
200246,0.0419158935546875,-1.453033447265625,-0.2877960205078125
200247,0.0643310546875,-1.264358520507812,-0.18267822265625
200248,0.0019073486328125,-1.093154907226562,-0.06805419921875
200249,-0.0640869140625,-0.9717254638671876,0.0346221923828125
200250,-0.1153717041015625,-0.87615966796875,0.0903778076171875
200251,-0.1678466796875,-0.7812957763671875,0.1012725830078125
200252,-0.2085113525390625,-0.6919403076171875,0.071075439453125
200253,-0.2327728271484375,-0.5990753173828125,0.0194854736328125
200254,-0.2457275390625,-0.509796142578125,-0.0284576416015625
200255,-0.246490478515625,-0.4322052001953125,-0.081512451171875
200256,-0.2410888671875,-0.3809814453125,-0.1358184814453125
200257,-0.2161865234375,-0.3537445068359375,-0.2006378173828125
200258,-0.15618896484375,-0.3760528564453125,-0.2716217041015625
200259,-0.085418701171875,-0.4737548828125,-0.3192138671875
200260,-0.0502471923828125,-0.59991455078125,-0.361358642578125
200261,-0.0529937744140625,-0.7476348876953125,-0.42974853515625
200262,-0.076568603515625,-0.9226837158203124,-0.505889892578125
200263,-0.110687255859375,-1.101058959960938,-0.5696563720703125
200264,-0.1562347412109375,-1.25836181640625,-0.613250732421875
200265,-0.203948974609375,-1.38067626953125,-0.64471435546875
200266,-0.2058868408203125,-1.431655883789062,-0.6659698486328125
200267,-0.06500244140625,-1.398284912109375,-0.7661895751953125
200268,0.052001953125,-1.430145263671875,-0.8882904052734375
200269,-0.0123748779296875,-1.531341552734375,-0.8118133544921875
200270,-0.0816802978515625,-1.556610107421875,-0.5118865966796875
200271,-0.111328125,-1.453750610351562,-0.107208251953125
200272,-0.128509521484375,-1.286666870117188,0.277313232421875
200273,-0.098358154296875,-1.108367919921875,0.4557037353515625
200274,-0.0893402099609375,-0.9659423828125,0.564544677734375
200275,-0.231292724609375,-0.76141357421875,1.003921508789062
200276,-0.386199951171875,-0.6460418701171875,0.9671478271484376
200277,-0.482025146484375,-0.492919921875,0.9262237548828124
200278,-0.4558868408203125,-0.412841796875,0.8646240234375
200279,-0.3103485107421875,-0.7658538818359375,0.76849365234375
200280,-0.1871337890625,-1.214706420898438,0.96142578125
200281,-0.0667266845703125,-1.488189697265625,0.94659423828125
200282,-0.024017333984375,-1.698577880859375,0.439788818359375
200283,-0.1124114990234375,-1.608200073242188,0.2441864013671875
200284,-0.1615142822265625,-1.24365234375,0.5336456298828125
200285,-0.162872314453125,-0.966033935546875,0.7511749267578125
200286,-0.1120758056640625,-0.7700042724609375,0.7492523193359375
200287,-0.0326080322265625,-0.6193695068359375,0.6432952880859375
200288,0.03948974609375,-0.5041046142578125,0.5198822021484375
200289,0.0934906005859375,-0.4269866943359375,0.4178619384765625
200290,0.1396636962890625,-0.38653564453125,0.3498382568359375
200291,0.1906280517578125,-0.388946533203125,0.3257293701171875
200292,0.24078369140625,-0.4604339599609375,0.33837890625
200293,0.2710723876953125,-0.6172637939453125,0.3543853759765625
200294,0.277923583984375,-0.8433074951171875,0.3459930419921875
200295,0.2765960693359375,-1.063064575195312,0.36480712890625
200296,0.2429962158203125,-1.311599731445312,0.439178466796875
200297,0.200439453125,-1.588821411132812,0.5077972412109375
200298,0.1300811767578125,-1.911880493164062,0.493408203125
200299,0.033905029296875,-2.145172119140625,0.294921875
200300,-0.084747314453125,-2.1807861328125,-0.04412841796875
200301,-0.1795806884765625,-1.954818725585938,-0.32855224609375
200302,-0.2512054443359375,-1.670547485351562,-0.4516754150390625
200303,-0.29803466796875,-1.449111938476562,-0.4255523681640625
200304,-0.26165771484375,-1.19415283203125,-0.318511962890625
200305,-0.1806488037109375,-0.9854888916015624,-0.2094573974609375
200306,-0.0783843994140625,-0.8325347900390625,-0.1356658935546875
200307,0.0414581298828125,-0.70947265625,-0.054107666015625
200308,0.109832763671875,-0.6421356201171875,0.003662109375
200309,0.1165924072265625,-0.628326416015625,0.0315093994140625
200310,0.0963287353515625,-0.6743621826171875,0.03515625
200311,0.0426483154296875,-0.7995452880859375,-0.0089874267578125
200312,-0.0102996826171875,-0.9243927001953124,-0.10394287109375
200313,-0.0565948486328125,-1.050186157226562,-0.3133087158203125
200314,-0.1391143798828125,-1.148681640625,-0.6019744873046875
200315,-0.275115966796875,-1.163040161132812,-0.877899169921875
200316,-0.3750152587890625,-1.113525390625,-1.049362182617188
200317,-0.46209716796875,-0.9755096435546876,-1.057601928710938
200318,-0.5706787109375,-0.7969818115234375,-0.9786224365234376
200319,-0.6516265869140625,-0.636932373046875,-0.9825897216796876
200320,-0.638458251953125,-0.5649566650390625,-0.97735595703125
200321,-0.590179443359375,-0.51617431640625,-0.8354644775390625
200322,-0.5728759765625,-0.5061798095703125,-0.5715789794921875
200323,-0.5255889892578125,-0.4980621337890625,-0.2584991455078125
200324,-0.4769287109375,-0.5238037109375,-0.09857177734375
200325,-0.4289093017578125,-0.5200653076171875,-0.0089874267578125
200326,-0.372772216796875,-0.5195159912109375,0.0262908935546875
200327,-0.1315460205078125,-0.6377716064453125,-0.035980224609375
200328,-0.496673583984375,-2.042678833007812,-0.0267333984375
200329,-0.293212890625,-1.666976928710938,0.0672454833984375
200330,0.08489990234375,-0.8815765380859375,0.0167694091796875
200331,-0.076995849609375,-1.208770751953125,0.0697784423828125
200332,-0.0782928466796875,-1.20721435546875,0.17138671875
200333,0.00787353515625,-1.046340942382812,0.3772125244140625
200334,0.2885894775390625,-1.053497314453125,1.171524047851562
200335,0.3817138671875,-1.230361938476562,1.439910888671875
200336,0.45001220703125,-1.155685424804688,1.319229125976562
200337,0.48095703125,-1.496017456054688,1.776992797851562
200338,0.2271270751953125,-2.038619995117188,1.307052612304688
200339,-0.070526123046875,-1.9896240234375,0.644927978515625
200340,-0.1468353271484375,-1.405715942382812,0.6567230224609375
200341,-0.081024169921875,-0.9384765625,0.7121124267578125
200342,-0.0534515380859375,-0.697357177734375,0.6202545166015625
200343,-0.0252227783203125,-0.527679443359375,0.489013671875
200344,-0.00054931640625,-0.43096923828125,0.411651611328125
200345,0.0351104736328125,-0.3542938232421875,0.3824920654296875
200346,0.059600830078125,-0.3137969970703125,0.3675384521484375
200347,0.081512451171875,-0.3145904541015625,0.3622894287109375
200348,0.150146484375,-0.326690673828125,0.3833160400390625
200349,0.2011566162109375,-0.46978759765625,0.3690338134765625
200350,0.2042694091796875,-0.722503662109375,0.29833984375
200351,0.166778564453125,-1.046661376953125,0.2386322021484375
200352,0.11627197265625,-1.30767822265625,0.2274017333984375
200353,0.0743560791015625,-1.504837036132812,0.211822509765625
200354,0.024322509765625,-1.775466918945312,0.1071624755859375
200355,-0.0312957763671875,-2.051254272460938,-0.127593994140625
200356,-0.0894775390625,-2.185028076171875,-0.3202056884765625
200357,-0.178070068359375,-2.128768920898438,-0.4001007080078125
200358,-0.1955718994140625,-1.859237670898438,-0.39385986328125
200359,-0.07861328125,-1.516036987304688,-0.253082275390625
200360,0.0066680908203125,-1.283355712890625,-0.118499755859375
200361,0.0233154296875,-1.089111328125,-0.012451171875
200362,0.00982666015625,-0.921966552734375,0.0608367919921875
200363,-0.0145263671875,-0.7696533203125,0.0238494873046875
200364,-0.0382843017578125,-0.6067657470703125,-0.0328369140625
200365,-0.06536865234375,-0.4514007568359375,-0.0659942626953125
200366,-0.0874786376953125,-0.3217315673828125,-0.1139068603515625
200367,-0.10150146484375,-0.2270965576171875,-0.1400604248046875
200368,-0.1077728271484375,-0.1484375,-0.1540069580078125
200369,-0.10595703125,-0.096466064453125,-0.162078857421875
200370,-0.1023712158203125,-0.0701904296875,-0.1915283203125
200371,-0.1100921630859375,-0.0731353759765625,-0.2757568359375
200372,-0.1333465576171875,-0.1703338623046875,-0.4189453125
200373,-0.1526031494140625,-0.35748291015625,-0.5669708251953125
200374,-0.1863555908203125,-0.5914306640625,-0.7092742919921875
200375,-0.2747955322265625,-0.8741302490234375,-0.838134765625
200376,-0.406158447265625,-1.171905517578125,-0.942169189453125
200377,-0.4898834228515625,-1.4810791015625,-1.033004760742188
200378,-0.5378570556640625,-1.853179931640625,-1.052490234375
200379,-0.480224609375,-2.214080810546875,-1.067459106445312
200380,-0.633819580078125,-3.592056274414062,-0.9430084228515624
200381,0.1518402099609375,-1.918380737304688,-0.676849365234375
200382,0.235626220703125,-1.587570190429688,-0.3713531494140625
200383,0.051483154296875,-1.817031860351562,0.2718658447265625
200384,0.1440582275390625,-1.3603515625,0.9663848876953124
200385,0.25079345703125,-0.9246978759765624,1.334747314453125
200386,0.328125,-0.6013641357421875,1.196914672851562
200387,0.1978302001953125,-0.6546630859375,1.024398803710938
200388,0.0161895751953125,-0.79034423828125,0.9538421630859376
200389,-0.035400390625,-0.9044952392578124,0.92889404296875
200390,-0.1160888671875,-1.085952758789062,1.026718139648438
200391,-0.2070465087890625,-1.162109375,1.03094482421875
200392,-0.279998779296875,-1.106292724609375,0.8069305419921875
200393,-0.3615875244140625,-0.99920654296875,0.6346893310546875
200394,-0.2830047607421875,-0.925567626953125,0.6474151611328125
200395,-0.154754638671875,-0.8378448486328125,0.70086669921875
200396,-0.0914764404296875,-0.728973388671875,0.724945068359375
200397,-0.0453643798828125,-0.6584320068359375,0.7136077880859375
200398,0.003204345703125,-0.6181640625,0.6719512939453125
200399,0.0511016845703125,-0.6292572021484375,0.604522705078125
200400,0.07806396484375,-0.6748199462890625,0.5474395751953125
200401,0.0775604248046875,-0.769378662109375,0.484710693359375
200402,0.055908203125,-0.9149169921875,0.389373779296875
200403,0.0196990966796875,-1.06329345703125,0.305450439453125
200404,0.0079498291015625,-1.151779174804688,0.2452545166015625
200405,0.01251220703125,-1.237075805664062,0.192169189453125
200406,-0.0040283203125,-1.370803833007812,0.0864410400390625
200407,-0.0407867431640625,-1.527450561523438,-0.092376708984375
200408,-0.0531005859375,-1.662872314453125,-0.415557861328125
200409,-0.0661163330078125,-1.735244750976562,-0.8163604736328125
200410,-0.108917236328125,-1.75946044921875,-1.060073852539062
200411,-0.1419677734375,-1.636337280273438,-1.069076538085938
200412,-0.1456451416015625,-1.3546142578125,-0.839385986328125
200413,-0.12451171875,-1.177230834960938,-0.5458526611328125
200414,-0.0611419677734375,-0.987091064453125,-0.3206329345703125
200415,0.0150604248046875,-0.7430572509765625,-0.201568603515625
200416,0.0838165283203125,-0.5814361572265625,0.0283355712890625
200417,0.0914306640625,-0.498016357421875,0.281005859375
200418,0.08001708984375,-0.4524078369140625,0.4593963623046875
200419,0.07415771484375,-0.421783447265625,0.504638671875
200420,0.0655975341796875,-0.4217529296875,0.363494873046875
200421,0.0458831787109375,-0.4729156494140625,0.1282196044921875
200422,0.0240020751953125,-0.5683135986328125,-0.0701904296875
200423,-0.003082275390625,-0.694122314453125,-0.2407073974609375
200424,-0.0490264892578125,-0.8109130859375,-0.4088592529296875
200425,-0.121490478515625,-0.921356201171875,-0.581634521484375
200426,-0.2152252197265625,-1.056167602539062,-0.7449951171875
200427,-0.3368988037109375,-1.169509887695312,-0.897613525390625
200428,-0.5088348388671875,-1.237228393554688,-1.096481323242188
200429,-0.664581298828125,-1.226364135742188,-1.245925903320312
200430,-0.7684173583984375,-1.184066772460938,-1.409591674804688
200431,-1.2999267578125,-2.8125,-1.459671020507812
200432,-1.059234619140625,-2.675613403320312,-0.7608184814453125
200433,-0.04730224609375,-0.1356353759765625,-0.398651123046875
200434,-0.01446533203125,0.16998291015625,-0.2644195556640625
200435,-0.089141845703125,0.09088134765625,-0.0965423583984375
200436,-0.1174468994140625,-0.0582275390625,-0.0343780517578125
200437,-0.1075592041015625,-0.256103515625,0.0216827392578125
200438,-0.5511627197265625,-1.381668090820312,0.099151611328125
200439,-0.27215576171875,-0.8246307373046875,0.399810791015625
200440,0.0658111572265625,-0.430511474609375,1.123489379882812
200441,0.080352783203125,-1.020339965820312,1.862014770507812
200442,0.139495849609375,-1.248916625976562,1.765609741210938
200443,0.2193450927734375,-1.404312133789062,1.401458740234375
200444,0.162017822265625,-1.77215576171875,0.8069610595703125
200445,0.0140380859375,-2.267166137695312,1.23095703125
200446,0.0890655517578125,-2.345535278320312,0.831817626953125
200447,0.16082763671875,-2.061294555664062,0.3774261474609375
200448,0.13934326171875,-1.476959228515625,0.5414581298828125
200449,0.07763671875,-0.920745849609375,0.7124786376953125
200450,0.04412841796875,-0.59027099609375,0.6616668701171875
200451,0.0480499267578125,-0.40875244140625,0.5414886474609375
200452,0.0639801025390625,-0.340057373046875,0.4127197265625
200453,0.0780487060546875,-0.3462066650390625,0.3305511474609375
200454,0.0919036865234375,-0.4248046875,0.3122100830078125
200455,0.0914154052734375,-0.5872955322265625,0.338409423828125
200456,0.05877685546875,-0.80279541015625,0.38739013671875
200457,0.006439208984375,-1.019927978515625,0.4327850341796875
200458,-0.0344696044921875,-1.282699584960938,0.405120849609375
200459,-0.075042724609375,-1.632492065429688,0.21337890625
200460,-0.115814208984375,-1.9521484375,-0.09295654296875
200461,-0.1739044189453125,-2.116256713867188,-0.394195556640625
200462,-0.29248046875,-2.060394287109375,-0.542144775390625
200463,-0.4404144287109375,-1.816162109375,-0.5736083984375
200464,-0.418243408203125,-1.536376953125,-0.525543212890625
200465,-0.2883148193359375,-1.234451293945312,-0.3830108642578125
200466,-0.24591064453125,-1.048141479492188,-0.331817626953125
200467,-0.2263031005859375,-0.9236907958984376,-0.327880859375
200468,-0.229583740234375,-0.82012939453125,-0.3057861328125
200469,-0.24542236328125,-0.7017974853515625,-0.244293212890625
200470,-0.2521209716796875,-0.571746826171875,-0.1652984619140625
200471,-0.2552032470703125,-0.4475250244140625,-0.1301422119140625
200472,-0.2554931640625,-0.33013916015625,-0.1160736083984375
200473,-0.250244140625,-0.2143707275390625,-0.1271514892578125
200474,-0.23809814453125,-0.1053619384765625,-0.146942138671875
200475,-0.2223052978515625,-0.0222930908203125,-0.16497802734375
200476,-0.2019500732421875,0.0276641845703125,-0.190826416015625
200477,-0.169921875,0.0283355712890625,-0.228271484375
200478,-0.1471405029296875,-0.0476531982421875,-0.285888671875
200479,-0.181304931640625,-0.199066162109375,-0.4085845947265625
200480,-0.2363433837890625,-0.4104156494140625,-0.58538818359375
200481,-0.3052520751953125,-0.6522674560546875,-0.7686920166015625
200482,-0.338775634765625,-0.8964996337890625,-0.955108642578125
200483,-0.4004058837890625,-1.322998046875,-1.09930419921875
200484,-1.161285400390625,-3.137939453125,-1.181686401367188
200485,-1.989212036132812,-5.367218017578125,-0.782470703125
200486,0.5205535888671875,0.37969970703125,-0.857421875
200487,0.3929901123046875,0.0815582275390625,-0.930419921875
200488,0.4095306396484375,-0.467071533203125,-0.78155517578125
200489,0.241241455078125,-1.081527709960938,-0.4104461669921875
200490,-0.0688018798828125,-1.881378173828125,0.2451019287109375
200491,-0.4620361328125,-2.658706665039062,1.070968627929688
200492,-0.005523681640625,-1.4923095703125,0.920135498046875
200493,0.11309814453125,-0.9222412109375,0.33837890625
200494,-0.055328369140625,-0.8825531005859375,0.1576995849609375
200495,-0.10626220703125,-0.81842041015625,0.6815032958984375
200496,-0.0938720703125,-0.8795318603515625,1.21588134765625
200497,-0.2581329345703125,-1.0645751953125,1.510528564453125
200498,-0.4027099609375,-1.299545288085938,1.77630615234375
200499,-0.443634033203125,-1.342422485351562,1.52880859375
200500,-0.42352294921875,-1.292495727539062,1.001922607421875
200501,-0.385467529296875,-1.202896118164062,0.66522216796875
200502,-0.3173828125,-0.9116668701171876,0.5532379150390625
200503,-0.20465087890625,-0.64215087890625,0.5330963134765625
200504,-0.098541259765625,-0.509429931640625,0.4938812255859375
200505,-0.028839111328125,-0.3999176025390625,0.4237060546875
200506,0.0269012451171875,-0.332550048828125,0.379791259765625
200507,0.080657958984375,-0.3272705078125,0.371673583984375
200508,0.12261962890625,-0.406158447265625,0.421661376953125
200509,0.128631591796875,-0.6078643798828125,0.52423095703125
200510,0.1116943359375,-0.861083984375,0.6086883544921875
200511,0.074615478515625,-1.118194580078125,0.6202545166015625
200512,0.0728607177734375,-1.33197021484375,0.504241943359375
200513,0.0638580322265625,-1.589447021484375,0.230743408203125
200514,0.00604248046875,-1.856521606445312,-0.0490875244140625
200515,-0.1350860595703125,-2.072601318359375,-0.2444000244140625
200516,-0.2857513427734375,-1.985626220703125,-0.5355987548828125
200517,-0.3416595458984375,-1.724639892578125,-0.7352752685546875
200518,-0.423309326171875,-1.689712524414062,-0.7456817626953125
200519,-0.3853302001953125,-1.589218139648438,-0.666168212890625
200520,-0.2688751220703125,-1.325897216796875,-0.5263214111328125
200521,-0.221099853515625,-1.069046020507812,-0.3325347900390625
200522,-0.21966552734375,-0.824127197265625,-0.16937255859375
200523,-0.1443939208984375,-0.663238525390625,0.08343505859375
200524,-0.049835205078125,-0.60736083984375,0.315032958984375
200525,-0.004730224609375,-0.5556182861328125,0.4498138427734375
200526,0.0334625244140625,-0.53631591796875,0.4568634033203125
200527,0.0647430419921875,-0.54290771484375,0.3073883056640625
200528,0.065338134765625,-0.5941619873046875,0.11993408203125
200529,0.049224853515625,-0.6661376953125,0.0041046142578125
200530,0.0321502685546875,-0.715606689453125,-0.068267822265625
200531,-0.005035400390625,-0.77978515625,-0.1193084716796875
200532,-0.0509033203125,-0.8589630126953125,-0.196929931640625
200533,-0.0807342529296875,-0.9391937255859376,-0.3063201904296875
200534,-0.1204071044921875,-1.020416259765625,-0.4389495849609375
200535,-0.1971435546875,-1.108627319335938,-0.6222076416015625
200536,-0.296600341796875,-1.186386108398438,-0.8288726806640625
200537,-0.4059906005859375,-1.220733642578125,-1.0919189453125
200538,-0.4679412841796875,-1.261276245117188,-1.335891723632812
200539,-0.5670166015625,-1.217788696289062,-1.455032348632812
200540,-0.6282806396484375,-0.9935455322265624,-1.4736328125
200541,-0.654510498046875,-0.7114105224609375,-1.337081909179688
200542,-0.6796875,-0.6007080078125,-0.9011993408203124
200543,-0.606658935546875,-0.439849853515625,-0.3872833251953125
200544,-0.63775634765625,-0.9291229248046876,-0.2662811279296875
200545,-1.242111206054688,-3.115234375,-0.223175048828125
200546,-0.469696044921875,-1.219528198242188,0.2988739013671875
200547,0.0722503662109375,0.1414794921875,0.3029632568359375
200548,0.120758056640625,7.62939453125e-05,0.6381378173828125
200549,0.2584991455078125,-0.145751953125,1.39593505859375
200550,0.4397430419921875,-0.345428466796875,1.566482543945312
200551,0.5656585693359375,-0.62115478515625,1.475784301757812
200552,0.5466461181640625,-0.9371185302734376,1.233749389648438
200553,0.3925628662109375,-1.61419677734375,0.64715576171875
200554,-0.0118865966796875,-2.334747314453125,0.658477783203125
200555,-0.177886962890625,-2.577377319335938,0.7525177001953125
200556,-0.053436279296875,-2.374923706054688,0.559417724609375
200557,0.05926513671875,-2.015106201171875,0.5410919189453125
200558,0.0748291015625,-1.454254150390625,0.6701812744140625
200559,0.0216217041015625,-0.9722137451171876,0.6914215087890625
200560,-0.0186767578125,-0.6660614013671875,0.6294708251953125
200561,-0.020965576171875,-0.4885101318359375,0.54327392578125
200562,0.000823974609375,-0.3785247802734375,0.4608917236328125
200563,0.03106689453125,-0.3360748291015625,0.421539306640625
200564,0.047119140625,-0.3956451416015625,0.4222412109375
200565,0.024017333984375,-0.58111572265625,0.438812255859375
200566,-0.025848388671875,-0.78106689453125,0.4715728759765625
200567,-0.061859130859375,-0.9530029296875,0.482513427734375
200568,-0.129913330078125,-1.160324096679688,0.431640625
200569,-0.223236083984375,-1.420425415039062,0.277191162109375
200570,-0.30419921875,-1.67535400390625,0.0853118896484375
200571,-0.49102783203125,-1.97882080078125,-0.1287078857421875
200572,-0.766021728515625,-1.985671997070312,-0.3589935302734375
200573,-0.7570343017578125,-1.369522094726562,-0.857208251953125
200574,-0.9581451416015624,-1.4559326171875,-1.187393188476562
200575,-0.73944091796875,-1.190872192382812,-0.9544830322265624
200576,-0.4471282958984375,-0.8951873779296875,-0.5929412841796875
200577,-0.3081817626953125,-0.7649078369140625,-0.472808837890625
200578,-0.263427734375,-0.6940765380859375,-0.38525390625
200579,-0.239776611328125,-0.6053466796875,-0.261260986328125
200580,-0.19903564453125,-0.50177001953125,-0.1305084228515625
200581,-0.1720123291015625,-0.407958984375,-0.0582122802734375
200582,-0.1608123779296875,-0.3388519287109375,-0.0507354736328125
200583,-0.1631011962890625,-0.3077392578125,-0.0764617919921875
200584,-0.1738433837890625,-0.31085205078125,-0.109466552734375
200585,-0.2022552490234375,-0.3835601806640625,-0.16583251953125
200586,-0.2699127197265625,-0.51800537109375,-0.26312255859375
200587,-0.3417510986328125,-0.6504669189453125,-0.372161865234375
200588,-0.3744964599609375,-0.747344970703125,-0.5088958740234375
200589,-0.41888427734375,-0.904876708984375,-0.6664276123046875
200590,-0.501373291015625,-0.9916534423828124,-0.7891845703125
200591,-0.533782958984375,-0.941650390625,-0.885345458984375
200592,-0.472137451171875,-0.8450469970703125,-0.91387939453125
200593,-0.3472747802734375,-0.8110809326171875,-0.9149017333984376
200594,-0.5912322998046875,-1.558303833007812,-0.824249267578125
200595,-0.54888916015625,-1.784347534179688,-0.5915374755859375
200596,0.3191986083984375,-0.4734954833984375,-0.758544921875
200597,0.1405487060546875,-1.091903686523438,-0.68798828125
200598,-0.32373046875,-2.0177001953125,-0.076080322265625
200599,-0.3883514404296875,-1.949462890625,0.5373992919921875
200600,-0.315277099609375,-1.435745239257812,0.5773468017578125
200601,-0.3358306884765625,-1.248214721679688,0.3089599609375
200602,-0.2998199462890625,-1.029052734375,0.1822052001953125
200603,-0.2011871337890625,-0.820831298828125,0.49737548828125
200604,0.0494384765625,-0.667694091796875,1.354232788085938
200605,-0.040496826171875,-0.7717132568359375,1.229232788085938
200606,-0.4093475341796875,-0.9496002197265624,1.261627197265625
200607,-0.5408935546875,-0.9671173095703124,1.270294189453125
200608,-0.395721435546875,-0.9474029541015624,1.141647338867188
200609,-0.233428955078125,-0.97137451171875,0.826324462890625
200610,-0.1951446533203125,-1.100006103515625,0.30145263671875
200611,-0.2043914794921875,-1.142532348632812,0.0314178466796875
200612,-0.2459259033203125,-1.046340942382812,0.13812255859375
200613,-0.22259521484375,-0.8386993408203125,0.3218994140625
200614,-0.129119873046875,-0.6591796875,0.398895263671875
200615,-0.0567474365234375,-0.5294952392578125,0.4243011474609375
200616,-0.02685546875,-0.4645233154296875,0.461090087890625
200617,-0.022674560546875,-0.464996337890625,0.4787750244140625
200618,-0.039215087890625,-0.5370330810546875,0.4516143798828125
200619,-0.050750732421875,-0.662445068359375,0.3969879150390625
200620,-0.06414794921875,-0.84625244140625,0.3367767333984375
200621,-0.0852203369140625,-1.075393676757812,0.267852783203125
200622,-0.1107635498046875,-1.343490600585938,0.1629791259765625
200623,-0.1636505126953125,-1.625991821289062,0.006927490234375
200624,-0.2490692138671875,-1.927825927734375,-0.23040771484375
200625,-0.3234100341796875,-1.996185302734375,-0.4479827880859375
200626,-0.3936004638671875,-1.697006225585938,-0.485504150390625
200627,-0.5131988525390625,-1.477523803710938,-0.4568634033203125
200628,-0.45880126953125,-1.474822998046875,-0.3795318603515625
200629,-0.346771240234375,-1.49383544921875,-0.2421417236328125
200630,-0.31011962890625,-1.344070434570312,-0.195159912109375
200631,-0.300567626953125,-1.148284912109375,-0.1943511962890625
200632,-0.2465972900390625,-0.9904632568359376,-0.1127471923828125
200633,-0.1524200439453125,-0.88018798828125,0.032135009765625
200634,-0.0609283447265625,-0.7678985595703125,0.236358642578125
200635,0.024017333984375,-0.6654510498046875,0.40545654296875
200636,0.0865936279296875,-0.5936431884765625,0.369873046875
200637,0.114288330078125,-0.5380401611328125,0.2399139404296875
200638,0.118072509765625,-0.5118255615234375,0.087554931640625
200639,0.10601806640625,-0.493194580078125,0.00177001953125
200640,0.0987701416015625,-0.4782257080078125,-0.0260162353515625
200641,0.0950164794921875,-0.4784698486328125,-0.0345001220703125
200642,0.07763671875,-0.507904052734375,-0.035675048828125
200643,0.0528717041015625,-0.581512451171875,-0.0511016845703125
200644,0.0368499755859375,-0.6667938232421875,-0.0870513916015625
200645,-0.0041961669921875,-0.7753143310546875,-0.1564483642578125
200646,-0.07879638671875,-0.8997039794921875,-0.23675537109375
200647,-0.1625823974609375,-1.062576293945312,-0.3320159912109375
200648,-0.25445556640625,-1.232803344726562,-0.4151763916015625
200649,-0.36322021484375,-1.351715087890625,-0.5207366943359375
200650,-0.534454345703125,-1.424423217773438,-0.6508636474609375
200651,-0.7916107177734375,-1.646072387695312,-0.7696990966796875
200652,-1.895843505859375,-3.57562255859375,-0.71282958984375
200653,-0.230865478515625,-0.7016143798828125,-0.393829345703125
200654,0.1396942138671875,0.1456451416015625,-0.610504150390625
200655,-0.2339935302734375,-0.405548095703125,-0.73297119140625
200656,-0.6531982421875,-1.01861572265625,-0.53619384765625
200657,-0.4903411865234375,-0.87481689453125,-0.2472686767578125
200658,-0.1127777099609375,-0.286651611328125,-0.0530853271484375
200659,-0.234771728515625,-0.438568115234375,0.105438232421875
200660,-0.2219696044921875,-0.49029541015625,0.241607666015625
200661,-0.1031646728515625,-0.4794769287109375,0.2944793701171875
200662,-0.131195068359375,-0.6865997314453125,0.523284912109375
200663,-0.0734405517578125,-1.023040771484375,1.243759155273438
200664,0.0306549072265625,-1.222091674804688,1.277313232421875
200665,0.09942626953125,-1.346359252929688,0.9511566162109376
200666,0.1403350830078125,-1.557220458984375,0.754852294921875
200667,0.052001953125,-1.842422485351562,0.7732696533203125
200668,-0.0023193359375,-1.833221435546875,0.7718048095703125
200669,0.0047149658203125,-1.491851806640625,0.4228057861328125
200670,-0.0330352783203125,-1.011245727539062,0.32781982421875
200671,-0.0672149658203125,-0.71575927734375,0.4078216552734375
200672,-0.1014556884765625,-0.5576171875,0.436187744140625
200673,-0.15679931640625,-0.4720306396484375,0.439483642578125
200674,-0.20703125,-0.4488525390625,0.433319091796875
200675,-0.2419281005859375,-0.495025634765625,0.4321746826171875
200676,-0.239959716796875,-0.6220550537109375,0.4949798583984375
200677,-0.193328857421875,-0.8265533447265625,0.5958251953125
200678,-0.1814117431640625,-1.125885009765625,0.6788330078125
200679,-0.1885833740234375,-1.480728149414062,0.69061279296875
200680,-0.2069854736328125,-1.769332885742188,0.47137451171875
200681,-0.3496246337890625,-1.957534790039062,-0.012115478515625
200682,-0.4869537353515625,-1.80218505859375,-0.1555023193359375
200683,-0.5252532958984375,-1.53839111328125,-0.052703857421875
200684,-0.5565643310546875,-1.422210693359375,-0.1600494384765625
200685,-0.5116119384765625,-1.336883544921875,-0.421600341796875
200686,-0.4522705078125,-1.28350830078125,-0.5242767333984375
200687,-0.3814849853515625,-1.189605712890625,-0.559478759765625
200688,-0.245758056640625,-1.0189208984375,-0.5775604248046875
200689,-0.1129302978515625,-0.8381195068359375,-0.5569000244140625
200690,-0.0509490966796875,-0.744781494140625,-0.52923583984375
200691,-0.0322723388671875,-0.713714599609375,-0.4915924072265625
200692,-0.0161285400390625,-0.6582183837890625,-0.433349609375
200693,-0.02484130859375,-0.6057586669921875,-0.420989990234375
200694,-0.0307464599609375,-0.5499267578125,-0.4581146240234375
200695,-0.0055694580078125,-0.481292724609375,-0.4955596923828125
200696,0.006103515625,-0.4747161865234375,-0.51416015625
200697,-0.0499420166015625,-0.5156402587890625,-0.5158538818359375
200698,-0.1288604736328125,-0.4967803955078125,-0.5076904296875
200699,-0.301025390625,-0.4794158935546875,-0.607818603515625
200700,-0.4969635009765625,-0.4691619873046875,-0.667877197265625
200701,-0.592498779296875,-0.4455413818359375,-0.591217041015625
200702,-0.613800048828125,-0.532440185546875,-0.548248291015625
200703,-0.573486328125,-0.750335693359375,-0.4947509765625
200704,-0.5101776123046875,-1.038330078125,-0.371246337890625
200705,-0.430999755859375,-1.258529663085938,-0.2425994873046875
200706,-0.3443145751953125,-1.329498291015625,-0.1060028076171875
200707,-0.0549163818359375,-1.356246948242188,-0.053924560546875
200708,0.0103912353515625,-1.713150024414062,-0.19927978515625
200709,-0.243927001953125,-2.031158447265625,-0.277740478515625
200710,-0.22674560546875,-1.572952270507812,-0.22149658203125
200711,-0.1021270751953125,-1.00634765625,-0.2025909423828125
200712,-0.171966552734375,-0.9160003662109376,-0.2134246826171875
200713,-0.1463470458984375,-0.76348876953125,-0.326812744140625
200714,-0.05633544921875,-0.52593994140625,-0.50689697265625
200715,-0.142425537109375,-0.543243408203125,-0.52325439453125
200716,-0.1816864013671875,-0.549835205078125,-0.395660400390625
200717,-0.125152587890625,-0.4875030517578125,-0.2849884033203125
200718,-0.1177215576171875,-0.584991455078125,-0.05279541015625
200719,-0.183563232421875,-0.774139404296875,0.4173583984375
200720,-0.4868011474609375,-1.003890991210938,2.261688232421875
200721,-0.4001312255859375,-1.341842651367188,2.737457275390625
200722,-0.0181121826171875,-1.616836547851562,1.607452392578125
200723,0.216888427734375,-1.751602172851562,0.9566497802734376
200724,0.221710205078125,-1.890625,0.5567474365234375
200725,0.056671142578125,-1.764312744140625,0.559967041015625
200726,-0.0651702880859375,-1.471267700195312,0.4268798828125
200727,-0.129974365234375,-1.276611328125,0.20635986328125
200728,-0.1571197509765625,-1.0665283203125,0.121917724609375
200729,-0.1661376953125,-0.916473388671875,0.137786865234375
200730,-0.15576171875,-0.8686370849609375,0.1683807373046875
200731,-0.1717376708984375,-0.8690032958984375,0.1752777099609375
200732,-0.1836090087890625,-0.881378173828125,0.1625213623046875
200733,-0.124725341796875,-0.9100799560546876,0.147308349609375
200734,-0.0853118896484375,-1.004928588867188,0.09783935546875
200735,-0.1126556396484375,-1.145782470703125,0.0626678466796875
200736,-0.1622314453125,-1.255325317382812,0.1076507568359375
200737,-0.2023162841796875,-1.229171752929688,0.1804351806640625
200738,-0.1953125,-1.114395141601562,0.15728759765625
200739,-0.14459228515625,-0.9893341064453124,0.0511474609375
200740,-0.09197998046875,-0.873992919921875,-0.0548858642578125
200741,-0.112548828125,-0.7799224853515625,-0.1141357421875
200742,-0.12469482421875,-0.6513671875,-0.0851898193359375
200743,-0.099761962890625,-0.55902099609375,-0.09051513671875
200744,-0.109222412109375,-0.511260986328125,-0.0826873779296875
200745,-0.106658935546875,-0.4169158935546875,-0.0641021728515625
200746,-0.093963623046875,-0.315826416015625,-0.0299072265625
200747,-0.0806427001953125,-0.2274932861328125,0.0098876953125
200748,-0.0773773193359375,-0.1751251220703125,0.0319671630859375
200749,-0.072479248046875,-0.149322509765625,0.0517120361328125
200750,-0.0578460693359375,-0.1570587158203125,0.07244873046875
200751,-0.052520751953125,-0.2462005615234375,0.0604248046875
200752,-0.075439453125,-0.4116973876953125,0.0146484375
200753,-0.1390533447265625,-0.6282196044921875,-0.0192413330078125
200754,-0.19287109375,-0.8566131591796875,-0.0241241455078125
200755,-0.2259063720703125,-1.092269897460938,-0.029998779296875
200756,-0.28009033203125,-1.334701538085938,-0.00262451171875
200757,-0.39703369140625,-1.7030029296875,0.0886077880859375
200758,-0.6240081787109375,-2.411575317382812,0.1359100341796875
200759,-1.259078979492188,-3.79046630859375,0.1905059814453125
200760,-1.049697875976562,-3.311721801757812,0.2689361572265625
200761,-0.533935546875,-1.803253173828125,0.5938720703125
200762,-0.4349365234375,-1.350357055664062,0.695098876953125
200763,-0.278106689453125,-1.019485473632812,0.6669921875
200764,-0.17529296875,-0.8435821533203125,0.55230712890625
200765,-0.1056671142578125,-0.7466278076171875,0.4000701904296875
200766,-0.0423126220703125,-0.679473876953125,0.2957305908203125
200767,0.0248260498046875,-0.648651123046875,0.25933837890625
200768,0.1105194091796875,-0.673309326171875,0.28466796875
200769,0.1847686767578125,-0.8703765869140625,0.36419677734375
200770,0.2056121826171875,-1.254592895507812,0.4757843017578125
200771,0.2089691162109375,-1.654327392578125,0.59490966796875
200772,0.1741180419921875,-1.967269897460938,0.651580810546875
200773,0.042236328125,-2.002365112304688,0.4822540283203125
200774,-0.0883941650390625,-1.78387451171875,0.1968994140625
200775,-0.1361541748046875,-1.530776977539062,0.015350341796875
200776,-0.1840667724609375,-1.30926513671875,-0.09259033203125
200777,-0.255523681640625,-1.09686279296875,-0.178619384765625
200778,-0.3852691650390625,-0.9298553466796876,-0.2087249755859375
200779,-0.4839019775390625,-0.7994384765625,-0.1633148193359375
200780,-0.4254913330078125,-0.684600830078125,-0.0385894775390625
200781,-0.3433380126953125,-0.5626220703125,0.101531982421875
200782,-0.29522705078125,-0.41351318359375,0.2314453125
200783,-0.2110748291015625,-0.291656494140625,0.3388214111328125
200784,-0.10296630859375,-0.176025390625,0.3949737548828125
200785,-0.0165863037109375,-0.0800018310546875,0.34716796875
200786,0.0349273681640625,-0.02606201171875,0.22052001953125
200787,0.0584259033203125,0.01116943359375,0.1488189697265625
200788,0.0650787353515625,0.037750244140625,0.147857666015625
200789,0.0607147216796875,0.053253173828125,0.151885986328125
200790,0.0618743896484375,0.0640869140625,0.1456146240234375
200791,0.0643157958984375,0.074554443359375,0.1298370361328125
200792,0.0650482177734375,0.080047607421875,0.11456298828125
200793,0.0602569580078125,0.0787506103515625,0.11395263671875
200794,0.052947998046875,0.074066162109375,0.1202239990234375
200795,0.046905517578125,0.0702056884765625,0.1371307373046875
200796,0.0453338623046875,0.0637969970703125,0.1539154052734375
200797,0.0491790771484375,0.0584259033203125,0.171112060546875
200798,0.06695556640625,0.0450286865234375,0.1962127685546875
200799,0.090606689453125,0.0211029052734375,0.2735137939453125
200800,0.081939697265625,-0.0473175048828125,0.274810791015625
200801,0.0550689697265625,-0.09161376953125,0.17266845703125
200802,0.0610198974609375,-0.1331634521484375,0.031402587890625
200803,0.0804443359375,-0.271087646484375,-0.020660400390625
200804,0.1801300048828125,-1.2242431640625,-0.441253662109375
200805,0.2120513916015625,-3.36285400390625,-1.124862670898438
200806,-2.195877075195312,-7.008102416992188,-1.012374877929688
200807,-1.874923706054688,-6.47235107421875,-0.5022125244140625
200808,0.317657470703125,-3.166900634765625,-1.2330322265625
200809,-0.96844482421875,-3.055145263671875,-1.52105712890625
200810,-0.8011627197265625,-1.553787231445312,-1.212738037109375
200811,-0.6208648681640625,-0.847412109375,-0.5311431884765625
200812,-0.2134246826171875,-1.021621704101562,0.2073516845703125
200813,-0.082000732421875,-1.03411865234375,0.7367706298828125
200814,-0.0635223388671875,-1.089080810546875,1.247360229492188
200815,-0.0721435546875,-1.14410400390625,2.2279052734375
200816,-0.09423828125,-1.073043823242188,2.770278930664062
200817,-0.157928466796875,-1.08740234375,2.268875122070312
200818,-0.3314361572265625,-1.124847412109375,1.085037231445312
200819,-0.3842315673828125,-1.084152221679688,0.3987884521484375
200820,-0.3736114501953125,-1.083480834960938,-0.0361328125
200821,-0.3222198486328125,-0.9319610595703124,-0.0915069580078125
200822,-0.240966796875,-0.656829833984375,-0.0235748291015625
200823,-0.2064208984375,-0.424835205078125,-0.0574493408203125
200824,-0.17742919921875,-0.2406463623046875,-0.1183319091796875
200825,-0.1007080078125,-0.123687744140625,-0.139190673828125
200826,-0.019775390625,-0.043212890625,-0.1107635498046875
200827,0.0376739501953125,0.0272064208984375,-0.076080322265625
200828,0.056610107421875,0.06793212890625,-0.0270233154296875
200829,0.052093505859375,0.0696563720703125,-0.004180908203125
200830,0.04705810546875,0.070770263671875,0.0199737548828125
200831,0.0447540283203125,0.0697021484375,0.038299560546875
200832,0.042999267578125,0.06878662109375,0.04827880859375
200833,0.045806884765625,0.0769805908203125,0.0461273193359375
200834,0.05047607421875,0.0854339599609375,0.04119873046875
200835,0.0556640625,0.0796966552734375,0.04925537109375
200836,0.0663909912109375,0.07977294921875,0.045135498046875
200837,0.081024169921875,0.0873260498046875,0.0359649658203125
200838,0.104827880859375,0.1093902587890625,0.0130615234375
200839,0.1363067626953125,0.134002685546875,0.0087127685546875
200840,0.1504974365234375,0.1382598876953125,0.028594970703125
200841,0.1478118896484375,0.11346435546875,0.0312347412109375
200842,0.1614532470703125,0.1152496337890625,-0.0075531005859375
200843,0.1519622802734375,0.111419677734375,-0.0366668701171875
200844,0.1101837158203125,0.0767364501953125,-0.0378875732421875
200845,0.0552825927734375,-0.0052947998046875,-0.055206298828125
200846,0.016510009765625,-0.071624755859375,-0.1327362060546875
200847,0.010650634765625,-0.130828857421875,-0.271453857421875
200848,-0.01446533203125,-0.2504730224609375,-0.3638763427734375
200849,-0.0548553466796875,-0.3544769287109375,-0.4214019775390625
200850,-0.082916259765625,-0.4181365966796875,-0.751373291015625
200851,-0.06707763671875,-0.7763824462890625,-0.632720947265625
200852,-1.373504638671875,-4.085052490234375,0.2738037109375
200853,-4.719497680664062,-7.429977416992188,0.3635406494140625
200854,2.172882080078125,-2.238082885742188,-2.316757202148438
200855,1.351547241210938,-2.727859497070312,-2.597930908203125
200856,0.4731597900390625,-2.764862060546875,-1.785964965820312
200857,0.4344482421875,-1.851333618164062,-0.447265625
200858,0.2611236572265625,-1.319534301757812,0.087066650390625
200859,0.2862701416015625,-1.123641967773438,1.462783813476562
200860,-0.037109375,-1.183990478515625,3.913375854492188
200861,-0.214324951171875,-1.326370239257812,2.616912841796875
200862,0.0592041015625,-1.191299438476562,0.334930419921875
200863,0.1326446533203125,-1.016006469726562,0.136627197265625
200864,0.174163818359375,-0.886260986328125,0.1069183349609375
200865,0.18865966796875,-0.741546630859375,0.0329742431640625
200866,0.1573333740234375,-0.5983734130859375,-0.0536346435546875
200867,0.1026458740234375,-0.4677276611328125,-0.087615966796875
200868,0.0613861083984375,-0.27252197265625,-0.0969085693359375
200869,0.02093505859375,-0.1082611083984375,-0.10699462890625
200870,0.0003814697265625,-0.0286712646484375,-0.1251068115234375
200871,-0.0101318359375,0.0294189453125,-0.1675872802734375
200872,-0.0114593505859375,0.0640716552734375,-0.2400054931640625
200873,-0.001953125,0.08087158203125,-0.287017822265625
200874,0.0091400146484375,0.0917205810546875,-0.2658843994140625
200875,0.01031494140625,0.11083984375,-0.27288818359375
200876,0.00921630859375,0.1241302490234375,-0.2776947021484375
200877,0.0086822509765625,0.12884521484375,-0.249725341796875
200878,-0.0039215087890625,0.135711669921875,-0.2001800537109375
200879,-0.08392333984375,0.2054443359375,-0.18157958984375
200880,-0.111541748046875,0.2523651123046875,-0.191650390625
200881,-0.0135345458984375,0.1636810302734375,-0.1970977783203125
200882,-0.0260162353515625,0.147613525390625,-0.12457275390625
200883,-0.0749664306640625,0.1777191162109375,-0.0520782470703125
200884,-0.127960205078125,0.230621337890625,-0.008026123046875
200885,-0.099151611328125,0.199798583984375,0.023284912109375
200886,-0.0603179931640625,0.1543426513671875,0.05255126953125
200887,-0.032623291015625,0.113525390625,0.0786590576171875
200888,-0.0085906982421875,0.0778045654296875,0.100921630859375
200889,-0.0059814453125,0.0610198974609375,0.142791748046875
200890,-0.021270751953125,0.0047760009765625,0.2786712646484375
200891,-0.0447845458984375,-0.1155548095703125,0.698333740234375
200892,-0.065277099609375,-0.1233673095703125,0.6040496826171875
200893,-0.0223236083984375,-0.096588134765625,0.2315216064453125
200894,0.0822906494140625,-0.244659423828125,-0.27691650390625
200895,0.12384033203125,-0.3158111572265625,-0.34869384765625
200896,0.173828125,-1.361846923828125,-0.598114013671875
200897,-1.390853881835938,-6.202789306640625,0.4701995849609375
200898,-1.575759887695312,-7.35760498046875,0.2877349853515625
200899,2.389801025390625,-4.029037475585938,-1.352584838867188
200900,1.183975219726562,-3.08648681640625,-0.71514892578125
200901,1.036575317382812,-1.633590698242188,-0.1187744140625
200902,0.815460205078125,-1.2012939453125,0.7451019287109375
200903,0.50103759765625,-1.05401611328125,0.7266998291015625
200904,0.328826904296875,-0.76983642578125,1.05548095703125
200905,0.17425537109375,-0.4893646240234375,1.850997924804688
200906,0.0948028564453125,-0.4609527587890625,1.518951416015625
200907,0.097320556640625,-0.53240966796875,0.5796356201171875
200908,0.0985107421875,-0.493255615234375,0.2430267333984375
200909,0.092315673828125,-0.40655517578125,0.055267333984375
200910,0.0859832763671875,-0.2985687255859375,-0.0585479736328125
200911,0.0597686767578125,-0.1844024658203125,-0.0945587158203125
200912,0.036102294921875,-0.10552978515625,-0.10205078125
200913,0.0267791748046875,-0.03973388671875,-0.1313018798828125
200914,0.0181732177734375,0.0266571044921875,-0.1747894287109375
200915,0.018890380859375,0.0607757568359375,-0.197723388671875
200916,0.0242767333984375,0.076202392578125,-0.210601806640625
200917,0.02886962890625,0.0887603759765625,-0.2034912109375
200918,0.0330963134765625,0.105621337890625,-0.232696533203125
200919,0.0431671142578125,0.142120361328125,-0.3411102294921875
200920,0.0417327880859375,0.1722259521484375,-0.3617706298828125
200921,0.019287109375,0.1737823486328125,-0.2989501953125
200922,-0.0101165771484375,0.1572723388671875,-0.2599334716796875
200923,-0.0410308837890625,0.143310546875,-0.2205963134765625
200924,-0.069915771484375,0.1195831298828125,-0.163238525390625
200925,-0.08807373046875,0.090545654296875,-0.1279449462890625
200926,-0.08929443359375,0.0708465576171875,-0.0678558349609375
200927,-0.076629638671875,0.062652587890625,-0.0162353515625
200928,-0.0609893798828125,0.0601806640625,-0.001495361328125
200929,-0.0574188232421875,0.05035400390625,0.0332183837890625
200930,-0.075103759765625,0.0184173583984375,0.0765533447265625
200931,-0.173919677734375,-0.120758056640625,0.333953857421875
200932,-0.244110107421875,-0.2976837158203125,0.6733856201171875
200933,-0.3011474609375,-0.1905517578125,0.491180419921875
200934,-0.3551177978515625,-0.0961761474609375,0.24609375
200935,-0.304901123046875,-0.150665283203125,-0.147308349609375
200936,-0.187896728515625,-0.2686004638671875,-0.459136962890625
200937,-0.14569091796875,-0.4371490478515625,-0.4945526123046875
200938,-1.474533081054688,-4.0950927734375,-0.773681640625
200939,-3.784088134765625,-6.5333251953125,-1.604949951171875
200940,1.125,-0.2741241455078125,-1.590744018554688
200941,0.478302001953125,-0.9635467529296876,-0.941802978515625
200942,0.84869384765625,-1.512985229492188,0.6266021728515625
200943,1.101348876953125,-1.841094970703125,1.888153076171875
200944,1.282196044921875,-2.129669189453125,3.280548095703125
200945,1.231597900390625,-2.169189453125,1.973495483398438
200946,1.085128784179688,-1.886428833007812,0.4587554931640625
200947,0.944915771484375,-1.4927978515625,0.0536346435546875
200948,0.8328857421875,-1.167739868164062,-0.1915130615234375
200949,0.7438201904296875,-0.886383056640625,-0.2864990234375
200950,0.642547607421875,-0.662841796875,-0.32891845703125
200951,0.5140533447265625,-0.5610504150390625,-0.3822174072265625
200952,0.3748779296875,-0.4566497802734375,-0.3400421142578125
200953,0.2564849853515625,-0.34552001953125,-0.2270660400390625
200954,0.1721038818359375,-0.2580108642578125,-0.1360626220703125
200955,0.09942626953125,-0.1683349609375,-0.0945892333984375
200956,0.034454345703125,-0.0870361328125,-0.0750732421875
200957,-0.020416259765625,-0.0346527099609375,-0.0723876953125
200958,-0.0510101318359375,0.0085296630859375,-0.1064453125
200959,-0.0652618408203125,0.037628173828125,-0.159698486328125
200960,-0.07183837890625,0.045745849609375,-0.16497802734375
200961,-0.0749359130859375,0.0362548828125,-0.1461639404296875
200962,-0.081268310546875,0.02655029296875,-0.14324951171875
200963,-0.1036529541015625,0.0067138671875,-0.128753662109375
200964,-0.114410400390625,0.0113677978515625,-0.138946533203125
200965,-0.112823486328125,0.0305023193359375,-0.150238037109375
200966,-0.096588134765625,0.0485076904296875,-0.1527557373046875
200967,-0.0776214599609375,0.05279541015625,-0.1379547119140625
200968,-0.0595550537109375,0.051361083984375,-0.111724853515625
200969,-0.0472259521484375,0.0487213134765625,-0.0700225830078125
200970,-0.0322265625,0.0543670654296875,-0.03228759765625
200971,-0.017486572265625,0.05780029296875,0.0042877197265625
200972,0.0007781982421875,0.0574188232421875,0.0561370849609375
200973,0.0141754150390625,0.051361083984375,0.0904998779296875
200974,0.0235595703125,0.0217132568359375,0.104644775390625
200975,0.0456390380859375,-0.0372467041015625,0.1371307373046875
200976,0.080322265625,-0.118560791015625,0.1180877685546875
200977,0.1086273193359375,-0.1737060546875,-0.079010009765625
200978,0.121490478515625,-0.183807373046875,-0.1807403564453125
200979,0.1926422119140625,-0.46209716796875,0.0966339111328125
200980,0.7063751220703125,-2.424758911132812,0.871673583984375
200981,1.417068481445312,-6.593719482421875,1.339324951171875
200982,0.291839599609375,-7.675430297851562,-0.224822998046875
200983,2.145263671875,-4.44140625,-2.9603271484375
200984,1.151275634765625,-2.905487060546875,-1.813323974609375
200985,0.7584381103515625,-1.5384521484375,-0.7152557373046875
200986,0.5133819580078125,-0.82037353515625,-0.197998046875
200987,0.2755126953125,-0.608734130859375,-0.04119873046875
200988,0.131072998046875,-0.422637939453125,0.0262451171875
200989,0.0768280029296875,-0.3715667724609375,0.405303955078125
200990,-0.0011444091796875,-0.45025634765625,1.32940673828125
200991,-0.12994384765625,-0.56585693359375,2.279251098632812
200992,-0.045196533203125,-0.614471435546875,1.022613525390625
200993,0.0229949951171875,-0.59588623046875,0.1154022216796875
200994,-0.0019683837890625,-0.5486602783203125,-0.0054473876953125
200995,-0.018463134765625,-0.496063232421875,-0.112518310546875
200996,-0.02410888671875,-0.4217529296875,-0.1887969970703125
200997,-0.031829833984375,-0.334930419921875,-0.213836669921875
200998,-0.03460693359375,-0.2467803955078125,-0.2103424072265625
200999,-0.0327301025390625,-0.159454345703125,-0.17010498046875
201000,-0.033782958984375,-0.0803680419921875,-0.124786376953125
201001,-0.03521728515625,-0.0152587890625,-0.0965423583984375
201002,-0.0294952392578125,0.03076171875,-0.0837249755859375
201003,-0.0218353271484375,0.050994873046875,-0.0712432861328125
201004,-0.0142059326171875,0.056243896484375,-0.0465850830078125
201005,-0.0063018798828125,0.0577545166015625,-0.0232696533203125
201006,-0.0027923583984375,0.0591888427734375,-0.0099029541015625
201007,-0.0006561279296875,0.05853271484375,-0.0002288818359375
201008,-0.0015106201171875,0.059783935546875,0.01348876953125
201009,-0.0023956298828125,0.066131591796875,0.0202484130859375
201010,-0.0040435791015625,0.0677642822265625,0.0436553955078125
201011,-0.0092926025390625,0.067108154296875,0.057769775390625
201012,-0.023529052734375,0.052215576171875,0.0746307373046875
201013,-0.0466461181640625,0.0118865966796875,0.112091064453125
201014,-0.052520751953125,-0.066192626953125,0.150482177734375
201015,-0.0325469970703125,-0.1392822265625,0.3233795166015625
201016,-0.031982421875,-0.2261810302734375,0.50543212890625
201017,-0.00921630859375,-0.150543212890625,0.2285003662109375
201018,-0.016448974609375,-0.5269317626953125,0.0594329833984375
201019,-0.26727294921875,-3.50091552734375,-0.059112548828125
201020,-2.221755981445312,-7.76806640625,-0.1408843994140625
201021,0.5922088623046875,-3.106399536132812,-2.113601684570312
201022,0.5875701904296875,-2.439056396484375,-1.725860595703125
201023,0.451812744140625,-2.28851318359375,-0.386016845703125
201024,0.651641845703125,-1.700119018554688,0.3175506591796875
201025,0.708160400390625,-1.621368408203125,0.9517059326171876
201026,0.6624298095703125,-1.678680419921875,1.760574340820312
201027,0.48388671875,-1.640975952148438,1.496002197265625
201028,0.29345703125,-1.563400268554688,0.62725830078125
201029,0.2028656005859375,-1.54376220703125,0.2338714599609375
201030,0.1678314208984375,-1.49285888671875,-0.0923614501953125
201031,0.156951904296875,-1.409774780273438,-0.1497802734375
201032,0.165740966796875,-1.29852294921875,-0.07989501953125
201033,0.1672210693359375,-1.167831420898438,-0.0816192626953125
201034,0.116363525390625,-1.07061767578125,-0.1193084716796875
201035,0.079345703125,-0.9298553466796876,-0.1006622314453125
201036,0.1022491455078125,-0.714508056640625,-0.074310302734375
201037,0.13372802734375,-0.489227294921875,-0.0624542236328125
201038,0.1271514892578125,-0.31866455078125,-0.0164794921875
201039,0.0896759033203125,-0.18865966796875,0.0277099609375
201040,0.0482940673828125,-0.086639404296875,0.057708740234375
201041,0.0150146484375,-0.0042572021484375,0.0764312744140625
201042,-0.0086822509765625,0.0460205078125,0.0602569580078125
201043,-0.01727294921875,0.04925537109375,0.020111083984375
201044,-0.0166473388671875,0.03851318359375,0.0136566162109375
201045,-0.0216064453125,0.027984619140625,0.0270843505859375
201046,-0.0236968994140625,0.03546142578125,-0.0090179443359375
201047,-0.0187835693359375,0.0668487548828125,-0.107269287109375
201048,-0.010162353515625,0.09515380859375,-0.174652099609375
201049,-0.0011749267578125,0.1166534423828125,-0.2123565673828125
201050,0.0075531005859375,0.1329498291015625,-0.224639892578125
201051,0.01495361328125,0.14581298828125,-0.2413177490234375
201052,0.0193023681640625,0.15155029296875,-0.243621826171875
201053,0.0195465087890625,0.14263916015625,-0.2047882080078125
201054,0.015655517578125,0.12554931640625,-0.13360595703125
201055,0.0054473876953125,0.130340576171875,-0.0667724609375
201056,-0.000518798828125,0.14862060546875,-0.0194549560546875
201057,-0.0050201416015625,0.17572021484375,0.0512237548828125
201058,-0.00775146484375,0.1417236328125,0.068389892578125
201059,-0.002197265625,0.0362396240234375,-0.130096435546875
201060,0.155059814453125,-0.15008544921875,-0.6201171875
201061,0.293487548828125,-0.35205078125,-1.232101440429688
201062,0.3319091796875,-0.448089599609375,-1.341201782226562
201063,0.3227386474609375,-0.4847412109375,-0.925323486328125
201064,0.4201202392578125,-1.380645751953125,-0.489410400390625
201065,0.9045562744140624,-5.549774169921875,0.5395050048828125
201066,-0.9861297607421876,-8.128189086914062,2.491592407226562
201067,1.376052856445312,-4.78076171875,-0.455810546875
201068,0.96966552734375,-2.728408813476562,-1.23388671875
201069,0.1864776611328125,-1.486404418945312,-0.809478759765625
201070,0.2819671630859375,-0.37994384765625,-0.2444610595703125
201071,0.22454833984375,-0.167816162109375,0.3311004638671875
201072,0.1370849609375,-0.40020751953125,0.9639892578125
201073,0.1485443115234375,-0.8459014892578125,1.569305419921875
201074,0.2523651123046875,-1.184295654296875,1.755828857421875
201075,0.367340087890625,-1.278549194335938,1.145675659179688
201076,0.39923095703125,-1.341339111328125,0.5037689208984375
201077,0.3660125732421875,-1.387054443359375,0.119476318359375
201078,0.29534912109375,-1.263900756835938,-0.1278228759765625
201079,0.214874267578125,-1.034698486328125,-0.2544708251953125
201080,0.1115570068359375,-0.8709564208984375,-0.3007965087890625
201081,0.0806427001953125,-0.61981201171875,-0.244232177734375
201082,0.0808868408203125,-0.379913330078125,-0.1186981201171875
201083,0.0478515625,-0.2516632080078125,0.0303192138671875
201084,0.01446533203125,-0.1445159912109375,0.1517333984375
201085,0.0028839111328125,-0.064208984375,0.2201690673828125
201086,-0.0039520263671875,-0.0211181640625,0.2257232666015625
201087,-0.0110931396484375,-0.0008392333984375,0.187896728515625
201088,-0.014739990234375,0.01068115234375,0.1580352783203125
201089,-0.01611328125,0.0231475830078125,0.135986328125
201090,-0.0200958251953125,0.0277557373046875,0.1082611083984375
201091,-0.0212249755859375,0.029998779296875,0.086029052734375
201092,-0.0213165283203125,0.0332489013671875,0.06341552734375
201093,-0.0225372314453125,0.0339508056640625,0.03790283203125
201094,-0.0266265869140625,0.0304718017578125,0.023712158203125
201095,-0.041778564453125,0.010711669921875,0.0026397705078125
201096,-0.0550994873046875,-0.0333709716796875,-0.0261383056640625
201097,-0.05853271484375,-0.070953369140625,-0.0863189697265625
201098,-0.0659637451171875,-0.1110382080078125,-0.1545562744140625
201099,-0.0762939453125,-0.2199859619140625,-0.27313232421875
201100,-0.1114654541015625,-0.496673583984375,-0.4329833984375
201101,-0.23876953125,-0.8940277099609375,-0.5839080810546875
201102,-0.6103668212890625,-1.760299682617188,-0.683013916015625
201103,-2.357421875,-6.378021240234375,0.264801025390625
201104,-0.590789794921875,-2.235214233398438,-0.99298095703125
201105,0.352325439453125,0.247772216796875,-1.389541625976562
201106,0.143951416015625,-0.58551025390625,-1.329986572265625
201107,-0.1818695068359375,-1.712081909179688,-0.535675048828125
201108,-0.5586700439453125,-3.24505615234375,0.3541259765625
201109,-0.334991455078125,-2.56884765625,0.075469970703125
201110,-0.0509490966796875,-1.604904174804688,0.1824493408203125
201111,0.15692138671875,-1.409805297851562,0.3430938720703125
201112,0.3244476318359375,-1.54534912109375,0.5322265625
201113,0.30596923828125,-1.7572021484375,0.678314208984375
201114,0.3058319091796875,-1.878768920898438,0.7354583740234375
201115,0.34033203125,-1.900131225585938,0.67755126953125
201116,0.3873443603515625,-1.815032958984375,0.51397705078125
201117,0.4084320068359375,-1.722015380859375,0.402069091796875
201118,0.3603515625,-1.6575927734375,0.3571624755859375
201119,0.2978515625,-1.536148071289062,0.331207275390625
201120,0.1845855712890625,-1.466751098632812,0.31988525390625
201121,0.083709716796875,-1.394805908203125,0.295013427734375
201122,0.0283966064453125,-1.24957275390625,0.2569580078125
201123,-0.019744873046875,-1.082839965820312,0.2061309814453125
201124,-0.0694122314453125,-0.8909149169921875,0.1595916748046875
201125,-0.1400604248046875,-0.60858154296875,0.110443115234375
201126,-0.137847900390625,-0.4297027587890625,0.0413055419921875
201127,-0.1380462646484375,-0.3390045166015625,-0.0286407470703125
201128,-0.18585205078125,-0.2920074462890625,-0.1005096435546875
201129,-0.1712188720703125,-0.2216949462890625,-0.1459197998046875
201130,-0.119537353515625,-0.149505615234375,-0.175262451171875
201131,-0.09417724609375,-0.1184539794921875,-0.168609619140625
201132,-0.0603790283203125,-0.0780792236328125,-0.136322021484375
201133,-0.0374298095703125,-0.036773681640625,-0.1111297607421875
201134,-0.0371551513671875,-0.0222625732421875,-0.0973968505859375
201135,-0.036773681640625,-0.009246826171875,-0.0877532958984375
201136,-0.0326080322265625,0.0061798095703125,-0.0865325927734375
201137,-0.02392578125,0.0154266357421875,-0.092620849609375
201138,-0.0113372802734375,0.0200653076171875,-0.098114013671875
201139,0.009033203125,0.0101776123046875,-0.1022796630859375
201140,0.033447265625,-0.027313232421875,-0.114959716796875
201141,0.0471954345703125,-0.0888671875,-0.142059326171875
201142,0.05474853515625,-0.1785736083984375,-0.1817626953125
201143,0.05828857421875,-0.298431396484375,-0.2210540771484375
201144,0.0496978759765625,-0.4541168212890625,-0.26025390625
201145,0.0467071533203125,-0.63079833984375,-0.2970733642578125
201146,0.067657470703125,-0.8545989990234375,-0.32220458984375
201147,0.0173187255859375,-1.186874389648438,-0.2730865478515625
201148,0.0465545654296875,-1.3629150390625,-0.2548675537109375
201149,0.194366455078125,-1.808868408203125,-0.1109466552734375
201150,0.18646240234375,-2.5955810546875,-0.04388427734375
201151,0.1610870361328125,-3.104049682617188,-0.1302642822265625
201152,-0.1366729736328125,-3.648971557617188,-0.001068115234375
201153,0.0186920166015625,-2.310760498046875,-0.03582763671875
201154,-0.1047821044921875,-1.417312622070312,0.2102813720703125
201155,-0.4926300048828125,-1.161102294921875,0.470977783203125
201156,-0.77020263671875,-1.09423828125,0.71099853515625
201157,-0.6603546142578125,-1.343658447265625,0.9068450927734376
201158,-0.2274932861328125,-1.515411376953125,1.059738159179688
201159,-0.0229644775390625,-1.628829956054688,0.873809814453125
201160,0.0136260986328125,-1.733657836914062,0.4549102783203125
201161,0.0502777099609375,-1.700653076171875,0.0803985595703125
201162,0.073486328125,-1.652740478515625,-0.1681060791015625
201163,0.0558624267578125,-1.622711181640625,-0.280517578125
201164,0.0064697265625,-1.578994750976562,-0.239227294921875
201165,-0.062042236328125,-1.498153686523438,-0.138946533203125
201166,-0.12213134765625,-1.38580322265625,-0.1071014404296875
201167,-0.153106689453125,-1.250518798828125,-0.097564697265625
201168,-0.16046142578125,-1.124496459960938,-0.072418212890625
201169,-0.154815673828125,-1.034439086914062,-0.0558013916015625
201170,-0.132598876953125,-0.9351959228515624,-0.060150146484375
201171,-0.1132049560546875,-0.854644775390625,-0.07562255859375
201172,-0.097625732421875,-0.78759765625,-0.138458251953125
201173,-0.0786895751953125,-0.6903839111328125,-0.177825927734375
201174,-0.0695037841796875,-0.572174072265625,-0.159332275390625
201175,-0.0551300048828125,-0.472259521484375,-0.129241943359375
201176,-0.033355712890625,-0.3811798095703125,-0.09918212890625
201177,-0.0224761962890625,-0.32513427734375,-0.0432891845703125
201178,-0.0161590576171875,-0.2762908935546875,0.014373779296875
201179,0.0084381103515625,-0.2087860107421875,0.048095703125
201180,0.03076171875,-0.1505889892578125,0.068023681640625
201181,0.0356292724609375,-0.122833251953125,0.0793304443359375
201182,0.038482666015625,-0.108245849609375,0.08111572265625
201183,0.0414276123046875,-0.116546630859375,0.06884765625
201184,0.0380401611328125,-0.1430816650390625,0.018157958984375
201185,0.03936767578125,-0.1734771728515625,-0.049560546875
201186,0.0418701171875,-0.21905517578125,-0.1237335205078125
201187,0.0369873046875,-0.2728424072265625,-0.217681884765625
201188,0.0080718994140625,-0.32525634765625,-0.346343994140625
201189,-0.0268096923828125,-0.3939361572265625,-0.47674560546875
201190,-0.0604248046875,-0.537628173828125,-0.60247802734375
201191,0.0066070556640625,-0.657135009765625,-0.7604217529296875
201192,-0.468902587890625,-2.235107421875,-0.716552734375
201193,-1.983154296875,-5.7052001953125,-0.2552947998046875
201194,0.551605224609375,-0.3654022216796875,-1.409469604492188
201195,0.4535980224609375,-0.5812530517578125,-0.9755096435546876
201196,-0.0732421875,-1.484848022460938,-0.20562744140625
201197,-0.244873046875,-1.888137817382812,0.212860107421875
201198,0.068939208984375,-1.124557495117188,-0.028717041015625
201199,0.0531158447265625,-0.9535675048828124,-0.09478759765625
201200,0.1127166748046875,-0.857940673828125,-0.0017242431640625
201201,0.11932373046875,-0.9666290283203124,0.5491943359375
201202,0.0808563232421875,-1.012802124023438,1.152633666992188
201203,0.3032684326171875,-0.8144073486328125,1.114456176757812
201204,0.441650390625,-1.091873168945312,1.247467041015625
201205,0.5142822265625,-1.78985595703125,1.793319702148438
201206,0.5897216796875,-2.252777099609375,1.288116455078125
201207,0.415374755859375,-2.337127685546875,0.256744384765625
201208,0.1780548095703125,-1.894332885742188,0.0836334228515625
201209,0.1167449951171875,-1.40911865234375,0.3509979248046875
201210,0.0707550048828125,-1.2510986328125,0.4767913818359375
201211,0.018768310546875,-1.192337036132812,0.4239349365234375
201212,-0.025054931640625,-1.19537353515625,0.2696533203125
201213,-0.0494842529296875,-1.2467041015625,0.103515625
201214,-0.086029052734375,-1.299468994140625,-0.0185546875
201215,-0.1292877197265625,-1.362457275390625,-0.0795440673828125
201216,-0.14739990234375,-1.37542724609375,-0.055999755859375
201217,-0.1385498046875,-1.334671020507812,-0.035614013671875
201218,-0.1181640625,-1.206527709960938,-0.0259246826171875
201219,-0.14501953125,-1.0889892578125,-0.0561370849609375
201220,-0.2040252685546875,-1.02386474609375,-0.1626739501953125
201221,-0.2828216552734375,-0.978424072265625,-0.2891693115234375
201222,-0.324951171875,-0.927337646484375,-0.377227783203125
201223,-0.2670135498046875,-0.87811279296875,-0.363494873046875
201224,-0.18988037109375,-0.7995147705078125,-0.2806549072265625
201225,-0.1690521240234375,-0.6814117431640625,-0.2345123291015625
201226,-0.159332275390625,-0.56097412109375,-0.2247314453125
201227,-0.161102294921875,-0.4496612548828125,-0.2028656005859375
201228,-0.15582275390625,-0.3321075439453125,-0.173828125
201229,-0.144683837890625,-0.2176055908203125,-0.1519927978515625
201230,-0.1332550048828125,-0.1270599365234375,-0.1036224365234375
201231,-0.1145477294921875,-0.049346923828125,-0.0474090576171875
201232,-0.0906219482421875,0.009307861328125,-0.007049560546875
201233,-0.0688934326171875,0.0478057861328125,0.0081329345703125
201234,-0.0372161865234375,0.068084716796875,0.002685546875
201235,0.008880615234375,0.0627593994140625,-0.025970458984375
201236,0.05224609375,0.0260772705078125,-0.1190338134765625
201237,0.072967529296875,-0.0536956787109375,-0.3125762939453125
201238,0.079315185546875,-0.1592864990234375,-0.58905029296875
201239,0.0846405029296875,-0.28485107421875,-0.9425201416015624
201240,0.081329345703125,-0.4495391845703125,-1.427627563476562
201241,0.0464019775390625,-0.6888275146484375,-1.832015991210938
201242,0.050872802734375,-0.933074951171875,-1.989532470703125
201243,-0.7410888671875,-3.032363891601562,-1.713912963867188
201244,-1.769989013671875,-5.534225463867188,-1.033981323242188
201245,0.836181640625,0.058380126953125,-0.85418701171875
201246,0.5368499755859375,-0.7090301513671875,-0.0194854736328125
201247,0.187744140625,-1.303756713867188,0.79901123046875
201248,0.3966827392578125,-1.685699462890625,0.9652099609375
201249,0.546234130859375,-1.842742919921875,0.5496368408203125
201250,0.307861328125,-1.87255859375,0.68817138671875
201251,-0.141937255859375,-1.619857788085938,1.951126098632812
201252,-0.200836181640625,-1.01422119140625,2.25604248046875
201253,-0.1579132080078125,-0.7675018310546875,2.094268798828125
201254,-0.085693359375,-0.8921966552734375,1.69580078125
201255,0.034515380859375,-1.034896850585938,1.327850341796875
201256,0.13262939453125,-1.100234985351562,0.8808441162109375
201257,0.17156982421875,-1.068222045898438,0.5361480712890625
201258,0.201171875,-1.071365356445312,0.815521240234375
201259,0.1356964111328125,-1.150039672851562,0.50311279296875
201260,0.0692291259765625,-1.156753540039062,0.1715240478515625
201261,0.0395965576171875,-1.084335327148438,0.1279296875
201262,0.050079345703125,-1.03680419921875,0.25823974609375
201263,0.0655975341796875,-1.065658569335938,0.3071746826171875
201264,0.0606689453125,-1.153152465820312,0.2611083984375
201265,0.0498046875,-1.292251586914062,0.1711883544921875
201266,0.017303466796875,-1.435089111328125,0.101531982421875
201267,-0.1171417236328125,-1.532974243164062,-0.0038604736328125
201268,-0.3221893310546875,-1.555084228515625,-0.1401519775390625
201269,-0.40386962890625,-1.46002197265625,-0.291473388671875
201270,-0.366180419921875,-1.348770141601562,-0.4060211181640625
201271,-0.259368896484375,-1.249801635742188,-0.471649169921875
201272,-0.1395263671875,-1.099853515625,-0.5310821533203125
201273,-0.0442352294921875,-0.9557952880859376,-0.54071044921875
201274,0.0423431396484375,-0.845794677734375,-0.488250732421875
201275,0.0925445556640625,-0.74639892578125,-0.42218017578125
201276,0.122283935546875,-0.634674072265625,-0.34210205078125
201277,0.143768310546875,-0.5367431640625,-0.250030517578125
201278,0.1420745849609375,-0.4701690673828125,-0.1518402099609375
201279,0.1461334228515625,-0.3975982666015625,-0.0721282958984375
201280,0.1548919677734375,-0.3284912109375,-0.013580322265625
201281,0.1522674560546875,-0.284820556640625,0.02105712890625
201282,0.14532470703125,-0.269927978515625,0.0155181884765625
201283,0.1323089599609375,-0.3130950927734375,-0.0378570556640625
201284,0.114410400390625,-0.4091339111328125,-0.1317291259765625
201285,0.1042327880859375,-0.511566162109375,-0.2425537109375
201286,0.0915374755859375,-0.604095458984375,-0.364776611328125
201287,0.034088134765625,-0.7042694091796875,-0.53375244140625
201288,-0.04901123046875,-0.8434295654296875,-0.697998046875
201289,-0.2024688720703125,-0.9196319580078124,-0.70806884765625
201290,-0.5078887939453125,-1.295074462890625,-0.7446746826171875
201291,-2.264846801757812,-5.227249145507812,-0.413665771484375
201292,-0.63934326171875,-1.26165771484375,-0.9018707275390624
201293,0.357269287109375,1.036041259765625,-1.704849243164062
201294,0.0299072265625,0.1874847412109375,-1.524002075195312
201295,-0.8142852783203125,-1.970199584960938,-0.808563232421875
201296,-0.9100189208984376,-2.239395141601562,-0.3929595947265625
201297,0.01708984375,0.080413818359375,-0.141815185546875
201298,-0.1626739501953125,-0.0635833740234375,0.159881591796875
201299,-0.229522705078125,-0.243621826171875,0.373931884765625
201300,-0.2459564208984375,-0.3776702880859375,0.4839935302734375
201301,-0.293975830078125,-0.5787353515625,0.6803436279296875
201302,-0.108856201171875,-1.08087158203125,1.737503051757812
201303,0.2708740234375,-1.676162719726562,1.966690063476562
201304,0.42529296875,-1.995819091796875,1.251113891601562
201305,0.4592742919921875,-2.30084228515625,0.9331512451171876
201306,0.4223480224609375,-2.447601318359375,1.238388061523438
201307,0.3499603271484375,-2.2471923828125,1.007583618164062
201308,0.2856597900390625,-1.871017456054688,0.577301025390625
201309,0.2240753173828125,-1.382720947265625,0.556243896484375
201310,0.1787261962890625,-0.9658966064453124,0.600677490234375
201311,0.1600494384765625,-0.7069244384765625,0.577117919921875
201312,0.1413726806640625,-0.5488128662109375,0.5149993896484375
201313,0.13531494140625,-0.478057861328125,0.466827392578125
201314,0.137908935546875,-0.4782867431640625,0.4477691650390625
201315,0.1576995849609375,-0.5387725830078125,0.429656982421875
201316,0.1934661865234375,-0.664031982421875,0.374786376953125
201317,0.2187652587890625,-0.8196868896484375,0.3210601806640625
201318,0.2048492431640625,-0.9968109130859376,0.2714996337890625
201319,0.1572265625,-1.170700073242188,0.2421722412109375
201320,0.0941925048828125,-1.354248046875,0.198486328125
201321,0.0456085205078125,-1.528228759765625,0.110321044921875
201322,0.040008544921875,-1.579803466796875,-0.0311737060546875
201323,0.0078887939453125,-1.584426879882812,-0.182708740234375
201324,-0.0382080078125,-1.5789794921875,-0.3246002197265625
201325,-0.0900726318359375,-1.546859741210938,-0.48504638671875
201326,-0.17230224609375,-1.398910522460938,-0.5453948974609375
201327,-0.1719512939453125,-1.218505859375,-0.55462646484375
201328,-0.120269775390625,-1.054107666015625,-0.4338836669921875
201329,-0.1276702880859375,-0.9286956787109376,-0.318450927734375
201330,-0.174652099609375,-0.7989044189453125,-0.2659912109375
201331,-0.2655792236328125,-0.6479644775390625,-0.2047576904296875
201332,-0.29400634765625,-0.562347412109375,-0.0516204833984375
201333,-0.269134521484375,-0.471923828125,0.0653076171875
201334,-0.2346343994140625,-0.3401031494140625,0.0896148681640625
201335,-0.18365478515625,-0.2296600341796875,0.0485076904296875
201336,-0.106964111328125,-0.150238037109375,-0.0049591064453125
201337,-0.03521728515625,-0.1042633056640625,-0.0686492919921875
201338,0.0295562744140625,-0.1100921630859375,-0.1658172607421875
201339,0.07763671875,-0.2184600830078125,-0.3289794921875
201340,0.0948638916015625,-0.4232635498046875,-0.5792236328125
201341,0.0746002197265625,-0.6639556884765625,-0.88543701171875
201342,0.0231781005859375,-0.9234466552734376,-1.244674682617188
201343,-0.041961669921875,-1.138381958007812,-1.688796997070312
201344,-0.11346435546875,-1.325302124023438,-2.06109619140625
201345,-0.2251434326171875,-1.326171875,-1.96173095703125
201346,-0.2674713134765625,-1.36322021484375,-1.747573852539062
201347,-0.8939361572265625,-2.820114135742188,-1.002731323242188
201348,-0.198944091796875,-1.5501708984375,-0.528167724609375
201349,0.47528076171875,-0.564056396484375,-0.7202301025390625
201350,0.2213287353515625,-1.470718383789062,-0.5128021240234375
201351,-0.1152801513671875,-2.067886352539062,0.72930908203125
201352,0.1367645263671875,-1.99334716796875,1.793716430664062
201353,0.15008544921875,-1.77996826171875,1.422561645507812
201354,-0.1466064453125,-1.588470458984375,1.332626342773438
201355,-0.0894927978515625,-1.15087890625,1.29705810546875
201356,-0.0756072998046875,-0.8509521484375,1.442047119140625
201357,-0.104095458984375,-0.8841400146484375,1.301406860351562
201358,-0.06256103515625,-1.053558349609375,1.019134521484375
201359,-0.0416717529296875,-1.219650268554688,0.856903076171875
201360,-0.0767059326171875,-1.219451904296875,0.80108642578125
201361,-0.099853515625,-1.075637817382812,0.764251708984375
201362,-0.1207275390625,-0.899566650390625,0.7327117919921875
201363,-0.1324615478515625,-0.717437744140625,0.7077484130859375
201364,-0.1285400390625,-0.5542755126953125,0.669708251953125
201365,-0.114990234375,-0.4543304443359375,0.6125946044921875
201366,-0.0832977294921875,-0.4186859130859375,0.5260772705078125
201367,-0.0346832275390625,-0.4342803955078125,0.45587158203125
201368,0.019195556640625,-0.531219482421875,0.3979339599609375
201369,0.076416015625,-0.6785430908203125,0.4014892578125
201370,0.123199462890625,-0.8605499267578125,0.475921630859375
201371,0.154937744140625,-1.073516845703125,0.494140625
201372,0.1540679931640625,-1.263992309570312,0.4424896240234375
201373,0.1823883056640625,-1.352767944335938,0.3663177490234375
201374,0.190765380859375,-1.51763916015625,0.210906982421875
201375,0.1774444580078125,-1.754287719726562,-0.087982177734375
201376,0.1407928466796875,-1.95361328125,-0.4510345458984375
201377,0.0760955810546875,-2.011932373046875,-0.660980224609375
201378,-0.0025787353515625,-1.908615112304688,-0.6518096923828125
201379,-0.07293701171875,-1.6866455078125,-0.6054840087890625
201380,-0.0970611572265625,-1.428604125976562,-0.6063690185546875
201381,-0.0627899169921875,-1.252655029296875,-0.5408782958984375
201382,-0.0225830078125,-1.113540649414062,-0.4273834228515625
201383,0.02044677734375,-0.955535888671875,-0.3327484130859375
201384,0.0287322998046875,-0.81207275390625,-0.2506561279296875
201385,0.0162200927734375,-0.65228271484375,-0.1687164306640625
201386,0.05865478515625,-0.540496826171875,-0.00592041015625
201387,0.07672119140625,-0.498321533203125,0.1283111572265625
201388,0.0749664306640625,-0.45751953125,0.1774139404296875
201389,0.070465087890625,-0.437744140625,0.130523681640625
201390,0.0605621337890625,-0.4418792724609375,0.02996826171875
201391,0.0411376953125,-0.5044708251953125,-0.098602294921875
201392,0.038116455078125,-0.617218017578125,-0.2434539794921875
201393,0.0392913818359375,-0.7498931884765625,-0.4261932373046875
201394,-0.0150604248046875,-0.9293212890625,-0.7057952880859375
201395,-0.059356689453125,-1.13079833984375,-1.073196411132812
201396,-0.173828125,-1.31011962890625,-1.297866821289062
201397,-0.32745361328125,-1.28802490234375,-1.417404174804688
201398,-0.57550048828125,-1.15301513671875,-1.45391845703125
201399,-0.751708984375,-0.8321075439453125,-1.392776489257812
201400,-0.9208526611328124,-1.866744995117188,-1.456146240234375
201401,-1.179885864257812,-3.530929565429688,-0.85772705078125
201402,-0.2529449462890625,-0.7812957763671875,-0.06304931640625
201403,-0.0250396728515625,0.2143402099609375,-0.013214111328125
201404,-0.1075286865234375,0.0747222900390625,-0.01055908203125
201405,-0.0927734375,0.0667724609375,-0.0829620361328125
201406,-0.0728302001953125,0.0501708984375,0.0058135986328125
201407,-0.025665283203125,-0.0369415283203125,0.0585174560546875
201408,-0.06805419921875,-0.3007354736328125,0.2075042724609375
201409,-0.1724090576171875,-0.59063720703125,0.6645050048828125
201410,-0.05267333984375,-1.044952392578125,1.556167602539062
201411,0.1403045654296875,-1.667068481445312,1.971817016601562
201412,0.20562744140625,-2.49212646484375,1.907638549804688
201413,0.1795654296875,-3.150711059570312,1.08404541015625
201414,0.2302093505859375,-3.059432983398438,1.067459106445312
201415,0.2045135498046875,-2.336761474609375,0.823822021484375
201416,0.0431365966796875,-1.399154663085938,0.8544158935546875
201417,0.0103759765625,-0.83160400390625,0.8663787841796875
201418,0.055572509765625,-0.530181884765625,0.737152099609375
201419,0.086395263671875,-0.367767333984375,0.615875244140625
201420,0.096954345703125,-0.28851318359375,0.50006103515625
201421,0.1044158935546875,-0.252593994140625,0.3939971923828125
201422,0.11065673828125,-0.2456512451171875,0.3386993408203125
201423,0.12164306640625,-0.3019561767578125,0.3289031982421875
201424,0.1125946044921875,-0.4716644287109375,0.3280029296875
201425,0.065216064453125,-0.713592529296875,0.30975341796875
201426,0.0064849853515625,-0.942901611328125,0.288177490234375
201427,-0.0189666748046875,-1.184097290039062,0.26458740234375
201428,-0.0297698974609375,-1.408905029296875,0.2484130859375
201429,-0.0136260986328125,-1.620315551757812,0.2021636962890625
201430,-0.1945648193359375,-1.943435668945312,0.0551300048828125
201431,-0.61834716796875,-2.4669189453125,-0.085784912109375
201432,-0.013458251953125,-1.515228271484375,-0.5430450439453125
201433,0.0089569091796875,-1.5018310546875,-0.6498565673828125
201434,-0.0870819091796875,-1.491714477539062,-0.5265960693359375
201435,-0.0809173583984375,-1.248870849609375,-0.344207763671875
201436,-0.1016998291015625,-1.09320068359375,-0.26104736328125
201437,-0.1277313232421875,-0.9771728515625,-0.2221527099609375
201438,-0.1824493408203125,-0.8624267578125,-0.199127197265625
201439,-0.2429351806640625,-0.73504638671875,-0.173675537109375
201440,-0.267822265625,-0.5981903076171875,-0.1660308837890625
201441,-0.2581787109375,-0.476348876953125,-0.1695556640625
201442,-0.2348175048828125,-0.3662567138671875,-0.204925537109375
201443,-0.2023468017578125,-0.28631591796875,-0.248382568359375
201444,-0.1652984619140625,-0.25445556640625,-0.2763519287109375
201445,-0.1286773681640625,-0.265655517578125,-0.3134918212890625
201446,-0.124359130859375,-0.3754730224609375,-0.3997650146484375
201447,-0.15093994140625,-0.54833984375,-0.54278564453125
201448,-0.150238037109375,-0.7323760986328125,-0.735107421875
201449,-0.21142578125,-0.97015380859375,-1.019332885742188
201450,-0.2951507568359375,-1.15985107421875,-1.294891357421875
201451,-0.6006317138671875,-2.922332763671875,-1.629745483398438
201452,-1.112701416015625,-3.934463500976562,-1.29949951171875
201453,0.132568359375,-0.0729522705078125,-0.952789306640625
201454,0.1627349853515625,0.27099609375,-0.73193359375
201455,0.0283050537109375,0.117462158203125,-0.3386993408203125
201456,-0.0685882568359375,-0.1763458251953125,-0.2363739013671875
201457,-0.5128173828125,-1.67608642578125,0.00396728515625
201458,0.071746826171875,-0.4267730712890625,-0.197174072265625
201459,-0.0753173828125,-1.069900512695312,-0.0428314208984375
201460,-0.067626953125,-1.299789428710938,0.1104736328125
201461,0.0043487548828125,-1.215484619140625,0.1964263916015625
201462,0.0045623779296875,-1.583602905273438,0.5157470703125
201463,0.165435791015625,-1.84234619140625,1.191818237304688
201464,0.3446502685546875,-1.792160034179688,1.903396606445312
201465,0.3055419921875,-1.64801025390625,1.735595703125
201466,0.052581787109375,-1.5999755859375,1.334854125976562
201467,-0.0965423583984375,-1.452804565429688,1.108779907226562
201468,-0.1560516357421875,-1.27093505859375,0.9656829833984376
201469,-0.169464111328125,-1.0701904296875,0.7169952392578125
201470,-0.160491943359375,-0.9045867919921876,0.4843597412109375
201471,-0.1363525390625,-0.7418060302734375,0.3341522216796875
201472,-0.118743896484375,-0.5488128662109375,0.24365234375
201473,-0.1198272705078125,-0.3985748291015625,0.1836700439453125
201474,-0.0908355712890625,-0.351959228515625,0.1720123291015625
201475,0.0052642822265625,-0.3714141845703125,0.225494384765625
201476,0.09478759765625,-0.4342041015625,0.33001708984375
201477,0.1546783447265625,-0.5756378173828125,0.4557647705078125
201478,0.20245361328125,-0.79400634765625,0.5218048095703125
201479,0.2426605224609375,-1.093399047851562,0.5074920654296875
201480,0.180145263671875,-1.668869018554688,0.4780731201171875
201481,-0.2035675048828125,-2.914581298828125,0.4422607421875
201482,0.3784027099609375,-1.341079711914062,-0.3873138427734375
201483,0.3218841552734375,-1.23651123046875,-0.5052490234375
201484,0.1212615966796875,-1.64459228515625,-0.5982818603515625
201485,0.136627197265625,-1.759002685546875,-0.7487945556640625
201486,0.1871185302734375,-1.83111572265625,-0.9117584228515624
201487,0.192108154296875,-1.735641479492188,-0.9206390380859376
201488,0.080963134765625,-1.518035888671875,-0.8897857666015625
201489,-0.0112762451171875,-1.270065307617188,-0.7450103759765625
201490,-0.0180816650390625,-1.047012329101562,-0.45111083984375
201491,-0.0081787109375,-0.8383331298828125,-0.2293548583984375
201492,0.005859375,-0.6561279296875,-0.104522705078125
201493,0.0120086669921875,-0.5055999755859375,-0.072906494140625
201494,0.0101318359375,-0.3708953857421875,-0.042205810546875
201495,0.0565338134765625,-0.28936767578125,0.1236114501953125
201496,0.092041015625,-0.2680206298828125,0.256378173828125
201497,0.1002349853515625,-0.2993316650390625,0.2858734130859375
201498,0.0980377197265625,-0.364349365234375,0.222076416015625
201499,0.095703125,-0.4559783935546875,0.119354248046875
201500,0.08673095703125,-0.5988616943359375,0.001983642578125
201501,0.0757904052734375,-0.7670440673828125,-0.15869140625
201502,0.070343017578125,-0.922454833984375,-0.3477783203125
201503,0.0765380859375,-1.071060180664062,-0.6170654296875
201504,0.0749053955078125,-1.297012329101562,-0.9317474365234376
201505,-0.1222076416015625,-1.413986206054688,-1.084976196289062
201506,-0.2808380126953125,-1.186798095703125,-1.298248291015625
201507,-0.4173126220703125,-1.031463623046875,-1.476699829101562
201508,-0.4470062255859375,-0.840606689453125,-1.501785278320312
201509,-0.7454833984375,-2.097076416015625,-1.3187255859375
201510,-1.065765380859375,-3.338027954101562,-0.7048187255859375
201511,-0.1911468505859375,-0.6124420166015625,-0.2816314697265625
201512,0.092620849609375,0.2463531494140625,-0.2394561767578125
201513,0.004730224609375,0.0873565673828125,-0.072021484375
201514,0.042938232421875,0.02862548828125,-0.038818359375
201515,0.0195465087890625,-0.1369171142578125,0.0115509033203125
201516,-0.0189056396484375,-0.4860992431640625,0.1575164794921875
201517,-0.1112823486328125,-1.153701782226562,1.094558715820312
201518,0.065277099609375,-1.184814453125,1.674026489257812
201519,0.0248565673828125,-1.477066040039062,1.624420166015625
201520,0.119964599609375,-1.608688354492188,1.804519653320312
201521,0.347686767578125,-1.429672241210938,1.530166625976562
201522,0.3162841796875,-1.31878662109375,1.224365234375
201523,0.304962158203125,-1.232513427734375,0.743255615234375
201524,0.31060791015625,-1.323211669921875,0.32122802734375
201525,0.2148284912109375,-1.471542358398438,-0.040863037109375
201526,0.14453125,-1.367950439453125,-0.10406494140625
201527,0.15447998046875,-1.0322265625,0.1150054931640625
201528,0.15374755859375,-0.791412353515625,0.255523681640625
201529,0.173553466796875,-0.6876678466796875,0.3098602294921875
201530,0.2057952880859375,-0.6667938232421875,0.3536529541015625
201531,0.24822998046875,-0.71234130859375,0.3680419921875
201532,0.286224365234375,-0.801544189453125,0.35546875
201533,0.3128814697265625,-0.9348907470703124,0.326263427734375
201534,0.3271942138671875,-1.128860473632812,0.2947540283203125
201535,0.335357666015625,-1.34417724609375,0.2716217041015625
201536,0.3552093505859375,-1.532974243164062,0.2540435791015625
201537,0.3679656982421875,-1.682098388671875,0.22027587890625
201538,0.338470458984375,-1.749298095703125,0.149322509765625
201539,0.2905731201171875,-1.75653076171875,0.0003662109375
201540,0.264923095703125,-1.681869506835938,-0.196685791015625
201541,0.224517822265625,-1.51226806640625,-0.358978271484375
201542,0.171630859375,-1.286361694335938,-0.4017181396484375
201543,0.1085205078125,-1.088821411132812,-0.39422607421875
201544,0.015411376953125,-0.96624755859375,-0.38372802734375
201545,-0.156829833984375,-0.854949951171875,-0.43194580078125
201546,-0.219970703125,-0.833099365234375,-0.494476318359375
201547,-0.2474365234375,-0.787261962890625,-0.4794464111328125
201548,-0.2578277587890625,-0.682861328125,-0.4094390869140625
201549,-0.26092529296875,-0.5515289306640625,-0.3212890625
201550,-0.30755615234375,-0.390869140625,-0.23883056640625
201551,-0.415771484375,-0.2162628173828125,-0.2157745361328125
201552,-0.470672607421875,-0.12860107421875,-0.20782470703125
201553,-0.4480133056640625,-0.13568115234375,-0.1444854736328125
201554,-0.395477294921875,-0.2190704345703125,-0.099212646484375
201555,-0.31878662109375,-0.36865234375,-0.1055755615234375
201556,-0.2485198974609375,-0.5041961669921875,-0.158966064453125
201557,-0.19708251953125,-0.6368865966796875,-0.250946044921875
201558,-0.1062774658203125,-0.76959228515625,-0.3834686279296875
201559,-0.0416259765625,-0.9463043212890624,-0.57781982421875
201560,-0.0638275146484375,-1.338973999023438,-0.753692626953125
201561,-0.4937286376953125,-3.476242065429688,-0.9597320556640624
201562,-0.1985321044921875,-2.000869750976562,-1.274887084960938
201563,0.44097900390625,-0.04095458984375,-1.329879760742188
201564,0.4190521240234375,-0.45965576171875,-1.174423217773438
201565,0.3007965087890625,-0.940277099609375,-0.7638397216796875
201566,0.006439208984375,-1.795394897460938,-0.1819305419921875
201567,-0.084930419921875,-1.487335205078125,0.0508880615234375
201568,-0.1296234130859375,-1.02630615234375,0.249847412109375
201569,-0.207244873046875,-1.227890014648438,0.5375823974609375
201570,-0.2631072998046875,-1.4521484375,0.6567840576171875
201571,-0.185516357421875,-1.293472290039062,0.406524658203125
201572,-0.2391815185546875,-0.948974609375,0.8054962158203125
201573,-0.372222900390625,-0.7069549560546875,1.40863037109375
201574,-0.226776123046875,-0.8360748291015625,1.415557861328125
201575,-0.073333740234375,-1.062347412109375,1.64227294921875
201576,0.0432586669921875,-1.230361938476562,1.601852416992188
201577,0.0363616943359375,-1.2774658203125,1.025421142578125
201578,0.0180511474609375,-1.263961791992188,0.5497894287109375
201579,-0.0263214111328125,-1.204391479492188,0.3292999267578125
201580,-0.1075439453125,-1.064483642578125,0.3135223388671875
201581,-0.1703643798828125,-0.8298187255859375,0.3764801025390625
201582,-0.146728515625,-0.6581573486328125,0.410736083984375
201583,-0.05419921875,-0.551544189453125,0.450286865234375
201584,0.011444091796875,-0.427459716796875,0.5274505615234375
201585,0.08935546875,-0.36572265625,0.6521759033203125
201586,0.1554718017578125,-0.39886474609375,0.700469970703125
201587,0.162750244140625,-0.5202789306640625,0.5950927734375
201588,0.147308349609375,-0.6781158447265625,0.4098358154296875
201589,0.16326904296875,-0.8761138916015625,0.287689208984375
201590,0.1013641357421875,-1.4095458984375,0.16912841796875
201591,-0.4694671630859375,-3.254791259765625,0.1032562255859375
201592,0.3444671630859375,-1.492919921875,-0.827880859375
201593,0.5033416748046875,-1.285308837890625,-0.9399566650390624
201594,0.3328399658203125,-1.751815795898438,-0.8039093017578125
201595,0.3449859619140625,-1.90496826171875,-0.5996551513671875
201596,0.3786163330078125,-2.004302978515625,-0.3642730712890625
201597,0.2628021240234375,-1.844451904296875,-0.313995361328125
201598,0.0823211669921875,-1.452041625976562,-0.410888671875
201599,0.0185394287109375,-1.163177490234375,-0.3577423095703125
201600,0.043212890625,-0.9705352783203124,-0.27886962890625
201601,0.035247802734375,-0.7523956298828125,-0.327178955078125
201602,0.0215606689453125,-0.5313720703125,-0.296478271484375
201603,0.0389404296875,-0.43548583984375,0.030059814453125
201604,0.05926513671875,-0.426605224609375,0.2705078125
201605,0.0678253173828125,-0.44970703125,0.355865478515625
201606,0.08099365234375,-0.4977874755859375,0.27044677734375
201607,0.0819244384765625,-0.5824432373046875,0.07867431640625
201608,0.089569091796875,-0.6866912841796875,-0.1334381103515625
201609,0.1016845703125,-0.783416748046875,-0.33740234375
201610,0.0984039306640625,-0.9007415771484376,-0.527374267578125
201611,0.082000732421875,-0.992645263671875,-0.6984100341796875
201612,0.0428314208984375,-1.064285278320312,-0.87060546875
201613,-0.0003204345703125,-1.121917724609375,-1.018096923828125
201614,-0.0965118408203125,-1.125320434570312,-1.125473022460938
201615,-0.2054595947265625,-1.023483276367188,-1.183837890625
201616,-0.2693023681640625,-0.8568115234375,-1.16864013671875
201617,-0.30865478515625,-0.74658203125,-1.0997314453125
201618,-0.5709381103515625,-1.977767944335938,-1.007583618164062
201619,-0.744476318359375,-2.785202026367188,-0.6420135498046875
201620,0.04681396484375,-0.12261962890625,-0.2123565673828125
201621,0.059478759765625,0.1586151123046875,-0.1101531982421875
201622,0.0482635498046875,0.0487060546875,-0.0074920654296875
201623,0.04425048828125,-0.091949462890625,0.0408477783203125
201624,0.019622802734375,-0.2692108154296875,0.1667327880859375
201625,-0.0455169677734375,-0.489105224609375,0.2945098876953125
201626,-0.0806427001953125,-0.6081085205078125,0.496337890625
201627,-0.1013336181640625,-0.8894500732421875,1.212081909179688
201628,0.0241241455078125,-1.280059814453125,1.513748168945312
201629,0.1100006103515625,-1.893890380859375,1.753189086914062
201630,0.1528167724609375,-2.386016845703125,1.4840087890625
201631,0.216461181640625,-2.272171020507812,1.396240234375
201632,0.3228759765625,-1.802749633789062,0.9997100830078124
201633,0.349273681640625,-1.316802978515625,0.4977569580078125
201634,0.3158721923828125,-0.9527130126953124,0.42108154296875
201635,0.2906951904296875,-0.6922760009765625,0.4753265380859375
201636,0.2645721435546875,-0.5265960693359375,0.5239105224609375
201637,0.230621337890625,-0.43377685546875,0.5173187255859375
201638,0.200653076171875,-0.4113006591796875,0.46337890625
201639,0.1754913330078125,-0.4881134033203125,0.39349365234375
201640,0.1571502685546875,-0.6370849609375,0.3271331787109375
201641,0.1494903564453125,-0.810791015625,0.2796630859375
201642,0.1522216796875,-1.015243530273438,0.25274658203125
201643,0.1615447998046875,-1.284713745117188,0.24078369140625
201644,0.1630859375,-1.600051879882812,0.189483642578125
201645,0.1412353515625,-1.907058715820312,0.077362060546875
201646,-0.168243408203125,-2.546249389648438,0.069671630859375
201647,0.02886962890625,-2.055099487304688,-0.156890869140625
201648,0.3010101318359375,-1.533706665039062,-0.4237060546875
201649,0.18658447265625,-1.702468872070312,-0.5217437744140625
201650,0.1890106201171875,-1.487152099609375,-0.4580078125
201651,0.1608123779296875,-1.219772338867188,-0.355499267578125
201652,0.1028900146484375,-1.076736450195312,-0.3599395751953125
201653,0.03192138671875,-0.96820068359375,-0.39935302734375
201654,-0.032257080078125,-0.845123291015625,-0.3957672119140625
201655,-0.089447021484375,-0.7217254638671875,-0.355499267578125
201656,-0.1464996337890625,-0.6255950927734375,-0.315399169921875
201657,-0.196868896484375,-0.5402374267578125,-0.28680419921875
201658,-0.2476043701171875,-0.43682861328125,-0.2459716796875
201659,-0.3395538330078125,-0.2765350341796875,-0.221832275390625
201660,-0.4948883056640625,-0.093780517578125,-0.24725341796875
201661,-0.5973052978515625,0.006805419921875,-0.230712890625
201662,-0.62579345703125,0.0095672607421875,-0.1374969482421875
201663,-0.583587646484375,-0.145660400390625,-0.0882110595703125
201664,-0.4749298095703125,-0.4342193603515625,-0.12237548828125
201665,-0.3778076171875,-0.6703948974609375,-0.2050933837890625
201666,-0.341766357421875,-0.8319244384765625,-0.3520660400390625
201667,-0.291107177734375,-0.9911651611328124,-0.499725341796875
201668,-0.16192626953125,-1.173171997070312,-0.631744384765625
201669,-0.2736358642578125,-2.220123291015625,-0.521881103515625
201670,-0.12567138671875,-2.715087890625,-0.9814605712890624
201671,0.10467529296875,-1.60107421875,-1.412750244140625
201672,0.2633056640625,-0.638885498046875,-1.226608276367188
201673,0.459075927734375,-0.8250274658203125,-0.9095916748046876
201674,0.33819580078125,-1.598648071289062,-0.2989654541015625
201675,0.132293701171875,-1.87860107421875,0.181304931640625
201676,0.0958099365234375,-1.474899291992188,0.4599761962890625
201677,0.0863189697265625,-1.287155151367188,0.6351318359375
201678,0.119537353515625,-1.1336669921875,0.38720703125
201679,0.105255126953125,-0.9542388916015624,0.142547607421875
201680,-0.0921783447265625,-0.6315460205078125,0.42266845703125
201681,-0.1794891357421875,-0.4451751708984375,0.7749481201171875
201682,-0.1186065673828125,-0.5569000244140625,1.281814575195312
201683,-0.0664215087890625,-0.860198974609375,1.760879516601562
201684,0.05035400390625,-1.11376953125,1.635452270507812
201685,0.07489013671875,-1.32855224609375,0.8803558349609375
201686,-0.0336761474609375,-1.443374633789062,0.33050537109375
201687,-0.0973358154296875,-1.24407958984375,0.296905517578125
201688,-0.132965087890625,-0.929351806640625,0.45782470703125
201689,-0.112548828125,-0.7238616943359375,0.4936065673828125
201690,-0.03717041015625,-0.59014892578125,0.4888458251953125
201691,0.0254669189453125,-0.5137176513671875,0.474456787109375
201692,0.078887939453125,-0.5008392333984375,0.4834136962890625
201693,0.11334228515625,-0.567474365234375,0.5155029296875
201694,0.1180877685546875,-0.72705078125,0.5576324462890625
201695,0.102508544921875,-0.9471435546875,0.5499420166015625
201696,0.0943603515625,-1.092498779296875,0.446533203125
201697,0.145294189453125,-1.172073364257812,0.2691650390625
201698,0.2126617431640625,-1.299758911132812,0.1022491455078125
201699,0.2614898681640625,-1.520782470703125,-0.02838134765625
201700,0.247467041015625,-1.877655029296875,-0.1296844482421875
201701,0.211944580078125,-2.095199584960938,-0.432342529296875
201702,0.180267333984375,-1.951004028320312,-0.7662506103515625
201703,0.0865325927734375,-1.804000854492188,-0.5972442626953125
201704,-0.0559539794921875,-1.687240600585938,-0.3527069091796875
201705,-0.0380859375,-1.569244384765625,-0.1679229736328125
201706,-0.0332794189453125,-1.313278198242188,-0.1082763671875
201707,-0.015228271484375,-1.034591674804688,-0.13287353515625
201708,0.0136566162109375,-0.835296630859375,-0.12982177734375
201709,0.083648681640625,-0.691619873046875,0.0067596435546875
201710,0.1350250244140625,-0.5850982666015625,0.105377197265625
201711,0.163665771484375,-0.5069427490234375,0.1289215087890625
201712,0.1864166259765625,-0.46234130859375,0.0935821533203125
201713,0.177825927734375,-0.4670562744140625,0.0453033447265625
201714,0.1636199951171875,-0.4931793212890625,-0.007598876953125
201715,0.14581298828125,-0.521820068359375,-0.0549774169921875
201716,0.124267578125,-0.54400634765625,-0.107452392578125
201717,0.1063690185546875,-0.5747528076171875,-0.189453125
201718,0.083953857421875,-0.634796142578125,-0.3223876953125
201719,0.0216522216796875,-0.7264862060546875,-0.5238494873046875
201720,-0.03973388671875,-0.873382568359375,-0.7848968505859375
201721,-0.0534515380859375,-1.082656860351562,-1.068328857421875
201722,-0.1500701904296875,-1.304794311523438,-1.26922607421875
201723,-0.354217529296875,-1.384902954101562,-1.225631713867188
201724,-0.55133056640625,-1.282623291015625,-1.145965576171875
201725,-0.7654876708984375,-1.7369384765625,-1.38140869140625
201726,-1.175338745117188,-3.7254638671875,-1.234954833984375
201727,-0.3019256591796875,-1.197921752929688,-0.41900634765625
201728,0.046539306640625,0.2359161376953125,-0.2818756103515625
201729,-0.125244140625,0.08929443359375,-0.2551422119140625
201730,-0.08758544921875,0.0852508544921875,-0.4280242919921875
201731,-0.056060791015625,0.0106964111328125,-0.2949676513671875
201732,-0.03253173828125,-0.0815582275390625,-0.117156982421875
201733,-0.06689453125,-0.4142913818359375,-0.00927734375
201734,-0.2815704345703125,-1.205612182617188,0.201629638671875
201735,-0.21502685546875,-0.9735565185546876,0.418975830078125
201736,-0.0556488037109375,-0.9015045166015624,0.742919921875
201737,0.2133636474609375,-1.351516723632812,1.958145141601562
201738,0.465240478515625,-1.609207153320312,1.878952026367188
201739,0.3891754150390625,-2.013031005859375,1.643112182617188
201740,0.304901123046875,-2.417007446289062,1.913803100585938
201741,0.288238525390625,-2.31182861328125,0.9918212890625
201742,0.159149169921875,-1.946685791015625,0.517669677734375
201743,0.0880279541015625,-1.396865844726562,0.5466766357421875
201744,0.113616943359375,-0.9823455810546876,0.54473876953125
201745,0.1390380859375,-0.7159423828125,0.496337890625
201746,0.1444091796875,-0.534027099609375,0.432373046875
201747,0.1474761962890625,-0.4110870361328125,0.39947509765625
201748,0.1551666259765625,-0.340087890625,0.3929443359375
201749,0.1526336669921875,-0.3290252685546875,0.3855438232421875
201750,0.1369476318359375,-0.4150238037109375,0.3751983642578125
201751,0.0719451904296875,-0.5997161865234375,0.3556365966796875
201752,0.0169525146484375,-0.743133544921875,0.320953369140625
201753,0.0053558349609375,-0.945098876953125,0.2481842041015625
201754,-0.0252838134765625,-1.2503662109375,0.1301422119140625
201755,-0.712982177734375,-2.853012084960938,0.2379150390625
201756,-0.454437255859375,-2.184402465820312,-0.250396728515625
201757,0.28424072265625,-0.595489501953125,-0.4522705078125
201758,0.0758056640625,-1.3367919921875,-0.6108551025390625
201759,0.089263916015625,-1.58599853515625,-0.7151641845703125
201760,0.1257781982421875,-1.631866455078125,-0.6155548095703125
201761,0.10247802734375,-1.56158447265625,-0.446014404296875
201762,0.06463623046875,-1.303665161132812,-0.3162841796875
201763,0.020721435546875,-1.059356689453125,-0.2408447265625
201764,0.002197265625,-0.8693389892578125,-0.2060546875
201765,-0.030364990234375,-0.721588134765625,-0.1703033447265625
201766,-0.0811614990234375,-0.5982666015625,-0.123046875
201767,-0.1455841064453125,-0.474609375,-0.097320556640625
201768,-0.264739990234375,-0.318328857421875,-0.1195068359375
201769,-0.3878631591796875,-0.19598388671875,-0.1256866455078125
201770,-0.3792724609375,-0.2084503173828125,-0.0735931396484375
201771,-0.3634490966796875,-0.2414703369140625,-0.0723724365234375
201772,-0.399658203125,-0.25799560546875,-0.08642578125
201773,-0.4286041259765625,-0.31414794921875,-0.116058349609375
201774,-0.4205780029296875,-0.43695068359375,-0.2228240966796875
201775,-0.3699798583984375,-0.602142333984375,-0.341796875
201776,-0.319183349609375,-0.776580810546875,-0.4266815185546875
201777,-0.2737884521484375,-0.9317474365234376,-0.4782562255859375
201778,-0.1839141845703125,-1.097686767578125,-0.509552001953125
201779,-0.204010009765625,-1.586517333984375,-0.4890594482421875
201780,-0.2959747314453125,-3.16552734375,-0.7412109375
201781,-0.1668243408203125,-2.259735107421875,-1.12054443359375
201782,0.239593505859375,-0.353973388671875,-1.012802124023438
201783,0.3687286376953125,-0.620849609375,-0.885345458984375
201784,0.366180419921875,-1.12493896484375,-0.4878997802734375
201785,0.1894989013671875,-1.971633911132812,0.05364990234375
201786,0.1402130126953125,-1.657623291015625,0.2598724365234375
201787,0.2063140869140625,-1.126785278320312,0.3023223876953125
201788,0.163726806640625,-1.057281494140625,0.28314208984375
201789,0.14642333984375,-1.058029174804688,0.196563720703125
201790,0.0510101318359375,-1.137603759765625,0.2530517578125
201791,-0.1575927734375,-0.907684326171875,0.661163330078125
201792,-0.1885833740234375,-0.5832061767578125,0.8450469970703125
201793,-0.158203125,-0.685546875,1.139480590820312
201794,-0.0217132568359375,-1.020751953125,1.606521606445312
201795,0.137969970703125,-1.340560913085938,1.40301513671875
201796,0.136932373046875,-1.608413696289062,0.6862030029296875
201797,0.0538482666015625,-1.698379516601562,0.313934326171875
201798,-0.0713958740234375,-1.58477783203125,0.269866943359375
201799,-0.1216278076171875,-1.161727905273438,0.4270477294921875
201800,-0.1238861083984375,-0.785186767578125,0.472625732421875
201801,-0.0832977294921875,-0.5436553955078125,0.462921142578125
201802,-0.0106658935546875,-0.3854827880859375,0.4770965576171875
201803,0.0640869140625,-0.3192138671875,0.485260009765625
201804,0.128570556640625,-0.307861328125,0.48223876953125
201805,0.208404541015625,-0.349822998046875,0.5170135498046875
201806,0.2628326416015625,-0.4609527587890625,0.6625518798828125
201807,0.2484130859375,-0.6873779296875,0.7338104248046875
201808,0.1734161376953125,-1.00323486328125,0.562713623046875
201809,0.12249755859375,-1.246490478515625,0.3068695068359375
201810,0.139434814453125,-1.384597778320312,0.1009674072265625
201811,0.2052764892578125,-1.479507446289062,0.02947998046875
201812,0.2430267333984375,-1.648605346679688,-0.0509185791015625
201813,0.16900634765625,-1.882644653320312,-0.258880615234375
201814,0.0653228759765625,-2.073272705078125,-0.5276031494140625
201815,-0.0245208740234375,-2.083343505859375,-0.71734619140625
201816,-0.0661163330078125,-1.88311767578125,-0.71435546875
201817,-0.0361785888671875,-1.565933227539062,-0.568450927734375
201818,0.01678466796875,-1.2667236328125,-0.4072418212890625
201819,0.041717529296875,-1.040771484375,-0.236968994140625
201820,0.047698974609375,-0.844573974609375,-0.084259033203125
201821,0.0519256591796875,-0.6947784423828125,0.0361785888671875
201822,0.057891845703125,-0.5578460693359375,0.1033477783203125
201823,0.077423095703125,-0.4617919921875,0.10491943359375
201824,0.10272216796875,-0.416900634765625,0.058868408203125
201825,0.1254119873046875,-0.393035888671875,0.0029449462890625
201826,0.1408538818359375,-0.372039794921875,-0.0476837158203125
201827,0.129425048828125,-0.371856689453125,-0.1015167236328125
201828,0.09735107421875,-0.4188385009765625,-0.1870880126953125
201829,0.0422210693359375,-0.522216796875,-0.342132568359375
201830,-0.01446533203125,-0.62066650390625,-0.5336456298828125
201831,-0.0684814453125,-0.7275390625,-0.71258544921875
201832,-0.15740966796875,-0.8775482177734375,-0.8683929443359375
201833,-0.24078369140625,-1.081466674804688,-1.01708984375
201834,-0.2649078369140625,-1.356124877929688,-1.178451538085938
201835,-0.55078125,-1.5347900390625,-1.030471801757812
201836,-0.67852783203125,-1.411575317382812,-0.9790802001953124
201837,-0.6998138427734375,-1.473587036132812,-0.9635467529296876
201838,-0.9604644775390624,-3.244827270507812,-0.8192138671875
201839,-0.821533203125,-2.825729370117188,-0.215789794921875
201840,-0.0717315673828125,-0.173583984375,0.089080810546875
201841,-0.0327911376953125,0.0661163330078125,0.037689208984375
201842,0.0226287841796875,0.0569915771484375,0.0662384033203125
201843,0.0904083251953125,-0.00653076171875,0.0485687255859375
201844,0.1067047119140625,-0.1572418212890625,0.3024139404296875
201845,0.2008056640625,-0.4521484375,0.8262786865234375
201846,0.231719970703125,-0.8692779541015625,0.964874267578125
201847,0.2298431396484375,-1.361465454101562,0.9919281005859376
201848,0.23614501953125,-1.747665405273438,0.846649169921875
201849,0.1507415771484375,-2.038116455078125,1.150115966796875
201850,0.11810302734375,-2.232818603515625,1.54156494140625
201851,0.18731689453125,-2.17559814453125,1.223922729492188
201852,0.206207275390625,-2.036544799804688,0.6338653564453125
201853,0.140045166015625,-1.547744750976562,0.49371337890625
201854,0.1737518310546875,-0.9709930419921876,0.7776336669921875
201855,0.1965484619140625,-0.702850341796875,0.8101348876953125
201856,0.207672119140625,-0.5348052978515625,0.6195220947265625
201857,0.2054901123046875,-0.3853912353515625,0.44189453125
201858,0.1961212158203125,-0.288970947265625,0.341461181640625
201859,0.187713623046875,-0.2521820068359375,0.29815673828125
201860,0.1914215087890625,-0.29486083984375,0.281585693359375
201861,0.1915283203125,-0.4369049072265625,0.27862548828125
201862,0.12591552734375,-0.6577606201171875,0.2725830078125
201863,0.06317138671875,-0.8648681640625,0.2600250244140625
201864,0.0510101318359375,-1.067001342773438,0.2310028076171875
201865,0.049591064453125,-1.304168701171875,0.150634765625
201866,0.048492431640625,-1.518264770507812,0.041473388671875
201867,-0.008514404296875,-1.682113647460938,-0.0553741455078125
201868,-0.1807708740234375,-1.96136474609375,-0.11083984375
201869,-0.3816986083984375,-2.244964599609375,-0.253936767578125
201870,-0.0775604248046875,-1.602096557617188,-0.6821441650390625
201871,-0.102264404296875,-1.532485961914062,-0.741912841796875
201872,-0.0202178955078125,-1.399002075195312,-0.4453125
201873,0.0078277587890625,-1.203781127929688,-0.2411041259765625
201874,-0.0358734130859375,-1.051971435546875,-0.1509857177734375
201875,-0.084869384765625,-0.8993072509765625,-0.1007080078125
201876,-0.1485748291015625,-0.7753448486328125,-0.0838165283203125
201877,-0.209136962890625,-0.677520751953125,-0.0808563232421875
201878,-0.254058837890625,-0.563385009765625,-0.0950469970703125
201879,-0.290740966796875,-0.42547607421875,-0.1457366943359375
201880,-0.3038787841796875,-0.3060760498046875,-0.2064361572265625
201881,-0.3053131103515625,-0.2163238525390625,-0.256561279296875
201882,-0.2910919189453125,-0.1851654052734375,-0.30841064453125
201883,-0.2552337646484375,-0.2147979736328125,-0.340087890625
201884,-0.2357940673828125,-0.33642578125,-0.3800048828125
201885,-0.227020263671875,-0.485321044921875,-0.436370849609375
201886,-0.2202911376953125,-0.6382598876953125,-0.503753662109375
201887,-0.17767333984375,-0.785552978515625,-0.577392578125
201888,-0.18402099609375,-0.9859619140625,-0.6651153564453125
201889,-0.2561798095703125,-1.337478637695312,-0.6983184814453125
201890,-0.7704315185546875,-2.74224853515625,-0.3881378173828125
201891,0.07177734375,-0.5951995849609375,-0.8276519775390625
201892,0.149383544921875,-1.190765380859375,-1.128860473632812
201893,-0.0641021728515625,-1.833953857421875,-1.024734497070312
201894,0.1701202392578125,-1.111984252929688,-0.665802001953125
201895,0.1446380615234375,-1.220672607421875,-0.0502471923828125
201896,0.1070709228515625,-1.3875732421875,0.452392578125
201897,0.1519775390625,-1.311904907226562,0.5192718505859375
201898,0.21917724609375,-1.154800415039062,0.32659912109375
201899,0.2235870361328125,-1.062057495117188,0.17694091796875
201900,0.1670379638671875,-1.039398193359375,0.1662139892578125
201901,0.166412353515625,-0.923797607421875,0.2199249267578125
201902,0.2110443115234375,-0.7935638427734375,0.6085357666015625
201903,0.091583251953125,-0.7975616455078125,1.07177734375
201904,-0.117034912109375,-0.942413330078125,1.262298583984375
201905,-0.2236480712890625,-1.111373901367188,1.522247314453125
201906,-0.2665252685546875,-1.28399658203125,1.299453735351562
201907,-0.2039337158203125,-1.270675659179688,0.7219390869140625
201908,-0.105926513671875,-1.152877807617188,0.38995361328125
201909,-0.055908203125,-1.040618896484375,0.3130340576171875
201910,-0.0457305908203125,-0.88934326171875,0.3589019775390625
201911,-0.004730224609375,-0.7203826904296875,0.3804168701171875
201912,0.0705413818359375,-0.6127471923828125,0.38214111328125
