time_idx,accelerometerAccelerationX(G),accelerometerAccelerationY(G),accelerometerAccelerationZ(G)
260000,0.66864013671875,-0.738372802734375,0.32293701171875
260001,0.746795654296875,-0.784912109375,0.4203033447265625
260002,0.854217529296875,-0.854522705078125,0.5142974853515625
260003,0.938446044921875,-0.9232635498046876,0.5485076904296875
260004,0.9648284912109376,-0.9665679931640624,0.52587890625
260005,0.91796875,-0.9695281982421876,0.4521331787109375
260006,0.8231964111328125,-0.9294586181640624,0.3749847412109375
260007,0.7123260498046875,-0.8608551025390625,0.3432464599609375
260008,0.60357666015625,-0.780029296875,0.3137054443359375
260009,0.508575439453125,-0.7019805908203125,0.2814178466796875
260010,0.442474365234375,-0.6397247314453125,0.2546844482421875
260011,0.4056549072265625,-0.599700927734375,0.234527587890625
260012,0.385589599609375,-0.5871429443359375,0.2163848876953125
260013,0.3745574951171875,-0.605987548828125,0.200653076171875
260014,0.355010986328125,-0.642120361328125,0.2198944091796875
260015,0.32666015625,-0.703399658203125,0.2825469970703125
260016,0.3077850341796875,-0.7829132080078125,0.35577392578125
260017,0.312530517578125,-0.871490478515625,0.4322967529296875
260018,0.3205413818359375,-0.9581756591796876,0.5309600830078125
260019,0.3111572265625,-1.028411865234375,0.640625
260020,0.28155517578125,-1.059173583984375,0.724090576171875
260021,0.229888916015625,-1.0491943359375,0.7533416748046875
260022,0.167572021484375,-1.004989624023438,0.72711181640625
260023,0.098907470703125,-0.9305419921875,0.6486968994140625
260024,0.0424346923828125,-0.8221282958984375,0.54248046875
260025,0.0221405029296875,-0.7281646728515625,0.4564208984375
260026,0.028045654296875,-0.6690216064453125,0.4015350341796875
260027,0.0598297119140625,-0.62384033203125,0.379608154296875
260028,0.1332550048828125,-0.580047607421875,0.388580322265625
260029,0.2529144287109375,-0.5237274169921875,0.4303741455078125
260030,0.420440673828125,-0.4687347412109375,0.4730224609375
260031,0.6186370849609375,-0.4291534423828125,0.460693359375
260032,0.808013916015625,-0.4087677001953125,0.3829193115234375
260033,0.966766357421875,-0.4111328125,0.2603912353515625
260034,1.091217041015625,-0.432708740234375,0.1199951171875
260035,1.168716430664062,-0.4503326416015625,-0.0003814697265625
260036,1.186859130859375,-0.443389892578125,-0.0777587890625
260037,1.155014038085938,-0.402557373046875,-0.0821380615234375
260038,1.080062866210938,-0.3453826904296875,-0.0429229736328125
260039,0.994110107421875,-0.2840728759765625,-0.011016845703125
260040,0.9375457763671876,-0.231964111328125,-0.016845703125
260041,0.911895751953125,-0.189605712890625,-0.03411865234375
260042,0.9203338623046876,-0.1595001220703125,-0.0702667236328125
260043,0.9521331787109376,-0.15057373046875,-0.1103668212890625
260044,0.97344970703125,-0.1575469970703125,-0.1119232177734375
260045,0.9793701171875,-0.1833343505859375,-0.080291748046875
260046,0.970001220703125,-0.258758544921875,-0.03125
260047,0.9463348388671876,-0.3697509765625,0.0123291015625
260048,0.923675537109375,-0.4960174560546875,0.0526275634765625
260049,0.85870361328125,-0.6748046875,0.0973663330078125
260050,0.8230133056640625,-0.8028717041015625,0.1907958984375
260051,0.8440704345703125,-0.894927978515625,0.3130950927734375
260052,0.847442626953125,-0.9945831298828124,0.4062042236328125
260053,0.84136962890625,-1.06817626953125,0.4420166015625
260054,0.840728759765625,-1.130691528320312,0.43701171875
260055,0.8347015380859375,-1.166412353515625,0.4500885009765625
260056,0.816741943359375,-1.137908935546875,0.4656524658203125
260057,0.77215576171875,-1.051666259765625,0.46795654296875
260058,0.742828369140625,-0.9524688720703124,0.473175048828125
260059,0.743194580078125,-0.8726043701171875,0.4381561279296875
260060,0.79400634765625,-0.825347900390625,0.2868194580078125
260061,0.9383392333984376,-0.809478759765625,0.080352783203125
260062,1.161285400390625,-0.82830810546875,0.0174407958984375
260063,1.363815307617188,-0.8717193603515625,0.1834564208984375
260064,1.44122314453125,-0.8856201171875,0.5364532470703125
260065,1.352920532226562,-0.861480712890625,0.913665771484375
260066,1.14422607421875,-0.8578948974609375,1.127670288085938
260067,0.860015869140625,-0.879974365234375,1.078323364257812
260068,0.512847900390625,-0.8909912109375,0.87469482421875
260069,0.1322784423828125,-0.8787384033203125,0.713958740234375
260070,-0.2102813720703125,-0.84344482421875,0.6478729248046875
260071,-0.469207763671875,-0.8003387451171875,0.6014556884765625
260072,-0.637908935546875,-0.8015594482421875,0.5136260986328125
260073,-0.70654296875,-0.8603668212890625,0.462371826171875
260074,-0.6648712158203125,-0.9447021484375,0.490997314453125
260075,-0.5551300048828125,-0.99822998046875,0.540802001953125
260076,-0.402008056640625,-1.000625610351562,0.566131591796875
260077,-0.225372314453125,-0.9415740966796876,0.5677032470703125
260078,-0.0479583740234375,-0.8579559326171875,0.5403900146484375
260079,0.1207733154296875,-0.7978668212890625,0.4834747314453125
260080,0.27886962890625,-0.7633819580078125,0.4110107421875
260081,0.430145263671875,-0.7441253662109375,0.333099365234375
260082,0.5767364501953125,-0.7295074462890625,0.278533935546875
260083,0.713714599609375,-0.714813232421875,0.28277587890625
260084,0.8260345458984375,-0.6980438232421875,0.329742431640625
260085,0.902313232421875,-0.6854248046875,0.36529541015625
260086,0.9496612548828124,-0.674835205078125,0.35882568359375
260087,0.9732818603515624,-0.66094970703125,0.3179931640625
260088,0.9613494873046876,-0.6459197998046875,0.243865966796875
260089,0.917633056640625,-0.6136627197265625,0.1583099365234375
260090,0.866302490234375,-0.565826416015625,0.0930938720703125
260091,0.843048095703125,-0.50506591796875,0.05255126953125
260092,0.8469696044921875,-0.442474365234375,0.01983642578125
260093,0.84051513671875,-0.3827056884765625,-0.0108489990234375
260094,0.808135986328125,-0.3340911865234375,-0.031402587890625
260095,0.7659149169921875,-0.2890472412109375,-0.0187835693359375
260096,0.7557220458984375,-0.2295074462890625,0.0198516845703125
260097,0.7918243408203125,-0.160369873046875,0.0342559814453125
260098,0.8443145751953125,-0.09869384765625,0.013946533203125
260099,0.88671875,-0.0585174560546875,-0.006622314453125
260100,0.9112548828125,-0.05181884765625,0.0102691650390625
260101,0.916107177734375,-0.0982513427734375,0.0641021728515625
260102,0.89794921875,-0.1997222900390625,0.110748291015625
260103,0.8665008544921875,-0.315765380859375,0.1296234130859375
260104,0.844146728515625,-0.4074554443359375,0.1570587158203125
260105,0.8487091064453125,-0.4768829345703125,0.2106475830078125
260106,0.8887939453125,-0.512237548828125,0.283111572265625
260107,0.9520721435546876,-0.5255126953125,0.3348236083984375
260108,1.0225830078125,-0.5456695556640625,0.38079833984375
260109,1.091171264648438,-0.5866546630859375,0.4299468994140625
260110,1.131332397460938,-0.652313232421875,0.4169921875
260111,1.089447021484375,-0.74151611328125,0.359283447265625
260112,0.97344970703125,-0.83892822265625,0.337493896484375
260113,0.8554534912109375,-0.9195556640625,0.3743896484375
260114,0.782073974609375,-0.9788970947265624,0.42633056640625
260115,0.7600555419921875,-1.017364501953125,0.454315185546875
260116,0.7918243408203125,-1.029006958007812,0.4673919677734375
260117,0.85247802734375,-1.002853393554688,0.4894256591796875
260118,0.8970489501953125,-0.9447174072265624,0.5442962646484375
260119,0.89898681640625,-0.8995819091796875,0.6131744384765625
260120,0.8580322265625,-0.88372802734375,0.645294189453125
260121,0.79095458984375,-0.8924407958984375,0.630828857421875
260122,0.697052001953125,-0.90631103515625,0.5711212158203125
260123,0.58795166015625,-0.9041900634765624,0.49285888671875
260124,0.4982757568359375,-0.872344970703125,0.4232635498046875
260125,0.4413909912109375,-0.81719970703125,0.3618011474609375
260126,0.4081573486328125,-0.758575439453125,0.3054656982421875
260127,0.394439697265625,-0.700164794921875,0.2859344482421875
260128,0.3964691162109375,-0.656829833984375,0.2899627685546875
260129,0.411102294921875,-0.640533447265625,0.29034423828125
260130,0.418243408203125,-0.650848388671875,0.2968902587890625
260131,0.4098358154296875,-0.6826171875,0.3080902099609375
260132,0.38909912109375,-0.72076416015625,0.3341827392578125
260133,0.3613739013671875,-0.76214599609375,0.3668212890625
260134,0.3370819091796875,-0.8027801513671875,0.3813934326171875
260135,0.323883056640625,-0.826324462890625,0.3818206787109375
260136,0.3028564453125,-0.833709716796875,0.39447021484375
260137,0.2576751708984375,-0.839263916015625,0.4087066650390625
260138,0.192474365234375,-0.8431243896484375,0.40106201171875
260139,0.119415283203125,-0.842987060546875,0.3907012939453125
260140,0.053985595703125,-0.8326568603515625,0.39013671875
260141,0.0113372802734375,-0.8015289306640625,0.402008056640625
260142,0.002838134765625,-0.7425689697265625,0.4163970947265625
260143,0.04095458984375,-0.6626739501953125,0.4226226806640625
260144,0.1168212890625,-0.603485107421875,0.3987274169921875
260145,0.2008819580078125,-0.590423583984375,0.35003662109375
260146,0.28289794921875,-0.607025146484375,0.3210906982421875
260147,0.3790130615234375,-0.6282196044921875,0.3456878662109375
260148,0.5034942626953125,-0.6359710693359375,0.40252685546875
260149,0.6602935791015625,-0.637420654296875,0.46722412109375
260150,0.8513031005859375,-0.6395263671875,0.4924163818359375
260151,1.035079956054688,-0.6385955810546875,0.4442291259765625
260152,1.167709350585938,-0.6266021728515625,0.3038177490234375
260153,1.203414916992188,-0.5995941162109375,0.0993499755859375
260154,1.133621215820312,-0.5494537353515625,-0.0899810791015625
260155,0.9952850341796876,-0.4699554443359375,-0.194488525390625
260156,0.862396240234375,-0.35443115234375,-0.23553466796875
260157,0.7899017333984375,-0.2055206298828125,-0.226409912109375
260158,0.7576904296875,-0.095428466796875,-0.2347869873046875
260159,0.7620391845703125,-0.003082275390625,-0.2780609130859375
260160,0.8622589111328125,0.1369171142578125,-0.2445831298828125
260161,1.012298583984375,0.194732666015625,-0.155731201171875
260162,1.16845703125,0.155364990234375,-0.05023193359375
260163,1.293243408203125,0.0244598388671875,0.0236053466796875
260164,1.334793090820312,-0.1622314453125,0.0363616943359375
260165,1.262527465820312,-0.2951507568359375,0.0462799072265625
260166,1.14141845703125,-0.407196044921875,0.0587921142578125
260167,1.019424438476562,-0.4801025390625,0.0456085205078125
260168,0.8987579345703125,-0.556488037109375,0.04339599609375
260169,0.7935028076171875,-0.6453704833984375,0.0763702392578125
260170,0.8037567138671875,-0.6473846435546875,0.180999755859375
260171,0.83807373046875,-0.67205810546875,0.3140869140625
260172,0.82269287109375,-0.7367095947265625,0.4309539794921875
260173,0.79168701171875,-0.8280487060546875,0.507354736328125
260174,0.75146484375,-0.9865570068359376,0.5382080078125
260175,0.699554443359375,-1.13055419921875,0.607421875
260176,0.6471710205078125,-1.181564331054688,0.734283447265625
260177,0.6110382080078125,-1.16912841796875,0.79022216796875
260178,0.60614013671875,-1.136627197265625,0.633575439453125
260179,0.65606689453125,-1.092559814453125,0.3036346435546875
260180,0.8043365478515625,-1.047714233398438,-0.0198211669921875
260181,1.01641845703125,-0.9958343505859376,-0.082977294921875
260182,1.20135498046875,-0.9291534423828124,0.1552581787109375
260183,1.278640747070312,-0.8540191650390625,0.5484619140625
260184,1.219924926757812,-0.7839813232421875,0.9201202392578124
260185,1.06964111328125,-0.7664031982421875,1.131729125976562
260186,0.8717041015625,-0.8102569580078125,1.110916137695312
260187,0.62408447265625,-0.85382080078125,0.8860015869140625
260188,0.334625244140625,-0.8905181884765625,0.616424560546875
260189,0.058135986328125,-0.908172607421875,0.4285736083984375
260190,-0.1654510498046875,-0.8845062255859375,0.3561859130859375
260191,-0.3106231689453125,-0.8375396728515625,0.374786376953125
260192,-0.3662261962890625,-0.807342529296875,0.45440673828125
260193,-0.3167266845703125,-0.8416900634765625,0.5644378662109375
260194,-0.2307586669921875,-0.895538330078125,0.6548614501953125
260195,-0.177459716796875,-0.9384918212890624,0.71942138671875
260196,-0.1514892578125,-0.9730987548828124,0.7615814208984375
260197,-0.123291015625,-0.9681396484375,0.7623443603515625
260198,-0.0758819580078125,-0.9173583984375,0.6830596923828125
260199,0.0018768310546875,-0.8435211181640625,0.5224456787109375
260200,0.0912628173828125,-0.7709503173828125,0.3648681640625
260201,0.1766510009765625,-0.71466064453125,0.25140380859375
260202,0.2587432861328125,-0.6793670654296875,0.194244384765625
260203,0.35302734375,-0.65716552734375,0.209228515625
260204,0.4764556884765625,-0.6396484375,0.2854461669921875
260205,0.630462646484375,-0.61968994140625,0.392852783203125
260206,0.8057708740234375,-0.60308837890625,0.4784698486328125
260207,0.9863433837890624,-0.597198486328125,0.478668212890625
260208,1.154434204101562,-0.6106109619140625,0.3859100341796875
260209,1.288192749023438,-0.631988525390625,0.2199554443359375
260210,1.36737060546875,-0.6373748779296875,0.0183258056640625
260211,1.365676879882812,-0.59136962890625,-0.1304168701171875
260212,1.25909423828125,-0.4902801513671875,-0.16552734375
260213,1.093917846679688,-0.3943023681640625,-0.1434173583984375
260214,0.92828369140625,-0.3046875,-0.1081390380859375
260215,0.79302978515625,-0.2144775390625,-0.086517333984375
260216,0.7040252685546875,-0.0988006591796875,-0.1009368896484375
260217,0.6802215576171875,0.031768798828125,-0.1360015869140625
260218,0.695465087890625,0.10626220703125,-0.1641998291015625
260219,0.7381744384765625,0.1228790283203125,-0.1488494873046875
260220,0.8042755126953125,0.079803466796875,-0.1084442138671875
260221,0.8822021484375,-0.0345306396484375,-0.064605712890625
260222,0.9434051513671876,-0.1957855224609375,-0.0292205810546875
260223,0.976318359375,-0.316436767578125,-0.0007476806640625
260224,1.03448486328125,-0.402618408203125,0.0382537841796875
260225,1.135604858398438,-0.4635467529296875,0.0689239501953125
260226,1.229934692382812,-0.494140625,0.103729248046875
260227,1.288589477539062,-0.498016357421875,0.21734619140625
260228,1.329360961914062,-0.5010223388671875,0.37042236328125
260229,1.349151611328125,-0.5325469970703125,0.4727020263671875
260230,1.283828735351562,-0.6403045654296875,0.4537506103515625
260231,1.167098999023438,-0.769866943359375,0.389495849609375
260232,1.032684326171875,-0.918975830078125,0.34503173828125
260233,0.8664703369140625,-1.086029052734375,0.3396759033203125
260234,0.71282958984375,-1.176788330078125,0.339263916015625
260235,0.566375732421875,-1.1961669921875,0.40283203125
260236,0.43487548828125,-1.116256713867188,0.5485687255859375
260237,0.3706512451171875,-0.97003173828125,0.5792999267578125
260238,0.4017486572265625,-0.873016357421875,0.52496337890625
260239,0.4682464599609375,-0.849212646484375,0.4756927490234375
260240,0.5362396240234375,-0.85504150390625,0.4630584716796875
260241,0.59637451171875,-0.864654541015625,0.490875244140625
260242,0.645751953125,-0.87017822265625,0.50518798828125
260243,0.6700592041015625,-0.867645263671875,0.4830780029296875
260244,0.634521484375,-0.8497467041015625,0.427154541015625
260245,0.5408935546875,-0.8050384521484375,0.345245361328125
260246,0.4298858642578125,-0.755828857421875,0.274505615234375
260247,0.340057373046875,-0.708343505859375,0.2271728515625
260248,0.2846221923828125,-0.6604766845703125,0.1890869140625
260249,0.2661285400390625,-0.6150970458984375,0.16363525390625
260250,0.2747955322265625,-0.580322265625,0.1675262451171875
260251,0.28936767578125,-0.5851898193359375,0.2058563232421875
260252,0.29296875,-0.6202239990234375,0.274688720703125
260253,0.29736328125,-0.654510498046875,0.3649749755859375
260254,0.3092498779296875,-0.690460205078125,0.4221649169921875
260255,0.3153076171875,-0.7287445068359375,0.450653076171875
260256,0.29779052734375,-0.7653045654296875,0.464813232421875
260257,0.2588043212890625,-0.7950286865234375,0.4501495361328125
260258,0.213043212890625,-0.810791015625,0.410736083984375
260259,0.187896728515625,-0.804718017578125,0.3852081298828125
260260,0.2044677734375,-0.77471923828125,0.383026123046875
260261,0.257415771484375,-0.7235870361328125,0.3992156982421875
260262,0.32794189453125,-0.6622161865234375,0.431243896484375
260263,0.397430419921875,-0.6210479736328125,0.469146728515625
260264,0.456573486328125,-0.6021270751953125,0.474334716796875
260265,0.496795654296875,-0.598541259765625,0.4308624267578125
260266,0.5258636474609375,-0.6031341552734375,0.36669921875
260267,0.5603179931640625,-0.606719970703125,0.315093994140625
260268,0.610382080078125,-0.61370849609375,0.2978363037109375
260269,0.69207763671875,-0.6237640380859375,0.3204345703125
260270,0.8135986328125,-0.636383056640625,0.38970947265625
260271,0.96868896484375,-0.65252685546875,0.422454833984375
260272,1.12261962890625,-0.658447265625,0.3719024658203125
260273,1.227569580078125,-0.6324005126953125,0.2324371337890625
260274,1.247833251953125,-0.5558624267578125,0.033111572265625
260275,1.178558349609375,-0.434478759765625,-0.1080169677734375
260276,1.06365966796875,-0.2769927978515625,-0.16363525390625
260277,0.9361419677734376,-0.1464080810546875,-0.1739349365234375
260278,0.7936859130859375,-0.1038665771484375,-0.1817169189453125
260279,0.7164306640625,-0.0556488037109375,-0.16778564453125
260280,0.7534637451171875,0.03826904296875,-0.1207122802734375
260281,0.8315277099609375,0.0707244873046875,-0.089996337890625
260282,0.9464874267578124,0.0344085693359375,-0.0836181640625
260283,1.088119506835938,-0.088104248046875,-0.09222412109375
260284,1.19586181640625,-0.266876220703125,-0.1034698486328125
260285,1.217208862304688,-0.4134674072265625,-0.12750244140625
260286,1.181137084960938,-0.5514068603515625,-0.1473388671875
260287,1.113021850585938,-0.667236328125,-0.100982666015625
260288,0.990936279296875,-0.7774658203125,-0.007232666015625
260289,0.8839569091796875,-0.818695068359375,0.10986328125
260290,0.8531494140625,-0.8045501708984375,0.2551116943359375
260291,0.842437744140625,-0.8477325439453125,0.3894805908203125
260292,0.8026580810546875,-0.9499359130859376,0.4609527587890625
260293,0.73748779296875,-1.084884643554688,0.4420166015625
260294,0.7117919921875,-1.200088500976562,0.4425201416015625
260295,0.7656402587890625,-1.227249145507812,0.513946533203125
260296,0.8457489013671875,-1.19061279296875,0.5876617431640625
260297,0.903961181640625,-1.1253662109375,0.5596160888671875
260298,0.94775390625,-1.0279541015625,0.3858642578125
260299,1.020767211914062,-0.9123382568359376,0.135833740234375
260300,1.130966186523438,-0.8103790283203125,-0.0672760009765625
260301,1.225234985351562,-0.737640380859375,-0.03839111328125
260302,1.243759155273438,-0.6906585693359375,0.2179107666015625
260303,1.180023193359375,-0.66021728515625,0.532379150390625
260304,1.041305541992188,-0.65606689453125,0.7677154541015625
260305,0.8391265869140625,-0.6949462890625,0.8558502197265625
260306,0.6113128662109375,-0.764892578125,0.8172454833984375
260307,0.3648223876953125,-0.8330230712890625,0.731964111328125
260308,0.0895233154296875,-0.8741912841796875,0.6382598876953125
260309,-0.1648406982421875,-0.873443603515625,0.57366943359375
260310,-0.3331756591796875,-0.8300018310546875,0.577728271484375
260311,-0.4081573486328125,-0.7816619873046875,0.5831756591796875
260312,-0.3956756591796875,-0.770477294921875,0.54876708984375
260313,-0.322601318359375,-0.78607177734375,0.5170745849609375
260314,-0.2166900634765625,-0.8152008056640625,0.5107421875
260315,-0.0986175537109375,-0.836395263671875,0.511871337890625
260316,0.014007568359375,-0.8407745361328125,0.5167999267578125
260317,0.1112823486328125,-0.8289794921875,0.5229949951171875
260318,0.201263427734375,-0.817413330078125,0.496002197265625
260319,0.29132080078125,-0.8047637939453125,0.4414520263671875
260320,0.3773193359375,-0.7830963134765625,0.373931884765625
260321,0.457427978515625,-0.7623748779296875,0.3077850341796875
260322,0.53564453125,-0.743438720703125,0.2606201171875
260323,0.6187896728515625,-0.7247161865234375,0.2635498046875
260324,0.7069244384765625,-0.7151336669921875,0.2974090576171875
260325,0.795074462890625,-0.7124786376953125,0.31903076171875
260326,0.874420166015625,-0.70941162109375,0.30908203125
260327,0.9411468505859376,-0.7064361572265625,0.263427734375
260328,1.002304077148438,-0.703125,0.1860198974609375
260329,1.057830810546875,-0.6949920654296875,0.1147308349609375
260330,1.098770141601562,-0.676422119140625,0.03228759765625
260331,1.10443115234375,-0.6243743896484375,-0.0524444580078125
260332,1.061126708984375,-0.5373992919921875,-0.138153076171875
260333,0.97955322265625,-0.4347991943359375,-0.2194061279296875
260334,0.8972625732421875,-0.3064117431640625,-0.267120361328125
260335,0.8596649169921875,-0.14984130859375,-0.2668914794921875
260336,0.8647918701171875,-0.0127105712890625,-0.266693115234375
260337,0.8832244873046875,0.0817108154296875,-0.2860107421875
260338,0.9218902587890624,0.1456298828125,-0.2862701416015625
260339,0.9695281982421876,0.1439361572265625,-0.2570343017578125
260340,1.018783569335938,0.0877838134765625,-0.21307373046875
260341,1.055862426757812,-0.0406036376953125,-0.161834716796875
260342,1.059783935546875,-0.202789306640625,-0.0946044921875
260343,1.0567626953125,-0.3390350341796875,0.00811767578125
260344,1.090194702148438,-0.454437255859375,0.08367919921875
260345,1.155563354492188,-0.5213470458984375,0.0928192138671875
260346,1.236251831054688,-0.540740966796875,0.103759765625
260347,1.321746826171875,-0.5366973876953125,0.151519775390625
260348,1.377334594726562,-0.5697479248046875,0.188995361328125
260349,1.380783081054688,-0.6114349365234375,0.2159271240234375
260350,1.343765258789062,-0.644775390625,0.246551513671875
260351,1.194610595703125,-0.7914581298828125,0.2859954833984375
260352,0.9987335205078124,-0.9507904052734376,0.335479736328125
260353,0.806427001953125,-1.082778930664062,0.307342529296875
260354,0.588592529296875,-1.174560546875,0.439453125
260355,0.3590545654296875,-1.105300903320312,0.65423583984375
260356,0.1868743896484375,-0.91864013671875,0.635009765625
260357,0.1822967529296875,-0.7845001220703125,0.4818572998046875
260358,0.29473876953125,-0.7575225830078125,0.346099853515625
260359,0.4119415283203125,-0.787811279296875,0.304412841796875
260360,0.514678955078125,-0.8337554931640625,0.3998565673828125
260361,0.6096343994140625,-0.8865814208984375,0.5691986083984375
260362,0.6787109375,-0.9586029052734376,0.6624603271484375
260363,0.6596221923828125,-1.012252807617188,0.6148529052734375
260364,0.5492401123046875,-1.006698608398438,0.4846343994140625
260365,0.412200927734375,-0.946624755859375,0.3415985107421875
260366,0.2982025146484375,-0.8441009521484375,0.24688720703125
260367,0.2281951904296875,-0.73553466796875,0.1833648681640625
260368,0.2125396728515625,-0.6525115966796875,0.1240386962890625
260369,0.2410736083984375,-0.6118316650390625,0.08172607421875
260370,0.278961181640625,-0.6316986083984375,0.0683135986328125
260371,0.303924560546875,-0.68365478515625,0.1059722900390625
260372,0.3421478271484375,-0.7423858642578125,0.202484130859375
260373,0.40704345703125,-0.8006591796875,0.3309173583984375
260374,0.4691162109375,-0.844879150390625,0.4411468505859375
260375,0.49615478515625,-0.88043212890625,0.4781341552734375
260376,0.4813995361328125,-0.901153564453125,0.4375152587890625
260377,0.4302978515625,-0.9004058837890625,0.349334716796875
260378,0.35858154296875,-0.86529541015625,0.2445526123046875
260379,0.298736572265625,-0.789642333984375,0.183197021484375
260380,0.289306640625,-0.703338623046875,0.1964874267578125
260381,0.331817626953125,-0.6532135009765625,0.2523040771484375
260382,0.38458251953125,-0.6224365234375,0.317108154296875
260383,0.437957763671875,-0.612274169921875,0.36676025390625
260384,0.5083465576171875,-0.6183624267578125,0.3871917724609375
260385,0.590606689453125,-0.632720947265625,0.3785400390625
260386,0.6670379638671875,-0.6552886962890625,0.32550048828125
260387,0.736175537109375,-0.67144775390625,0.28155517578125
260388,0.812103271484375,-0.6767578125,0.2706756591796875
260389,0.8875274658203125,-0.667755126953125,0.2480621337890625
260390,0.9401397705078124,-0.6352386474609375,0.18682861328125
260391,0.9561309814453124,-0.5707550048828125,0.0849151611328125
260392,0.949249267578125,-0.4669189453125,-0.0378570556640625
260393,0.9491424560546876,-0.3165740966796875,-0.1721649169921875
260394,0.97491455078125,-0.1448516845703125,-0.2882080078125
260395,1.0057373046875,0.0130767822265625,-0.3414154052734375
260396,1.005157470703125,0.1064910888671875,-0.3425140380859375
260397,0.991729736328125,0.1514739990234375,-0.318115234375
260398,1.008575439453125,0.2053070068359375,-0.25177001953125
260399,1.033676147460938,0.2126922607421875,-0.1819000244140625
260400,1.044296264648438,0.143798828125,-0.121734619140625
260401,1.039901733398438,-0.016326904296875,-0.1108551025390625
260402,0.986175537109375,-0.1840667724609375,-0.129669189453125
260403,0.9061737060546876,-0.3280792236328125,-0.1313629150390625
260404,0.8382415771484375,-0.465667724609375,-0.13433837890625
260405,0.7884063720703125,-0.5858612060546875,-0.1493988037109375
260406,0.766082763671875,-0.6727447509765625,-0.1458587646484375
260407,0.7948150634765625,-0.7032623291015625,-0.08233642578125
260408,0.86480712890625,-0.71234130859375,0.030303955078125
260409,0.9505767822265624,-0.732208251953125,0.157806396484375
260410,1.0291748046875,-0.782806396484375,0.3034820556640625
260411,1.093612670898438,-0.8830108642578125,0.434051513671875
260412,1.126480102539062,-1.006912231445312,0.4755401611328125
260413,1.08392333984375,-1.111236572265625,0.4733734130859375
260414,0.981689453125,-1.179428100585938,0.49609375
260415,0.8625640869140625,-1.198394775390625,0.5144805908203125
260416,0.7528076171875,-1.157730102539062,0.4613037109375
260417,0.7091217041015625,-1.06903076171875,0.2734375
260418,0.7764434814453125,-0.98583984375,-0.000335693359375
260419,0.910675048828125,-0.8956756591796875,-0.1754608154296875
260420,1.019927978515625,-0.8154296875,-0.0980682373046875
260421,1.057373046875,-0.7659454345703125,0.1799468994140625
260422,1.028152465820312,-0.754730224609375,0.564178466796875
260423,0.968902587890625,-0.78778076171875,0.909942626953125
260424,0.905487060546875,-0.86016845703125,1.034881591796875
260425,0.7935333251953125,-0.970184326171875,0.920562744140625
260426,0.5774383544921875,-1.076248168945312,0.69952392578125
260427,0.2792510986328125,-1.124481201171875,0.534515380859375
260428,-0.0117034912109375,-1.097396850585938,0.487152099609375
260429,-0.2171173095703125,-1.020355224609375,0.5130767822265625
260430,-0.3231048583984375,-0.9380950927734376,0.54248046875
260431,-0.3398284912109375,-0.8988800048828125,0.546356201171875
260432,-0.2839202880859375,-0.8902435302734375,0.560760498046875
260433,-0.20452880859375,-0.898712158203125,0.5866241455078125
260434,-0.115875244140625,-0.9036712646484376,0.6035919189453125
260435,-0.012176513671875,-0.892425537109375,0.59716796875
260436,0.101806640625,-0.8582305908203125,0.5525360107421875
260437,0.2184906005859375,-0.8238372802734375,0.4755401611328125
260438,0.3293914794921875,-0.8063507080078125,0.397216796875
260439,0.429168701171875,-0.796356201171875,0.3172454833984375
260440,0.5245819091796875,-0.7700958251953125,0.2518463134765625
260441,0.6207427978515625,-0.7189178466796875,0.2470245361328125
260442,0.7273712158203125,-0.6586761474609375,0.278900146484375
260443,0.8439483642578125,-0.6140899658203125,0.28424072265625
260444,0.9568328857421876,-0.6018829345703125,0.2621307373046875
260445,1.04217529296875,-0.6045684814453125,0.2163543701171875
260446,1.07574462890625,-0.607574462890625,0.1466827392578125
260447,1.0723876953125,-0.6078338623046875,0.076812744140625
260448,1.061859130859375,-0.5876007080078125,0.006439208984375
260449,1.049880981445312,-0.53741455078125,-0.08892822265625
260450,1.01812744140625,-0.465728759765625,-0.1940155029296875
260451,0.9641876220703124,-0.3824615478515625,-0.2883453369140625
260452,0.909332275390625,-0.2821197509765625,-0.35614013671875
260453,0.8631439208984375,-0.165069580078125,-0.3675079345703125
260454,0.844482421875,-0.05975341796875,-0.3663482666015625
260455,0.8623504638671875,0.0189208984375,-0.3538665771484375
260456,0.8948211669921875,0.0668792724609375,-0.3357086181640625
260457,0.931640625,0.08270263671875,-0.3134307861328125
260458,0.964508056640625,0.0582122802734375,-0.2742462158203125
260459,0.9908447265625,-0.0179290771484375,-0.2236328125
260460,0.9958038330078124,-0.1537628173828125,-0.1751708984375
260461,0.97943115234375,-0.2846221923828125,-0.15106201171875
260462,0.97955322265625,-0.399383544921875,-0.111480712890625
260463,0.9953765869140624,-0.48883056640625,-0.035919189453125
260464,1.033050537109375,-0.5318603515625,0.0437469482421875
260465,1.109878540039062,-0.53851318359375,0.1267852783203125
260466,1.22943115234375,-0.5284576416015625,0.200164794921875
260467,1.33477783203125,-0.57891845703125,0.25518798828125
260468,1.3570556640625,-0.6630096435546875,0.3028564453125
260469,1.331268310546875,-0.7111968994140625,0.3222198486328125
260470,1.13848876953125,-0.9047393798828124,0.371551513671875
260471,0.8686370849609375,-1.08740234375,0.4561614990234375
260472,0.641937255859375,-1.190948486328125,0.388031005859375
260473,0.4093780517578125,-1.197982788085938,0.6020355224609375
260474,0.20233154296875,-1.047561645507812,0.877532958984375
260475,0.0632781982421875,-0.8835601806640625,0.7545928955078125
260476,0.0820159912109375,-0.78948974609375,0.466339111328125
260477,0.2158966064453125,-0.7552032470703125,0.2302398681640625
260478,0.3592681884765625,-0.761627197265625,0.217529296875
260479,0.4937744140625,-0.7978668212890625,0.4096221923828125
260480,0.6285858154296875,-0.8508148193359375,0.6745147705078125
260481,0.73779296875,-0.92529296875,0.8119964599609375
260482,0.7533721923828125,-0.9870452880859376,0.7178192138671875
260483,0.6561737060546875,-0.984283447265625,0.5206756591796875
260484,0.503997802734375,-0.9174652099609376,0.336334228515625
260485,0.3550872802734375,-0.8110809326171875,0.224334716796875
260486,0.2606658935546875,-0.6976776123046875,0.1920013427734375
260487,0.249542236328125,-0.6119232177734375,0.1928863525390625
260488,0.308929443359375,-0.5711517333984375,0.183685302734375
260489,0.3951416015625,-0.579437255859375,0.1592559814453125
260490,0.45892333984375,-0.6099090576171875,0.1441802978515625
260491,0.4981689453125,-0.659698486328125,0.1880035400390625
260492,0.531280517578125,-0.72479248046875,0.2808380126953125
260493,0.557098388671875,-0.789337158203125,0.3636932373046875
260494,0.5556488037109375,-0.851348876953125,0.415008544921875
260495,0.5154571533203125,-0.9062957763671876,0.4263153076171875
260496,0.4373779296875,-0.9364776611328124,0.3951873779296875
260497,0.3376617431640625,-0.91845703125,0.327880859375
260498,0.249237060546875,-0.8448028564453125,0.2556610107421875
260499,0.19598388671875,-0.7450714111328125,0.2238616943359375
260500,0.189239501953125,-0.664398193359375,0.2385101318359375
260501,0.21478271484375,-0.61541748046875,0.287872314453125
260502,0.2531890869140625,-0.5902557373046875,0.3509674072265625
260503,0.309814453125,-0.58245849609375,0.4050445556640625
260504,0.4044647216796875,-0.580352783203125,0.4580535888671875
260505,0.5197601318359375,-0.5905609130859375,0.4765167236328125
260506,0.6409149169921875,-0.619720458984375,0.4204559326171875
260507,0.7603759765625,-0.6463623046875,0.372222900390625
260508,0.876739501953125,-0.6653900146484375,0.3298492431640625
260509,0.9747467041015624,-0.66534423828125,0.26007080078125
260510,1.0245361328125,-0.6233978271484375,0.1646270751953125
260511,1.019699096679688,-0.5284423828125,0.058441162109375
260512,0.98382568359375,-0.3871917724609375,-0.04302978515625
260513,0.9632110595703124,-0.2076263427734375,-0.129608154296875
260514,0.9759674072265624,-0.03924560546875,-0.1904754638671875
260515,0.983551025390625,0.0780029296875,-0.206939697265625
260516,0.9568634033203124,0.13427734375,-0.210693359375
260517,0.920654296875,0.14898681640625,-0.2149810791015625
260518,0.9402923583984376,0.18084716796875,-0.188140869140625
260519,1.000244140625,0.187774658203125,-0.12176513671875
260520,1.055496215820312,0.127166748046875,-0.0581817626953125
260521,1.103744506835938,-0.0177154541015625,-0.034027099609375
260522,1.121490478515625,-0.205108642578125,-0.0659637451171875
260523,1.094375610351562,-0.393280029296875,-0.1192626953125
260524,1.0313720703125,-0.59515380859375,-0.1504364013671875
260525,0.9535369873046876,-0.728912353515625,-0.1249847412109375
260526,0.8779754638671875,-0.7770843505859375,-0.040740966796875
260527,0.8289947509765625,-0.799530029296875,0.0863494873046875
260528,0.809173583984375,-0.813140869140625,0.2358856201171875
260529,0.793731689453125,-0.8402557373046875,0.3701629638671875
260530,0.78533935546875,-0.914794921875,0.466644287109375
260531,0.7724609375,-1.00616455078125,0.492828369140625
260532,0.7501068115234375,-1.081207275390625,0.487091064453125
260533,0.7479705810546875,-1.133407592773438,0.5404052734375
260534,0.7791290283203125,-1.16094970703125,0.6152496337890625
260535,0.826263427734375,-1.1552734375,0.606201171875
260536,0.8861083984375,-1.096755981445312,0.4596405029296875
260537,0.98162841796875,-0.98516845703125,0.2105712890625
260538,1.124069213867188,-0.8536376953125,-0.0208740234375
260539,1.261825561523438,-0.7368927001953125,-0.0474395751953125
260540,1.320465087890625,-0.6641082763671875,0.179168701171875
260541,1.274765014648438,-0.648773193359375,0.536590576171875
260542,1.153060913085938,-0.6835174560546875,0.8559417724609375
260543,0.9826812744140624,-0.7593994140625,0.9850311279296876
260544,0.7713470458984375,-0.847381591796875,0.914581298828125
260545,0.498321533203125,-0.9246063232421876,0.752105712890625
260546,0.1638946533203125,-0.9654693603515624,0.620880126953125
260547,-0.1391448974609375,-0.9628143310546876,0.56207275390625
260548,-0.3383026123046875,-0.921539306640625,0.5852203369140625
260549,-0.4107513427734375,-0.8802337646484375,0.614898681640625
260550,-0.3521728515625,-0.8545989990234375,0.60260009765625
260551,-0.2227783203125,-0.8245849609375,0.57550048828125
260552,-0.0976715087890625,-0.8215179443359375,0.5573272705078125
260553,0.014801025390625,-0.85455322265625,0.5702362060546875
260554,0.1276397705078125,-0.8919525146484375,0.6100006103515625
260555,0.2225799560546875,-0.90423583984375,0.634796142578125
260556,0.276824951171875,-0.8856964111328125,0.5950164794921875
260557,0.2920379638671875,-0.8456878662109375,0.5013885498046875
260558,0.2944793701171875,-0.801544189453125,0.401611328125
260559,0.3123016357421875,-0.757415771484375,0.3286285400390625
260560,0.3457489013671875,-0.70233154296875,0.28875732421875
260561,0.3911590576171875,-0.64996337890625,0.2771148681640625
260562,0.454986572265625,-0.6108551025390625,0.2903900146484375
260563,0.5404815673828125,-0.5918731689453125,0.3371429443359375
260564,0.652740478515625,-0.602020263671875,0.3646392822265625
260565,0.7763824462890625,-0.625579833984375,0.3466644287109375
260566,0.8910980224609375,-0.6446533203125,0.3007965087890625
260567,0.9917449951171876,-0.65618896484375,0.1960296630859375
260568,1.071121215820312,-0.660247802734375,0.0697021484375
260569,1.10528564453125,-0.6339569091796875,-0.0450897216796875
260570,1.064315795898438,-0.562255859375,-0.13690185546875
260571,0.9683380126953124,-0.46673583984375,-0.2016143798828125
260572,0.873687744140625,-0.362274169921875,-0.254608154296875
260573,0.8369598388671875,-0.21832275390625,-0.288360595703125
260574,0.852447509765625,-0.050567626953125,-0.297271728515625
260575,0.8735809326171875,0.0849609375,-0.328094482421875
260576,0.904876708984375,0.166595458984375,-0.354766845703125
260577,0.95013427734375,0.177734375,-0.3597869873046875
260578,1.00506591796875,0.128143310546875,-0.3399658203125
260579,1.063629150390625,0.0289764404296875,-0.2841949462890625
260580,1.094482421875,-0.1273345947265625,-0.198577880859375
260581,1.094406127929688,-0.2553558349609375,-0.125457763671875
260582,1.097900390625,-0.3406219482421875,-0.0691680908203125
260583,1.12384033203125,-0.4075927734375,-0.0201873779296875
260584,1.15985107421875,-0.4302520751953125,0.038818359375
260585,1.208633422851562,-0.4187469482421875,0.124969482421875
260586,1.297927856445312,-0.3999176025390625,0.25238037109375
260587,1.419509887695312,-0.415863037109375,0.416046142578125
260588,1.444595336914062,-0.560089111328125,0.442626953125
260589,1.416152954101562,-0.6655120849609375,0.420654296875
260590,1.2366943359375,-0.9224700927734376,0.4589385986328125
260591,0.9537506103515624,-1.196868896484375,0.515777587890625
260592,0.712890625,-1.301040649414062,0.3049163818359375
260593,0.492919921875,-1.289535522460938,0.441619873046875
260594,0.3103485107421875,-1.061065673828125,1.015289306640625
260595,0.0870208740234375,-0.813934326171875,1.032333374023438
260596,-0.0323028564453125,-0.6644287109375,0.696044921875
260597,0.077880859375,-0.635345458984375,0.2285614013671875
260598,0.2888031005859375,-0.6922149658203125,-0.079833984375
260599,0.5201416015625,-0.7742767333984375,-0.012847900390625
260600,0.7092437744140625,-0.8556365966796875,0.3130950927734375
260601,0.80572509765625,-0.93646240234375,0.6247406005859375
260602,0.788330078125,-0.987579345703125,0.7442779541015625
260603,0.6854705810546875,-0.985382080078125,0.7043914794921875
260604,0.57073974609375,-0.964691162109375,0.585296630859375
260605,0.46478271484375,-0.917449951171875,0.43035888671875
260606,0.3620452880859375,-0.8314361572265625,0.2867889404296875
260607,0.2875518798828125,-0.7737274169921875,0.230743408203125
260608,0.24151611328125,-0.7917022705078125,0.268157958984375
260609,0.2289581298828125,-0.8326873779296875,0.3055877685546875
260610,0.23980712890625,-0.8666839599609375,0.353759765625
260611,0.2382354736328125,-0.8817596435546875,0.4480133056640625
260612,0.22369384765625,-0.872589111328125,0.5412139892578125
260613,0.217071533203125,-0.8437347412109375,0.5649566650390625
260614,0.2292022705078125,-0.8014373779296875,0.5283355712890625
260615,0.2675323486328125,-0.7610321044921875,0.4718780517578125
260616,0.3187103271484375,-0.7337493896484375,0.4119720458984375
260617,0.36138916015625,-0.7105865478515625,0.36346435546875
260618,0.3850860595703125,-0.68939208984375,0.349456787109375
260619,0.39471435546875,-0.6921844482421875,0.3582763671875
260620,0.4117889404296875,-0.6986541748046875,0.36932373046875
260621,0.4475250244140625,-0.691009521484375,0.394287109375
260622,0.5030975341796875,-0.6740264892578125,0.4084625244140625
260623,0.5682525634765625,-0.64837646484375,0.3921051025390625
260624,0.645599365234375,-0.6201171875,0.35400390625
260625,0.7423248291015625,-0.6010894775390625,0.2947235107421875
260626,0.848236083984375,-0.5895843505859375,0.2215423583984375
260627,0.93756103515625,-0.57183837890625,0.1333465576171875
260628,0.9739837646484376,-0.53271484375,0.0207672119140625
260629,0.92822265625,-0.4646759033203125,-0.093292236328125
260630,0.8325653076171875,-0.3633270263671875,-0.171600341796875
260631,0.7518463134765625,-0.2403411865234375,-0.19140625
260632,0.710784912109375,-0.143585205078125,-0.1976776123046875
260633,0.7309722900390625,-0.054534912109375,-0.2288360595703125
260634,0.820953369140625,0.0520782470703125,-0.262298583984375
260635,0.9154510498046876,0.1075439453125,-0.27142333984375
260636,1.00762939453125,0.114837646484375,-0.2329864501953125
260637,1.095443725585938,0.071441650390625,-0.1920928955078125
260638,1.136688232421875,-0.05084228515625,-0.1764984130859375
260639,1.104049682617188,-0.228271484375,-0.1679534912109375
260640,1.0125732421875,-0.349639892578125,-0.138824462890625
260641,0.929534912109375,-0.436126708984375,-0.126617431640625
260642,0.894927978515625,-0.4854583740234375,-0.116668701171875
260643,0.91278076171875,-0.4907379150390625,-0.065185546875
260644,0.96795654296875,-0.475830078125,0.0068817138671875
260645,1.050689697265625,-0.4631805419921875,0.0969696044921875
260646,1.114547729492188,-0.533935546875,0.2100067138671875
260647,1.133926391601562,-0.672760009765625,0.3138580322265625
260648,1.205810546875,-0.751373291015625,0.4007568359375
260649,1.198883056640625,-0.8944549560546875,0.4510040283203125
260650,1.065200805664062,-1.04400634765625,0.4816741943359375
260651,0.90863037109375,-1.136123657226562,0.447021484375
260652,0.77838134765625,-1.183868408203125,0.458251953125
260653,0.676910400390625,-1.121612548828125,0.55181884765625
260654,0.5849456787109375,-0.9785919189453124,0.507354736328125
260655,0.55047607421875,-0.8514251708984375,0.2701416015625
260656,0.6356201171875,-0.770965576171875,0.014801025390625
260657,0.79974365234375,-0.729034423828125,-0.0899505615234375
260658,0.9219970703125,-0.7406463623046875,0.0779876708984375
260659,0.9324493408203124,-0.795654296875,0.48583984375
260660,0.8614501953125,-0.888916015625,0.947113037109375
260661,0.74725341796875,-1.038558959960938,1.284088134765625
260662,0.552490234375,-1.206283569335938,1.309600830078125
260663,0.2657318115234375,-1.30548095703125,1.091796875
260664,-0.045989990234375,-1.277847290039062,0.8641204833984375
260665,-0.294708251953125,-1.166030883789062,0.6800079345703125
260666,-0.4587860107421875,-1.045440673828125,0.516937255859375
260667,-0.5557098388671875,-0.9552001953125,0.4244842529296875
260668,-0.5702972412109375,-0.8928680419921875,0.4183349609375
260669,-0.4696197509765625,-0.8382415771484375,0.4690093994140625
260670,-0.2706756591796875,-0.79022216796875,0.5514373779296875
260671,-0.01934814453125,-0.761993408203125,0.6283111572265625
260672,0.2516021728515625,-0.760711669921875,0.6709442138671875
260673,0.5041351318359375,-0.7787017822265625,0.666473388671875
260674,0.7160797119140625,-0.801300048828125,0.5985870361328125
260675,0.8733062744140625,-0.813720703125,0.4508209228515625
260676,0.9610443115234376,-0.80548095703125,0.3057708740234375
260677,0.98541259765625,-0.767120361328125,0.222137451171875
260678,0.97509765625,-0.7216796875,0.1844482421875
260679,0.9566497802734376,-0.687347412109375,0.1678314208984375
260680,0.93853759765625,-0.6606903076171875,0.162811279296875
260681,0.9235687255859376,-0.631622314453125,0.148834228515625
260682,0.9200592041015624,-0.6008758544921875,0.115692138671875
260683,0.93408203125,-0.569305419921875,0.0615234375
260684,0.958526611328125,-0.5321197509765625,-0.0194549560546875
260685,0.96929931640625,-0.494384765625,-0.113555908203125
260686,0.950592041015625,-0.43890380859375,-0.2097015380859375
260687,0.8972320556640625,-0.369293212890625,-0.3088531494140625
260688,0.8315582275390625,-0.2692108154296875,-0.3945465087890625
260689,0.785247802734375,-0.1454925537109375,-0.4239349365234375
260690,0.7744293212890625,-0.047088623046875,-0.4070281982421875
260691,0.7978515625,0.025634765625,-0.3572998046875
260692,0.84197998046875,0.059844970703125,-0.2905426025390625
260693,0.8968353271484375,0.0462646484375,-0.2264556884765625
260694,0.944244384765625,-0.02032470703125,-0.1711578369140625
260695,0.9654388427734376,-0.1331939697265625,-0.1390533447265625
260696,0.95556640625,-0.246826171875,-0.1217803955078125
260697,0.9512939453125,-0.3257293701171875,-0.105987548828125
260698,0.98046875,-0.38238525390625,-0.067169189453125
260699,1.023956298828125,-0.4002838134765625,0.0077972412109375
260700,1.088836669921875,-0.38909912109375,0.1457977294921875
260701,1.202880859375,-0.3763580322265625,0.3491973876953125
260702,1.339935302734375,-0.4272613525390625,0.497161865234375
260703,1.4105224609375,-0.5657196044921875,0.45977783203125
260704,1.4412841796875,-0.67974853515625,0.364654541015625
260705,1.263519287109375,-0.959686279296875,0.3552703857421875
260706,1.00933837890625,-1.168258666992188,0.3662567138671875
260707,0.7798004150390625,-1.286895751953125,0.201263427734375
260708,0.509674072265625,-1.2879638671875,0.5412750244140625
260709,0.2509613037109375,-1.072296142578125,1.034942626953125
260710,-0.006805419921875,-0.81109619140625,1.047134399414062
260711,-0.0854644775390625,-0.62286376953125,0.8260955810546875
260712,0.0532684326171875,-0.575469970703125,0.4164276123046875
260713,0.27191162109375,-0.6193084716796875,0.0956573486328125
260714,0.514923095703125,-0.7188568115234375,0.152557373046875
260715,0.7181549072265625,-0.83392333984375,0.457763671875
260716,0.8271636962890625,-0.948455810546875,0.7306976318359375
260717,0.793701171875,-1.012054443359375,0.8119354248046875
260718,0.6594696044921875,-1.017471313476562,0.7144317626953125
260719,0.499725341796875,-0.99774169921875,0.5775146484375
260720,0.333221435546875,-0.92437744140625,0.445526123046875
260721,0.224822998046875,-0.814697265625,0.3413238525390625
260722,0.201995849609375,-0.71832275390625,0.2918243408203125
260723,0.2226409912109375,-0.693267822265625,0.31427001953125
260724,0.26611328125,-0.7316436767578125,0.3675079345703125
260725,0.3257904052734375,-0.767425537109375,0.4257354736328125
260726,0.3701019287109375,-0.796783447265625,0.5015411376953125
260727,0.3760833740234375,-0.8077239990234375,0.5645599365234375
260728,0.3511962890625,-0.7990570068359375,0.5765228271484375
260729,0.320281982421875,-0.7793426513671875,0.5283355712890625
260730,0.30731201171875,-0.75775146484375,0.4381866455078125
260731,0.31793212890625,-0.7391510009765625,0.3429718017578125
260732,0.338470458984375,-0.7150421142578125,0.2865753173828125
260733,0.36285400390625,-0.6807708740234375,0.2838134765625
260734,0.3961639404296875,-0.65643310546875,0.3150482177734375
260735,0.4548797607421875,-0.632415771484375,0.3619384765625
260736,0.5267181396484375,-0.6057586669921875,0.392730712890625
260737,0.5974578857421875,-0.5818328857421875,0.384429931640625
260738,0.65606689453125,-0.561859130859375,0.3647918701171875
260739,0.7040557861328125,-0.5515594482421875,0.342864990234375
260740,0.7492218017578125,-0.554779052734375,0.3248443603515625
260741,0.7900390625,-0.5734710693359375,0.3086090087890625
260742,0.835205078125,-0.591033935546875,0.282196044921875
260743,0.8765411376953125,-0.5882720947265625,0.2715301513671875
260744,0.900177001953125,-0.5586090087890625,0.210662841796875
260745,0.887847900390625,-0.491790771484375,0.11578369140625
260746,0.8475494384765625,-0.3833160400390625,0.0372314453125
260747,0.802337646484375,-0.2491455078125,-0.0140533447265625
260748,0.773162841796875,-0.1178741455078125,-0.049224853515625
260749,0.7702789306640625,-0.0071868896484375,-0.0511016845703125
260750,0.77899169921875,0.06768798828125,-0.046539306640625
260751,0.8016357421875,0.097808837890625,-0.05841064453125
260752,0.831451416015625,0.0690765380859375,-0.0716094970703125
260753,0.8881683349609375,0.013427734375,-0.0638580322265625
260754,0.9645233154296876,-0.067535400390625,-0.03863525390625
260755,1.034713745117188,-0.185089111328125,-0.0233612060546875
260756,1.072738647460938,-0.3141937255859375,-0.0186920166015625
260757,1.058731079101562,-0.413482666015625,-0.0042266845703125
260758,1.000686645507812,-0.4873046875,0.0248260498046875
260759,0.9186553955078124,-0.54241943359375,0.084014892578125
260760,0.8440704345703125,-0.589447021484375,0.186981201171875
260761,0.80767822265625,-0.6430816650390625,0.3167877197265625
260762,0.813323974609375,-0.707763671875,0.4336090087890625
260763,0.8343505859375,-0.790771484375,0.509979248046875
260764,0.8535003662109375,-0.898223876953125,0.50506591796875
260765,0.88427734375,-1.013092041015625,0.4385833740234375
260766,0.9347381591796876,-1.110549926757812,0.3701629638671875
260767,0.9987945556640624,-1.163162231445312,0.3557586669921875
260768,1.071029663085938,-1.154312133789062,0.38348388671875
260769,1.144149780273438,-1.087905883789062,0.3946990966796875
260770,1.210647583007812,-0.9812469482421876,0.393035888671875
260771,1.269775390625,-0.87213134765625,0.368682861328125
260772,1.31536865234375,-0.79034423828125,0.36602783203125
260773,1.3182373046875,-0.7625274658203125,0.4329833984375
260774,1.226852416992188,-0.7843017578125,0.5450592041015625
260775,1.034454345703125,-0.81732177734375,0.680419921875
260776,0.7685089111328125,-0.8543853759765625,0.808502197265625
260777,0.44696044921875,-0.93255615234375,0.8972930908203125
260778,0.0982818603515625,-1.019332885742188,0.928192138671875
260779,-0.225433349609375,-1.040481567382812,0.9167022705078124
260780,-0.434478759765625,-0.990203857421875,0.82769775390625
260781,-0.4991455078125,-0.91900634765625,0.7075958251953125
260782,-0.4517059326171875,-0.8627471923828125,0.5780792236328125
260783,-0.3440399169921875,-0.8183135986328125,0.4462738037109375
260784,-0.23101806640625,-0.7811279296875,0.38470458984375
260785,-0.1022796630859375,-0.780517578125,0.4295196533203125
260786,0.0547027587890625,-0.803375244140625,0.542205810546875
260787,0.2148284912109375,-0.82501220703125,0.6487274169921875
260788,0.3380889892578125,-0.836639404296875,0.7088470458984375
260789,0.4149627685546875,-0.84173583984375,0.6990509033203125
260790,0.4650421142578125,-0.842376708984375,0.6196441650390625
260791,0.493560791015625,-0.8238983154296875,0.495849609375
260792,0.498077392578125,-0.7866973876953125,0.3845672607421875
260793,0.4961700439453125,-0.74017333984375,0.328582763671875
260794,0.512115478515625,-0.6973724365234375,0.3392181396484375
260795,0.55279541015625,-0.6750640869140625,0.3796539306640625
260796,0.618621826171875,-0.670501708984375,0.4127349853515625
260797,0.7032012939453125,-0.669891357421875,0.434906005859375
260798,0.7974090576171875,-0.6644287109375,0.4173583984375
260799,0.8921661376953125,-0.6481170654296875,0.3466949462890625
260800,0.974456787109375,-0.61627197265625,0.2555084228515625
260801,1.0257568359375,-0.5584259033203125,0.1553802490234375
260802,1.022125244140625,-0.470245361328125,0.05706787109375
260803,0.944122314453125,-0.366363525390625,-0.0448455810546875
260804,0.8182525634765625,-0.248748779296875,-0.1184539794921875
260805,0.72064208984375,-0.110076904296875,-0.1390228271484375
260806,0.6878662109375,0.0207061767578125,-0.156402587890625
260807,0.6798858642578125,0.1040496826171875,-0.1982421875
260808,0.7179412841796875,0.20538330078125,-0.221710205078125
260809,0.7686920166015625,0.2469024658203125,-0.2284393310546875
260810,0.827789306640625,0.2469482421875,-0.22125244140625
260811,0.90155029296875,0.22119140625,-0.1826171875
260812,0.9776458740234376,0.13714599609375,-0.1162567138671875
260813,1.06536865234375,-0.0187530517578125,-0.033416748046875
260814,1.15045166015625,-0.1971435546875,0.0325775146484375
260815,1.198684692382812,-0.3101654052734375,0.0457611083984375
260816,1.232681274414062,-0.387054443359375,0.05279541015625
260817,1.281661987304688,-0.4350433349609375,0.08245849609375
260818,1.338180541992188,-0.4680938720703125,0.1016693115234375
260819,1.383956909179688,-0.5101318359375,0.177520751953125
260820,1.425750732421875,-0.58148193359375,0.249786376953125
260821,1.437103271484375,-0.724334716796875,0.28521728515625
260822,1.35491943359375,-0.9601287841796876,0.3341217041015625
260823,1.235122680664062,-1.160140991210938,0.4105377197265625
260824,1.059127807617188,-1.35211181640625,0.4324951171875
260825,0.813507080078125,-1.47052001953125,0.3874969482421875
260826,0.529327392578125,-1.424057006835938,0.322021484375
260827,0.225311279296875,-1.190994262695312,0.55291748046875
260828,-0.00048828125,-0.9014739990234376,0.8634185791015625
260829,-0.0821990966796875,-0.776763916015625,0.87109375
260830,0.044769287109375,-0.8035736083984375,0.643585205078125
260831,0.2881317138671875,-0.9164276123046876,0.427490234375
260832,0.5035552978515625,-1.032058715820312,0.3324737548828125
260833,0.614898681640625,-1.11419677734375,0.388397216796875
260834,0.6039276123046875,-1.15057373046875,0.50390625
260835,0.51123046875,-1.102920532226562,0.539947509765625
260836,0.4052886962890625,-0.9889678955078124,0.5249481201171875
260837,0.3370513916015625,-0.8469696044921875,0.4901123046875
260838,0.3155364990234375,-0.7179718017578125,0.4040069580078125
260839,0.2898101806640625,-0.652069091796875,0.2912139892578125
260840,0.249053955078125,-0.675048828125,0.19403076171875
260841,0.2263946533203125,-0.748870849609375,0.1424713134765625
260842,0.2265472412109375,-0.8178253173828125,0.1939544677734375
260843,0.2297515869140625,-0.86328125,0.3311309814453125
260844,0.23028564453125,-0.887115478515625,0.4735260009765625
260845,0.239501953125,-0.878204345703125,0.57757568359375
260846,0.25799560546875,-0.8428955078125,0.62176513671875
260847,0.28802490234375,-0.7978363037109375,0.592315673828125
260848,0.3293304443359375,-0.7603302001953125,0.501434326171875
260849,0.3656463623046875,-0.7310791015625,0.3837738037109375
260850,0.375244140625,-0.7148284912109375,0.2830047607421875
260851,0.3749237060546875,-0.721832275390625,0.256988525390625
260852,0.393951416015625,-0.7314910888671875,0.3267059326171875
260853,0.4385986328125,-0.72589111328125,0.4292755126953125
260854,0.4976043701171875,-0.70458984375,0.495269775390625
260855,0.5646209716796875,-0.6708526611328125,0.501617431640625
260856,0.6425628662109375,-0.63250732421875,0.480224609375
260857,0.7196807861328125,-0.5963134765625,0.4361724853515625
260858,0.7711334228515625,-0.5683135986328125,0.3552703857421875
260859,0.7895965576171875,-0.536865234375,0.2891693115234375
260860,0.7921142578125,-0.497283935546875,0.2520599365234375
260861,0.7808074951171875,-0.446075439453125,0.20941162109375
260862,0.7657012939453125,-0.3675689697265625,0.1350860595703125
260863,0.7652130126953125,-0.251617431640625,0.063507080078125
260864,0.78985595703125,-0.124267578125,0.01971435546875
260865,0.836517333984375,-0.0159454345703125,-0.037567138671875
260866,0.862762451171875,0.0579071044921875,-0.0777435302734375
260867,0.8336334228515625,0.0595550537109375,-0.1268310546875
260868,0.7972869873046875,0.0393524169921875,-0.1689910888671875
260869,0.817413330078125,0.043670654296875,-0.14544677734375
260870,0.874359130859375,0.0376434326171875,-0.09332275390625
260871,0.931915283203125,-0.0059661865234375,-0.055908203125
260872,0.995697021484375,-0.1015167236328125,-0.0732879638671875
260873,1.068145751953125,-0.2565765380859375,-0.121612548828125
260874,1.110885620117188,-0.39166259765625,-0.1620330810546875
260875,1.113113403320312,-0.4891815185546875,-0.163787841796875
260876,1.091400146484375,-0.549774169921875,-0.09228515625
260877,1.07220458984375,-0.5863037109375,0.003509521484375
260878,1.06549072265625,-0.6423492431640625,0.1065521240234375
260879,1.052200317382812,-0.767791748046875,0.196624755859375
260880,1.05206298828125,-0.917327880859375,0.2666168212890625
260881,1.124160766601562,-1.027862548828125,0.319610595703125
260882,1.202377319335938,-1.157135009765625,0.3335113525390625
260883,1.243423461914062,-1.254241943359375,0.3409423828125
260884,1.22509765625,-1.295501708984375,0.3468780517578125
260885,1.117401123046875,-1.28955078125,0.4028167724609375
260886,0.946319580078125,-1.224014282226562,0.5344085693359375
260887,0.7867431640625,-1.12457275390625,0.646697998046875
260888,0.671905517578125,-1.016265869140625,0.6534881591796875
260889,0.598480224609375,-0.913665771484375,0.5332489013671875
260890,0.5741119384765625,-0.858367919921875,0.3631134033203125
260891,0.5742950439453125,-0.855438232421875,0.290863037109375
260892,0.5439605712890625,-0.87152099609375,0.38671875
260893,0.478759765625,-0.8895721435546875,0.6007843017578125
260894,0.3730010986328125,-0.9263916015625,0.8029632568359375
260895,0.2437591552734375,-0.9280853271484376,0.899566650390625
260896,0.15289306640625,-0.8619232177734375,0.9141082763671876
260897,0.10107421875,-0.7856903076171875,0.847137451171875
260898,0.053680419921875,-0.7380828857421875,0.7010498046875
260899,0.0095672607421875,-0.72723388671875,0.5228424072265625
260900,-0.0209197998046875,-0.740447998046875,0.388946533203125
260901,-0.018768310546875,-0.77264404296875,0.375091552734375
260902,0.042236328125,-0.8151092529296875,0.494720458984375
260903,0.1543121337890625,-0.8456268310546875,0.6418304443359375
260904,0.2840728759765625,-0.8540802001953125,0.6993408203125
260905,0.3874969482421875,-0.8438873291015625,0.653717041015625
260906,0.4600830078125,-0.824676513671875,0.5406494140625
260907,0.5128936767578125,-0.8046722412109375,0.407379150390625
260908,0.550323486328125,-0.7857818603515625,0.3042144775390625
260909,0.586639404296875,-0.7697601318359375,0.2516021728515625
260910,0.629638671875,-0.751861572265625,0.253692626953125
260911,0.684234619140625,-0.72796630859375,0.2935638427734375
260912,0.7554779052734375,-0.71142578125,0.340057373046875
260913,0.8419952392578125,-0.70428466796875,0.3640899658203125
260914,0.91839599609375,-0.69970703125,0.3605804443359375
260915,0.9691925048828124,-0.6920013427734375,0.326324462890625
260916,0.98516845703125,-0.672576904296875,0.27392578125
260917,0.97174072265625,-0.640350341796875,0.1880340576171875
260918,0.9343109130859376,-0.5817413330078125,0.090057373046875
260919,0.865203857421875,-0.5020904541015625,-0.0010223388671875
260920,0.7645721435546875,-0.3996429443359375,-0.0753631591796875
260921,0.6688079833984375,-0.2675323486328125,-0.1002960205078125
260922,0.62786865234375,-0.1296539306640625,-0.0846405029296875
260923,0.6357269287109375,-0.012664794921875,-0.076568603515625
260924,0.6644134521484375,0.0853424072265625,-0.1124420166015625
260925,0.68817138671875,0.1553497314453125,-0.1395111083984375
260926,0.710784912109375,0.2046356201171875,-0.131439208984375
260927,0.7655792236328125,0.215240478515625,-0.0828857421875
260928,0.858795166015625,0.175872802734375,-0.021728515625
260929,0.9662322998046876,0.082366943359375,0.0190582275390625
260930,1.062332153320312,-0.0805511474609375,0.0259857177734375
260931,1.11712646484375,-0.252197265625,0.0442352294921875
260932,1.14556884765625,-0.37847900390625,0.0748748779296875
260933,1.19219970703125,-0.483856201171875,0.0709381103515625
260934,1.253753662109375,-0.558380126953125,0.0743408203125
260935,1.316513061523438,-0.601776123046875,0.15057373046875
260936,1.382614135742188,-0.651214599609375,0.1925201416015625
260937,1.435256958007812,-0.742828369140625,0.183135986328125
260938,1.435760498046875,-0.894683837890625,0.224853515625
260939,1.319595336914062,-1.11376953125,0.28662109375
260940,1.092117309570312,-1.308029174804688,0.277099609375
260941,0.817535400390625,-1.40911865234375,0.200164794921875
260942,0.504608154296875,-1.365005493164062,0.2005462646484375
260943,0.2670135498046875,-1.090850830078125,0.2992095947265625
260944,0.1825408935546875,-0.8896636962890625,0.5540924072265625
260945,0.2020111083984375,-0.85760498046875,0.8012847900390625
260946,0.27813720703125,-0.893798828125,0.7932281494140625
260947,0.4297027587890625,-0.9894256591796876,0.6680908203125
260948,0.563323974609375,-1.14483642578125,0.555694580078125
260949,0.5813446044921875,-1.280059814453125,0.491485595703125
260950,0.48321533203125,-1.309127807617188,0.4944000244140625
260951,0.360260009765625,-1.234573364257812,0.5206146240234375
260952,0.2727813720703125,-1.100204467773438,0.5042877197265625
260953,0.233245849609375,-0.9344329833984376,0.4509735107421875
260954,0.25421142578125,-0.7679595947265625,0.3554534912109375
260955,0.3164520263671875,-0.64453125,0.2313690185546875
260956,0.35955810546875,-0.5960845947265625,0.13134765625
260957,0.3577117919921875,-0.61767578125,0.1281890869140625
260958,0.3457794189453125,-0.686309814453125,0.22650146484375
260959,0.3694000244140625,-0.753204345703125,0.3506011962890625
260960,0.4148406982421875,-0.79010009765625,0.4716033935546875
260961,0.4629364013671875,-0.7942352294921875,0.5514373779296875
260962,0.4943389892578125,-0.7740936279296875,0.542449951171875
260963,0.4854736328125,-0.75,0.4595489501953125
260964,0.4569244384765625,-0.7252655029296875,0.3447265625
260965,0.448089599609375,-0.695709228515625,0.2731475830078125
260966,0.4560546875,-0.66461181640625,0.2853240966796875
260967,0.45684814453125,-0.647979736328125,0.311370849609375
260968,0.44256591796875,-0.6360015869140625,0.3408050537109375
260969,0.4333343505859375,-0.61541748046875,0.3855743408203125
260970,0.44122314453125,-0.594970703125,0.42333984375
260971,0.4490509033203125,-0.58343505859375,0.404510498046875
260972,0.4575347900390625,-0.5833892822265625,0.34326171875
260973,0.4752655029296875,-0.59405517578125,0.3160858154296875
260974,0.518890380859375,-0.6195220947265625,0.3099365234375
260975,0.5969696044921875,-0.6535491943359375,0.3248748779296875
260976,0.70208740234375,-0.681060791015625,0.3542938232421875
260977,0.8075408935546875,-0.6951446533203125,0.3505096435546875
260978,0.88671875,-0.686492919921875,0.3011932373046875
260979,0.9207305908203124,-0.6400909423828125,0.2162017822265625
260980,0.9075775146484376,-0.54644775390625,0.1012115478515625
260981,0.8705902099609375,-0.4060211181640625,0.000823974609375
260982,0.8336334228515625,-0.2403411865234375,-0.045684814453125
260983,0.796142578125,-0.104095458984375,-0.08062744140625
260984,0.7358856201171875,-0.0401458740234375,-0.128173828125
260985,0.6873779296875,-0.0012359619140625,-0.144561767578125
260986,0.7151641845703125,0.0662384033203125,-0.1357421875
260987,0.80535888671875,0.1429595947265625,-0.115692138671875
260988,0.8982391357421875,0.1815338134765625,-0.0703887939453125
260989,0.965667724609375,0.1587066650390625,-0.0247650146484375
260990,1.022476196289062,0.0533447265625,0.0061492919921875
260991,1.054916381835938,-0.1352996826171875,0.011474609375
260992,1.05401611328125,-0.3212890625,0.0194854736328125
260993,1.039337158203125,-0.4632568359375,0.0414276123046875
260994,1.005386352539062,-0.5506591796875,0.0555572509765625
260995,0.9365234375,-0.61749267578125,0.0681304931640625
260996,0.8905487060546875,-0.6190185546875,0.133941650390625
260997,0.8985748291015625,-0.6304931640625,0.2579345703125
260998,0.926849365234375,-0.725982666015625,0.37835693359375
260999,0.961669921875,-0.867828369140625,0.4716949462890625
261000,0.9791259765625,-1.021331787109375,0.49658203125
261001,0.94970703125,-1.166458129882812,0.5084228515625
261002,0.9052734375,-1.246246337890625,0.5713348388671875
261003,0.8929595947265625,-1.241775512695312,0.6489410400390625
261004,0.91534423828125,-1.193374633789062,0.6592559814453125
261005,0.96337890625,-1.116455078125,0.5643463134765625
261006,1.0245361328125,-1.024627685546875,0.393280029296875
261007,1.077560424804688,-0.9449462890625,0.289764404296875
261008,1.080093383789062,-0.8898468017578125,0.3765869140625
261009,0.9871063232421876,-0.868682861328125,0.5966644287109375
261010,0.809906005859375,-0.8699951171875,0.82452392578125
261011,0.5928192138671875,-0.8967132568359375,0.9898681640625
261012,0.36700439453125,-0.938873291015625,1.013778686523438
261013,0.136688232421875,-0.951324462890625,0.9077301025390624
261014,-0.07708740234375,-0.895843505859375,0.7642822265625
261015,-0.2193756103515625,-0.802978515625,0.643341064453125
261016,-0.2868804931640625,-0.7230377197265625,0.5662841796875
261017,-0.290191650390625,-0.6848602294921875,0.50360107421875
261018,-0.2345428466796875,-0.6868743896484375,0.4462890625
261019,-0.1408233642578125,-0.7193450927734375,0.4474639892578125
261020,-0.0219573974609375,-0.77789306640625,0.536376953125
261021,0.134735107421875,-0.827178955078125,0.683685302734375
261022,0.3094482421875,-0.8459625244140625,0.8047332763671875
261023,0.456573486328125,-0.843780517578125,0.8214111328125
261024,0.5506439208984375,-0.8349609375,0.716766357421875
261025,0.5926971435546875,-0.8180389404296875,0.5596466064453125
261026,0.5993499755859375,-0.793731689453125,0.41424560546875
261027,0.5976409912109375,-0.764068603515625,0.297607421875
261028,0.612518310546875,-0.7305908203125,0.23187255859375
261029,0.6511077880859375,-0.7022857666015625,0.233428955078125
261030,0.7031402587890625,-0.6780548095703125,0.27313232421875
261031,0.764923095703125,-0.6528778076171875,0.322174072265625
261032,0.8376312255859375,-0.6334381103515625,0.337188720703125
261033,0.9133758544921876,-0.6209869384765625,0.2869415283203125
261034,0.978240966796875,-0.6125335693359375,0.206756591796875
261035,1.015945434570312,-0.5942230224609375,0.10589599609375
261036,1.000595092773438,-0.5537109375,-0.0118865966796875
261037,0.9190521240234376,-0.4939117431640625,-0.1064300537109375
261038,0.800750732421875,-0.427764892578125,-0.1577606201171875
261039,0.701263427734375,-0.3420867919921875,-0.1747589111328125
261040,0.6475830078125,-0.2385711669921875,-0.1812286376953125
261041,0.6416473388671875,-0.1336212158203125,-0.204925537109375
261042,0.6598358154296875,-0.053863525390625,-0.2164764404296875
261043,0.690032958984375,-0.008941650390625,-0.2072906494140625
261044,0.7389678955078125,0.0068511962890625,-0.1847381591796875
261045,0.8127899169921875,-0.0238037109375,-0.139495849609375
261046,0.904266357421875,-0.1248321533203125,-0.070526123046875
261047,0.9799041748046876,-0.262451171875,-0.0020294189453125
261048,1.027389526367188,-0.3565521240234375,0.0447540283203125
261049,1.084182739257812,-0.433135986328125,0.0672760009765625
261050,1.163284301757812,-0.5018157958984375,0.0858154296875
261051,1.235260009765625,-0.5394744873046875,0.138671875
261052,1.284622192382812,-0.5466766357421875,0.22198486328125
261053,1.322402954101562,-0.5534210205078125,0.3295135498046875
261054,1.345550537109375,-0.5876007080078125,0.412445068359375
261055,1.3001708984375,-0.70819091796875,0.38232421875
261056,1.185516357421875,-0.87115478515625,0.33062744140625
261057,1.0552978515625,-1.0281982421875,0.3515472412109375
261058,0.886810302734375,-1.165130615234375,0.372528076171875
261059,0.7096405029296875,-1.217117309570312,0.32232666015625
261060,0.501708984375,-1.189651489257812,0.3830718994140625
261061,0.2881927490234375,-1.022659301757812,0.6979522705078125
261062,0.139190673828125,-0.848602294921875,0.8738250732421875
261063,0.1271820068359375,-0.7850189208984375,0.7962188720703125
261064,0.2295989990234375,-0.8053436279296875,0.5788726806640625
261065,0.356903076171875,-0.8766937255859375,0.4090118408203125
261066,0.4785614013671875,-0.9608306884765624,0.3730621337890625
261067,0.560638427734375,-1.021591186523438,0.4410247802734375
261068,0.5656280517578125,-1.04791259765625,0.518310546875
261069,0.505126953125,-1.02398681640625,0.536407470703125
261070,0.424652099609375,-0.9539337158203124,0.5130767822265625
261071,0.3634185791015625,-0.8600616455078125,0.4904937744140625
261072,0.3375091552734375,-0.7719268798828125,0.43426513671875
261073,0.35150146484375,-0.706329345703125,0.3052215576171875
261074,0.3840179443359375,-0.6708526611328125,0.160675048828125
261075,0.40618896484375,-0.6788330078125,0.10009765625
261076,0.4210357666015625,-0.714385986328125,0.137786865234375
261077,0.4458465576171875,-0.742034912109375,0.2141265869140625
261078,0.4666748046875,-0.758697509765625,0.3011322021484375
261079,0.4617156982421875,-0.7742462158203125,0.4048614501953125
261080,0.444610595703125,-0.793487548828125,0.4778289794921875
261081,0.4239959716796875,-0.80755615234375,0.4810943603515625
261082,0.3943634033203125,-0.8121795654296875,0.4343109130859375
261083,0.3617401123046875,-0.8144683837890625,0.365203857421875
261084,0.3365325927734375,-0.818359375,0.312896728515625
261085,0.3154144287109375,-0.81475830078125,0.304107666015625
261086,0.2980194091796875,-0.8011474609375,0.3296661376953125
261087,0.2960205078125,-0.7872161865234375,0.364837646484375
261088,0.3137969970703125,-0.76953125,0.4033050537109375
261089,0.3480224609375,-0.7537841796875,0.4105987548828125
261090,0.39599609375,-0.7422637939453125,0.37384033203125
261091,0.457275390625,-0.73583984375,0.35223388671875
261092,0.5358123779296875,-0.734161376953125,0.3423004150390625
261093,0.6332855224609375,-0.7424163818359375,0.3041534423828125
261094,0.7484893798828125,-0.746002197265625,0.2307586669921875
261095,0.86383056640625,-0.73291015625,0.1147613525390625
261096,0.9472198486328124,-0.69110107421875,-0.032501220703125
261097,0.97540283203125,-0.610443115234375,-0.18536376953125
261098,0.9604644775390624,-0.480316162109375,-0.294586181640625
261099,0.9130859375,-0.3410797119140625,-0.283721923828125
261100,0.8443145751953125,-0.2407073974609375,-0.2579345703125
261101,0.8548583984375,-0.0742340087890625,-0.23773193359375
261102,0.8951873779296875,0.0491943359375,-0.1987152099609375
261103,0.94476318359375,0.1178131103515625,-0.18878173828125
261104,1.004562377929688,0.1554718017578125,-0.1594085693359375
261105,1.055465698242188,0.12371826171875,-0.1161041259765625
261106,1.05206298828125,-0.0262603759765625,-0.0726470947265625
261107,0.9781646728515624,-0.1900177001953125,-0.055023193359375
261108,0.9068450927734376,-0.3040618896484375,-0.064697265625
261109,0.884124755859375,-0.3849945068359375,-0.0714111328125
261110,0.8830718994140625,-0.426025390625,-0.0635528564453125
261111,0.880523681640625,-0.458038330078125,-0.0233154296875
261112,0.8842315673828125,-0.4840087890625,0.033905029296875
261113,0.9064483642578124,-0.501556396484375,0.1129913330078125
261114,0.9304962158203124,-0.55181884765625,0.23687744140625
261115,0.9642486572265624,-0.6320343017578125,0.3620452880859375
261116,1.063247680664062,-0.67755126953125,0.4559326171875
261117,1.111083984375,-0.804168701171875,0.5030059814453125
261118,1.043777465820312,-0.9640655517578124,0.549957275390625
261119,0.8874969482421875,-1.112396240234375,0.545013427734375
261120,0.6877288818359375,-1.230178833007812,0.5911712646484375
261121,0.5317535400390625,-1.241607666015625,0.6521453857421875
261122,0.461029052734375,-1.187576293945312,0.523162841796875
261123,0.4907379150390625,-1.132797241210938,0.2668609619140625
261124,0.622589111328125,-1.055206298828125,0.0576171875
261125,0.8013763427734375,-0.961822509765625,0.005889892578125
261126,0.9491424560546876,-0.88238525390625,0.1246490478515625
261127,1.008270263671875,-0.822601318359375,0.3939971923828125
261128,0.9731903076171876,-0.7948455810546875,0.7184295654296875
261129,0.880340576171875,-0.7993927001953125,0.9777069091796876
261130,0.7589263916015625,-0.8455810546875,1.02825927734375
261131,0.5998382568359375,-0.9163665771484376,0.8854217529296875
261132,0.3915252685546875,-0.960693359375,0.693023681640625
261133,0.1622161865234375,-0.972015380859375,0.561737060546875
261134,-0.0620574951171875,-0.9467620849609376,0.5144195556640625
261135,-0.2520904541015625,-0.9079742431640624,0.5006103515625
261136,-0.3818511962890625,-0.89508056640625,0.52520751953125
261137,-0.4339599609375,-0.911895751953125,0.5836334228515625
261138,-0.3931427001953125,-0.915863037109375,0.6585693359375
261139,-0.276458740234375,-0.8759918212890625,0.733123779296875
261140,-0.1239776611328125,-0.8212738037109375,0.736114501953125
261141,0.032012939453125,-0.7723541259765625,0.66546630859375
261142,0.18389892578125,-0.7371673583984375,0.5691375732421875
261143,0.337615966796875,-0.7251129150390625,0.4684600830078125
261144,0.4963531494140625,-0.72607421875,0.3744354248046875
261145,0.6553192138671875,-0.723602294921875,0.3094940185546875
261146,0.8155975341796875,-0.7119293212890625,0.2856292724609375
261147,0.96270751953125,-0.699951171875,0.3020172119140625
261148,1.094329833984375,-0.6957550048828125,0.33038330078125
261149,1.203826904296875,-0.6971435546875,0.3155059814453125
261150,1.27520751953125,-0.6949005126953125,0.2436370849609375
261151,1.297927856445312,-0.6867828369140625,0.13995361328125
261152,1.26141357421875,-0.663360595703125,0.0314788818359375
261153,1.16534423828125,-0.6232452392578125,-0.047393798828125
261154,1.018203735351562,-0.5780181884765625,-0.114501953125
261155,0.8529815673828125,-0.5308074951171875,-0.1876068115234375
261156,0.7841949462890625,-0.421630859375,-0.21600341796875
261157,0.81036376953125,-0.29571533203125,-0.22247314453125
261158,0.8396759033203125,-0.17950439453125,-0.2652130126953125
261159,0.8488311767578125,-0.072174072265625,-0.3220977783203125
261160,0.847442626953125,-0.0019989013671875,-0.345916748046875
261161,0.8505859375,0.0081329345703125,-0.328155517578125
261162,0.882080078125,-0.0298309326171875,-0.2882232666015625
261163,0.9445953369140624,-0.12298583984375,-0.229888916015625
261164,1.002059936523438,-0.2677459716796875,-0.173828125
261165,1.0335693359375,-0.3913421630859375,-0.1396026611328125
261166,1.062850952148438,-0.5023345947265625,-0.095947265625
261167,1.092132568359375,-0.58056640625,-0.0147857666015625
261168,1.113784790039062,-0.6102294921875,0.09820556640625
261169,1.144119262695312,-0.5973968505859375,0.20477294921875
261170,1.213180541992188,-0.572845458984375,0.269195556640625
261171,1.302215576171875,-0.56988525390625,0.29864501953125
261172,1.2926025390625,-0.6631927490234375,0.2576446533203125
261173,1.158172607421875,-0.786651611328125,0.2052764892578125
261174,0.9807586669921876,-0.874114990234375,0.2753448486328125
261175,0.70867919921875,-1.053268432617188,0.4263153076171875
261176,0.4755706787109375,-1.159225463867188,0.49224853515625
261177,0.2890777587890625,-1.189987182617188,0.525634765625
261178,0.1261138916015625,-1.0887451171875,0.854888916015625
261179,0.0269775390625,-0.90179443359375,1.013748168945312
261180,0.0075531005859375,-0.798004150390625,0.7551116943359375
261181,0.100830078125,-0.7427520751953125,0.428680419921875
261182,0.2444000244140625,-0.7251739501953125,0.1929931640625
261183,0.38116455078125,-0.753326416015625,0.1255645751953125
261184,0.4734954833984375,-0.7928466796875,0.2393341064453125
261185,0.517791748046875,-0.81854248046875,0.409759521484375
261186,0.5204620361328125,-0.826751708984375,0.5386810302734375
261187,0.498565673828125,-0.821624755859375,0.5493011474609375
261188,0.4586029052734375,-0.79840087890625,0.453369140625
261189,0.400970458984375,-0.755218505859375,0.362213134765625
261190,0.3526458740234375,-0.704315185546875,0.292816162109375
261191,0.342803955078125,-0.654022216796875,0.2003631591796875
261192,0.360443115234375,-0.619140625,0.1279754638671875
261193,0.37713623046875,-0.6322479248046875,0.1544189453125
261194,0.3929290771484375,-0.66192626953125,0.238189697265625
261195,0.4295654296875,-0.70233154296875,0.3102264404296875
261196,0.4694976806640625,-0.7453460693359375,0.37799072265625
261197,0.4842071533203125,-0.7804718017578125,0.4520721435546875
261198,0.4719085693359375,-0.8056640625,0.5075531005859375
261199,0.4437103271484375,-0.8218994140625,0.4985504150390625
261200,0.4074859619140625,-0.8298492431640625,0.4304046630859375
261201,0.37841796875,-0.8244171142578125,0.35675048828125
261202,0.368011474609375,-0.8066253662109375,0.3014678955078125
261203,0.3683013916015625,-0.7799835205078125,0.2729949951171875
261204,0.3725433349609375,-0.75543212890625,0.28948974609375
261205,0.3945770263671875,-0.7373046875,0.34539794921875
261206,0.432220458984375,-0.7236175537109375,0.424285888671875
261207,0.4979248046875,-0.7120819091796875,0.48974609375
261208,0.586517333984375,-0.7070770263671875,0.507965087890625
261209,0.6954803466796875,-0.710540771484375,0.4637908935546875
261210,0.81158447265625,-0.7151031494140625,0.395782470703125
261211,0.9175262451171876,-0.712371826171875,0.2959747314453125
261212,0.99346923828125,-0.6777496337890625,0.1486358642578125
261213,1.033859252929688,-0.599029541015625,-0.0155029296875
261214,1.0797119140625,-0.475494384765625,-0.18133544921875
261215,1.141647338867188,-0.3386688232421875,-0.289459228515625
261216,1.1463623046875,-0.28216552734375,-0.3608551025390625
261217,1.1141357421875,-0.222869873046875,-0.389892578125
261218,1.104354858398438,-0.0646514892578125,-0.34930419921875
261219,1.082534790039062,0.0972747802734375,-0.313568115234375
261220,1.055496215820312,0.195526123046875,-0.2673187255859375
261221,1.055557250976562,0.2204437255859375,-0.19549560546875
261222,1.074386596679688,0.1543731689453125,-0.140472412109375
261223,1.058639526367188,-0.029144287109375,-0.1139984130859375
261224,0.983856201171875,-0.237213134765625,-0.109283447265625
261225,0.9128265380859376,-0.3820037841796875,-0.1136016845703125
261226,0.88079833984375,-0.4840850830078125,-0.1379241943359375
261227,0.8758392333984375,-0.531097412109375,-0.13916015625
261228,0.90478515625,-0.539031982421875,-0.0591583251953125
261229,0.9559478759765624,-0.5433349609375,0.04022216796875
261230,1.014663696289062,-0.5520782470703125,0.1358795166015625
261231,1.064834594726562,-0.5901031494140625,0.255584716796875
261232,1.048904418945312,-0.714935302734375,0.3607635498046875
261233,1.043746948242188,-0.779998779296875,0.4436798095703125
261234,1.009368896484375,-0.8745574951171875,0.4918975830078125
261235,0.910400390625,-1.029266357421875,0.5422515869140625
261236,0.811248779296875,-1.164642333984375,0.5897979736328125
261237,0.7158966064453125,-1.288482666015625,0.6178131103515625
261238,0.61334228515625,-1.31622314453125,0.6369781494140625
261239,0.5404205322265625,-1.23468017578125,0.478668212890625
261240,0.5657196044921875,-1.102264404296875,0.218902587890625
261241,0.711212158203125,-0.9821929931640624,0.0249176025390625
261242,0.8594818115234375,-0.904022216796875,-0.034820556640625
261243,0.884429931640625,-0.8576812744140625,0.1004486083984375
261244,0.763031005859375,-0.8328094482421875,0.440948486328125
261245,0.59173583984375,-0.8484954833984375,0.8368072509765625
261246,0.4276580810546875,-0.902435302734375,1.076568603515625
261247,0.2930145263671875,-0.951507568359375,1.082748413085938
261248,0.1626129150390625,-0.97320556640625,0.939239501953125
261249,0.0092620849609375,-0.9573516845703124,0.7412567138671875
261250,-0.1506195068359375,-0.916778564453125,0.5292510986328125
261251,-0.280975341796875,-0.8610992431640625,0.37200927734375
261252,-0.359375,-0.816253662109375,0.300506591796875
261253,-0.349884033203125,-0.78228759765625,0.3417510986328125
261254,-0.2439422607421875,-0.7361297607421875,0.46856689453125
261255,-0.0785369873046875,-0.687591552734375,0.613616943359375
261256,0.13018798828125,-0.658782958984375,0.7155609130859375
261257,0.348602294921875,-0.654022216796875,0.742767333984375
261258,0.54571533203125,-0.6713714599609375,0.6639404296875
261259,0.702362060546875,-0.6988983154296875,0.5077362060546875
261260,0.815948486328125,-0.7227630615234375,0.334808349609375
261261,0.8813018798828125,-0.7307891845703125,0.2148895263671875
261262,0.9099273681640624,-0.718475341796875,0.1833953857421875
261263,0.9274749755859376,-0.6963348388671875,0.2167510986328125
261264,0.9477691650390624,-0.680816650390625,0.274444580078125
261265,0.9736328125,-0.6740570068359375,0.3084259033203125
261266,1.00018310546875,-0.66998291015625,0.2886962890625
261267,1.033401489257812,-0.66082763671875,0.2182159423828125
261268,1.06036376953125,-0.644805908203125,0.1171722412109375
261269,1.063095092773438,-0.61663818359375,0.0216217041015625
261270,1.008865356445312,-0.5613555908203125,-0.0496826171875
261271,0.897491455078125,-0.4857635498046875,-0.08514404296875
261272,0.783782958984375,-0.4101715087890625,-0.0813446044921875
261273,0.734161376953125,-0.3196258544921875,-0.0938568115234375
261274,0.7252197265625,-0.229339599609375,-0.1455230712890625
261275,0.7272186279296875,-0.142578125,-0.2195892333984375
261276,0.7548828125,-0.0299835205078125,-0.2558135986328125
261277,0.798065185546875,0.0564117431640625,-0.2502899169921875
261278,0.8449249267578125,0.076080322265625,-0.2172088623046875
261279,0.89862060546875,0.02984619140625,-0.1605224609375
261280,0.9554595947265624,-0.0926055908203125,-0.09796142578125
261281,0.999603271484375,-0.2670440673828125,-0.025421142578125
261282,1.041610717773438,-0.39874267578125,0.0135345458984375
261283,1.09136962890625,-0.4851837158203125,-0.0020599365234375
261284,1.12725830078125,-0.545623779296875,-0.015350341796875
261285,1.153640747070312,-0.57720947265625,0.013641357421875
261286,1.185699462890625,-0.587127685546875,0.0534820556640625
261287,1.229507446289062,-0.5943450927734375,0.070281982421875
261288,1.261505126953125,-0.6233062744140625,0.0973968505859375
261289,1.256988525390625,-0.7136993408203125,0.14520263671875
261290,1.1748046875,-0.91741943359375,0.225494384765625
261291,1.088302612304688,-1.08367919921875,0.3671875
261292,1.030303955078125,-1.206146240234375,0.4033660888671875
261293,0.8808441162109375,-1.33001708984375,0.28204345703125
261294,0.6387939453125,-1.309646606445312,0.116607666015625
261295,0.33050537109375,-1.145401000976562,0.271087646484375
261296,0.10101318359375,-0.9174346923828124,0.630096435546875
261297,-0.023651123046875,-0.796417236328125,0.7674713134765625
261298,-0.016082763671875,-0.790557861328125,0.665618896484375
261299,0.1031341552734375,-0.85357666015625,0.5381317138671875
261300,0.2359161376953125,-0.9254150390625,0.4302215576171875
261301,0.329925537109375,-0.9782257080078124,0.334442138671875
261302,0.3759765625,-0.989776611328125,0.322357177734375
261303,0.38287353515625,-0.9549102783203124,0.351409912109375
261304,0.3751983642578125,-0.8815155029296875,0.359649658203125
261305,0.3756103515625,-0.7915496826171875,0.3468017578125
261306,0.3874359130859375,-0.6847381591796875,0.320556640625
261307,0.3870086669921875,-0.5947265625,0.290496826171875
261308,0.3644561767578125,-0.5869598388671875,0.275054931640625
261309,0.356353759765625,-0.6547393798828125,0.2619476318359375
261310,0.405426025390625,-0.7307891845703125,0.2381591796875
261311,0.48876953125,-0.773956298828125,0.2286529541015625
261312,0.5482025146484375,-0.780792236328125,0.26812744140625
261313,0.5721588134765625,-0.7673492431640625,0.3421478271484375
261314,0.5722198486328125,-0.7407684326171875,0.3959503173828125
261315,0.5504150390625,-0.714996337890625,0.417236328125
261316,0.5316162109375,-0.691192626953125,0.3863525390625
261317,0.53924560546875,-0.6703643798828125,0.3265228271484375
261318,0.5487518310546875,-0.6666412353515625,0.275054931640625
261319,0.538238525390625,-0.6843109130859375,0.2681427001953125
261320,0.5134735107421875,-0.7085113525390625,0.3076171875
261321,0.504974365234375,-0.725128173828125,0.37249755859375
261322,0.5262451171875,-0.72991943359375,0.436798095703125
261323,0.569793701171875,-0.72442626953125,0.470947265625
261324,0.6307830810546875,-0.7155609130859375,0.44683837890625
261325,0.70770263671875,-0.7052764892578125,0.391632080078125
261326,0.793182373046875,-0.6875,0.3376617431640625
261327,0.859771728515625,-0.6658935546875,0.2900390625
261328,0.9022216796875,-0.629241943359375,0.2432403564453125
261329,0.9243011474609376,-0.570831298828125,0.2117462158203125
261330,0.9503631591796876,-0.4828338623046875,0.175506591796875
261331,0.9850616455078124,-0.3622894287109375,0.14324951171875
261332,1.014175415039062,-0.2449798583984375,0.066802978515625
261333,0.9793701171875,-0.177581787109375,-0.0412750244140625
261334,0.863189697265625,-0.1562042236328125,-0.1300048828125
261335,0.764495849609375,-0.100372314453125,-0.1826019287109375
261336,0.72479248046875,-0.0130615234375,-0.169891357421875
261337,0.7037811279296875,0.0449371337890625,-0.1378173828125
261338,0.7053375244140625,0.0602874755859375,-0.1172332763671875
261339,0.73651123046875,0.024993896484375,-0.073577880859375
261340,0.7960662841796875,-0.0742340087890625,-0.0281524658203125
261341,0.8684539794921875,-0.25115966796875,-0.032012939453125
261342,0.93280029296875,-0.440216064453125,-0.062103271484375
261343,1.00164794921875,-0.5848541259765625,-0.073211669921875
261344,1.081695556640625,-0.687347412109375,-0.0697784423828125
261345,1.139480590820312,-0.744873046875,-0.0218963623046875
261346,1.165359497070312,-0.759063720703125,0.0695953369140625
261347,1.186309814453125,-0.7531280517578125,0.1680450439453125
261348,1.223526000976562,-0.7586212158203125,0.226348876953125
261349,1.26422119140625,-0.7872161865234375,0.221160888671875
261350,1.26190185546875,-0.8718109130859375,0.1736907958984375
261351,1.227508544921875,-0.975738525390625,0.1700439453125
261352,1.198944091796875,-1.062637329101562,0.2296142578125
261353,1.151214599609375,-1.146041870117188,0.3024749755859375
261354,1.08428955078125,-1.174911499023438,0.3246917724609375
261355,0.9996337890625,-1.161346435546875,0.3385772705078125
261356,0.8926544189453125,-1.085617065429688,0.4463348388671875
261357,0.7650909423828125,-0.9820556640625,0.5211181640625
261358,0.6352691650390625,-0.900054931640625,0.5384979248046875
261359,0.530426025390625,-0.858123779296875,0.5706634521484375
261360,0.4034881591796875,-0.8724517822265625,0.6173248291015625
261361,0.225433349609375,-0.9202728271484376,0.6833038330078125
261362,0.0261688232421875,-0.957183837890625,0.7391815185546875
261363,-0.130462646484375,-0.9485015869140624,0.784759521484375
261364,-0.1973724365234375,-0.8823699951171875,0.7781982421875
261365,-0.1968536376953125,-0.797210693359375,0.6985015869140625
261366,-0.1572723388671875,-0.727996826171875,0.6196441650390625
261367,-0.0780181884765625,-0.6800994873046875,0.509521484375
261368,0.0152740478515625,-0.6657867431640625,0.361297607421875
261369,0.09619140625,-0.693206787109375,0.3205108642578125
261370,0.1781463623046875,-0.7488250732421875,0.4224395751953125
261371,0.2881317138671875,-0.8044586181640625,0.59356689453125
261372,0.434173583984375,-0.8367767333984375,0.71185302734375
261373,0.5695037841796875,-0.845428466796875,0.7147979736328125
261374,0.648895263671875,-0.841461181640625,0.6224822998046875
261375,0.6729583740234375,-0.8198089599609375,0.47900390625
261376,0.66021728515625,-0.7954254150390625,0.3481597900390625
261377,0.6354217529296875,-0.776458740234375,0.2586822509765625
261378,0.6203460693359375,-0.7591705322265625,0.2321319580078125
261379,0.6258392333984375,-0.749114990234375,0.275848388671875
261380,0.6602630615234375,-0.744720458984375,0.3486175537109375
261381,0.722991943359375,-0.7411041259765625,0.4194183349609375
261382,0.8176422119140625,-0.7337799072265625,0.43756103515625
261383,0.9313201904296876,-0.7241973876953125,0.3914947509765625
261384,1.033172607421875,-0.7051544189453125,0.286346435546875
261385,1.0958251953125,-0.6687164306640625,0.1474456787109375
261386,1.086288452148438,-0.594940185546875,0.0654296875
261387,0.9959716796875,-0.4998779296875,0.0416412353515625
261388,0.8504180908203125,-0.4040374755859375,0.03863525390625
261389,0.7093963623046875,-0.295196533203125,0.0344390869140625
261390,0.610107421875,-0.1922149658203125,-0.0238037109375
261391,0.535736083984375,-0.110321044921875,-0.1313629150390625
261392,0.541168212890625,0.0390777587890625,-0.211883544921875
261393,0.6048431396484375,0.200653076171875,-0.2313079833984375
261394,0.6605224609375,0.283111572265625,-0.197265625
261395,0.734344482421875,0.2897186279296875,-0.1324005126953125
261396,0.8493194580078125,0.219573974609375,-0.0727996826171875
261397,0.9939727783203124,0.069488525390625,-0.0101776123046875
261398,1.127609252929688,-0.1573944091796875,0.043365478515625
261399,1.23162841796875,-0.3527374267578125,0.0418548583984375
261400,1.314208984375,-0.4759521484375,0.006561279296875
261401,1.390914916992188,-0.58026123046875,-0.0030975341796875
261402,1.445388793945312,-0.6498260498046875,0.0242767333984375
261403,1.474197387695312,-0.6688232421875,0.06719970703125
261404,1.474899291992188,-0.6753387451171875,0.133056640625
261405,1.440231323242188,-0.720489501953125,0.181488037109375
261406,1.36578369140625,-0.8319854736328125,0.2317047119140625
261407,1.22003173828125,-1.021697998046875,0.2521514892578125
261408,1.007965087890625,-1.190963745117188,0.250640869140625
261409,0.8133697509765625,-1.277069091796875,0.22064208984375
261410,0.5462188720703125,-1.3017578125,0.221832275390625
261411,0.263916015625,-1.146484375,0.267120361328125
261412,0.0759124755859375,-0.9609375,0.4328765869140625
261413,0.000946044921875,-0.874542236328125,0.805450439453125
261414,0.0023040771484375,-0.863861083984375,0.97869873046875
261415,0.0963134765625,-0.8925628662109375,0.8113861083984375
261416,0.264617919921875,-0.9646453857421876,0.563873291015625
261417,0.401214599609375,-1.03955078125,0.38470458984375
261418,0.4623565673828125,-1.064727783203125,0.2829437255859375
261419,0.4480438232421875,-1.0133056640625,0.2938995361328125
261420,0.398345947265625,-0.9183807373046876,0.3468780517578125
261421,0.3605499267578125,-0.8111572265625,0.3539581298828125
261422,0.356048583984375,-0.69476318359375,0.303558349609375
261423,0.3760986328125,-0.5891265869140625,0.2180328369140625
261424,0.383941650390625,-0.5323028564453125,0.135498046875
261425,0.3620147705078125,-0.544952392578125,0.092803955078125
261426,0.339202880859375,-0.6021728515625,0.076324462890625
261427,0.34686279296875,-0.665985107421875,0.11480712890625
261428,0.3752288818359375,-0.7122344970703125,0.2366790771484375
261429,0.409393310546875,-0.7425384521484375,0.3864288330078125
261430,0.4418792724609375,-0.7666015625,0.485321044921875
261431,0.470672607421875,-0.7770843505859375,0.529083251953125
261432,0.4948577880859375,-0.7757415771484375,0.5458984375
261433,0.52294921875,-0.7633819580078125,0.503631591796875
261434,0.5522308349609375,-0.740020751953125,0.3941802978515625
261435,0.56097412109375,-0.7140045166015625,0.2907562255859375
261436,0.540313720703125,-0.7024078369140625,0.25714111328125
261437,0.5131072998046875,-0.7019500732421875,0.3013153076171875
261438,0.5029449462890625,-0.7056732177734375,0.3800201416015625
261439,0.5163726806640625,-0.700927734375,0.4459991455078125
261440,0.5472564697265625,-0.6930389404296875,0.48040771484375
261441,0.59521484375,-0.686859130859375,0.4783172607421875
261442,0.667327880859375,-0.68133544921875,0.4457855224609375
261443,0.7683868408203125,-0.6738128662109375,0.429229736328125
261444,0.8769683837890625,-0.6541748046875,0.3983306884765625
261445,0.9582366943359376,-0.6096343994140625,0.3193359375
261446,0.9963836669921876,-0.5250091552734375,0.2291107177734375
261447,1.020172119140625,-0.405120849609375,0.1480255126953125
261448,1.049301147460938,-0.2781219482421875,0.08319091796875
261449,1.068313598632812,-0.1748809814453125,0.0126495361328125
261450,1.050186157226562,-0.099395751953125,-0.0334625244140625
261451,0.9710540771484376,-0.0556793212890625,-0.0670318603515625
261452,0.9184112548828124,0.01611328125,-0.126861572265625
261453,0.9220123291015624,0.101715087890625,-0.1425018310546875
261454,0.9732666015625,0.1753082275390625,-0.115753173828125
261455,1.028549194335938,0.1960296630859375,-0.0614013671875
261456,1.061965942382812,0.1602935791015625,-0.0195770263671875
261457,1.0732421875,0.045135498046875,-0.017974853515625
261458,1.039154052734375,-0.16021728515625,-0.0271453857421875
261459,0.9951324462890624,-0.37359619140625,-0.035736083984375
261460,0.95855712890625,-0.5340576171875,-0.016845703125
261461,0.9337310791015624,-0.631500244140625,-0.00201416015625
261462,0.9370269775390624,-0.6659393310546875,0.0194549560546875
261463,0.9369049072265624,-0.7032012939453125,0.11492919921875
261464,0.96160888671875,-0.7710113525390625,0.26708984375
261465,1.061843872070312,-0.8549041748046875,0.3993072509765625
261466,1.18084716796875,-0.9629669189453124,0.4345550537109375
261467,1.24029541015625,-1.065567016601562,0.3766937255859375
261468,1.234939575195312,-1.12188720703125,0.3018646240234375
261469,1.192977905273438,-1.135482788085938,0.35089111328125
261470,1.118133544921875,-1.11358642578125,0.5128173828125
261471,1.009613037109375,-1.055221557617188,0.6314544677734375
261472,0.906463623046875,-0.964263916015625,0.5867767333984375
261473,0.843505859375,-0.8748016357421875,0.452117919921875
261474,0.8133697509765625,-0.8177032470703125,0.34100341796875
261475,0.7664642333984375,-0.8111572265625,0.323760986328125
261476,0.636474609375,-0.842193603515625,0.4480743408203125
261477,0.4048004150390625,-0.8977508544921875,0.6865386962890625
261478,0.12591552734375,-0.9632415771484376,0.9135589599609376
261479,-0.112060546875,-0.9903564453125,1.036880493164062
261480,-0.2460479736328125,-0.9464569091796876,1.012252807617188
261481,-0.2783966064453125,-0.87078857421875,0.85821533203125
261482,-0.266845703125,-0.8134307861328125,0.6556243896484375
261483,-0.2307891845703125,-0.7594757080078125,0.4722747802734375
261484,-0.1646728515625,-0.7111358642578125,0.32720947265625
261485,-0.0680999755859375,-0.68988037109375,0.26495361328125
261486,0.0503387451171875,-0.69818115234375,0.3394622802734375
261487,0.1731414794921875,-0.719268798828125,0.520782470703125
261488,0.3095245361328125,-0.7325286865234375,0.7140960693359375
261489,0.4478759765625,-0.727813720703125,0.814910888671875
261490,0.547607421875,-0.72491455078125,0.7650909423828125
261491,0.5937652587890625,-0.732391357421875,0.5913848876953125
261492,0.5956573486328125,-0.7356414794921875,0.389892578125
261493,0.573577880859375,-0.72784423828125,0.2316436767578125
261494,0.5502777099609375,-0.7149505615234375,0.1635589599609375
261495,0.5478057861328125,-0.7143707275390625,0.194366455078125
261496,0.5832366943359375,-0.7174835205078125,0.2816162109375
261497,0.665802001953125,-0.71160888671875,0.405242919921875
261498,0.789764404296875,-0.7086944580078125,0.5154266357421875
261499,0.942047119140625,-0.7073822021484375,0.5173797607421875
261500,1.087188720703125,-0.68133544921875,0.4204254150390625
261501,1.189605712890625,-0.6300811767578125,0.26531982421875
261502,1.209228515625,-0.553009033203125,0.1008453369140625
261503,1.105484008789062,-0.4582366943359375,-0.02667236328125
261504,0.904449462890625,-0.35321044921875,-0.0870513916015625
261505,0.719512939453125,-0.2255096435546875,-0.074615478515625
261506,0.6329345703125,-0.0867767333984375,-0.090850830078125
261507,0.6023101806640625,0.027587890625,-0.136077880859375
261508,0.6224212646484375,0.1840667724609375,-0.1804656982421875
261509,0.6773223876953125,0.2898406982421875,-0.1754150390625
261510,0.7480010986328125,0.2962799072265625,-0.140838623046875
261511,0.858367919921875,0.26983642578125,-0.1253204345703125
261512,0.9988250732421876,0.198577880859375,-0.100189208984375
261513,1.154617309570312,0.058349609375,-0.0318756103515625
261514,1.320831298828125,-0.145538330078125,0.0480194091796875
261515,1.427108764648438,-0.33197021484375,0.0335540771484375
261516,1.418624877929688,-0.4188690185546875,-0.0419464111328125
261517,1.342926025390625,-0.4241790771484375,-0.084228515625
261518,1.295867919921875,-0.4028167724609375,-0.1173248291015625
261519,1.290313720703125,-0.3907928466796875,-0.1040496826171875
261520,1.313262939453125,-0.424163818359375,-0.0144500732421875
261521,1.375503540039062,-0.5256805419921875,0.0721435546875
261522,1.454055786132812,-0.6997528076171875,0.12786865234375
261523,1.491912841796875,-0.9249725341796876,0.147674560546875
261524,1.44384765625,-1.118011474609375,0.1402435302734375
261525,1.257980346679688,-1.331527709960938,0.099151611328125
261526,1.000076293945312,-1.427032470703125,0.096893310546875
261527,0.740203857421875,-1.366302490234375,0.215179443359375
261528,0.413421630859375,-1.276168823242188,0.404510498046875
261529,0.2125701904296875,-1.176010131835938,0.4916534423828125
261530,0.129150390625,-1.198028564453125,0.7015228271484375
261531,0.1166229248046875,-1.170745849609375,0.9693603515625
261532,0.11962890625,-1.121734619140625,0.824798583984375
261533,0.1327667236328125,-1.071609497070312,0.5376434326171875
261534,0.1353607177734375,-1.002838134765625,0.3239898681640625
261535,0.094970703125,-0.9284820556640624,0.190277099609375
261536,0.032135009765625,-0.86273193359375,0.17572021484375
261537,-0.0411529541015625,-0.846771240234375,0.263031005859375
261538,-0.1110687255859375,-0.855743408203125,0.3714752197265625
261539,-0.11871337890625,-0.87744140625,0.450592041015625
261540,-0.0333251953125,-0.910919189453125,0.512115478515625
261541,0.0963287353515625,-0.919830322265625,0.5654296875
261542,0.2022857666015625,-0.893768310546875,0.581390380859375
261543,0.28607177734375,-0.8366851806640625,0.5489959716796875
261544,0.392181396484375,-0.774658203125,0.5085601806640625
261545,0.52911376953125,-0.72119140625,0.48065185546875
261546,0.66455078125,-0.68365478515625,0.464263916015625
261547,0.7589263916015625,-0.6676177978515625,0.42633056640625
261548,0.7888031005859375,-0.6670074462890625,0.3618927001953125
261549,0.75872802734375,-0.683868408203125,0.29974365234375
261550,0.6959075927734375,-0.7091064453125,0.298065185546875
261551,0.6361083984375,-0.72467041015625,0.3456573486328125
261552,0.594512939453125,-0.7265472412109375,0.400665283203125
261553,0.574859619140625,-0.71942138671875,0.4167938232421875
261554,0.569091796875,-0.695159912109375,0.3979644775390625
261555,0.59716796875,-0.65972900390625,0.3518524169921875
261556,0.661102294921875,-0.6297760009765625,0.312164306640625
261557,0.7498016357421875,-0.6186370849609375,0.2824249267578125
261558,0.848876953125,-0.61444091796875,0.2665863037109375
261559,0.9277801513671876,-0.6008148193359375,0.2868804931640625
261560,0.9780426025390624,-0.5737762451171875,0.2423553466796875
261561,1.000869750976562,-0.5171356201171875,0.125244140625
261562,0.996002197265625,-0.417816162109375,0.02459716796875
261563,0.9692840576171876,-0.2859344482421875,-0.050323486328125
261564,0.917999267578125,-0.14251708984375,-0.0767059326171875
261565,0.8299560546875,-0.0366058349609375,-0.0760498046875
261566,0.7361297607421875,0.01123046875,-0.1059722900390625
261567,0.6864013671875,0.041259765625,-0.1267852783203125
261568,0.687713623046875,0.0911712646484375,-0.0894775390625
261569,0.720123291015625,0.1460723876953125,-0.0553436279296875
261570,0.75347900390625,0.1700592041015625,-0.0619049072265625
261571,0.791229248046875,0.147247314453125,-0.0807342529296875
261572,0.8535308837890625,0.0575714111328125,-0.053192138671875
261573,0.91748046875,-0.096405029296875,0.014739990234375
261574,0.964080810546875,-0.253662109375,0.0491180419921875
261575,1.017654418945312,-0.4008941650390625,0.062774658203125
261576,1.075714111328125,-0.509124755859375,0.129791259765625
261577,1.123428344726562,-0.57769775390625,0.1986846923828125
261578,1.129226684570312,-0.666351318359375,0.2354888916015625
261579,1.154541015625,-0.736419677734375,0.2671661376953125
261580,1.221115112304688,-0.80413818359375,0.31005859375
261581,1.262985229492188,-0.903533935546875,0.31414794921875
261582,1.228469848632812,-1.010894775390625,0.292694091796875
261583,1.1260986328125,-1.104446411132812,0.2881927490234375
261584,0.974365234375,-1.184127807617188,0.368804931640625
261585,0.8065643310546875,-1.205368041992188,0.547882080078125
261586,0.6837310791015625,-1.1668701171875,0.7403106689453125
261587,0.616973876953125,-1.130264282226562,0.85150146484375
261588,0.5685577392578125,-1.08935546875,0.82611083984375
261589,0.4927215576171875,-1.057510375976562,0.6724700927734375
261590,0.3709564208984375,-1.037673950195312,0.541534423828125
261591,0.2162322998046875,-0.9945220947265624,0.59466552734375
261592,0.0479888916015625,-0.958343505859375,0.777496337890625
261593,-0.1002655029296875,-0.9360809326171876,0.9347381591796876
261594,-0.181854248046875,-0.9101104736328124,0.96728515625
261595,-0.1965179443359375,-0.8830108642578125,0.88226318359375
261596,-0.19287109375,-0.8520050048828125,0.7263336181640625
261597,-0.188140869140625,-0.822235107421875,0.5681304931640625
261598,-0.17401123046875,-0.7898101806640625,0.4635772705078125
261599,-0.1235809326171875,-0.7560882568359375,0.46392822265625
261600,0.001708984375,-0.7291412353515625,0.5864105224609375
261601,0.2042083740234375,-0.71685791015625,0.773529052734375
261602,0.4476776123046875,-0.7268218994140625,0.8871612548828125
261603,0.6713104248046875,-0.7490997314453125,0.821746826171875
261604,0.8110504150390625,-0.7672882080078125,0.637908935546875
261605,0.851654052734375,-0.777740478515625,0.45166015625
261606,0.82183837890625,-0.776214599609375,0.303070068359375
261607,0.7788848876953125,-0.7669830322265625,0.2353515625
261608,0.7787933349609375,-0.7521209716796875,0.258148193359375
261609,0.8342132568359375,-0.727020263671875,0.3394775390625
261610,0.927642822265625,-0.695068359375,0.4355010986328125
261611,1.047348022460938,-0.66741943359375,0.487945556640625
261612,1.179840087890625,-0.6345062255859375,0.4557342529296875
261613,1.280136108398438,-0.5826263427734375,0.3556671142578125
261614,1.3114013671875,-0.5093231201171875,0.228607177734375
261615,1.247451782226562,-0.415557861328125,0.09344482421875
261616,1.090744018554688,-0.3099365234375,-0.0174560546875
261617,0.91656494140625,-0.18328857421875,-0.0910491943359375
261618,0.791839599609375,-0.058746337890625,-0.165924072265625
261619,0.7099456787109375,0.056732177734375,-0.24737548828125
261620,0.64862060546875,0.1500244140625,-0.2819976806640625
261621,0.6060028076171875,0.18328857421875,-0.25115966796875
261622,0.5859222412109375,0.1675872802734375,-0.2098388671875
261623,0.6182098388671875,0.13372802734375,-0.14324951171875
261624,0.7127838134765625,0.075958251953125,-0.0634765625
261625,0.8260040283203125,-0.0272064208984375,-0.0291595458984375
261626,0.9495391845703124,-0.185028076171875,-0.0556488037109375
261627,1.070907592773438,-0.3470458984375,-0.079803466796875
261628,1.164535522460938,-0.4304962158203125,-0.0916290283203125
261629,1.211288452148438,-0.4654083251953125,-0.090301513671875
261630,1.21533203125,-0.4882049560546875,-0.0254364013671875
261631,1.213897705078125,-0.5180816650390625,0.09454345703125
261632,1.2467041015625,-0.5739288330078125,0.229339599609375
261633,1.305038452148438,-0.6566009521484375,0.316619873046875
261634,1.342239379882812,-0.7730712890625,0.34027099609375
261635,1.31500244140625,-0.9280242919921876,0.34844970703125
261636,1.13812255859375,-1.140243530273438,0.316009521484375
261637,0.9172515869140624,-1.297698974609375,0.239044189453125
261638,0.6374359130859375,-1.412200927734375,0.1690216064453125
261639,0.336090087890625,-1.376922607421875,0.1679229736328125
261640,0.117156982421875,-1.179977416992188,0.3154296875
261641,-0.0266876220703125,-0.99603271484375,0.827178955078125
261642,-0.073699951171875,-0.8697357177734375,1.084487915039062
261643,0.00054931640625,-0.8489990234375,0.8240203857421875
261644,0.185302734375,-0.894439697265625,0.4848480224609375
261645,0.345947265625,-0.96533203125,0.3232421875
261646,0.388702392578125,-0.987701416015625,0.2661895751953125
261647,0.3185882568359375,-0.9569244384765624,0.2806854248046875
261648,0.2057647705078125,-0.9080352783203124,0.344635009765625
261649,0.12103271484375,-0.8523406982421875,0.3950347900390625
261650,0.0618438720703125,-0.8119659423828125,0.409942626953125
261651,0.02667236328125,-0.798583984375,0.4205780029296875
261652,0.026947021484375,-0.8211212158203125,0.42095947265625
261653,0.070037841796875,-0.8590850830078125,0.3943634033203125
261654,0.1543426513671875,-0.881011962890625,0.3688507080078125
261655,0.254150390625,-0.87841796875,0.3796844482421875
261656,0.3677825927734375,-0.85064697265625,0.4311065673828125
261657,0.5105743408203125,-0.8031158447265625,0.4971923828125
261658,0.6575775146484375,-0.7530059814453125,0.5342559814453125
261659,0.751556396484375,-0.7358245849609375,0.510498046875
261660,0.77239990234375,-0.745513916015625,0.4223480224609375
261661,0.739471435546875,-0.7514801025390625,0.320953369140625
261662,0.7046051025390625,-0.761444091796875,0.2715301513671875
261663,0.6875762939453125,-0.783721923828125,0.2979736328125
261664,0.6820068359375,-0.8115692138671875,0.3750152587890625
261665,0.688446044921875,-0.828125,0.45709228515625
261666,0.701568603515625,-0.8189849853515625,0.5108184814453125
261667,0.728424072265625,-0.7892913818359375,0.512786865234375
261668,0.777099609375,-0.749359130859375,0.479736328125
261669,0.8386383056640625,-0.70257568359375,0.429962158203125
261670,0.889007568359375,-0.647674560546875,0.3662261962890625
261671,0.9271697998046876,-0.567962646484375,0.29443359375
261672,0.9488525390625,-0.462982177734375,0.2238006591796875
261673,0.9632568359375,-0.3493499755859375,0.1150054931640625
261674,0.9651031494140624,-0.2440338134765625,0.0244140625
261675,0.939727783203125,-0.1647796630859375,0.0021514892578125
261676,0.896453857421875,-0.106536865234375,-0.0036773681640625
261677,0.8660125732421875,-0.0423126220703125,0.016510009765625
261678,0.8622283935546875,0.03125,0.0663604736328125
261679,0.871307373046875,0.090240478515625,0.082244873046875
261680,0.8764495849609375,0.1158599853515625,0.08038330078125
261681,0.883758544921875,0.112640380859375,0.07135009765625
261682,0.888031005859375,0.08404541015625,0.035125732421875
261683,0.875762939453125,0.0265045166015625,-0.00946044921875
261684,0.8421478271484375,-0.0664215087890625,-0.0257110595703125
261685,0.817108154296875,-0.180694580078125,-0.0105438232421875
261686,0.824462890625,-0.2898712158203125,0.0144195556640625
261687,0.8400726318359375,-0.392181396484375,0.0157928466796875
261688,0.8647918701171875,-0.465362548828125,0.0437774658203125
261689,0.8990478515625,-0.5246429443359375,0.13885498046875
261690,0.910980224609375,-0.6208343505859375,0.2604522705078125
261691,0.936309814453125,-0.7263336181640625,0.375091552734375
261692,1.001724243164062,-0.8310699462890625,0.4623565673828125
261693,1.074905395507812,-0.9430389404296876,0.494659423828125
261694,1.118896484375,-1.045150756835938,0.4614105224609375
261695,1.091094970703125,-1.119720458984375,0.405120849609375
261696,0.9768829345703124,-1.166946411132812,0.421173095703125
261697,0.81536865234375,-1.172012329101562,0.533905029296875
261698,0.66717529296875,-1.122772216796875,0.6297760009765625
261699,0.5738677978515625,-1.05841064453125,0.62255859375
261700,0.569671630859375,-0.99395751953125,0.508819580078125
261701,0.6254119873046875,-0.9405364990234376,0.335723876953125
261702,0.6641998291015625,-0.9168701171875,0.2813720703125
261703,0.6276702880859375,-0.897674560546875,0.416351318359375
261704,0.5325775146484375,-0.8814849853515625,0.6625518798828125
261705,0.403717041015625,-0.9078216552734376,0.9424591064453124
261706,0.2660980224609375,-0.983642578125,1.122604370117188
261707,0.139923095703125,-1.046920776367188,1.070480346679688
261708,0.0314483642578125,-1.040679931640625,0.844512939453125
261709,-0.054779052734375,-0.9847412109375,0.5861053466796875
261710,-0.11328125,-0.90576171875,0.3899383544921875
261711,-0.1267852783203125,-0.81182861328125,0.324493408203125
261712,-0.076263427734375,-0.7343902587890625,0.3774871826171875
261713,0.04425048828125,-0.69842529296875,0.4816131591796875
261714,0.19580078125,-0.7118988037109375,0.609100341796875
261715,0.3499755859375,-0.7579803466796875,0.7244110107421875
261716,0.49365234375,-0.8137664794921875,0.7752227783203125
261717,0.5910797119140625,-0.8487548828125,0.71954345703125
261718,0.626983642578125,-0.845855712890625,0.578277587890625
261719,0.6175537109375,-0.8214569091796875,0.443756103515625
261720,0.5973663330078125,-0.7840576171875,0.3409881591796875
261721,0.5860595703125,-0.730010986328125,0.274505615234375
261722,0.5883026123046875,-0.668853759765625,0.25927734375
261723,0.61407470703125,-0.61138916015625,0.27191162109375
261724,0.661773681640625,-0.560943603515625,0.298492431640625
261725,0.72406005859375,-0.521881103515625,0.311279296875
261726,0.789459228515625,-0.491668701171875,0.2865753173828125
261727,0.85089111328125,-0.47174072265625,0.2472991943359375
261728,0.899322509765625,-0.4549102783203125,0.2097015380859375
261729,0.9305877685546876,-0.445770263671875,0.1599578857421875
261730,0.9401092529296876,-0.4371337890625,0.1093597412109375
261731,0.9408721923828124,-0.4189910888671875,0.0594940185546875
261732,0.9608917236328124,-0.37811279296875,-0.003570556640625
261733,1.008331298828125,-0.308746337890625,-0.0862884521484375
261734,1.069473266601562,-0.2236480712890625,-0.179046630859375
261735,1.120132446289062,-0.121673583984375,-0.25341796875
261736,1.138748168945312,-0.021697998046875,-0.278900146484375
261737,1.128768920898438,0.0490264892578125,-0.2491607666015625
261738,1.0867919921875,0.0877685546875,-0.1754913330078125
261739,1.00634765625,0.1086883544921875,-0.088836669921875
261740,0.890380859375,0.105255126953125,-0.0322113037109375
261741,0.780364990234375,0.0644073486328125,0.0095672607421875
261742,0.7279052734375,-0.032867431640625,0.0361785888671875
261743,0.7176666259765625,-0.1581878662109375,0.018341064453125
261744,0.727996826171875,-0.244842529296875,-0.02813720703125
261745,0.78106689453125,-0.3061370849609375,-0.016448974609375
261746,0.8861541748046875,-0.3694000244140625,0.0594024658203125
261747,1.035690307617188,-0.449066162109375,0.1462860107421875
261748,1.221771240234375,-0.545257568359375,0.2366790771484375
261749,1.442184448242188,-0.65606689453125,0.26715087890625
261750,1.635955810546875,-0.8126220703125,0.34039306640625
261751,1.68408203125,-1.028335571289062,0.485992431640625
261752,1.518157958984375,-1.2489013671875,0.5351409912109375
261753,1.204833984375,-1.414138793945312,0.4671783447265625
261754,0.7721710205078125,-1.491668701171875,0.4119110107421875
261755,0.350830078125,-1.35009765625,0.3880767822265625
261756,0.0276947021484375,-1.113983154296875,0.531890869140625
261757,-0.1328125,-0.912628173828125,0.872039794921875
261758,-0.1374359130859375,-0.87982177734375,0.9872589111328124
261759,0.017822265625,-0.98443603515625,0.8448028564453125
261760,0.220977783203125,-1.155792236328125,0.7122650146484375
261761,0.327850341796875,-1.309661865234375,0.6326141357421875
261762,0.30645751953125,-1.334793090820312,0.5519866943359375
261763,0.2317962646484375,-1.220504760742188,0.525360107421875
261764,0.186553955078125,-1.062896728515625,0.5639495849609375
261765,0.184051513671875,-0.9150390625,0.552764892578125
261766,0.1974334716796875,-0.784942626953125,0.4475860595703125
261767,0.2174072265625,-0.69183349609375,0.308990478515625
261768,0.2591094970703125,-0.64910888671875,0.2236328125
261769,0.34588623046875,-0.647674560546875,0.21112060546875
261770,0.4670867919921875,-0.6606597900390625,0.2371978759765625
261771,0.583465576171875,-0.6593780517578125,0.275360107421875
261772,0.6679534912109375,-0.6426239013671875,0.317962646484375
261773,0.7108917236328125,-0.6146697998046875,0.3479461669921875
261774,0.71966552734375,-0.58013916015625,0.3401336669921875
261775,0.706573486328125,-0.5496673583984375,0.2973175048828125
261776,0.6866302490234375,-0.53741455078125,0.2436981201171875
261777,0.6701507568359375,-0.552825927734375,0.2056884765625
261778,0.6549224853515625,-0.5850067138671875,0.1858673095703125
261779,0.644622802734375,-0.6155548095703125,0.19598388671875
261780,0.6491851806640625,-0.640899658203125,0.2148590087890625
261781,0.665252685546875,-0.6505126953125,0.2300262451171875
261782,0.6782073974609375,-0.6477203369140625,0.2516326904296875
261783,0.693084716796875,-0.636322021484375,0.257049560546875
261784,0.71844482421875,-0.6079559326171875,0.2781982421875
261785,0.742462158203125,-0.5785064697265625,0.2906951904296875
261786,0.7546234130859375,-0.5480804443359375,0.2249298095703125
261787,0.7315826416015625,-0.4994354248046875,0.1695098876953125
261788,0.691864013671875,-0.435882568359375,0.15289306640625
261789,0.660980224609375,-0.37298583984375,0.15576171875
261790,0.651763916015625,-0.310821533203125,0.155670166015625
261791,0.6534271240234375,-0.2569732666015625,0.1307525634765625
261792,0.647705078125,-0.2279205322265625,0.0844879150390625
261793,0.6338958740234375,-0.2158660888671875,0.033538818359375
261794,0.6436309814453125,-0.1900482177734375,-0.0050506591796875
261795,0.672088623046875,-0.1580352783203125,-0.0308380126953125
261796,0.7013092041015625,-0.13848876953125,-0.04583740234375
261797,0.725799560546875,-0.163787841796875,-0.0200958251953125
261798,0.745849609375,-0.2417449951171875,0.0379638671875
261799,0.7696990966796875,-0.3159332275390625,0.094879150390625
261800,0.793853759765625,-0.3782196044921875,0.1400909423828125
261801,0.8162384033203125,-0.438812255859375,0.1804656982421875
261802,0.801544189453125,-0.5256195068359375,0.2158355712890625
261803,0.782562255859375,-0.599456787109375,0.273651123046875
261804,0.7963409423828125,-0.6625823974609375,0.3325042724609375
261805,0.7895355224609375,-0.75531005859375,0.3851776123046875
261806,0.748626708984375,-0.8499298095703125,0.41241455078125
261807,0.6798095703125,-0.959503173828125,0.419677734375
261808,0.61297607421875,-1.067626953125,0.5004119873046875
261809,0.6052093505859375,-1.141464233398438,0.6134185791015625
261810,0.6694488525390625,-1.162277221679688,0.6318511962890625
261811,0.79034423828125,-1.14324951171875,0.5634918212890625
261812,0.9362640380859376,-1.089828491210938,0.4689483642578125
261813,1.083877563476562,-1.020767211914062,0.3836212158203125
261814,1.23114013671875,-0.9679718017578124,0.378936767578125
261815,1.3883056640625,-0.952239990234375,0.4589385986328125
261816,1.510543823242188,-0.95867919921875,0.57208251953125
261817,1.491546630859375,-0.958099365234375,0.658477783203125
261818,1.275741577148438,-0.9272308349609376,0.6794586181640625
261819,0.965484619140625,-0.8677215576171875,0.6432037353515625
261820,0.6740264892578125,-0.792724609375,0.5818023681640625
261821,0.4309234619140625,-0.7352447509765625,0.5464324951171875
261822,0.2332916259765625,-0.7314910888671875,0.5564422607421875
261823,0.064605712890625,-0.7865142822265625,0.5645904541015625
261824,-0.0943145751953125,-0.8935394287109375,0.600250244140625
261825,-0.245086669921875,-1.0126953125,0.6614227294921875
261826,-0.3632965087890625,-1.113510131835938,0.73193359375
261827,-0.421844482421875,-1.170059204101562,0.7904052734375
261828,-0.392120361328125,-1.124435424804688,0.7979736328125
261829,-0.26690673828125,-1.002105712890625,0.6982879638671875
261830,-0.086944580078125,-0.8985595703125,0.521026611328125
261831,0.111053466796875,-0.8205108642578125,0.3311004638671875
261832,0.3058013916015625,-0.756561279296875,0.1862945556640625
261833,0.48138427734375,-0.7216339111328125,0.117645263671875
261834,0.625091552734375,-0.7190704345703125,0.1214752197265625
261835,0.7415008544921875,-0.7265777587890625,0.155517578125
261836,0.8336334228515625,-0.729705810546875,0.195526123046875
261837,0.903472900390625,-0.7196044921875,0.2298126220703125
261838,0.954864501953125,-0.69049072265625,0.24578857421875
261839,0.975128173828125,-0.65228271484375,0.2391510009765625
261840,0.9468536376953124,-0.6137847900390625,0.21826171875
261841,0.8734893798828125,-0.5815582275390625,0.1750030517578125
261842,0.78912353515625,-0.5558624267578125,0.1318359375
261843,0.731719970703125,-0.524322509765625,0.0860443115234375
261844,0.69158935546875,-0.470245361328125,-0.00543212890625
261845,0.6449127197265625,-0.387237548828125,-0.1288604736328125
261846,0.58270263671875,-0.2951812744140625,-0.2519378662109375
261847,0.507598876953125,-0.22137451171875,-0.33404541015625
261848,0.4546966552734375,-0.1561431884765625,-0.3282318115234375
261849,0.4614410400390625,-0.1095428466796875,-0.2557830810546875
261850,0.523651123046875,-0.0902252197265625,-0.1472625732421875
261851,0.6525115966796875,-0.0892486572265625,-0.0148162841796875
261852,0.8406829833984375,-0.1196746826171875,0.1190643310546875
261853,1.036453247070312,-0.2059478759765625,0.1836090087890625
261854,1.21728515625,-0.31488037109375,0.15728759765625
261855,1.39105224609375,-0.4073486328125,0.1005096435546875
261856,1.553237915039062,-0.5093536376953125,0.053192138671875
261857,1.64556884765625,-0.61590576171875,0.042999267578125
261858,1.610641479492188,-0.7142791748046875,0.112335205078125
261859,1.453903198242188,-0.7927703857421875,0.2093353271484375
261860,1.254928588867188,-0.8310699462890625,0.250762939453125
261861,1.105621337890625,-0.8250579833984375,0.2504119873046875
261862,1.026596069335938,-0.7999725341796875,0.204345703125
261863,0.927154541015625,-0.8173065185546875,0.1024932861328125
261864,0.7509613037109375,-0.8829345703125,0.085601806640625
261865,0.591461181640625,-0.96392822265625,0.2157135009765625
261866,0.4506378173828125,-1.057464599609375,0.409820556640625
261867,0.368621826171875,-1.100128173828125,0.544952392578125
261868,0.303375244140625,-1.124420166015625,0.6480865478515625
261869,0.2854156494140625,-1.10284423828125,0.7626800537109375
261870,0.3038177490234375,-1.0628662109375,0.7231292724609375
261871,0.2735595703125,-1.010635375976562,0.4941253662109375
261872,0.238311767578125,-0.9375152587890624,0.30706787109375
261873,0.2310333251953125,-0.8454437255859375,0.2400970458984375
261874,0.2379608154296875,-0.7346038818359375,0.2733154296875
261875,0.2582244873046875,-0.61944580078125,0.3000640869140625
261876,0.2769317626953125,-0.53900146484375,0.247314453125
261877,0.288665771484375,-0.49969482421875,0.1488037109375
261878,0.29144287109375,-0.494384765625,0.0693817138671875
261879,0.2796783447265625,-0.51171875,0.0558624267578125
261880,0.294830322265625,-0.527862548828125,0.0865325927734375
261881,0.3657989501953125,-0.527984619140625,0.1464691162109375
261882,0.48638916015625,-0.514190673828125,0.203338623046875
261883,0.63348388671875,-0.5040130615234375,0.2272186279296875
261884,0.791351318359375,-0.4857940673828125,0.2326812744140625
261885,0.9471282958984376,-0.463714599609375,0.2200775146484375
261886,1.0758056640625,-0.4472808837890625,0.1861114501953125
261887,1.135940551757812,-0.4339447021484375,0.148834228515625
261888,1.096878051757812,-0.4362640380859375,0.113037109375
261889,0.973052978515625,-0.4389190673828125,0.0684051513671875
261890,0.867645263671875,-0.4318695068359375,0.05462646484375
261891,0.819732666015625,-0.43621826171875,0.078277587890625
261892,0.8030242919921875,-0.4687652587890625,0.0696258544921875
261893,0.7887725830078125,-0.531982421875,0.049346923828125
261894,0.7646636962890625,-0.6212310791015625,0.0458526611328125
261895,0.7076873779296875,-0.720733642578125,0.0653228759765625
261896,0.6192626953125,-0.8119659423828125,0.1070709228515625
261897,0.546173095703125,-0.8989410400390625,0.1799774169921875
261898,0.5398712158203125,-0.9786224365234376,0.260833740234375
261899,0.599609375,-1.016769409179688,0.3099517822265625
261900,0.7043304443359375,-1.003509521484375,0.3209075927734375
261901,0.8324737548828125,-0.9713897705078124,0.264190673828125
261902,0.9760894775390624,-0.954437255859375,0.179656982421875
261903,1.12646484375,-0.947113037109375,0.1218414306640625
261904,1.259750366210938,-0.9324951171875,0.1080474853515625
261905,1.329452514648438,-0.91241455078125,0.173858642578125
261906,1.316802978515625,-0.8757476806640625,0.29376220703125
261907,1.235671997070312,-0.8070831298828125,0.3772430419921875
261908,1.134536743164062,-0.7237701416015625,0.368499755859375
261909,1.05108642578125,-0.6455535888671875,0.2752227783203125
261910,0.9481201171875,-0.556182861328125,0.196014404296875
261911,0.81195068359375,-0.450714111328125,0.177642822265625
261912,0.6628570556640625,-0.326568603515625,0.1784515380859375
261913,0.536102294921875,-0.170440673828125,0.205291748046875
261914,0.447723388671875,-0.0041961669921875,0.2259063720703125
261915,0.3421173095703125,0.1099395751953125,0.1647796630859375
261916,0.1891021728515625,0.133544921875,0.0495147705078125
261917,0.032562255859375,0.03704833984375,-0.0390472412109375
261918,0.0250091552734375,-0.114013671875,-0.0284271240234375
261919,0.1600189208984375,-0.2326507568359375,0.092071533203125
261920,0.31768798828125,-0.3194427490234375,0.2475738525390625
261921,0.4959564208984375,-0.4028167724609375,0.4443511962890625
261922,0.750640869140625,-0.4668731689453125,0.584564208984375
261923,1.113723754882812,-0.517181396484375,0.626251220703125
261924,1.453369140625,-0.612945556640625,0.653778076171875
261925,1.590667724609375,-0.68011474609375,0.625091552734375
261926,1.413284301757812,-0.760467529296875,0.6474609375
261927,0.9876251220703124,-0.9627532958984376,0.6267242431640625
261928,0.5058135986328125,-1.21026611328125,0.4280548095703125
261929,0.099151611328125,-1.450469970703125,0.257415771484375
261930,-0.154144287109375,-1.659194946289062,0.27178955078125
261931,-0.14520263671875,-1.8116455078125,0.5288238525390625
261932,0.1521759033203125,-1.898025512695312,0.748443603515625
261933,0.5157318115234375,-1.87139892578125,0.7164154052734375
