time_idx,accelerometerAccelerationX(G),accelerometerAccelerationY(G),accelerometerAccelerationZ(G),gyroRotationX(rad/s),gyroRotationY(rad/s),gyroRotationZ(rad/s),magnetometerX(µT),magnetometerY(µT),magnetometerZ(µT)
40000,0.218963623046875,0.950164794921875,0.2025604248046875,-0.0554315671324729,-0.4526092708110809,0.0427091158926487,65.48841857910156,93.71054077148438,-18.23945617675781
40001,0.218963623046875,0.950164794921875,0.2025604248046875,-0.0554315671324729,-0.4526092708110809,0.0427091158926487,65.48841857910156,93.71054077148438,-18.23945617675781
40002,0.21710205078125,0.9356842041015624,0.190704345703125,-0.0554315671324729,-0.4526092708110809,0.0427091158926487,65.45359802246094,93.70379638671876,-18.31068420410156
40003,0.2189178466796875,0.9196014404296876,0.1720733642578125,-0.0303712207823991,-0.4088210463523865,0.0541820116341114,65.46768188476562,93.56056213378906,-18.26919555664062
40004,0.2189178466796875,0.9196014404296876,0.1720733642578125,-0.0303712207823991,-0.4088210463523865,0.0541820116341114,65.46768188476562,93.56056213378906,-18.26919555664062
40005,0.2323150634765625,0.919403076171875,0.172576904296875,-0.0398201160132885,-0.4153764247894287,0.0702991932630538,65.51118469238281,93.60150146484376,-18.34614562988281
40006,0.2407684326171875,0.917388916015625,0.1760101318359375,-0.0565959028899669,-0.4214521646499634,0.0865548625588417,65.46839904785156,93.4972686767578,-18.37821960449219
40007,0.2502899169921875,0.9186553955078124,0.1691436767578125,-0.0611365921795368,-0.410121738910675,0.1012342125177383,65.491455078125,93.58706665039062,-18.34925842285156
40008,0.254425048828125,0.9266510009765624,0.158721923828125,-0.063457004725933,-0.3769744336605072,0.1144722476601601,65.43186950683594,93.43927001953124,-18.408935546875
40009,0.253631591796875,0.9360504150390624,0.1429290771484375,-0.0607498995959758,-0.3177841007709503,0.1327239573001862,65.45343017578125,93.2843780517578,-18.400390625
40010,0.2364959716796875,0.9447021484375,0.1254730224609375,-0.0142875928431749,-0.2564259171485901,0.1514507681131363,65.50331115722656,93.2892608642578,-18.53652954101562
40011,0.192230224609375,0.970458984375,0.0998382568359375,0.0650229454040527,-0.3142774999141693,0.137627899646759,65.58895874023438,93.3054656982422,-18.2471923828125
40012,0.192230224609375,0.970458984375,0.0998382568359375,0.0650229454040527,-0.3142774999141693,0.137627899646759,65.58895874023438,93.3054656982422,-18.2471923828125
40013,0.1651763916015625,0.9781341552734376,0.110015869140625,0.0976645052433013,-0.3381988108158112,0.1117851212620735,65.67117309570312,93.25221252441406,-18.24520874023438
40014,0.1434173583984375,0.987030029296875,0.1224365234375,0.0976645052433013,-0.3381988108158112,0.1117851212620735,65.65998840332031,93.18002319335938,-18.18719482421875
40015,0.1200408935546875,1.009521484375,0.14849853515625,0.1117622181773186,-0.3385149240493774,0.0672472119331359,65.81846618652344,93.13978576660156,-18.55763244628906
40016,0.1200408935546875,1.009521484375,0.14849853515625,0.1117622181773186,-0.3385149240493774,0.0672472119331359,65.81846618652344,93.13978576660156,-18.55763244628906
40017,0.1166839599609375,1.003662109375,0.1782684326171875,0.1158355250954628,-0.2868109941482544,0.0391591191291809,65.86874389648438,93.0685577392578,-18.81672668457031
40018,0.1228790283203125,0.9987335205078124,0.17926025390625,0.1158355250954628,-0.2868109941482544,0.0391591191291809,65.80722045898438,93.13616943359376,-18.79769897460938
40019,0.1217498779296875,0.9983367919921876,0.168792724609375,0.0866094604134559,-0.3255370855331421,0.0292433723807334,65.72805786132812,93.08226013183594,-18.90029907226562
40020,0.131439208984375,0.992889404296875,0.169647216796875,0.0410731360316276,-0.3149635493755341,0.0071109062992036,65.69509887695312,92.99769592285156,-19.0087890625
40021,0.131439208984375,0.992889404296875,0.169647216796875,0.0410731360316276,-0.3149635493755341,0.0071109062992036,65.69509887695312,92.99769592285156,-19.0087890625
40022,0.13922119140625,0.98419189453125,0.103240966796875,0.0807478427886962,-0.3298159837722778,-0.0095580853521823,65.78704833984375,92.91848754882812,-18.98243713378906
40023,0.1770782470703125,0.96258544921875,0.0843658447265625,0.161780372262001,-0.3656443059444427,-0.0298649538308382,65.7335205078125,92.99650573730467,-19.12767028808594
40024,0.1770782470703125,0.96258544921875,0.0843658447265625,0.161780372262001,-0.3656443059444427,-0.0298649538308382,65.7335205078125,92.99650573730467,-19.12767028808594
40025,0.1867523193359375,0.947998046875,0.0988311767578125,0.2005059421062469,-0.3603877425193787,-0.0399138592183589,65.64144897460938,92.98458862304688,-19.41566467285156
40026,0.1876068115234375,0.9435882568359376,0.1113128662109375,0.2238626629114151,-0.3718489110469818,-0.0348618440330028,65.57978820800781,92.96920776367188,-19.43714904785156
40027,0.1787109375,0.9568328857421876,0.1026611328125,0.1958733648061752,-0.420958936214447,-0.0208749212324619,65.51588439941406,92.89976501464844,-19.66079711914062
40028,0.166839599609375,0.9700775146484376,0.13385009765625,0.1250268965959549,-0.4143889248371124,-0.0150772202759981,65.44364929199219,92.82052612304688,-19.72369384765625
40029,0.1494903564453125,0.979278564453125,0.1385345458984375,0.1214412078261375,-0.3458522260189056,-0.0229495242238044,65.56108093261719,92.82533264160156,-19.83299255371094
40030,0.125335693359375,0.9761962890625,0.107818603515625,0.1506734043359756,-0.3383753895759583,-0.0300670880824327,65.48561096191406,92.84434509277344,-19.92213439941406
40031,0.111663818359375,0.9771881103515624,0.11126708984375,0.1554979830980301,-0.3005728721618652,-0.0438542738556861,65.36149597167969,92.94436645507812,-20.08277893066406
40032,0.1026458740234375,0.9857177734375,0.0949249267578125,0.1482491195201874,-0.2671238481998444,-0.0581818148493766,65.35089111328125,92.88572692871094,-20.25990295410156
40033,0.095489501953125,0.99761962890625,0.0858154296875,0.1574767082929611,-0.2343171685934067,-0.0764953047037124,65.27236938476562,92.82940673828124,-20.35299682617188
40034,0.0906829833984375,1.00018310546875,0.104461669921875,0.1574767082929611,-0.2343171685934067,-0.0764953047037124,65.22297668457031,92.85507202148438,-20.39653015136719
40035,0.0857696533203125,0.995697021484375,0.1073150634765625,0.1804270297288895,-0.2209883034229279,-0.0763645470142364,65.10501098632812,92.77864074707033,-20.57093811035156
40036,0.080780029296875,0.99169921875,0.121368408203125,0.1804270297288895,-0.2209883034229279,-0.0763645470142364,65.06790161132812,92.80686950683594,-20.63276672363281
40037,0.080780029296875,0.99169921875,0.121368408203125,0.1804270297288895,-0.2209883034229279,-0.0763645470142364,65.06790161132812,92.80686950683594,-20.63276672363281
40038,0.07257080078125,0.9921112060546876,0.13140869140625,0.141271635890007,-0.1816805750131607,-0.0803252011537551,65.13337707519531,92.7179718017578,-20.76754760742188
40039,0.0671844482421875,0.9946441650390624,0.12030029296875,0.1371914148330688,-0.1638983935117722,-0.0887048318982124,65.08084106445312,92.69255065917967,-20.6812744140625
40040,0.0649871826171875,0.99261474609375,0.1072235107421875,0.1434940546751022,-0.1490494012832642,-0.1046094968914986,65.05033874511719,92.56224060058594,-20.61640930175781
40041,0.0762786865234375,0.999420166015625,0.09564208984375,0.1541911661624908,-0.1655346304178238,-0.1214694380760193,65.00714111328125,92.56484985351562,-20.93473815917969
40042,0.097015380859375,1.006057739257812,0.106414794921875,0.1580982953310013,-0.1907409280538559,-0.1373605281114578,64.96498107910156,92.65765380859376,-21.16268920898438
40043,0.1356658935546875,1.004669189453125,0.1200714111328125,0.1410495340824127,-0.2623618543148041,-0.1101049333810806,64.73524475097656,92.6989288330078,-21.35935974121094
40044,0.1356658935546875,1.004669189453125,0.1200714111328125,0.1410495340824127,-0.2623618543148041,-0.1101049333810806,64.73524475097656,92.6989288330078,-21.35935974121094
40045,0.1436004638671875,0.9990081787109376,0.1240692138671875,0.1410495340824127,-0.2623618543148041,-0.1101049333810806,64.68313598632812,92.67857360839844,-21.444091796875
40046,0.13861083984375,0.991912841796875,0.120361328125,0.1292844861745834,-0.2598544657230377,-0.0908127278089523,64.67584228515625,92.63894653320312,-21.2696533203125
40047,0.0951385498046875,0.9932098388671876,0.078125,0.1673788726329803,-0.1376185864210129,-0.0728281363844871,64.36073303222656,92.63713073730467,-21.63023376464844
40048,0.0951385498046875,0.9932098388671876,0.078125,0.1673788726329803,-0.1376185864210129,-0.0728281363844871,64.36073303222656,92.63713073730467,-21.63023376464844
40049,0.07415771484375,1.007369995117188,0.0713348388671875,0.1673788726329803,-0.1376185864210129,-0.0728281363844871,64.29917907714844,92.71621704101562,-21.75798034667969
40050,0.0637664794921875,1.02001953125,0.088531494140625,0.180183619260788,-0.15025794506073,-0.0778628438711166,64.26295471191406,92.7162628173828,-21.92628479003906
40051,0.0753173828125,1.029251098632812,0.13812255859375,0.1571845561265945,-0.2197115868330002,-0.0827444121241569,64.16270446777344,92.52708435058594,-21.99928283691406
40052,0.0753173828125,1.029251098632812,0.13812255859375,0.1571845561265945,-0.2197115868330002,-0.0827444121241569,64.16270446777344,92.52708435058594,-21.99928283691406
40053,0.0897369384765625,1.025650024414062,0.17059326171875,0.0718169286847114,-0.2960263192653656,-0.0619001202285289,64.10269165039062,92.54820251464844,-22.10008239746094
40054,0.1071929931640625,1.018585205078125,0.187164306640625,0.0718169286847114,-0.2960263192653656,-0.0619001202285289,64.08901977539062,92.57083129882812,-22.21963500976562
40055,0.130096435546875,0.98480224609375,0.1781005859375,-0.0250984281301498,-0.3701865673065186,-0.0240691173821687,63.87786865234375,92.71617126464844,-22.388427734375
40056,0.130096435546875,0.98480224609375,0.1781005859375,-0.0250984281301498,-0.3701865673065186,-0.0240691173821687,63.87786865234375,92.71617126464844,-22.388427734375
40057,0.15118408203125,0.9574127197265624,0.164825439453125,-0.0280473474413156,-0.3386726081371307,-0.0178109556436538,63.85450744628906,92.61611938476562,-22.46051025390625
40058,0.1515960693359375,0.9387969970703124,0.118896484375,0.0109658315777778,-0.2756637930870056,-0.0017971011111512,63.88847351074219,92.46957397460938,-22.33106994628906
40059,0.136993408203125,0.9135894775390624,0.0942230224609375,0.0540264844894409,-0.2563010156154633,0.0148897338658571,63.83200073242188,92.51594543457033,-22.3363037109375
40060,0.136993408203125,0.9135894775390624,0.0942230224609375,0.0540264844894409,-0.2563010156154633,0.0148897338658571,63.83200073242188,92.51594543457033,-22.3363037109375
40061,0.1181793212890625,0.9254913330078124,0.0820770263671875,0.1095328852534294,-0.2424520552158356,0.0067130299285054,63.71603393554688,92.47673034667967,-22.27703857421875
40062,0.09332275390625,0.944427490234375,0.08343505859375,0.0754731893539428,-0.2801046371459961,0.0018034926615655,63.69912719726562,92.64353942871094,-22.35765075683594
40063,0.07086181640625,0.9582672119140624,0.09405517578125,0.0754731893539428,-0.2801046371459961,0.0018034926615655,63.68258666992188,92.56504821777344,-22.31727600097656
40064,0.0402069091796875,0.9788665771484376,0.1201629638671875,-0.0513031333684921,-0.305925577878952,-0.0049904976040124,63.75881958007812,92.37556457519533,-22.61802673339844
40065,0.0402069091796875,0.9788665771484376,0.1201629638671875,-0.0513031333684921,-0.305925577878952,-0.0049904976040124,63.75881958007812,92.37556457519533,-22.61802673339844
40066,0.033172607421875,0.981658935546875,0.113006591796875,-0.0513031333684921,-0.305925577878952,-0.0049904976040124,63.66390991210938,92.43649291992188,-22.66584777832031
40067,0.033721923828125,0.98291015625,0.10430908203125,-0.0437805019319057,-0.3085983097553253,-0.0072065140120685,63.60321044921875,92.462158203125,-22.71914672851562
40068,0.0372314453125,0.988311767578125,0.10101318359375,-0.0299200825393199,-0.2912033498287201,-0.0096867159008979,63.50807189941406,92.48469543457033,-22.83700561523438
40069,0.043701171875,0.9957427978515624,0.096405029296875,-0.0171097442507743,-0.2821542024612427,-0.0175880491733551,63.55076599121094,92.4470672607422,-22.85606384277344
40070,0.0528411865234375,1.003173828125,0.1020660400390625,-0.0039406795985996,-0.2960204780101776,-0.0251008253544569,63.44084167480469,92.44476318359376,-22.90180969238281
40071,0.042236328125,1.01031494140625,0.10693359375,0.0177939105778932,-0.2927631735801697,-0.0266204252839088,63.42947387695312,92.4678955078125,-22.83169555664062
40072,0.046142578125,1.005233764648438,0.1070556640625,0.0036594495177268,-0.2730994522571564,-0.0440018139779567,63.35264587402344,92.53767395019533,-23.06063842773438
40073,0.0524444580078125,0.99615478515625,0.1396331787109375,0.0192253589630127,-0.2837358415126801,-0.0455539040267467,63.23609924316406,92.62890625,-23.01490783691406
40074,0.053802490234375,0.996002197265625,0.1039276123046875,0.0192253589630127,-0.2837358415126801,-0.0455539040267467,63.2744140625,92.62680053710938,-22.93238830566406
40075,0.053466796875,0.9896240234375,0.1024627685546875,0.0076435385271906,-0.3123211562633514,-0.0437887609004974,63.2774658203125,92.532958984375,-22.93424987792969
40076,0.0593719482421875,0.9837188720703124,0.108001708984375,-0.0022503710351884,-0.2957794666290283,-0.0451184771955013,63.16575622558594,92.47914123535156,-23.04090881347656
40077,0.0625,0.9808349609375,0.0999908447265625,0.0069902651011943,-0.2968849241733551,-0.0434726439416408,63.05941772460938,92.45884704589844,-23.05885314941406
40078,0.064117431640625,0.9792022705078124,0.0971221923828125,0.0069902651011943,-0.2968849241733551,-0.0434726439416408,63.078857421875,92.56721496582033,-23.1177978515625
40079,0.0715179443359375,0.979736328125,0.108184814453125,0.0011837751371786,-0.299430638551712,-0.0449680089950561,63.01315307617188,92.60275268554688,-23.13847351074219
40080,0.0715179443359375,0.979736328125,0.108184814453125,0.0011837751371786,-0.299430638551712,-0.0449680089950561,63.01315307617188,92.60275268554688,-23.13847351074219
40081,0.069854736328125,0.978515625,0.1154937744140625,0.0031987228430807,-0.2710005939006805,-0.0404315777122974,62.89768981933594,92.5752410888672,-23.19802856445312
40082,0.0704193115234375,0.9815826416015624,0.11138916015625,0.006803311407566,-0.2122541964054108,-0.0287078116089105,62.9300537109375,92.58309936523438,-23.20204162597656
40083,0.0639495849609375,0.9842681884765624,0.109222412109375,0.006803311407566,-0.2122541964054108,-0.0287078116089105,62.79933166503906,92.63679504394533,-23.158935546875
40084,0.055267333984375,0.9883270263671876,0.1075439453125,0.0121946148574352,-0.1957705616950989,-0.0303027778863906,62.74043273925781,92.6796875,-23.18452453613281
40085,0.0500640869140625,0.9905853271484376,0.11199951171875,0.0164066702127456,-0.1742343902587891,-0.0270878095179796,62.71890258789062,92.69683837890624,-23.31730651855469
40086,0.04705810546875,0.9889373779296876,0.11712646484375,0.0164066702127456,-0.1742343902587891,-0.0270878095179796,62.74775695800781,92.62161254882812,-23.2550048828125
40087,0.0441131591796875,0.984375,0.1154937744140625,0.0093269227072596,-0.1736176013946533,-0.0217750705778598,62.64212036132812,92.6499481201172,-23.19070434570312
40088,0.0441131591796875,0.984375,0.1154937744140625,0.0093269227072596,-0.1736176013946533,-0.0217750705778598,62.64212036132812,92.6499481201172,-23.19070434570312
40089,0.047332763671875,0.984344482421875,0.1136932373046875,-0.0007970841252245,-0.1761963367462158,-0.0223684217780828,62.56036376953125,92.72688293457033,-23.382080078125
40090,0.0516357421875,0.984466552734375,0.1078643798828125,-0.0059335227124392,-0.1744128167629242,-0.0248033497482538,62.60751342773438,92.68875122070312,-23.44773864746094
40091,0.0566864013671875,0.9862060546875,0.105682373046875,-0.0067433901131153,-0.181398019194603,-0.0277141854166984,62.60223388671875,92.6934051513672,-23.49029541015625
40092,0.06195068359375,0.98614501953125,0.103515625,-0.0062339273281395,-0.1786791980266571,-0.0286068767309188,62.57131958007812,92.75050354003906,-23.59483337402344
40093,0.06475830078125,0.985015869140625,0.1005859375,-0.0098094874992966,-0.1590650230646133,-0.0264060404151678,62.43281555175781,92.764892578125,-23.50621032714844
40094,0.0637054443359375,0.98675537109375,0.1005706787109375,-0.0098094874992966,-0.1590650230646133,-0.0264060404151678,62.39643859863281,92.72428894042967,-23.48292541503906
40095,0.06011962890625,0.987274169921875,0.0963897705078125,-0.007962585426867,-0.153658539056778,-0.0277480073273181,62.37211608886719,92.720703125,-23.39332580566406
40096,0.0538787841796875,0.9875640869140624,0.0946807861328125,-0.0047875647433102,-0.1428551524877548,-0.0304479207843542,62.42025756835938,92.76925659179688,-23.42660522460938
40097,0.0497283935546875,0.9864501953125,0.0937042236328125,0.0013385047204792,-0.1197932437062263,-0.0338370576500892,62.36093139648438,92.8054656982422,-23.4261474609375
40098,0.0473785400390625,0.9875946044921876,0.0934906005859375,0.0013385047204792,-0.1197932437062263,-0.0338370576500892,62.29670715332031,92.8364715576172,-23.45648193359375
40099,0.04302978515625,0.9915924072265624,0.097412109375,0.0040871533565223,-0.1069192588329315,-0.0352988690137863,62.368408203125,92.76075744628906,-23.46939086914062
40100,0.0420074462890625,0.992706298828125,0.0961456298828125,-0.0054443003609776,-0.1020219698548317,-0.0407130755484104,62.27719116210938,92.66110229492188,-23.42605590820312
40101,0.0409393310546875,0.9961700439453124,0.104736328125,-0.0107485176995396,-0.0923352539539337,-0.0410739332437515,62.13729858398438,92.61279296875,-23.64047241210938
40102,0.0423431396484375,0.99566650390625,0.1037139892578125,-0.016602411866188,-0.0891391932964325,-0.045896653085947,62.18501281738281,92.59060668945312,-23.62004089355469
40103,0.0456390380859375,0.994354248046875,0.1033935546875,-0.0144327348098158,-0.0719359740614891,-0.0407279878854751,62.17741394042969,92.53239440917967,-23.55451965332031
40104,0.0478515625,0.993499755859375,0.1046905517578125,-0.0077780280262231,-0.0568438395857811,-0.0343204215168952,62.15829467773438,92.64356994628906,-23.63395690917969
40105,0.048675537109375,0.9917755126953124,0.1063232421875,-0.0077780280262231,-0.0568438395857811,-0.0343204215168952,62.07017517089844,92.64004516601562,-23.65083312988281
40106,0.0491790771484375,0.98907470703125,0.1083221435546875,-0.0039188414812088,-0.0504424013197422,-0.0372933112084865,62.12423706054688,92.7165069580078,-23.56138610839844
40107,0.04815673828125,0.9866485595703124,0.10986328125,-0.001807487453334,-0.0448388457298278,-0.0358219146728515,62.06074523925781,92.68536376953124,-23.47195434570312
40108,0.0496063232421875,0.9856414794921876,0.1057281494140625,-0.0082920184358954,-0.039094939827919,-0.0384105071425437,62.04071044921875,92.7267608642578,-23.59272766113281
40109,0.0517578125,0.985595703125,0.1015167236328125,-0.0095066856592893,-0.0403250530362129,-0.0391050577163696,61.93708801269531,92.7476043701172,-23.72903442382812
40110,0.0533447265625,0.9873046875,0.09844970703125,-0.0095066856592893,-0.0403250530362129,-0.0391050577163696,62.04490661621094,92.82643127441406,-23.7357177734375
40111,0.055328369140625,0.9889984130859376,0.0960693359375,-0.0086273103952407,-0.0390858836472034,-0.0388813540339469,61.98762512207031,92.67318725585938,-23.66293334960938
40112,0.05523681640625,0.9909210205078124,0.0964813232421875,-0.0063849287107586,-0.0380621626973152,-0.0391242317855358,61.9378662109375,92.77711486816406,-23.72543334960938
40113,0.0542449951171875,0.9909820556640624,0.099273681640625,-0.007096791639924,-0.0395351573824882,-0.0390794910490512,61.96250915527344,92.79591369628906,-23.67889404296875
40114,0.0525360107421875,0.991851806640625,0.10089111328125,-0.0105639612302184,-0.0405191965401172,-0.0422965921461582,61.98904418945312,92.78556823730467,-23.60263061523438
40115,0.051116943359375,0.9928741455078124,0.101470947265625,-0.0120308296754956,-0.0491731390357017,-0.0459302067756652,61.89236450195312,92.8587646484375,-23.48912048339844
40116,0.053985595703125,0.9908447265625,0.0984954833984375,-0.0155778946354985,-0.0603877082467079,-0.0484839119017124,61.80818176269531,92.76042175292967,-23.53425598144531
40117,0.053985595703125,0.9908447265625,0.0984954833984375,-0.0155778946354985,-0.0603877082467079,-0.0484839119017124,61.80818176269531,92.76042175292967,-23.53425598144531
40118,0.0538330078125,0.9891204833984376,0.094940185546875,-0.0128907645121216,-0.0624359473586082,-0.0497483797371387,61.82652282714844,92.74404907226562,-23.64358520507812
40119,0.051788330078125,0.988739013671875,0.0948486328125,-0.0077764303423464,-0.0603831820189952,-0.0476114600896835,61.75514221191406,92.8298797607422,-23.62001037597656
40120,0.0492401123046875,0.9895172119140624,0.09814453125,-0.0012287824647501,-0.0601440295577049,-0.0489363819360733,61.69450378417969,92.95736694335938,-23.62075805664062
40121,0.0488128662109375,0.9937896728515624,0.1006011962890625,-0.0012287824647501,-0.0601440295577049,-0.0489363819360733,61.63706970214844,92.95578002929688,-23.59599304199219
40122,0.046875,0.997222900390625,0.0995941162109375,-0.0004884237423539,-0.0601584129035472,-0.0496937856078147,61.58082580566406,93.014404296875,-23.64041137695312
40123,0.0469970703125,1.000228881835938,0.1005706787109375,0.0079793632030487,-0.0562920346856117,-0.0561386346817016,61.52864074707031,93.09085083007812,-23.61470031738281
40124,0.04681396484375,0.9979248046875,0.103515625,0.0128279142081737,-0.0622939988970756,-0.0586044564843177,61.61465454101562,93.01155090332033,-23.60722351074219
40125,0.0490570068359375,0.99530029296875,0.1058349609375,0.0128279142081737,-0.0622939988970756,-0.0586044564843177,61.54013061523438,92.96965026855467,-23.60659790039062
40126,0.0521697998046875,0.993499755859375,0.1084442138671875,0.0146401952952146,-0.0726997703313827,-0.0665934085845947,61.49943542480469,92.97381591796876,-23.51507568359375
40127,0.052825927734375,0.9917755126953124,0.10986328125,0.0040245689451694,-0.072509616613388,-0.0718440935015678,61.520751953125,92.88758850097656,-23.46571350097656
40128,0.05255126953125,0.9897003173828124,0.1070098876953125,-0.0001531317684566,-0.0793161243200302,-0.0728297308087348,61.49169921875,92.8456573486328,-23.49331665039062
40129,0.0539093017578125,0.987091064453125,0.103240966796875,-0.0001531317684566,-0.0793161243200302,-0.0728297308087348,61.44305419921875,93.0474853515625,-23.65090942382812
40130,0.0544586181640625,0.98419189453125,0.1016845703125,-0.0010274475207552,-0.0867844298481941,-0.0719583481550216,61.35383605957031,92.9883270263672,-23.6461181640625
40131,0.0544586181640625,0.983367919921875,0.097442626953125,0.0001230380439665,-0.0933254212141037,-0.0649449080228805,61.28170776367188,92.88900756835938,-23.62191772460938
40132,0.0553131103515625,0.9804840087890624,0.097198486328125,0.0048461542464792,-0.0996674746274948,-0.0628748387098312,61.34432983398438,92.81785583496094,-23.74113464355469
40133,0.0542755126953125,0.98052978515625,0.100372314453125,0.004235225263983,-0.0980157777667045,-0.0555356964468956,61.35043334960938,92.7314910888672,-23.58476257324219
40134,0.05059814453125,0.9861602783203124,0.09661865234375,-0.0049449573270976,-0.1210281550884247,-0.0558872334659099,61.29020690917969,92.85589599609376,-23.46211242675781
40135,0.05059814453125,0.9861602783203124,0.09661865234375,-0.0049449573270976,-0.1210281550884247,-0.0558872334659099,61.29020690917969,92.85589599609376,-23.46211242675781
40136,0.051544189453125,0.990631103515625,0.096832275390625,-0.0075913406908512,-0.1330171674489975,-0.058201253414154,61.22599792480469,92.86085510253906,-23.48382568359375
40137,0.051544189453125,0.990631103515625,0.096832275390625,-0.0075913406908512,-0.1330171674489975,-0.058201253414154,61.22599792480469,92.86085510253906,-23.48382568359375
40138,0.0555419921875,0.996002197265625,0.0907135009765625,0.0029108349699527,-0.1943465769290924,-0.0657044425606727,61.13833618164062,92.74267578125,-23.42485046386719
40139,0.0594940185546875,0.9968109130859376,0.0884552001953125,0.0029108349699527,-0.1943465769290924,-0.0657044425606727,61.14805603027344,92.69866943359376,-23.31742858886719
40140,0.0609283447265625,0.998443603515625,0.0861358642578125,0.0105948541313409,-0.2091588079929352,-0.0657097697257995,61.09403991699219,92.7268524169922,-23.17909240722656
40141,0.061126708984375,0.9965362548828124,0.0855560302734375,0.0207753200083971,-0.2288835197687149,-0.0706824287772178,61.03309631347656,92.80137634277344,-23.21488952636719
40142,0.062225341796875,0.9948272705078124,0.087860107421875,0.0289200656116008,-0.2447658032178879,-0.0764468386769294,60.94657897949219,92.88502502441406,-23.27339172363281
40143,0.0608673095703125,0.9925079345703124,0.0915985107421875,0.0359494797885417,-0.2601050734519958,-0.073335200548172,60.83261108398438,92.95486450195312,-23.39079284667969
40144,0.05499267578125,0.9874267578125,0.101409912109375,0.0425317473709583,-0.2728645503520966,-0.0742113813757896,60.77352905273438,93.02117919921876,-23.69960021972656
40145,0.05499267578125,0.9874267578125,0.101409912109375,0.0425317473709583,-0.2728645503520966,-0.0742113813757896,60.77352905273438,93.02117919921876,-23.69960021972656
40146,0.051788330078125,0.9840240478515624,0.1045074462890625,0.0440926253795623,-0.2791195213794708,-0.0722699388861656,60.599853515625,93.04803466796876,-23.74162292480469
40147,0.0452880859375,0.9829254150390624,0.1129302978515625,0.0363273806869983,-0.2949075400829315,-0.069065622985363,60.53129577636719,93.13034057617188,-23.787109375
40148,0.0452880859375,0.9829254150390624,0.1129302978515625,0.0363273806869983,-0.2949075400829315,-0.069065622985363,60.53129577636719,93.13034057617188,-23.787109375
40149,0.0424957275390625,0.9816131591796876,0.11590576171875,0.033439714461565,-0.2931948602199554,-0.0653616935014724,60.54592895507812,93.03933715820312,-23.69425964355469
40150,0.0415496826171875,0.98077392578125,0.1173858642578125,0.0297754723578691,-0.292819082736969,-0.0597829073667526,60.47174072265625,92.95651245117188,-23.68217468261719
40151,0.037353515625,0.9778289794921876,0.11138916015625,0.0312649793922901,-0.2850501239299774,-0.0474740415811538,60.22116088867188,92.99671936035156,-23.96934509277344
40152,0.037353515625,0.9778289794921876,0.11138916015625,0.0312649793922901,-0.2850501239299774,-0.0474740415811538,60.22116088867188,92.99671936035156,-23.96934509277344
40153,0.03118896484375,0.9828948974609376,0.1071319580078125,0.0312649793922901,-0.2850501239299774,-0.0474740415811538,60.21343994140625,93.090576171875,-24.01589965820312
40154,0.027801513671875,0.989013671875,0.10650634765625,0.0288486927747726,-0.2965933084487915,-0.0498269461095333,60.14865112304688,93.00076293945312,-24.013671875
40155,0.025634765625,0.992828369140625,0.1082916259765625,0.0190613083541393,-0.2993233203887939,-0.0481033474206924,60.13980102539062,92.93357849121094,-24.1258544921875
40156,0.0262908935546875,0.9915771484375,0.1056060791015625,0.0116119151934981,-0.2982439398765564,-0.0506349466741085,60.02330017089844,92.94691467285156,-24.18243408203125
40157,0.0272064208984375,0.9884185791015624,0.10009765625,0.0102747417986393,-0.2950729131698608,-0.0500847399234771,59.9630126953125,92.92257690429688,-24.40031433105469
40158,0.02728271484375,0.9862823486328124,0.09869384765625,0.0119788981974124,-0.2940934002399445,-0.051476240158081,59.88438415527344,92.94717407226562,-24.235595703125
40159,0.0308685302734375,0.9814910888671876,0.09307861328125,0.0183654241263866,-0.2734951972961426,-0.0397812351584434,59.84271240234375,93.08615112304688,-24.17362976074219
40160,0.0308685302734375,0.9814910888671876,0.09307861328125,0.0183654241263866,-0.2734951972961426,-0.0397812351584434,59.84271240234375,93.08615112304688,-24.17362976074219
40161,0.0298004150390625,0.9791107177734376,0.090484619140625,0.023798007518053,-0.2618592977523804,-0.0299437846988439,59.8009033203125,93.0909423828125,-24.39199829101562
40162,0.0262908935546875,0.9786224365234376,0.0891876220703125,0.0347065813839435,-0.2513179779052734,-0.0280164536088705,59.62722778320312,93.08843994140624,-24.34268188476562
40163,0.017486572265625,0.9799652099609376,0.0855712890625,0.0427330806851387,-0.2497738748788834,-0.0281557384878397,59.6524658203125,93.15798950195312,-24.46905517578125
40164,0.0111541748046875,0.9824371337890624,0.0879669189453125,0.0460505820810794,-0.2495387196540833,-0.032847162336111,59.59796142578125,93.069580078125,-24.46174621582031
40165,0.0084075927734375,0.9821014404296876,0.0938720703125,0.0474934838712215,-0.2540200352668762,-0.040847297757864,59.46067810058594,93.0601806640625,-24.3482666015625
40166,0.0083465576171875,0.9824981689453124,0.0976409912109375,0.0386006571352481,-0.262258768081665,-0.0475323647260665,59.47758483886719,93.1233367919922,-24.40583801269531
40167,0.009735107421875,0.989593505859375,0.105987548828125,0.0278563983738422,-0.2716123461723328,-0.05311781167984,59.36457824707031,93.10748291015624,-24.4051513671875
40168,0.0113983154296875,0.9914703369140624,0.110809326171875,0.0110843423753976,-0.2692980468273163,-0.0514799691736698,59.43064880371094,93.0309600830078,-24.47303771972656
40169,0.0091400146484375,0.995147705078125,0.1085357666015625,-0.00031292141648,-0.2596597969532013,-0.0499774143099784,59.35638427734375,93.00558471679688,-24.46485900878906
40170,0.0099334716796875,0.9974517822265624,0.1063232421875,-0.0024642229545861,-0.2600033581256866,-0.0507617145776748,59.23397827148438,93.1381378173828,-24.49153137207031
40171,0.0108795166015625,0.9953460693359376,0.1110076904296875,0.0005344964447431,-0.2491552233695984,-0.0489158779382705,59.31448364257812,93.09904479980467,-24.37904357910156
40172,0.0108795166015625,0.9953460693359376,0.1110076904296875,0.0005344964447431,-0.2491552233695984,-0.0489158779382705,59.31448364257812,93.09904479980467,-24.37904357910156
40173,0.010406494140625,0.9959716796875,0.11541748046875,-0.0022335932590067,-0.2355805635452271,-0.0433999374508857,59.1978759765625,93.05752563476562,-24.18638610839844
40174,0.0089263916015625,0.9973297119140624,0.115631103515625,-0.0106561062857508,-0.2186300754547119,-0.0424278825521469,59.172607421875,92.99302673339844,-24.07696533203125
40175,0.0027618408203125,0.9990081787109376,0.11566162109375,-0.0234022624790668,-0.1866124868392944,-0.0466460660099983,59.04945373535156,92.93809509277344,-24.11666870117188
40176,-0.002410888671875,0.9995269775390624,0.11505126953125,-0.0193137768656015,-0.1719035804271698,-0.0460836067795753,58.99075317382812,92.9408721923828,-24.23710632324219
40177,-0.0073394775390625,1.002349853515625,0.112945556640625,-0.0170186646282672,-0.1510582268238068,-0.051931906491518,58.871337890625,93.0480499267578,-24.33877563476562
40178,-0.014251708984375,1.004379272460938,0.1129302978515625,-0.0170186646282672,-0.1510582268238068,-0.051931906491518,58.87216186523438,93.1400146484375,-24.29444885253906
40179,-0.017425537109375,1.006423950195312,0.11077880859375,-0.0058349859900772,-0.1348211914300919,-0.0581221580505371,58.86282348632812,93.14398193359376,-24.4080810546875
40180,-0.0169219970703125,1.007659912109375,0.116668701171875,-0.0005328985280357,-0.1039535626769066,-0.0677114054560661,58.7998046875,93.12399291992188,-24.51969909667969
40181,-0.01336669921875,1.00775146484375,0.1233367919921875,-0.0064805359579622,-0.0894233584403991,-0.0642503574490547,58.70782470703125,93.15467834472656,-24.47122192382812
40182,-0.007049560546875,1.00701904296875,0.12677001953125,-0.0064805359579622,-0.0894233584403991,-0.0642503574490547,58.67578125,93.2009735107422,-24.50053405761719
40183,-0.0029296875,0.9999847412109376,0.1192169189453125,-0.0019172097090631,-0.0288247242569923,-0.0464383400976657,58.60939025878906,93.24368286132812,-24.50497436523438
40184,-0.0029296875,0.9999847412109376,0.1192169189453125,-0.0019172097090631,-0.0288247242569923,-0.0464383400976657,58.60939025878906,93.24368286132812,-24.50497436523438
40185,-0.0048980712890625,0.9996490478515624,0.110870361328125,-0.0019172097090631,-0.0288247242569923,-0.0464383400976657,58.61093139648438,93.36529541015624,-24.46360778808594
40186,-0.0084228515625,0.997406005859375,0.1082916259765625,0.0006290386663749,-0.0160024017095565,-0.0445930324494838,58.5333251953125,93.2990264892578,-24.42520141601562
40187,-0.0106658935546875,0.9951171875,0.107452392578125,0.0005752427969127,0.0015779229579493,-0.0462436601519584,58.48820495605469,93.21742248535156,-24.3912353515625
40188,-0.01953125,0.9969940185546876,0.103851318359375,0.0020173445809632,0.0216722730547189,-0.041486456990242,58.47222900390625,93.22296142578124,-24.57466125488281
40189,-0.0260467529296875,0.99188232421875,0.09521484375,0.0004812332044821,0.0440513454377651,-0.0396579317748546,58.54046630859375,93.2260284423828,-24.64106750488281
40190,-0.029510498046875,0.990203857421875,0.08905029296875,0.0099527658894658,0.0632495433092117,-0.0414848588407039,58.53089904785156,93.19540405273438,-24.83792114257812
40191,-0.0316925048828125,0.9904022216796876,0.0803070068359375,0.0146646965295076,0.065158762037754,-0.0355076603591442,58.49623107910156,93.24868774414062,-24.74345397949219
40192,-0.0286102294921875,0.99176025390625,0.082672119140625,0.0206251163035631,0.0737908706068992,-0.0337824635207653,58.46125793457031,93.195556640625,-24.67481994628906
40193,-0.0265045166015625,0.9963226318359376,0.0832977294921875,0.0188533160835504,0.0731458514928817,-0.0313067883253097,58.54354858398438,93.15243530273438,-24.73696899414062
40194,-0.0248565673828125,1.001693725585938,0.07965087890625,0.0175845865160226,0.0724869817495346,-0.0251298546791076,58.50836181640625,93.1249542236328,-24.71839904785156
40195,-0.018798828125,1.00750732421875,0.085479736328125,0.0183774083852767,0.0565700680017471,-0.0248150676488876,58.57012939453125,93.0976104736328,-24.63153076171875
40196,-0.0035552978515625,1.01727294921875,0.1044158935546875,0.0236741695553064,0.0493196137249469,-0.0238355584442615,58.51614379882812,93.12120056152344,-24.60610961914062
40197,-0.0035552978515625,1.01727294921875,0.1044158935546875,0.0236741695553064,0.0493196137249469,-0.0238355584442615,58.51614379882812,93.12120056152344,-24.60610961914062
40198,0.004425048828125,1.014389038085938,0.112884521484375,0.0177995041012764,0.0598604045808315,-0.0275304280221462,58.5277099609375,93.10499572753906,-24.609619140625
40199,0.0055999755859375,1.006195068359375,0.1013336181640625,0.01893294416368,0.0614061020314693,-0.024542361497879,58.51345825195312,93.1269073486328,-24.58702087402344
40200,0.004058837890625,0.99755859375,0.101409912109375,0.0382078401744365,0.0772532448172569,-0.0287520196288824,58.43266296386719,93.15977478027344,-24.4852294921875
40201,0.002960205078125,0.9901275634765624,0.10028076171875,0.0382078401744365,0.0772532448172569,-0.0287520196288824,58.41653442382812,93.23643493652344,-24.52847290039062
40202,0.002044677734375,0.9855194091796876,0.108154296875,0.0312141124159097,0.0683676078915596,-0.0305661652237176,58.44798278808594,93.30076599121094,-24.51971435546875
40203,-0.000640869140625,0.982696533203125,0.11767578125,0.022897059097886,0.0695846676826477,-0.0300156902521848,58.44108581542969,93.20542907714844,-24.41477966308594
40204,-0.004486083984375,0.9777069091796876,0.11865234375,-0.0168253183364868,0.0523867756128311,-0.0253644790500402,58.48208618164062,93.135009765625,-24.39285278320312
40205,-0.004486083984375,0.9777069091796876,0.11865234375,-0.0168253183364868,0.0523867756128311,-0.0253644790500402,58.48208618164062,93.135009765625,-24.39285278320312
40206,-0.003448486328125,0.976715087890625,0.107879638671875,-0.0346626378595829,0.0502237565815448,-0.0183542389422655,58.43022155761719,93.11335754394533,-24.16749572753906
40207,-0.0057525634765625,0.975799560546875,0.1038818359375,-0.0391482003033161,0.052044291049242,-0.0169768519699573,58.48672485351562,93.29153442382812,-24.39695739746094
40208,-0.0085601806640625,0.975616455078125,0.0996856689453125,-0.0348535887897014,0.0528011620044708,-0.0093892402946949,58.44647216796875,93.18023681640624,-24.47589111328125
40209,-0.0142364501953125,0.9762725830078124,0.1005706787109375,-0.0450428426265716,0.0506426692008972,0.004038683604449,58.38323974609375,93.3798370361328,-24.666015625
40210,-0.0189056396484375,0.97918701171875,0.105865478515625,-0.0450428426265716,0.0506426692008972,0.004038683604449,58.4451904296875,93.34375,-24.56289672851562
40211,-0.0205078125,0.981781005859375,0.1039581298828125,-0.0556342341005802,0.048057273030281,0.0042802323587238,58.39859008789062,93.3288116455078,-24.49638366699219
40212,-0.0213470458984375,0.985260009765625,0.10400390625,-0.0819161683320999,0.019462913274765,-0.0097410446032881,58.49618530273438,93.2550048828125,-24.48941040039062
40213,-0.021697998046875,0.9864501953125,0.10205078125,-0.0819161683320999,0.019462913274765,-0.0097410446032881,58.5328369140625,93.21351623535156,-24.42494201660156
40214,-0.018157958984375,0.98944091796875,0.09954833984375,-0.0907147228717804,-0.0040314933285117,-0.0134401749819517,58.59980773925781,93.2926025390625,-24.42221069335938
40215,-0.00518798828125,0.9898834228515624,0.1018218994140625,-0.1089011803269386,-0.0384970568120479,-0.0101847266778349,58.48538208007812,93.41252136230467,-24.21823120117188
40216,-0.0022125244140625,0.987640380859375,0.101806640625,-0.1193908452987671,-0.0523159354925155,0.0059966398403048,58.46791076660156,93.53927612304688,-24.22264099121094
40217,-0.0022125244140625,0.987640380859375,0.101806640625,-0.1193908452987671,-0.0523159354925155,0.0059966398403048,58.46791076660156,93.53927612304688,-24.22264099121094
40218,-0.0023345947265625,0.9865570068359376,0.098236083984375,-0.1193908452987671,-0.0523159354925155,0.0059966398403048,58.44595336914062,93.4515380859375,-24.20542907714844
40219,-0.0159454345703125,0.990997314453125,0.0872650146484375,-0.1138527989387512,-0.1231501623988152,0.0022453111596405,58.57481384277344,93.38572692871094,-24.12223815917969
40220,-0.0159454345703125,0.990997314453125,0.0872650146484375,-0.1138527989387512,-0.1231501623988152,0.0022453111596405,58.57481384277344,93.38572692871094,-24.12223815917969
40221,-0.02130126953125,0.994598388671875,0.082489013671875,-0.1138527989387512,-0.1231501623988152,0.0022453111596405,58.43765258789062,93.49867248535156,-23.96022033691406
40222,-0.0291595458984375,0.9983978271484376,0.0806427001953125,-0.1142224445939064,-0.1356076300144196,-0.0066384617239236,58.56414794921875,93.51589965820312,-23.95913696289062
40223,-0.0327911376953125,1.000946044921875,0.0760955810546875,-0.1086641624569893,-0.1508326530456543,-0.0159190446138382,58.46405029296875,93.4848175048828,-23.84904479980469
40224,-0.0350494384765625,0.9940185546875,0.0743560791015625,-0.1013420671224594,-0.1868047714233398,-0.0185100343078374,58.39535522460938,93.46377563476562,-23.67324829101562
40225,-0.0350494384765625,0.9940185546875,0.0743560791015625,-0.1013420671224594,-0.1868047714233398,-0.0185100343078374,58.39535522460938,93.46377563476562,-23.67324829101562
40226,-0.030426025390625,0.9893341064453124,0.0753173828125,-0.0947443544864654,-0.1989583671092987,-0.0191406719386577,58.39102172851562,93.44647216796876,-23.66841125488281
40227,-0.0252227783203125,0.98333740234375,0.0751953125,-0.091639906167984,-0.2157392203807831,-0.0114385429769754,58.42298889160156,93.322998046875,-23.64347839355469
40228,-0.0074310302734375,0.9813995361328124,0.0760498046875,-0.0844304636120796,-0.2773527801036835,0.0173880457878112,58.37420654296875,93.55032348632812,-23.6414794921875
40229,-0.0074310302734375,0.9813995361328124,0.0760498046875,-0.0844304636120796,-0.2773527801036835,0.0173880457878112,58.37420654296875,93.55032348632812,-23.6414794921875
40230,-0.00323486328125,0.9862060546875,0.0745391845703125,-0.0844304636120796,-0.2773527801036835,0.0173880457878112,58.28738403320312,93.55584716796876,-23.53556823730469
40231,-0.0009918212890625,0.994293212890625,0.076934814453125,-0.0795283839106559,-0.3099456131458282,0.025808960199356,58.28746032714844,93.55230712890624,-23.50372314453125
40232,0.0045318603515625,1.01263427734375,0.0991058349609375,-0.0615722835063934,-0.3596068918704987,0.0294702742248773,58.28988647460938,93.47010803222656,-23.48526000976562
40233,0.0045318603515625,1.01263427734375,0.0991058349609375,-0.0615722835063934,-0.3596068918704987,0.0294702742248773,58.28988647460938,93.47010803222656,-23.48526000976562
40234,0.0061187744140625,1.020797729492188,0.1096649169921875,-0.0571154840290546,-0.3748931884765625,0.0272332187741994,58.27555847167969,93.404052734375,-23.468017578125
40235,0.009521484375,1.04583740234375,0.1170196533203125,-0.0339427851140499,-0.4863115847110748,-0.038595862686634,58.25518798828125,93.44647216796876,-23.47512817382812
40236,0.009521484375,1.04583740234375,0.1170196533203125,-0.0339427851140499,-0.4863115847110748,-0.038595862686634,58.25518798828125,93.44647216796876,-23.47512817382812
40237,0.009521484375,1.04583740234375,0.1170196533203125,-0.0339427851140499,-0.4863115847110748,-0.038595862686634,58.25518798828125,93.44647216796876,-23.47512817382812
40238,0.0141143798828125,1.067901611328125,0.1341094970703125,-0.0536499135196209,-0.494702935218811,-0.0917695984244346,58.10990905761719,93.23789978027344,-23.07429504394531
40239,0.019561767578125,1.053085327148438,0.15289306640625,-0.055592156946659,-0.5180678963661194,-0.113907128572464,57.90034484863281,93.1287078857422,-23.01609802246094
40240,0.019561767578125,1.053085327148438,0.15289306640625,-0.055592156946659,-0.5180678963661194,-0.113907128572464,57.90034484863281,93.1287078857422,-23.01609802246094
40241,0.029632568359375,1.035537719726562,0.193572998046875,-0.0525700002908706,-0.5142468214035034,-0.1344808489084244,57.89657592773438,93.16827392578124,-23.02133178710938
40242,0.0350799560546875,1.018142700195312,0.2144012451171875,-0.0728827267885208,-0.4940019845962524,-0.1394692063331604,57.78855895996094,93.2557373046875,-23.03057861328125
40243,0.0318450927734375,0.996246337890625,0.221923828125,-0.1069807782769203,-0.4688833355903625,-0.1467188745737076,57.66104125976562,93.3991241455078,-23.12997436523438
40244,0.0276336669921875,0.9772186279296876,0.203948974609375,-0.1198907196521759,-0.4283140599727631,-0.1508323848247528,57.57745361328125,93.37376403808594,-23.11418151855469
40245,0.0225982666015625,0.958770751953125,0.1682586669921875,-0.1160275340080261,-0.4249337017536163,-0.1514363884925842,57.36924743652344,93.35804748535156,-23.11074829101562
40246,0.0221405029296875,0.941162109375,0.1486053466796875,-0.0981787666678428,-0.4334560930728912,-0.1481476575136185,57.21455383300781,93.3900909423828,-23.13981628417969
40247,0.029510498046875,0.9326934814453124,0.138946533203125,-0.0772532448172569,-0.4441896975040436,-0.1437241435050964,57.16026306152344,93.29232788085938,-23.00704956054688
40248,0.036529541015625,0.9289093017578124,0.1258697509765625,-0.0582316145300865,-0.4591113924980164,-0.1330424696207047,57.00653076171875,93.3170928955078,-23.07467651367188
40249,0.04034423828125,0.936370849609375,0.1200408935546875,-0.0523766539990901,-0.4809897840023041,-0.1241919919848442,56.92683410644531,93.3089599609375,-23.05172729492188
40250,0.0526275634765625,0.94366455078125,0.1172332763671875,-0.0552952140569686,-0.4979629218578339,-0.1092708334326744,56.83432006835938,93.32150268554688,-23.07899475097656
40251,0.06536865234375,0.9384307861328124,0.110443115234375,-0.0566986985504627,-0.5022317171096802,-0.0922923758625984,56.62495422363281,93.38890075683594,-22.89129638671875
40252,0.072906494140625,0.9401702880859376,0.10791015625,-0.0595874302089214,-0.4861571192741394,-0.0695271492004394,56.46571350097656,93.35383605957033,-22.85197448730469
40253,0.0777740478515625,0.94989013671875,0.1072235107421875,-0.0595874302089214,-0.4861571192741394,-0.0695271492004394,56.45265197753906,93.38166809082033,-22.91307067871094
40254,0.0835113525390625,0.9616546630859376,0.108062744140625,-0.0624719001352787,-0.4845909178256989,-0.0637811124324798,56.4449462890625,93.44587707519533,-22.96708679199219
40255,0.087371826171875,0.972869873046875,0.1136016845703125,-0.0587488003075122,-0.4925836026668549,-0.063835434615612,56.39262390136719,93.46852111816406,-22.90199279785156
40256,0.090179443359375,0.98114013671875,0.1226348876953125,-0.0580300129950046,-0.4903260469436646,-0.0623722970485687,56.2591552734375,93.53581237792967,-22.78419494628906
40257,0.091827392578125,0.9881134033203124,0.129730224609375,-0.0525476299226284,-0.4892368018627167,-0.0655635669827461,56.13639831542969,93.49388122558594,-22.79798889160156
40258,0.08673095703125,0.99383544921875,0.1417083740234375,-0.0404464937746524,-0.4680628180503845,-0.0653925910592079,56.03573608398438,93.62092590332033,-22.72779846191406
40259,0.0807037353515625,0.9991912841796876,0.13360595703125,-0.017317472025752,-0.4565339982509613,-0.0756612047553062,55.94447326660156,93.64451599121094,-22.69833374023438
40260,0.07391357421875,1.005081176757812,0.14044189453125,-0.017317472025752,-0.4565339982509613,-0.0756612047553062,55.94236755371094,93.54359436035156,-22.76898193359375
40261,0.068389892578125,1.0074462890625,0.1465301513671875,-0.0157712399959564,-0.4350848793983459,-0.0867809653282165,55.8607177734375,93.47640991210938,-22.71705627441406
40262,0.065521240234375,1.006195068359375,0.1435546875,-0.0113831497728824,-0.4309053122997284,-0.0909054055809974,55.76277160644531,93.51580810546876,-22.73741149902344
40263,0.0710906982421875,1.000946044921875,0.1425628662109375,-0.0106486491858959,-0.4297660291194916,-0.0898262932896614,55.60621643066406,93.347900390625,-22.63621520996094
40264,0.0710906982421875,1.000946044921875,0.1425628662109375,-0.0106486491858959,-0.4297660291194916,-0.0898262932896614,55.60621643066406,93.347900390625,-22.63621520996094
40265,0.075408935546875,0.994293212890625,0.1447601318359375,-0.0106486491858959,-0.4297660291194916,-0.0898262932896614,55.44947814941406,93.55120849609376,-22.66241455078125
40266,0.0792388916015625,0.9848480224609376,0.1410675048828125,-0.0174133442342281,-0.4405672550201416,-0.0866536721587181,55.38520812988281,93.5069580078125,-22.78018188476562
40267,0.083984375,0.9684295654296876,0.1329193115234375,-0.0133512252941727,-0.4525850415229797,-0.0776332765817642,55.23060607910156,93.4158172607422,-22.80438232421875
40268,0.083984375,0.9684295654296876,0.1329193115234375,-0.0133512252941727,-0.4525850415229797,-0.0776332765817642,55.23060607910156,93.4158172607422,-22.80438232421875
40269,0.0825653076171875,0.969268798828125,0.12713623046875,-0.0134992972016334,-0.4637812376022339,-0.0677257850766181,55.11158752441406,93.4331512451172,-22.77095031738281
40270,0.0823822021484375,0.9713897705078124,0.1270294189453125,-0.0169052146375179,-0.4649940431118011,-0.0638711228966713,55.03733825683594,93.41047668457033,-22.686767578125
40271,0.0808868408203125,0.9758148193359376,0.1273345947265625,-0.0198272336274385,-0.4679520130157471,-0.0600742548704147,55.02890014648438,93.35115051269533,-22.59803771972656
40272,0.07965087890625,0.979034423828125,0.1282501220703125,-0.0231058523058891,-0.4724509119987488,-0.0578214861452579,54.84609985351562,93.3874053955078,-22.61839294433594
40273,0.0778350830078125,0.981170654296875,0.1292724609375,-0.0181635580956935,-0.4591947495937347,-0.0480839051306247,54.70352172851562,93.49851989746094,-22.5771484375
40274,0.0770263671875,0.9813995361328124,0.13055419921875,-0.0181635580956935,-0.4591947495937347,-0.0480839051306247,54.68899536132812,93.53152465820312,-22.63246154785156
40275,0.0773773193359375,0.982818603515625,0.1281585693359375,-0.0209092758595943,-0.454847127199173,-0.0429005958139896,54.63119506835938,93.6404266357422,-22.53915405273438
40276,0.0775604248046875,0.981201171875,0.128997802734375,-0.017512148246169,-0.4461668431758881,-0.0387846790254116,54.50282287597656,93.49894714355467,-22.49226379394531
40277,0.0775604248046875,0.981201171875,0.128997802734375,-0.017512148246169,-0.4461668431758881,-0.0387846790254116,54.50282287597656,93.49894714355467,-22.49226379394531
40278,0.0739593505859375,0.981536865234375,0.1298828125,-0.0127781126648187,-0.4464435279369354,-0.0380717515945434,54.47981262207031,93.5719757080078,-22.54466247558594
40279,0.068145751953125,0.9844512939453124,0.1331939697265625,-0.0038091193418949,-0.4442413747310638,-0.0356733091175556,54.34284973144531,93.70028686523438,-22.59161376953125
40280,0.06298828125,0.983856201171875,0.140350341796875,0.0026290726382285,-0.4438331127166748,-0.0359545387327671,54.26533508300781,93.69638061523438,-22.67547607421875
40281,0.05694580078125,0.984222412109375,0.149688720703125,0.0029803435318171,-0.440123051404953,-0.0394675135612487,54.20632934570312,93.70518493652344,-22.652587890625
40282,0.051177978515625,0.984130859375,0.1535186767578125,-0.00323121342808,-0.4319500923156738,-0.0399703197181224,54.12669372558594,93.70262145996094,-22.63357543945312
40283,0.0464324951171875,0.983001708984375,0.15185546875,-0.0130215259268879,-0.4248202741146088,-0.0476495437324047,54.11717224121094,93.75299072265624,-22.67091369628906
40284,0.0452880859375,0.9830322265625,0.1459808349609375,-0.0184277426451444,-0.4213288724422455,-0.0485153384506702,53.9287109375,93.65814208984376,-22.63995361328125
40285,0.0457611083984375,0.9831390380859376,0.143829345703125,-0.0210701320320367,-0.41592076420784,-0.0533726774156093,53.88351440429688,93.666015625,-22.56497192382812
40286,0.0462493896484375,0.98358154296875,0.1442413330078125,-0.0253024268895387,-0.4103507697582245,-0.0487246625125408,53.92587280273438,93.68478393554688,-22.57057189941406
40287,0.0465850830078125,0.9825897216796876,0.14556884765625,-0.0261048376560211,-0.3934530317783356,-0.0431642495095729,53.56610107421875,93.7642822265625,-22.61788940429688
40288,0.0465850830078125,0.9825897216796876,0.14556884765625,-0.0261048376560211,-0.3934530317783356,-0.0431642495095729,53.56610107421875,93.7642822265625,-22.61788940429688
40289,0.043914794921875,0.9833831787109376,0.145751953125,-0.0297749396413564,-0.3847775161266327,-0.0382536463439464,53.535400390625,93.75311279296876,-22.60556030273438
40290,0.0409698486328125,0.984283447265625,0.14434814453125,-0.0300724152475595,-0.3796602487564087,-0.042275283485651,53.55393981933594,93.66114807128906,-22.60009765625
40291,0.034820556640625,0.9842987060546876,0.146942138671875,-0.0325709916651248,-0.3607163727283478,-0.0479643307626247,53.43869018554688,93.62222290039062,-22.53482055664062
40292,0.034820556640625,0.9842987060546876,0.146942138671875,-0.0325709916651248,-0.3607163727283478,-0.0479643307626247,53.43869018554688,93.62222290039062,-22.53482055664062
40293,0.034271240234375,0.9840545654296876,0.15374755859375,-0.0286697279661893,-0.3456540703773499,-0.0469717681407928,53.31979370117188,93.6493682861328,-22.55546569824219
40294,0.0354766845703125,0.98175048828125,0.15313720703125,-0.0288532190024852,-0.320276290178299,-0.0426539853215217,53.279541015625,93.56089782714844,-22.43888854980469
40295,0.0358734130859375,0.9833526611328124,0.151763916015625,-0.0220049005001783,-0.3052698969841003,-0.0381218194961547,53.27995300292969,93.60433959960938,-22.55131530761719
40296,0.0370635986328125,0.983001708984375,0.15106201171875,-0.0220041014254093,-0.2991169393062592,-0.0362999513745307,53.20805358886719,93.6536102294922,-22.59550476074219
40297,0.037384033203125,0.9818572998046876,0.15057373046875,-0.021205686032772,-0.288706362247467,-0.0313254334032535,53.07232666015625,93.67898559570312,-22.62608337402344
40298,0.0382232666015625,0.9806976318359376,0.1461334228515625,-0.016300143674016,-0.2782140374183655,-0.0306798815727233,53.04049682617188,93.82810974121094,-22.49929809570312
40299,0.0380859375,0.983306884765625,0.14959716796875,-0.0153762931004166,-0.272089034318924,-0.0236507337540388,53.01750183105469,93.65315246582033,-22.45758056640625
40300,0.0380859375,0.983306884765625,0.14959716796875,-0.0153762931004166,-0.272089034318924,-0.0236507337540388,53.01750183105469,93.65315246582033,-22.45758056640625
40301,0.03399658203125,0.9837188720703124,0.1551513671875,-0.0165925584733486,-0.263828456401825,-0.019939886406064,53.0426025390625,93.71389770507812,-22.50962829589844
40302,0.0311737060546875,0.986083984375,0.1572418212890625,-0.0231660399585962,-0.259422779083252,-0.0249626077711582,53.01168823242188,93.6494598388672,-22.28256225585938
40303,0.0294036865234375,0.9815826416015624,0.1591033935546875,-0.034029871225357,-0.2461091130971909,-0.0302497819066047,52.7294921875,93.80352783203124,-22.55435180664062
40304,0.0294036865234375,0.9815826416015624,0.1591033935546875,-0.034029871225357,-0.2461091130971909,-0.0302497819066047,52.7294921875,93.80352783203124,-22.55435180664062
40305,0.030487060546875,0.9807281494140624,0.159332275390625,-0.0342128314077854,-0.2405873090028763,-0.0272172391414642,52.76138305664062,93.86297607421876,-22.55888366699219
40306,0.032196044921875,0.9819183349609376,0.1588897705078125,-0.0386291518807411,-0.2380780726671219,-0.0247191954404115,52.71183776855469,93.89535522460938,-22.43254089355469
40307,0.0335540771484375,0.9855804443359376,0.1566619873046875,-0.0396075956523418,-0.2269428670406342,-0.0288092773407697,52.65666198730469,93.92510986328124,-22.51921081542969
40308,0.0335540771484375,0.9855804443359376,0.1566619873046875,-0.0396075956523418,-0.2269428670406342,-0.0288092773407697,52.65666198730469,93.92510986328124,-22.51921081542969
40309,0.0303192138671875,0.988525390625,0.1569671630859375,-0.0374046303331852,-0.2314052581787109,-0.0319502092897892,52.60650634765625,93.9276885986328,-22.45587158203125
40310,0.0313873291015625,0.989532470703125,0.1572418212890625,-0.0371204689145088,-0.23920539021492,-0.0349915400147438,52.62882995605469,93.92521667480467,-22.45819091796875
40311,0.033233642578125,0.9869232177734376,0.1571807861328125,-0.0469509959220886,-0.2495656162500381,-0.0433916822075843,52.55897521972656,93.81436157226562,-22.455322265625
40312,0.0356597900390625,0.9825286865234376,0.157745361328125,-0.0571415834128856,-0.2684341073036194,-0.056261409074068,52.43794250488281,93.90335083007812,-22.36524963378906
40313,0.0356597900390625,0.9825286865234376,0.157745361328125,-0.0571415834128856,-0.2684341073036194,-0.056261409074068,52.43794250488281,93.90335083007812,-22.36524963378906
40314,0.037994384765625,0.9804229736328124,0.1602020263671875,-0.0522586777806282,-0.2715170085430145,-0.0618156976997852,52.50173950195312,93.88688659667967,-22.35295104980469
40315,0.04364013671875,0.9763641357421876,0.1651763916015625,-0.0457043722271919,-0.2588869631290436,-0.0578832738101482,52.35882568359375,93.7425537109375,-22.3060302734375
40316,0.04364013671875,0.9763641357421876,0.1651763916015625,-0.0457043722271919,-0.2588869631290436,-0.0578832738101482,52.35882568359375,93.7425537109375,-22.3060302734375
40317,0.040679931640625,0.97747802734375,0.1624603271484375,-0.0457043722271919,-0.2588869631290436,-0.0578832738101482,52.38581848144531,93.7901611328125,-22.19338989257812
40318,0.0364837646484375,0.976654052734375,0.15545654296875,-0.0418688878417015,-0.2532961666584015,-0.0569093562662601,52.25990295410156,93.76406860351562,-22.14060974121094
40319,0.0217437744140625,0.97998046875,0.1483154296875,-0.0211633425205946,-0.2434028089046478,-0.0549740344285965,52.20817565917969,93.9110107421875,-22.28492736816406
40320,0.0217437744140625,0.97998046875,0.1483154296875,-0.0211633425205946,-0.2434028089046478,-0.0549740344285965,52.20817565917969,93.9110107421875,-22.28492736816406
40321,0.01654052734375,0.982818603515625,0.1451416015625,-0.0211633425205946,-0.2434028089046478,-0.0549740344285965,52.08949279785156,93.76271057128906,-22.22822570800781
40322,0.0160675048828125,0.981048583984375,0.1454010009765625,-0.0202908907085657,-0.2428523302078247,-0.0522533506155014,51.96469116210938,93.86253356933594,-22.14344787597656
40323,0.0166015625,0.9815673828125,0.147125244140625,-0.017504159361124,-0.2448398470878601,-0.0555242449045181,51.99647521972656,94.00320434570312,-22.15737915039062
40324,0.0160980224609375,0.9793243408203124,0.1501617431640625,-0.0188069771975278,-0.2416752129793167,-0.0562992244958877,51.8907470703125,94.0600128173828,-22.24494934082031
40325,0.0168304443359375,0.9798583984375,0.150543212890625,-0.0263865999877452,-0.2394227087497711,-0.0519300438463687,51.92874145507812,94.001953125,-22.24263000488281
40326,0.01812744140625,0.9844512939453124,0.149169921875,-0.0313600525259971,-0.2324787825345993,-0.0489691421389579,51.93795776367188,93.95484924316406,-22.24392700195312
40327,0.0187225341796875,0.987762451171875,0.1453857421875,-0.0302242152392864,-0.235569640994072,-0.0499001815915107,51.83245849609375,94.05384826660156,-22.11575317382812
40328,0.01995849609375,0.990020751953125,0.143829345703125,-0.0297528356313705,-0.2488723993301392,-0.0373106189072132,51.76304626464844,94.15476989746094,-22.18109130859375
40329,0.0234832763671875,0.9912872314453124,0.14581298828125,-0.0297528356313705,-0.2488723993301392,-0.0373106189072132,51.60787963867188,94.18594360351562,-22.13531494140625
40330,0.0271148681640625,0.9883575439453124,0.149566650390625,-0.0248547494411468,-0.2569535076618195,-0.0347132384777069,51.66876220703125,93.99085998535156,-22.16300964355469
40331,0.0257568359375,0.989715576171875,0.1557159423828125,-0.0199356246739625,-0.2620529234409332,-0.0289339125156402,51.69573974609375,94.01443481445312,-22.0164794921875
40332,0.0257568359375,0.989715576171875,0.1557159423828125,-0.0199356246739625,-0.2620529234409332,-0.0289339125156402,51.69573974609375,94.01443481445312,-22.0164794921875
40333,0.0254669189453125,0.9890594482421876,0.15850830078125,-0.0177172124385833,-0.266627162694931,-0.0325973592698574,51.59591674804688,94.0364990234375,-21.88003540039062
40334,0.026397705078125,0.98779296875,0.1624298095703125,-0.0194517280906438,-0.2685478329658508,-0.030003972351551,51.615234375,93.9241943359375,-21.68112182617188
40335,0.0260162353515625,0.9880218505859376,0.167144775390625,-0.0284606702625751,-0.2725441753864288,-0.0262875296175479,51.4091796875,93.94181823730467,-21.853271484375
40336,0.0260162353515625,0.9880218505859376,0.167144775390625,-0.0284606702625751,-0.2725441753864288,-0.0262875296175479,51.4091796875,93.94181823730467,-21.853271484375
40337,0.0260162353515625,0.9880218505859376,0.167144775390625,-0.0284606702625751,-0.2725441753864288,-0.0262875296175479,51.4091796875,93.94181823730467,-21.853271484375
40338,0.01611328125,0.987884521484375,0.166290283203125,-0.0286691952496767,-0.2707140445709229,-0.0280468147248029,51.44033813476562,93.9298858642578,-21.68902587890625
40339,0.0089874267578125,0.9849090576171876,0.15863037109375,-0.0325163975358009,-0.2745189070701599,-0.0251567512750625,51.30525207519531,93.92005920410156,-21.39955139160156
40340,0.0089874267578125,0.9849090576171876,0.15863037109375,-0.0325163975358009,-0.2745189070701599,-0.0251567512750625,51.30525207519531,93.92005920410156,-21.39955139160156
40341,0.0066680908203125,0.9837646484375,0.154937744140625,-0.032509472221136,-0.2756344974040985,-0.023341542109847,51.19921875,93.94496154785156,-21.40916442871094
40342,0.003082275390625,0.9818572998046876,0.1521759033203125,-0.0332927107810974,-0.2762883007526398,-0.0198368206620216,51.19268798828125,94.04957580566406,-21.66661071777344
40343,-0.001922607421875,0.97735595703125,0.164520263671875,-0.0341694205999374,-0.2595767080783844,-0.0134204672649502,51.09124755859375,94.12368774414062,-21.8271484375
40344,-0.001922607421875,0.97735595703125,0.164520263671875,-0.0341694205999374,-0.2595767080783844,-0.0134204672649502,51.09124755859375,94.12368774414062,-21.8271484375
40345,-0.0079803466796875,0.9814605712890624,0.1642608642578125,-0.037173468619585,-0.255687952041626,-0.0141075635328888,51.00662231445312,94.09507751464844,-21.87477111816406
40346,-0.0076141357421875,0.983489990234375,0.170501708984375,-0.0415383875370025,-0.2385308146476746,-0.0167398322373628,50.97538757324219,94.21514892578124,-21.75445556640625
40347,-0.006195068359375,0.9837646484375,0.170928955078125,-0.0464692302048206,-0.2201448827981949,-0.0191742274910211,50.88740539550781,94.16183471679688,-21.8157958984375
40348,-0.004638671875,0.985015869140625,0.1659698486328125,-0.0423842072486877,-0.2111854702234268,-0.0201438833028078,50.89402770996094,94.23052978515624,-21.84223937988281
40349,-0.004638671875,0.985015869140625,0.1659698486328125,-0.0423842072486877,-0.2111854702234268,-0.0201438833028078,50.89402770996094,94.23052978515624,-21.84223937988281
40350,-0.004302978515625,0.984222412109375,0.163970947265625,-0.0420337356626987,-0.2104736119508743,-0.0238491408526897,50.83592224121094,94.09635925292967,-21.85343933105469
40351,-0.0001068115234375,0.98028564453125,0.1650390625,-0.0393207743763923,-0.2013418972492218,-0.0281799733638763,50.76705932617188,94.32847595214844,-21.96220397949219
40352,-0.0001068115234375,0.98028564453125,0.1650390625,-0.0393207743763923,-0.2013418972492218,-0.0281799733638763,50.76705932617188,94.32847595214844,-21.96220397949219
40353,0.00152587890625,0.9798126220703124,0.164031982421875,-0.0463374033570289,-0.193149745464325,-0.0255959071218967,50.75129699707031,94.35964965820312,-21.89939880371094
40354,0.0028839111328125,0.9806060791015624,0.1627960205078125,-0.0514054000377655,-0.1846159249544144,-0.0264694243669509,50.64695739746094,94.29403686523438,-21.717529296875
40355,0.0045928955078125,0.9831390380859376,0.1634063720703125,-0.048051681369543,-0.1757036447525024,-0.0248249229043722,50.71823120117188,94.19436645507812,-21.67994689941406
40356,0.0045928955078125,0.9831390380859376,0.1634063720703125,-0.048051681369543,-0.1757036447525024,-0.0248249229043722,50.71823120117188,94.19436645507812,-21.67994689941406
40357,0.0068206787109375,0.98345947265625,0.169647216796875,-0.0438508130609989,-0.1613569408655167,-0.0250907056033611,50.63987731933594,94.25750732421876,-21.62908935546875
40358,0.0077362060546875,0.9840850830078124,0.1728973388671875,-0.0426798202097415,-0.1550393849611282,-0.0222746785730123,50.57183837890625,94.21360778808594,-21.44528198242188
40359,0.0059967041015625,0.98486328125,0.17578125,-0.0435799695551395,-0.1463638693094254,-0.015598933212459,50.54737854003906,94.41134643554688,-21.295654296875
40360,0.0042724609375,0.985748291015625,0.175140380859375,-0.0436364263296127,-0.134674996137619,-0.0197265669703483,50.51824951171875,94.3939971923828,-21.26101684570312
40361,0.0032196044921875,0.9866790771484376,0.171661376953125,-0.041686724871397,-0.1264729797840118,-0.0198000706732273,50.5345458984375,94.40850830078124,-21.38517761230469
40362,0.002777099609375,0.98590087890625,0.1667633056640625,-0.0382046438753604,-0.1161718815565109,-0.0210296511650085,50.53005981445312,94.23040771484376,-21.36936950683594
40363,0.0008544921875,0.985321044921875,0.1683502197265625,-0.0329446345567703,-0.1137710362672806,-0.0193409416824579,50.47451782226562,94.23649597167967,-21.38180541992188
40364,-0.0015106201171875,0.9854736328125,0.16619873046875,-0.0300652235746383,-0.0908462852239608,-0.0260947179049253,50.41899108886719,94.20051574707033,-21.28787231445312
40365,-0.0015106201171875,0.9854736328125,0.16619873046875,-0.0300652235746383,-0.0908462852239608,-0.0260947179049253,50.41899108886719,94.20051574707033,-21.28787231445312
40366,-0.000335693359375,0.9862213134765624,0.1649627685546875,-0.0262414570897817,-0.0839601457118988,-0.0248475596308708,50.42822265625,94.07554626464844,-21.17190551757812
40367,0.0010833740234375,0.9863433837890624,0.1656646728515625,-0.0232033226639032,-0.0787616595625877,-0.0254017636179924,50.45378112792969,94.10501098632812,-21.1544189453125
40368,0.0044708251953125,0.98577880859375,0.167938232421875,-0.0209177993237972,-0.0690009072422981,-0.0257362555712461,50.31924438476562,94.10877990722656,-21.23301696777344
40369,0.005645751953125,0.98468017578125,0.170806884765625,-0.0222576353698968,-0.0639416947960853,-0.0250912383198738,50.3634033203125,94.1129150390625,-21.26724243164062
40370,0.00732421875,0.9833526611328124,0.1713714599609375,-0.0222576353698968,-0.0639416947960853,-0.0250912383198738,50.41648864746094,94.21272277832033,-21.19293212890625
40371,0.01092529296875,0.98394775390625,0.171142578125,-0.0209534857422113,-0.063756339251995,-0.0254726037383079,50.46662902832031,94.01426696777344,-21.04678344726562
40372,0.0201568603515625,0.980865478515625,0.1682281494140625,-0.0177805945277214,-0.0710805654525756,-0.0292500313371419,50.40049743652344,94.15687561035156,-21.16082763671875
40373,0.0201568603515625,0.980865478515625,0.1682281494140625,-0.0177805945277214,-0.0710805654525756,-0.0292500313371419,50.40049743652344,94.15687561035156,-21.16082763671875
40374,0.02203369140625,0.9844207763671876,0.16876220703125,-0.0121136540547013,-0.0696824118494987,-0.0279528051614761,50.33670043945312,94.20054626464844,-21.01113891601562
40375,0.0213775634765625,0.9859619140625,0.1700592041015625,-0.0121136540547013,-0.0696824118494987,-0.0279528051614761,50.32017517089844,94.18267822265624,-20.98860168457031
40376,0.0198974609375,0.9863128662109376,0.16937255859375,-0.0097775291651487,-0.0612143538892269,-0.026829482987523,50.32087707519531,94.2165069580078,-20.95137023925781
40377,0.02001953125,0.9854583740234376,0.1681060791015625,-0.0050000851042568,-0.0572792701423168,-0.029814088717103,50.31947326660156,94.26011657714844,-20.96087646484375
40378,0.019805908203125,0.9845123291015624,0.16607666015625,-0.0050000851042568,-0.0572792701423168,-0.029814088717103,50.30279541015625,94.2877960205078,-21.04801940917969
40379,0.01409912109375,0.986907958984375,0.1674957275390625,0.0072456621564924,-0.0421565063297748,-0.0308069139719009,50.28370666503906,94.34715270996094,-20.99620056152344
40380,0.0127716064453125,0.988494873046875,0.1666412353515625,0.011585016734898,-0.0414523668587207,-0.0325369052588939,50.27549743652344,94.43458557128906,-21.04177856445312
40381,0.0127716064453125,0.988494873046875,0.1666412353515625,0.011585016734898,-0.0414523668587207,-0.0325369052588939,50.27549743652344,94.43458557128906,-21.04177856445312
40382,0.012939453125,0.9881439208984376,0.170684814453125,0.0164945535361766,-0.0417921878397464,-0.0355824939906597,50.23736572265625,94.32632446289062,-21.06135559082031
40383,0.0178680419921875,0.9842987060546876,0.169769287109375,0.0159065276384353,-0.0520474873483181,-0.0347356088459491,50.11068725585938,94.32400512695312,-20.93995666503906
40384,0.0178680419921875,0.9842987060546876,0.169769287109375,0.0159065276384353,-0.0520474873483181,-0.0347356088459491,50.11068725585938,94.32400512695312,-20.93995666503906
40385,0.0188446044921875,0.980072021484375,0.1695404052734375,0.0236539300531148,-0.0508882142603397,-0.0310564525425434,50.09812927246094,94.28524780273438,-20.85675048828125
40386,0.0206756591796875,0.9760589599609376,0.16778564453125,0.0236539300531148,-0.0508882142603397,-0.0310564525425434,50.11112976074219,94.2725830078125,-20.90869140625
40387,0.022369384765625,0.9732818603515624,0.1727142333984375,0.0275978054851293,-0.043722178786993,-0.0220621582120657,50.16433715820312,94.27459716796876,-20.91250610351562
40388,0.0222015380859375,0.97314453125,0.176422119140625,0.0285946261137723,-0.0520733222365379,-0.0163438189774751,50.10934448242188,94.31361389160156,-20.93092346191406
40389,0.0222015380859375,0.97314453125,0.176422119140625,0.0285946261137723,-0.0520733222365379,-0.0163438189774751,50.10934448242188,94.31361389160156,-20.93092346191406
40390,0.020599365234375,0.9750518798828124,0.180755615234375,0.0213417746126651,-0.0519327074289321,-0.0135999647900462,50.10064697265625,94.28419494628906,-20.99215698242188
40391,0.019989013671875,0.9776153564453124,0.1828155517578125,0.0145824048668146,-0.0497499778866767,-0.012834838591516,50.12063598632812,94.21818542480467,-20.924560546875
40392,0.0197906494140625,0.9810943603515624,0.1825714111328125,0.011027617380023,-0.0458620302379131,-0.0140447122976183,50.11456298828125,94.22402954101562,-21.04147338867188
40393,0.0196380615234375,0.9854583740234376,0.18182373046875,0.01151018217206,-0.0406350456178188,-0.01335069257766,50.05079650878906,94.1775360107422,-21.12652587890625
40394,0.02069091796875,0.98797607421875,0.1780548095703125,0.0131794512271881,-0.0441432259976863,-0.0160689819604158,50.08146667480469,94.14094543457033,-21.05882263183594
40395,0.01922607421875,0.985260009765625,0.1761016845703125,0.0184924583882093,-0.0449003614485263,-0.0181382577866315,50.05711364746094,94.05545043945312,-21.02395629882812
40396,0.01922607421875,0.985260009765625,0.1761016845703125,0.0184924583882093,-0.0449003614485263,-0.0181382577866315,50.05711364746094,94.05545043945312,-21.02395629882812
40397,0.017608642578125,0.9815521240234376,0.1774749755859375,0.0219303332269191,-0.046123020350933,-0.0145919919013977,50.01567077636719,94.14175415039062,-21.05572509765625
40398,0.0155181884765625,0.977203369140625,0.1797943115234375,0.019577695056796,-0.0388621762394905,-0.0163211822509765,50.07040405273438,94.25294494628906,-21.00889587402344
40399,0.0138702392578125,0.97503662109375,0.1811065673828125,0.0168207921087741,-0.0335805974900722,-0.015230618417263,50.0311279296875,94.28329467773438,-21.05203247070312
40400,0.0122222900390625,0.9742889404296876,0.1817474365234375,0.0096534267067909,-0.0260824672877788,-0.0146524459123611,50.06919860839844,94.37277221679688,-21.18873596191406
40401,0.0120697021484375,0.9733734130859376,0.180572509765625,0.0062043662182986,-0.0153443347662687,-0.0107913948595523,49.99687194824219,94.57806396484376,-21.27369689941406
40402,0.010986328125,0.9746856689453124,0.1775054931640625,0.0020596887916326,-0.0098363850265741,-0.0084930872544646,50.00628662109375,94.45843505859376,-21.16094970703125
40403,0.0108642578125,0.9770355224609376,0.1753387451171875,-0.0005795038305222,-0.0068283448927104,-0.006539658177644,50.00650024414062,94.29965209960938,-21.227783203125
40404,0.01080322265625,0.9781646728515624,0.1773529052734375,-6.897587445564568e-05,-0.0062043662182986,-0.0060930461622774,49.89830017089844,94.3167724609375,-21.27400207519531
40405,0.009735107421875,0.9789276123046876,0.17730712890625,-6.897587445564568e-05,-0.0062043662182986,-0.0060930461622774,49.9461669921875,94.30624389648438,-21.18597412109375
40406,0.0096282958984375,0.9784698486328124,0.1793060302734375,-0.0034967304673045,-0.0058208713307976,-0.0059231366030871,49.94329833984375,94.25537109375,-21.06338500976562
40407,0.010650634765625,0.9784088134765624,0.182159423828125,-0.0035185683518648,-0.0009001484140753,-0.0040677119977772,49.91169738769531,94.24526977539062,-21.09428405761719
40408,0.0119171142578125,0.978057861328125,0.1837158203125,-0.0071998559869825,0.0055670719593763,-0.0008130630594678,49.85455322265625,94.28752136230467,-21.23466491699219
40409,0.0136260986328125,0.97821044921875,0.184356689453125,-0.0120524019002914,0.016683904454112,0.0014026869321241,49.91036987304688,94.3103485107422,-21.25531005859375
40410,0.012664794921875,0.9790496826171876,0.1820831298828125,-0.0166932269930839,0.0219063647091388,0.0028043086640536,49.93234252929688,94.29347229003906,-21.18695068359375
40411,0.012451171875,0.9792022705078124,0.176727294921875,-0.0165238492190837,0.029985861852765,0.0038069887086749,49.90512084960938,94.31593322753906,-21.21029663085938
40412,0.011627197265625,0.98016357421875,0.1745758056640625,-0.0083609940484166,0.0389932058751583,0.0057524279691278,49.9638671875,94.34333801269533,-21.19288635253906
40413,0.010223388671875,0.98065185546875,0.1775970458984375,-0.0083609940484166,0.0389932058751583,0.0057524279691278,49.8963623046875,94.34161376953124,-21.15435791015625
40414,0.0076141357421875,0.982177734375,0.1793975830078125,-0.0060528325848281,0.0460042431950569,0.0099538303911685,49.9039306640625,94.2965850830078,-21.01643371582031
40415,0.006195068359375,0.9829864501953124,0.1815338134765625,-0.0074869445525109,0.0575277395546436,0.0064254086464643,50.01152038574219,94.38563537597656,-21.04185485839844
40416,0.006195068359375,0.9829864501953124,0.1815338134765625,-0.0074869445525109,0.0575277395546436,0.0064254086464643,50.01152038574219,94.38563537597656,-21.04185485839844
40417,0.0056915283203125,0.9833984375,0.1784210205078125,-0.0071796160191297,0.064813882112503,0.0061340588144958,49.99398803710938,94.35577392578124,-21.05805969238281
40418,0.0055389404296875,0.9842681884765624,0.177032470703125,-0.0062440475448966,0.0842120796442031,0.0070043797604739,49.96879577636719,94.4003448486328,-21.04734802246094
40419,0.00604248046875,0.984466552734375,0.177032470703125,-0.0062440475448966,0.0842120796442031,0.0070043797604739,50.00881958007812,94.33172607421876,-21.02549743652344
40420,0.0069732666015625,0.984222412109375,0.1762542724609375,-0.0035372106358408,0.0968778133392334,0.0082118567079305,50.09565734863281,94.2955322265625,-21.00691223144531
40421,0.00750732421875,0.985382080078125,0.1763458251953125,-0.0035372106358408,0.0968778133392334,0.0082118567079305,50.05294799804688,94.37785339355467,-21.13796997070312
40422,0.0096893310546875,0.9830322265625,0.1776275634765625,0.0008788431296125,0.0990200564265251,0.0102715454995632,50.04762268066406,94.27845764160156,-21.119140625
40423,0.014678955078125,0.982452392578125,0.177642822265625,0.0010860371403396,0.1025689840316772,0.0127730527892708,50.06758117675781,94.39019775390624,-21.01687622070312
40424,0.014678955078125,0.982452392578125,0.177642822265625,0.0010860371403396,0.1025689840316772,0.0127730527892708,50.06758117675781,94.39019775390624,-21.01687622070312
40425,0.017730712890625,0.982177734375,0.1782684326171875,0.0038922098465263,0.0969952568411827,0.0125943552702665,50.021484375,94.54685974121094,-21.02804565429688
40426,0.0199737548828125,0.9812469482421876,0.177764892578125,0.0018602180061861,0.0931198224425315,0.0113562513142824,50.11611938476562,94.41424560546876,-21.0638427734375
40427,0.021636962890625,0.980224609375,0.175140380859375,0.0042389533482491,0.0892356038093566,0.011027617380023,50.11074829101562,94.44607543945312,-21.09146118164062
40428,0.021636962890625,0.980224609375,0.175140380859375,0.0042389533482491,0.0892356038093566,0.011027617380023,50.11074829101562,94.44607543945312,-21.09146118164062
40429,0.0231781005859375,0.9817962646484376,0.1788330078125,0.0040956754237413,0.0912569388747215,0.0104827350005507,50.19210815429688,94.43055725097656,-21.074951171875
40430,0.02325439453125,0.9831390380859376,0.17913818359375,0.0046528088860213,0.0950894951820373,0.0108622349798679,50.22776794433594,94.3999481201172,-21.06062316894531
40431,0.0226593017578125,0.9825439453125,0.178436279296875,0.0149637693539261,0.0932942628860473,0.0126726515591144,50.26710510253906,94.38938903808594,-20.89912414550781
40432,0.0226593017578125,0.9825439453125,0.178436279296875,0.0149637693539261,0.0932942628860473,0.0126726515591144,50.26710510253906,94.38938903808594,-20.89912414550781
40433,0.0231170654296875,0.9828643798828124,0.17877197265625,0.0149637693539261,0.0932942628860473,0.0126726515591144,50.29751586914062,94.52191162109376,-20.82183837890625
40434,0.024078369140625,0.982391357421875,0.1782989501953125,0.0219902526587247,0.0904907509684562,0.0127837061882019,50.32443237304688,94.46240234375,-20.75331115722656
40435,0.0309906005859375,0.9770355224609376,0.19378662109375,0.0269218944013118,0.0983073934912681,0.0141299339011311,50.26951599121094,94.51805114746094,-20.83833312988281
40436,0.0309906005859375,0.9770355224609376,0.19378662109375,0.0269218944013118,0.0983073934912681,0.0141299339011311,50.26951599121094,94.51805114746094,-20.83833312988281
40437,0.0296630859375,0.9752044677734376,0.1956329345703125,0.0149659002199769,0.1015607118606567,0.0152540542185306,50.27862548828125,94.42718505859376,-20.73651123046875
40438,0.028472900390625,0.9723358154296876,0.1973419189453125,-0.0009379653492942,0.104835070669651,0.0161944162100553,50.39604187011719,94.4304656982422,-20.67083740234375
40439,0.028228759765625,0.9732666015625,0.1801910400390625,-0.0466745607554912,0.0857404693961143,0.0129307126626372,50.46910095214844,94.23065185546876,-20.31062316894531
40440,0.028228759765625,0.9732666015625,0.1801910400390625,-0.0466745607554912,0.0857404693961143,0.0129307126626372,50.46910095214844,94.23065185546876,-20.31062316894531
40441,0.0280914306640625,0.9800872802734376,0.1674652099609375,-0.0466745607554912,0.0857404693961143,0.0129307126626372,50.47476196289062,94.1222686767578,-20.26318359375
40442,0.0282745361328125,0.98797607421875,0.1588897705078125,-0.050598993897438,0.0736190900206565,0.0197745040059089,50.50588989257812,94.36984252929688,-20.45730590820312
40443,0.0277252197265625,1.009368896484375,0.1556549072265625,-0.0389516614377498,0.0073862774297595,0.0229535195976495,50.53169250488281,94.31697082519533,-20.4012451171875
40444,0.0277252197265625,1.009368896484375,0.1556549072265625,-0.0389516614377498,0.0073862774297595,0.0229535195976495,50.53169250488281,94.31697082519533,-20.4012451171875
40445,0.024932861328125,1.016067504882812,0.15679931640625,-0.0389516614377498,0.0073862774297595,0.0229535195976495,50.60548400878906,94.3065948486328,-20.36054992675781
40446,0.023773193359375,1.018417358398438,0.1539154052734375,-0.055419847369194,-0.0231836158782243,0.0329305194318294,50.5408935546875,94.2783660888672,-20.21572875976562
40447,0.0263824462890625,1.009811401367188,0.14617919921875,-0.0462191589176654,-0.035812858492136,0.0439331047236919,50.8048095703125,94.10455322265624,-19.78227233886719
40448,0.0263824462890625,1.009811401367188,0.14617919921875,-0.0462191589176654,-0.035812858492136,0.0439331047236919,50.8048095703125,94.10455322265624,-19.78227233886719
40449,0.02398681640625,1.001419067382812,0.1616668701171875,-0.023453926667571,-0.0430934093892574,0.0551024004817009,50.83085632324219,93.95608520507812,-19.42649841308594
40450,0.0220489501953125,0.9878387451171876,0.1904144287109375,0.0027872642967849,-0.0395785681903362,0.0603682696819305,50.81727600097656,93.8173370361328,-19.23690795898438
40451,0.015380859375,0.9722747802734376,0.231109619140625,0.0475446172058582,-0.0035300198942422,0.0522924996912479,50.90074157714844,93.9957275390625,-19.61714172363281
40452,0.015380859375,0.9722747802734376,0.231109619140625,0.0475446172058582,-0.0035300198942422,0.0522924996912479,50.90074157714844,93.9957275390625,-19.61714172363281
40453,0.010711669921875,0.9629974365234376,0.233612060546875,0.0631209090352058,0.0253796577453613,0.0395474098622798,50.94964599609375,94.07247924804688,-19.93862915039062
40454,0.00439453125,0.95330810546875,0.22686767578125,0.0897847488522529,0.0936657711863517,0.0183952525258064,50.88398742675781,94.172607421875,-20.24647521972656
40455,-0.0156097412109375,0.9302825927734376,0.2080535888671875,0.1007644310593605,0.1339575350284576,0.0088755171746015,50.98623657226562,94.19699096679688,-20.52780151367188
40456,-0.0156097412109375,0.9302825927734376,0.2080535888671875,0.1007644310593605,0.1339575350284576,0.0088755171746015,50.98623657226562,94.19699096679688,-20.52780151367188
40457,-0.02685546875,0.9275970458984376,0.1979522705078125,0.1111241206526756,0.1521088480949402,-0.0082182483747601,50.91862487792969,94.2555694580078,-20.57225036621094
40458,-0.0327911376953125,0.932525634765625,0.206085205078125,0.112253300845623,0.1393775939941406,-0.0238877553492784,50.92861938476562,94.25914001464844,-20.29353332519531
40459,-0.0103607177734375,0.9479217529296876,0.235382080078125,0.0737461224198341,0.1303609311580658,-0.0367484278976917,51.03300476074219,94.27156066894533,-20.44502258300781
40460,0.0040435791015625,0.9485626220703124,0.2408905029296875,0.0407556854188442,0.1536875665187836,-0.0313187725841999,51.02700805664062,94.21534729003906,-20.53688049316406
40461,0.0040435791015625,0.9485626220703124,0.2408905029296875,0.0407556854188442,0.1536875665187836,-0.0313187725841999,51.02700805664062,94.21534729003906,-20.53688049316406
40462,0.0027618408203125,0.953948974609375,0.24090576171875,0.0164056047797203,0.2084131240844727,-0.0193470660597086,50.89236450195312,94.15084838867188,-20.51683044433594
40463,-0.039306640625,0.9557037353515624,0.189483642578125,-0.0133637422695756,0.3022440075874329,-0.0002452771295793,50.97088623046875,94.33843994140624,-20.9093017578125
40464,-0.039306640625,0.9557037353515624,0.189483642578125,-0.0133637422695756,0.3022440075874329,-0.0002452771295793,50.97088623046875,94.33843994140624,-20.9093017578125
40465,-0.050689697265625,0.955413818359375,0.1597137451171875,-0.0162442177534103,0.2987214624881744,-0.0024445154704153,50.99851989746094,94.3610382080078,-20.75895690917969
40466,-0.0641937255859375,0.9550323486328124,0.13751220703125,-0.0094784563407301,0.2425276935100555,-0.0080502033233642,50.99102783203125,94.30572509765624,-20.58758544921875
40467,-0.0773468017578125,0.96795654296875,0.12811279296875,-0.0016698020044714,0.094815194606781,-0.0114316185936331,51.05433654785156,94.2628936767578,-20.56462097167969
40468,-0.0773468017578125,0.96795654296875,0.12811279296875,-0.0016698020044714,0.094815194606781,-0.0114316185936331,51.05433654785156,94.2628936767578,-20.56462097167969
40469,-0.061492919921875,0.97833251953125,0.1412506103515625,-0.019383018836379,0.0326463617384433,0.0056096822954714,51.12042236328125,94.36808776855467,-20.70011901855469
40470,-0.042938232421875,0.989471435546875,0.1546630859375,-0.0363145992159843,-0.0019574232865124,0.0277314968407154,51.19876098632812,94.33204650878906,-20.66819763183594
40471,-0.0170745849609375,1.019561767578125,0.1408233642578125,-0.0545207671821117,-0.0821420103311538,0.0737650319933891,51.26248168945312,94.31590270996094,-20.68576049804688
40472,-0.0170745849609375,1.019561767578125,0.1408233642578125,-0.0545207671821117,-0.0821420103311538,0.0737650319933891,51.26248168945312,94.31590270996094,-20.68576049804688
40473,-0.0096435546875,1.034561157226562,0.1315460205078125,-0.04160762950778,-0.1200944483280182,0.0876590088009834,51.25909423828125,94.23739624023438,-20.36552429199219
40474,-0.0103607177734375,1.051193237304688,0.12725830078125,-0.0110521186143159,-0.1811599284410477,0.0992221906781196,51.31169128417969,94.19540405273438,-20.26016235351562
40475,-0.02606201171875,1.031005859375,0.15740966796875,0.0495406538248062,-0.2549606561660767,0.1009745523333549,51.35575866699219,94.3653564453125,-20.75621032714844
40476,-0.02606201171875,1.031005859375,0.15740966796875,0.0495406538248062,-0.2549606561660767,0.1009745523333549,51.35575866699219,94.3653564453125,-20.75621032714844
40477,-0.0396270751953125,0.99603271484375,0.1637725830078125,0.0643441006541252,-0.2904829680919647,0.0871892273426055,51.33210754394531,94.45394897460938,-20.88627624511719
40478,-0.04608154296875,0.965423583984375,0.1722869873046875,0.0605400428175926,-0.3266494870185852,0.0745259001851081,51.399658203125,94.422607421875,-20.88752746582031
40479,-0.0537567138671875,0.9209747314453124,0.172149658203125,0.014200241304934,-0.3965217769145966,0.072255291044712,51.48078918457031,94.27130126953124,-20.92373657226562
40480,-0.0537567138671875,0.9209747314453124,0.172149658203125,0.014200241304934,-0.3965217769145966,0.072255291044712,51.48078918457031,94.27130126953124,-20.92373657226562
40481,-0.0599212646484375,0.9114990234375,0.1636199951171875,0.0014615427935495,-0.4420107007026672,0.0796418339014053,51.3865966796875,94.214111328125,-20.93522644042969
40482,-0.0631103515625,0.9140777587890624,0.15618896484375,-0.0093226619064807,-0.5561569929122925,0.1030307784676552,51.36305236816406,94.22370910644533,-20.96903991699219
40483,-0.0657196044921875,0.9298248291015624,0.1548614501953125,-0.0165656600147485,-0.6186243295669556,0.1114692687988281,51.39302062988281,94.4600830078125,-20.7152099609375
40484,-0.0657196044921875,0.9298248291015624,0.1548614501953125,-0.0165656600147485,-0.6186243295669556,0.1114692687988281,51.39302062988281,94.4600830078125,-20.7152099609375
40485,-0.0677947998046875,0.9371185302734376,0.1576690673828125,-0.028561070561409,-0.6701322793960571,0.120170883834362,51.31924438476562,94.50090026855467,-20.58198547363281
40486,-0.0743560791015625,0.94482421875,0.1548614501953125,-0.0394778996706008,-0.723341703414917,0.1182826980948448,51.39566040039062,94.48916625976562,-20.7174072265625
40487,-0.09930419921875,0.9682769775390624,0.1653900146484375,-0.045551773160696,-0.7865403890609741,0.0976567864418029,51.43939208984375,94.47157287597656,-20.69207763671875
40488,-0.09930419921875,0.9682769775390624,0.1653900146484375,-0.045551773160696,-0.7865403890609741,0.0976567864418029,51.43939208984375,94.47157287597656,-20.69207763671875
40489,-0.12615966796875,0.9811553955078124,0.1736602783203125,-0.0442681275308132,-0.794535219669342,0.0751480162143707,51.39944458007812,94.49246215820312,-20.6939697265625
40490,-0.160064697265625,0.9909820556640624,0.1919403076171875,-0.0369255281984806,-0.7974020838737488,0.0440750494599342,51.33283996582031,94.43287658691406,-20.55352783203125
40491,-0.2147674560546875,0.9926605224609376,0.239990234375,-0.0313209034502506,-0.802241861820221,-0.0526035577058792,51.1671142578125,94.34402465820312,-20.43716430664062
40492,-0.2147674560546875,0.9926605224609376,0.239990234375,-0.0313209034502506,-0.802241861820221,-0.0526035577058792,51.1671142578125,94.34402465820312,-20.43716430664062
40493,-0.22662353515625,0.9969940185546876,0.256561279296875,-0.0388195663690567,-0.809708297252655,-0.1083533689379692,51.12106323242188,94.3019561767578,-20.38031005859375
40494,-0.21826171875,1.009063720703125,0.26947021484375,-0.048175785690546,-0.8553399443626404,-0.1584250628948212,51.11116027832031,94.36207580566406,-20.26020812988281
40495,-0.150726318359375,1.033828735351562,0.3056488037109375,-0.0619182288646698,-0.917374551296234,-0.2309794276952744,50.79939270019531,94.55645751953124,-20.22126770019531
40496,-0.150726318359375,1.033828735351562,0.3056488037109375,-0.0619182288646698,-0.917374551296234,-0.2309794276952744,50.79939270019531,94.55645751953124,-20.22126770019531
40497,-0.1197662353515625,1.053192138671875,0.3035430908203125,-0.0840656086802482,-0.9185210466384888,-0.2558267116546631,50.54859924316406,94.51699829101562,-20.29446411132812
40498,-0.077423095703125,1.069549560546875,0.2964935302734375,-0.1080910488963127,-0.924624502658844,-0.2616553008556366,50.31011962890625,94.46925354003906,-20.16590881347656
40499,0.032623291015625,1.032638549804688,0.2604217529296875,-0.1035807207226753,-0.8798152208328247,-0.2707803547382355,49.91389465332031,94.40992736816406,-20.11067199707031
40500,0.032623291015625,1.032638549804688,0.2604217529296875,-0.1035807207226753,-0.8798152208328247,-0.2707803547382355,49.91389465332031,94.40992736816406,-20.11067199707031
40501,0.0638275146484375,0.98406982421875,0.2133331298828125,-0.0789371579885482,-0.8352352380752563,-0.285569429397583,49.7169189453125,94.5311279296875,-20.0091552734375
40502,0.087860107421875,0.9351043701171876,0.1649627685546875,-0.0481925643980503,-0.8555868268013,-0.289974570274353,49.56207275390625,94.63401794433594,-20.01025390625
40503,0.1110992431640625,0.9055023193359376,0.1377716064453125,-0.0346770212054252,-0.915363907814026,-0.274508535861969,49.33612060546875,94.65089416503906,-20.01872253417969
40504,0.1356964111328125,0.893829345703125,0.132171630859375,-0.0586878135800361,-1.01152241230011,-0.1922485381364822,49.18400573730469,94.59153747558594,-19.99125671386719
40505,0.156585693359375,0.8905029296875,0.1472930908203125,-0.0586878135800361,-1.01152241230011,-0.1922485381364822,49.05290222167969,94.61599731445312,-19.81059265136719
40506,0.172698974609375,0.8842010498046875,0.1692047119140625,-0.0861114487051963,-1.020052433013916,-0.127484992146492,48.87226867675781,94.50726318359376,-19.60539245605469
40507,0.1999053955078125,0.915618896484375,0.1857452392578125,-0.1635817438364029,-1.019031643867493,-0.0370554886758327,48.54299926757812,94.62400817871094,-19.35014343261719
40508,0.1999053955078125,0.915618896484375,0.1857452392578125,-0.1635817438364029,-1.019031643867493,-0.0370554886758327,48.54299926757812,94.62400817871094,-19.35014343261719
40509,0.1941375732421875,0.9418182373046876,0.1774444580078125,-0.2021531015634537,-1.009641885757446,-0.0241069346666336,48.36660766601562,94.57791137695312,-19.31744384765625
40510,0.1773834228515625,0.9649810791015624,0.1881256103515625,-0.2081087231636047,-1.020545125007629,-0.0247918982058763,48.31080627441406,94.68881225585938,-19.18731689453125
40511,0.1378631591796875,1.000564575195312,0.2219696044921875,-0.14349165558815,-1.041431307792664,-0.1084013059735298,48.009521484375,94.6047821044922,-18.83657836914062
40512,0.1378631591796875,1.000564575195312,0.2219696044921875,-0.14349165558815,-1.041431307792664,-0.1084013059735298,48.009521484375,94.6047821044922,-18.83657836914062
40513,0.1199493408203125,1.007553100585938,0.23431396484375,-0.14349165558815,-1.041431307792664,-0.1084013059735298,47.98103332519531,94.7211456298828,-18.81472778320312
40514,0.115509033203125,1.013168334960938,0.24078369140625,-0.1505282521247864,-1.038006663322449,-0.1264956295490265,47.86703491210938,94.618896484375,-18.65634155273438
40515,0.1269073486328125,1.04931640625,0.25030517578125,-0.2251660078763962,-1.008480191230774,-0.1379394978284836,47.70364379882812,94.6195831298828,-18.43843078613281
40516,0.1269073486328125,1.04931640625,0.25030517578125,-0.2251660078763962,-1.008480191230774,-0.1379394978284836,47.70364379882812,94.6195831298828,-18.43843078613281
40517,0.1294403076171875,1.075408935546875,0.242523193359375,-0.2251660078763962,-1.008480191230774,-0.1379394978284836,47.46342468261719,94.67930603027344,-18.45365905761719
40518,0.136016845703125,1.097030639648438,0.2108612060546875,-0.240030437707901,-0.9983064532279968,-0.1195644810795784,47.19879150390625,94.73429870605467,-18.32695007324219
40519,0.14459228515625,1.099258422851562,0.18914794921875,-0.2262296676635742,-1.030323266983032,-0.1042188107967377,47.10758972167969,94.82122802734376,-18.19985961914062
40520,0.14459228515625,1.099258422851562,0.18914794921875,-0.2262296676635742,-1.030323266983032,-0.1042188107967377,47.10758972167969,94.82122802734376,-18.19985961914062
40521,0.1755828857421875,1.078414916992188,0.1897125244140625,-0.085453912615776,-1.072723388671875,-0.0626727044582366,46.86268615722656,94.68147277832033,-17.75633239746094
40522,0.1904449462890625,1.064254760742188,0.1963958740234375,-0.085453912615776,-1.072723388671875,-0.0626727044582366,46.77792358398438,94.64811706542967,-17.55853271484375
40523,0.1893310546875,1.01995849609375,0.1852264404296875,-0.0308066476136446,-0.923878252506256,-0.0356575958430767,46.58818054199219,94.6589813232422,-17.25003051757812
40524,0.1893310546875,1.01995849609375,0.1852264404296875,-0.0308066476136446,-0.923878252506256,-0.0356575958430767,46.58818054199219,94.6589813232422,-17.25003051757812
40525,0.1779022216796875,1.003997802734375,0.1662139892578125,-0.0122891571372747,-0.8718547224998474,-0.0289674699306488,46.50344848632812,94.75062561035156,-17.23526000976562
40526,0.1684417724609375,0.9979705810546876,0.144012451171875,-0.0054094125516712,-0.8249277472496033,-0.0242709852755069,46.33299255371094,94.7100067138672,-17.15376281738281
40527,0.1604766845703125,0.996826171875,0.09881591796875,0.0211761258542537,-0.7951352000236511,-0.01909033767879,46.24711608886719,94.79002380371094,-17.00326538085938
40528,0.16094970703125,1.009170532226562,0.0892181396484375,0.0529801286756992,-0.7965109944343567,-0.008863266557455,46.19131469726562,94.77328491210938,-16.86274719238281
40529,0.16094970703125,1.009170532226562,0.0892181396484375,0.0529801286756992,-0.7965109944343567,-0.008863266557455,46.19131469726562,94.77328491210938,-16.86274719238281
40530,0.162750244140625,1.023529052734375,0.085174560546875,0.0887479782104492,-0.814940869808197,0.0021502361632883,46.04251098632812,94.7077178955078,-16.76591491699219
40531,0.1694793701171875,1.032257080078125,0.1170806884765625,0.2201597988605499,-0.6945910453796387,0.0422281473875045,45.98443603515625,94.53890991210938,-16.66181945800781
40532,0.1694793701171875,1.032257080078125,0.1170806884765625,0.2201597988605499,-0.6945910453796387,0.0422281473875045,45.98443603515625,94.53890991210938,-16.66181945800781
40533,0.177398681640625,1.031524658203125,0.1218719482421875,0.2201597988605499,-0.6945910453796387,0.0422281473875045,45.92764282226562,94.55677795410156,-16.754150390625
40534,0.190826416015625,0.980926513671875,0.10968017578125,0.191406711935997,-0.7219904065132141,0.0435104593634605,45.81292724609375,94.48007202148438,-16.85276794433594
40535,0.1919708251953125,0.9595489501953124,0.125732421875,0.191406711935997,-0.7219904065132141,0.0435104593634605,45.80308532714844,94.46929931640624,-16.88282775878906
40536,0.1919708251953125,0.9595489501953124,0.125732421875,0.191406711935997,-0.7219904065132141,0.0435104593634605,45.80308532714844,94.46929931640624,-16.88282775878906
40537,0.1876220703125,0.9419097900390624,0.110809326171875,0.2263540476560593,-0.6770527958869934,0.0404717922210693,45.86854553222656,94.37893676757812,-16.77153015136719
40538,0.18548583984375,0.94036865234375,0.091949462890625,0.2263540476560593,-0.6770527958869934,0.0404717922210693,45.82003784179688,94.26809692382812,-16.59136962890625
40539,0.172332763671875,0.9440155029296876,0.0767364501953125,0.1933316439390182,-0.6590974926948547,0.0277301650494337,45.70010375976562,94.31723022460938,-16.53829956054688
40540,0.172332763671875,0.9440155029296876,0.0767364501953125,0.1933316439390182,-0.6590974926948547,0.0277301650494337,45.70010375976562,94.31723022460938,-16.53829956054688
40541,0.162384033203125,0.9379730224609376,0.0690460205078125,0.2103729397058487,-0.6455782055854797,0.0117064574733376,45.70329284667969,94.33909606933594,-16.75898742675781
40542,0.1523895263671875,0.93597412109375,0.072357177734375,0.2152361422777176,-0.6332371234893799,-0.0037356161046773,45.69328308105469,94.27497863769533,-16.94046020507812
40543,0.1433868408203125,0.9443511962890624,0.070465087890625,0.1882231682538986,-0.6156424283981323,-0.0624111779034137,45.57260131835938,94.32145690917967,-17.24005126953125
40544,0.149505615234375,0.9568328857421876,0.0741119384765625,0.1882231682538986,-0.6156424283981323,-0.0624111779034137,45.58360290527344,94.3311767578125,-17.31651306152344
40545,0.149505615234375,0.9568328857421876,0.0741119384765625,0.1882231682538986,-0.6156424283981323,-0.0624111779034137,45.58360290527344,94.3311767578125,-17.31651306152344
40546,0.1583099365234375,0.96484375,0.06890869140625,0.185749351978302,-0.6224390864372253,-0.0671255066990852,45.50889587402344,94.28335571289062,-17.23536682128906
40547,0.17034912109375,0.9782867431640624,0.0922698974609375,0.1951172947883606,-0.6063482165336609,-0.056611880660057,45.4232177734375,94.24650573730467,-17.52067565917969
40548,0.17034912109375,0.9782867431640624,0.0922698974609375,0.1951172947883606,-0.6063482165336609,-0.056611880660057,45.4232177734375,94.24650573730467,-17.52067565917969
40549,0.17333984375,0.9812469482421876,0.1034088134765625,0.1951172947883606,-0.6063482165336609,-0.056611880660057,45.27127075195312,94.16500854492188,-17.50152587890625
40550,0.16845703125,0.978668212890625,0.1112060546875,0.1786927878856659,-0.596847414970398,-0.0503790192306041,45.28469848632812,94.17219543457033,-17.51626586914062
40551,0.1446380615234375,0.9776458740234376,0.1236419677734375,0.156121164560318,-0.5583937764167786,-0.0349135100841522,45.15724182128906,94.20620727539062,-17.61436462402344
40552,0.1446380615234375,0.9776458740234376,0.1236419677734375,0.156121164560318,-0.5583937764167786,-0.0349135100841522,45.15724182128906,94.20620727539062,-17.61436462402344
40553,0.1267242431640625,0.9839019775390624,0.13055419921875,0.1494954824447632,-0.5244070291519165,-0.0245887003839016,45.100341796875,94.11312866210938,-17.53840637207031
40554,0.1121826171875,0.990692138671875,0.13775634765625,0.137141078710556,-0.4820537269115448,-0.0187033805996179,45.16387939453125,93.9900360107422,-17.36328125
40555,0.0940399169921875,0.9955596923828124,0.1429595947265625,0.10906682908535,-0.3613052070140839,0.0039934101514518,44.99507141113281,94.08290100097656,-17.6612548828125
40556,0.0940399169921875,0.9955596923828124,0.1429595947265625,0.10906682908535,-0.3613052070140839,0.0039934101514518,44.99507141113281,94.08290100097656,-17.6612548828125
40557,0.0928955078125,0.99273681640625,0.13726806640625,0.1201426535844803,-0.3307211995124817,0.0035481294617056,44.94235229492188,94.03639221191406,-17.75161743164062
40558,0.0937957763671875,0.9854888916015624,0.1101837158203125,0.1340704560279846,-0.3003893792629242,0.0004751079250127,44.83544921875,94.08078002929688,-17.85806274414062
40559,0.1150665283203125,0.9748382568359376,0.1239166259765625,0.1509876549243927,-0.267337441444397,-0.0008008125587366,44.84320068359375,94.09030151367188,-17.730224609375
40560,0.1150665283203125,0.9748382568359376,0.1239166259765625,0.1509876549243927,-0.267337441444397,-0.0008008125587366,44.84320068359375,94.09030151367188,-17.730224609375
40561,0.1250762939453125,0.971649169921875,0.1376953125,0.1426911056041718,-0.2424246221780777,0.0002223739429609,44.80537414550781,94.11369323730467,-17.77207946777344
40562,0.1353912353515625,0.964080810546875,0.144866943359375,0.1256252974271774,-0.2137503623962402,0.0010567422723397,44.81747436523438,94.00204467773438,-17.7713623046875
40563,0.1388092041015625,0.968109130859375,0.14935302734375,0.0953424945473671,-0.1439622342586517,0.0167800448834896,44.71995544433594,94.02713012695312,-17.92196655273438
40564,0.1388092041015625,0.968109130859375,0.14935302734375,0.0953424945473671,-0.1439622342586517,0.0167800448834896,44.71995544433594,94.02713012695312,-17.92196655273438
40565,0.13726806640625,0.9607696533203124,0.14154052734375,0.087857685983181,-0.0888755470514297,0.027215376496315,44.71636962890625,94.12413024902344,-18.0274658203125
40566,0.1343231201171875,0.9539337158203124,0.14691162109375,0.087857685983181,-0.0888755470514297,0.027215376496315,44.74113464355469,94.09603881835938,-18.06517028808594
40567,0.1225128173828125,0.9481048583984376,0.1546173095703125,0.0799278542399406,-0.0314173102378845,0.0331829860806465,44.76754760742188,94.00729370117188,-18.10745239257812
40568,0.1102294921875,0.9554290771484376,0.154876708984375,0.0762708038091659,-0.0122034028172493,0.0315334238111972,44.72752380371094,94.06623840332033,-18.09259033203125
40569,0.1102294921875,0.9554290771484376,0.154876708984375,0.0762708038091659,-0.0122034028172493,0.0315334238111972,44.72752380371094,94.06623840332033,-18.09259033203125
40570,0.100433349609375,0.9646759033203124,0.157745361328125,0.0649856552481651,0.0020261330064386,0.0248651355504989,44.76960754394531,93.95472717285156,-17.99661254882812
40571,0.0950927734375,0.9677734375,0.144256591796875,0.0350828878581523,0.0278808996081352,0.0100899180397391,44.80049133300781,94.04840087890624,-18.47650146484375
40572,0.0950927734375,0.9677734375,0.144256591796875,0.0350828878581523,0.0278808996081352,0.0100899180397391,44.80049133300781,94.04840087890624,-18.47650146484375
40573,0.0891265869140625,0.97100830078125,0.145355224609375,0.0424412004649639,0.0558131970465183,0.005821403581649,44.81101989746094,94.10841369628906,-18.65608215332031
40574,0.082366943359375,0.97259521484375,0.12310791015625,0.0370560213923454,0.0456969141960144,0.0051532168872654,44.88265991210938,94.23695373535156,-18.74473571777344
40575,0.0883026123046875,0.972442626953125,0.150054931640625,0.0417802035808563,0.0896553173661232,0.0072627067565917,44.83576965332031,94.11761474609376,-18.59878540039062
40576,0.0883026123046875,0.972442626953125,0.150054931640625,0.0417802035808563,0.0896553173661232,0.0072627067565917,44.83576965332031,94.11761474609376,-18.59878540039062
40577,0.0880279541015625,0.975738525390625,0.140045166015625,0.0303120985627174,0.0975278913974762,0.0035816852468997,44.78691101074219,94.10147094726562,-18.70375061035156
40578,0.0882720947265625,0.9789886474609376,0.1394805908203125,0.0303120985627174,0.0975278913974762,0.0035816852468997,44.83697509765625,94.20248413085938,-18.79071044921875
40579,0.089599609375,0.975982666015625,0.137847900390625,0.0167986880987882,0.1442061811685562,0.002217347966507,44.78843688964844,94.12767028808594,-18.82127380371094
40580,0.089599609375,0.975982666015625,0.137847900390625,0.0167986880987882,0.1442061811685562,0.002217347966507,44.78843688964844,94.12767028808594,-18.82127380371094
40581,0.0884552001953125,0.974029541015625,0.1392822265625,0.0167986880987882,0.1442061811685562,0.002217347966507,44.84722900390625,94.14244079589844,-18.9658203125
40582,0.0886077880859375,0.9715576171875,0.1391448974609375,0.0002969424531329,0.1640589833259583,0.0090595409274101,44.81326293945312,94.1527099609375,-18.90475463867188
40583,0.089324951171875,0.9744720458984376,0.1452178955078125,-0.0069111692719161,0.1736578047275543,0.013938452117145,44.85519409179688,94.20018005371094,-18.89509582519531
40584,0.089324951171875,0.9744720458984376,0.1452178955078125,-0.0069111692719161,0.1736578047275543,0.013938452117145,44.85519409179688,94.20018005371094,-18.89509582519531
40585,0.089813232421875,0.978271484375,0.1478118896484375,-0.0126843694597482,0.1756852716207504,0.0174375791102647,44.82521057128906,94.3032684326172,-18.88763427734375
40586,0.089447021484375,0.9819488525390624,0.1504669189453125,-0.0178104229271411,0.1724338233470917,0.0195372160524129,44.95964050292969,94.2161865234375,-18.84906005859375
40587,0.0925445556640625,0.9798431396484376,0.14801025390625,-0.0179228074848651,0.1625359207391739,0.013349893502891,44.98539733886719,94.02932739257812,-18.99989318847656
40588,0.0925445556640625,0.9798431396484376,0.14801025390625,-0.0179228074848651,0.1625359207391739,0.013349893502891,44.98539733886719,94.02932739257812,-18.99989318847656
40589,0.0922393798828125,0.9737701416015624,0.1491241455078125,-0.0212688036262989,0.1613984853029251,0.0113485278561711,45.01814270019531,93.96932983398438,-18.96339416503906
40590,0.0910186767578125,0.968170166015625,0.15087890625,-0.0182708837091922,0.1610029935836792,0.0045673213899135,45.05389404296875,93.9570770263672,-18.96250915527344
40591,0.0898590087890625,0.9620513916015624,0.151763916015625,-0.0291831847280263,0.1652768403291702,-0.0135973012074828,45.0863037109375,94.08010864257812,-18.99125671386719
40592,0.0898590087890625,0.9620513916015624,0.151763916015625,-0.0291831847280263,0.1652768403291702,-0.0135973012074828,45.0863037109375,94.08010864257812,-18.99125671386719
40593,0.0904541015625,0.964599609375,0.1517333984375,-0.0386920012533664,0.1687131226062775,-0.0164870973676443,45.07368469238281,94.10107421875,-18.97369384765625
40594,0.0947113037109375,0.9676361083984376,0.1517486572265625,-0.0499116331338882,0.1592146903276443,-0.0240275710821151,45.03981018066406,94.12136840820312,-18.9061279296875
40595,0.0972442626953125,0.971527099609375,0.1605377197265625,-0.070355124771595,0.1517178863286972,-0.0284926276654005,45.12812805175781,94.04621887207033,-18.88885498046875
40596,0.0972442626953125,0.971527099609375,0.1605377197265625,-0.070355124771595,0.1517178863286972,-0.0284926276654005,45.12812805175781,94.04621887207033,-18.88885498046875
40597,0.0938262939453125,0.97491455078125,0.1517181396484375,-0.0622553862631321,0.150441974401474,-0.0311738979071378,45.07644653320312,93.92803955078124,-18.85723876953125
40598,0.088470458984375,0.97344970703125,0.1520233154296875,-0.0719519555568695,0.1380489468574524,-0.0331656746566295,45.19514465332031,94.03436279296876,-18.98179626464844
40599,0.0788726806640625,0.9696044921875,0.161651611328125,-0.0781121104955673,0.1376364231109619,-0.039383091032505,45.11882019042969,94.18154907226562,-18.69857788085938
40600,0.0788726806640625,0.9696044921875,0.161651611328125,-0.0781121104955673,0.1376364231109619,-0.039383091032505,45.11882019042969,94.18154907226562,-18.69857788085938
40601,0.0725860595703125,0.9661865234375,0.16864013671875,-0.0798639357089996,0.1419978886842728,-0.0448455028235912,45.0770263671875,94.20318603515624,-18.63902282714844
40602,0.0693511962890625,0.966064453125,0.17535400390625,-0.0892393290996551,0.1386297792196274,-0.0460955910384655,45.08343505859375,94.06266784667967,-18.49186706542969
40603,0.064788818359375,0.9685211181640624,0.1817169189453125,-0.1115656793117523,0.1502446234226227,-0.0523617416620254,44.9923095703125,94.1920166015625,-18.54629516601562
40604,0.064788818359375,0.9685211181640624,0.1817169189453125,-0.1115656793117523,0.1502446234226227,-0.0523617416620254,44.9923095703125,94.1920166015625,-18.54629516601562
40605,0.0652923583984375,0.9677276611328124,0.1820831298828125,-0.1117835193872452,0.1537501513957977,-0.0582910031080246,45.03195190429688,94.25474548339844,-18.67613220214844
40606,0.066162109375,0.967376708984375,0.183807373046875,-0.1116447746753693,0.1649870872497559,-0.0618678964674472,45.01730346679688,94.35890197753906,-18.63876342773438
40607,0.066009521484375,0.9635009765625,0.192474365234375,-0.1072385683655739,0.1747827231884003,-0.0715034753084182,44.94769287109375,94.3084716796875,-18.53961181640625
40608,0.066009521484375,0.9635009765625,0.192474365234375,-0.1072385683655739,0.1747827231884003,-0.0715034753084182,44.94769287109375,94.3084716796875,-18.53961181640625
40609,0.067718505859375,0.964691162109375,0.19683837890625,-0.1121347919106483,0.1778573542833328,-0.0735874027013778,44.96466064453125,94.31951904296876,-18.42990112304688
40610,0.07086181640625,0.9659271240234376,0.20220947265625,-0.1225078031420708,0.1772208511829376,-0.0756351053714752,45.05372619628906,94.2860107421875,-18.42941284179688
40611,0.0812225341796875,0.9666595458984376,0.19793701171875,-0.1418578028678894,0.1751627624034882,-0.0876190662384033,44.84423828125,94.30514526367188,-18.16580200195312
40612,0.0812225341796875,0.9666595458984376,0.19793701171875,-0.1418578028678894,0.1751627624034882,-0.0876190662384033,44.84423828125,94.30514526367188,-18.16580200195312
40613,0.0870819091796875,0.9668121337890624,0.1966094970703125,-0.1470941156148911,0.1653540730476379,-0.0825180485844612,44.82418823242188,94.4114990234375,-18.08529663085938
40614,0.0916595458984375,0.9650115966796876,0.1980133056640625,-0.1532800942659378,0.1579550057649612,-0.08516576141119,44.87542724609375,94.27751159667967,-17.92440795898438
40615,0.09912109375,0.9753265380859376,0.203460693359375,-0.1515184193849564,0.1578354388475418,-0.074328027665615,44.80824279785156,94.19613647460938,-17.89816284179688
40616,0.09912109375,0.9753265380859376,0.203460693359375,-0.1515184193849564,0.1578354388475418,-0.074328027665615,44.80824279785156,94.19613647460938,-17.89816284179688
40617,0.1015777587890625,0.9762725830078124,0.203399658203125,-0.1558143645524979,0.1634661555290222,-0.0644639432430267,44.78799438476562,94.1938934326172,-17.83714294433594
40618,0.1081390380859375,0.98150634765625,0.2042083740234375,-0.1570151895284653,0.1751819401979446,-0.051219243556261,44.84530639648438,94.26588439941406,-17.981201171875
40619,0.1129150390625,0.9865570068359376,0.1995697021484375,-0.1604109853506088,0.1909063011407852,-0.0378698855638504,44.74607849121094,94.29122924804688,-17.76850891113281
40620,0.1102752685546875,0.9865875244140624,0.1904449462890625,-0.154538169503212,0.1971522122621536,-0.0289408378303051,44.70848083496094,94.35952758789062,-17.60475158691406
40621,0.1071929931640625,0.981658935546875,0.18072509765625,-0.1448607891798019,0.1914005875587463,-0.0331243984401226,44.829345703125,94.31193542480467,-17.55863952636719
40622,0.1122283935546875,0.981536865234375,0.1721649169921875,-0.1232199370861053,0.1841032654047012,-0.0401817746460437,44.75205993652344,94.4396514892578,-17.47084045410156
40623,0.1239471435546875,0.99139404296875,0.1586151123046875,-0.108059361577034,0.1371985971927643,-0.0387322157621383,44.64155578613281,94.31187438964844,-17.55569458007812
40624,0.1239471435546875,0.99139404296875,0.1586151123046875,-0.108059361577034,0.1371985971927643,-0.0387322157621383,44.64155578613281,94.31187438964844,-17.55569458007812
40625,0.1325225830078125,0.991363525390625,0.1495819091796875,-0.0897823497653007,0.1450173705816269,-0.0330058857798576,44.69915771484375,94.33790588378906,-17.48660278320312
40626,0.136566162109375,0.989105224609375,0.1353302001953125,-0.0753922238945961,0.1549224704504013,-0.0266257524490356,44.66441345214844,94.3310089111328,-17.39823913574219
40627,0.12994384765625,0.9947967529296876,0.1275787353515625,-0.0316109247505664,0.2313709110021591,-0.0128643997013568,44.62374877929688,94.48451232910156,-17.33601379394531
40628,0.126068115234375,1.004379272460938,0.124481201171875,-0.0138164795935154,0.275066465139389,-0.0094760600477457,44.65785217285156,94.416259765625,-17.29953002929688
40629,0.126068115234375,1.004379272460938,0.124481201171875,-0.0138164795935154,0.275066465139389,-0.0094760600477457,44.65785217285156,94.416259765625,-17.29953002929688
40630,0.116790771484375,1.015213012695312,0.1343994140625,0.0075681712478399,0.3953888714313507,-0.0063734771683812,44.71110534667969,94.42253112792967,-17.31600952148438
40631,0.1084136962890625,1.036865234375,0.142303466796875,0.005673598498106,0.4265707731246948,-0.0106262788176536,44.72384643554688,94.39869689941406,-17.48030090332031
40632,0.1084136962890625,1.036865234375,0.142303466796875,0.005673598498106,0.4265707731246948,-0.0106262788176536,44.72384643554688,94.39869689941406,-17.48030090332031
40633,0.1085205078125,1.04901123046875,0.1536712646484375,0.0085319690406322,0.4709715247154236,-0.0112196309491992,44.77409362792969,94.35208129882812,-17.3072509765625
40634,0.11871337890625,1.046920776367188,0.16064453125,0.0082946810871362,0.479496568441391,-0.019331619143486,44.76365661621094,94.41514587402344,-17.26373291015625
40635,0.156707763671875,1.037094116210938,0.177581787109375,0.0026067020371556,0.4416373372077942,-0.0165917593985796,44.78054809570312,94.55543518066406,-17.39665222167969
40636,0.1823577880859375,1.034576416015625,0.1711578369140625,-0.0030431940685957,0.4422975182533264,-0.0078579233959317,44.80760192871094,94.65144348144533,-17.34843444824219
40637,0.1823577880859375,1.034576416015625,0.1711578369140625,-0.0030431940685957,0.4422975182533264,-0.0078579233959317,44.80760192871094,94.65144348144533,-17.34843444824219
40638,0.2040252685546875,1.023895263671875,0.1539306640625,0.0066595007665455,0.4597151279449463,0.0101535683497786,44.8575439453125,94.65370178222656,-17.28837585449219
40639,0.2086181640625,0.9889373779296876,0.114776611328125,0.1537187248468399,0.5540000796318054,0.0772079676389694,44.96504211425781,94.56707763671876,-17.28311157226562
40640,0.2086181640625,0.9889373779296876,0.114776611328125,0.1537187248468399,0.5540000796318054,0.0772079676389694,44.96504211425781,94.56707763671876,-17.28311157226562
40641,0.1921234130859375,0.9734344482421876,0.109405517578125,0.1537187248468399,0.5540000796318054,0.0772079676389694,45.05235290527344,94.57017517089844,-17.43734741210938
40642,0.1656494140625,0.9617919921875,0.099761962890625,0.2105913311243057,0.5821001529693604,0.0696342065930366,45.05975341796875,94.59274291992188,-17.62940979003906
40643,0.128082275390625,0.9651031494140624,0.1070404052734375,0.2525307834148407,0.5873245000839233,0.0229268874973058,45.18243408203125,94.57269287109376,-18.12937927246094
40644,0.128082275390625,0.9651031494140624,0.1070404052734375,0.2525307834148407,0.5873245000839233,0.0229268874973058,45.18243408203125,94.57269287109376,-18.12937927246094
40645,0.122833251953125,0.9708251953125,0.1114044189453125,0.2226154953241348,0.5980972647666931,-0.0022999059874564,45.23359680175781,94.57046508789062,-18.25738525390625
40646,0.1180572509765625,0.976806640625,0.116241455078125,0.2226154953241348,0.5980972647666931,-0.0022999059874564,45.37016296386719,94.50628662109376,-18.403564453125
40647,0.1091766357421875,0.98828125,0.1421051025390625,0.2080607861280441,0.6112311482429504,-0.0035063179675489,45.49307250976562,94.47816467285156,-18.77175903320312
40648,0.1091766357421875,0.98828125,0.1421051025390625,0.2080607861280441,0.6112311482429504,-0.0035063179675489,45.49307250976562,94.47816467285156,-18.77175903320312
40649,0.1079864501953125,0.9921722412109376,0.1567535400390625,0.1920685023069382,0.6261121034622192,0.0042751724831759,45.42977905273438,94.53375244140624,-18.98736572265625
40650,0.10809326171875,0.9943695068359376,0.1620635986328125,0.1764517277479172,0.6414002180099487,0.0103794038295745,45.53572082519531,94.50718688964844,-19.11228942871094
40651,0.1071014404296875,0.9944000244140624,0.15496826171875,0.176854133605957,0.6787524223327637,0.026664100587368,45.65206909179688,94.30787658691406,-19.41624450683594
40652,0.1071014404296875,0.9944000244140624,0.15496826171875,0.176854133605957,0.6787524223327637,0.026664100587368,45.65206909179688,94.30787658691406,-19.41624450683594
40653,0.1054229736328125,0.994842529296875,0.1584625244140625,0.176854133605957,0.6787524223327637,0.026664100587368,45.66555786132812,94.36990356445312,-19.52153015136719
40654,0.09912109375,0.9889068603515624,0.1550140380859375,0.1834220290184021,0.7028985023498535,0.027656128630042,45.72402954101562,94.30021667480467,-19.53892517089844
40655,0.086669921875,0.977294921875,0.1356201171875,0.2140284031629562,0.729983389377594,0.0183366630226373,45.87889099121094,94.31222534179688,-19.89755249023438
40656,0.086669921875,0.977294921875,0.1356201171875,0.2140284031629562,0.729983389377594,0.0183366630226373,45.87889099121094,94.31222534179688,-19.89755249023438
40657,0.0788421630859375,0.9727325439453124,0.14105224609375,0.2193493992090225,0.7391723394393921,0.0125791747123003,46.04844665527344,94.32179260253906,-19.98991394042969
40658,0.076416015625,0.9687347412109376,0.1373291015625,0.2187485843896866,0.7383345365524292,0.0032967270817607,46.1263427734375,94.20793151855467,-20.08395385742188
40659,0.0601959228515625,0.9632415771484376,0.149200439453125,0.1958121061325073,0.733276903629303,-0.0221798699349165,46.21682739257812,94.1856689453125,-20.37419128417969
40660,0.0601959228515625,0.9632415771484376,0.149200439453125,0.1958121061325073,0.733276903629303,-0.0221798699349165,46.21682739257812,94.1856689453125,-20.37419128417969
40661,0.0506134033203125,0.9721527099609376,0.1520843505859375,0.1500651389360428,0.7670231461524963,-0.0240840315818786,46.30300903320312,94.10543823242188,-20.55961608886719
40662,0.046295166015625,0.98138427734375,0.16485595703125,0.1500651389360428,0.7670231461524963,-0.0240840315818786,46.31465148925781,94.30290222167967,-20.83721923828125
40663,0.05914306640625,0.9805755615234376,0.2015533447265625,0.0512975417077541,0.7479434609413147,-0.019162243232131,46.51437377929688,94.14120483398438,-21.0826416015625
40664,0.05914306640625,0.9805755615234376,0.2015533447265625,0.0512975417077541,0.7479434609413147,-0.019162243232131,46.51437377929688,94.14120483398438,-21.0826416015625
40665,0.07232666015625,0.9792633056640624,0.2183074951171875,0.0512975417077541,0.7479434609413147,-0.019162243232131,46.46371459960938,93.99508666992188,-21.15077209472656
40666,0.0878753662109375,0.9831390380859376,0.212493896484375,0.0113980630412697,0.7281731963157654,-0.0120998062193393,46.59757995605469,93.98924255371094,-21.13845825195312
40667,0.1298065185546875,1.017593383789062,0.185791015625,-0.0129168638959527,0.651233971118927,0.0229236911982297,46.80680847167969,94.1029052734375,-21.41358947753906
40668,0.1298065185546875,1.017593383789062,0.185791015625,-0.0129168638959527,0.651233971118927,0.0229236911982297,46.80680847167969,94.1029052734375,-21.41358947753906
40669,0.1373748779296875,1.029129028320312,0.1840362548828125,-0.0046189865097403,0.5806553959846497,0.0431575886905193,46.79397583007812,93.99528503417967,-21.45901489257812
40670,0.149932861328125,1.016433715820312,0.1777191162109375,0.0169648695737123,0.5442134737968445,0.0579399988055229,46.91554260253906,94.1567840576172,-21.4677734375
40671,0.1595916748046875,0.9667205810546876,0.135986328125,0.1622674763202667,0.5614002346992493,0.0839798524975776,47.09278869628906,94.05525207519533,-21.33016967773438
40672,0.1595916748046875,0.9667205810546876,0.135986328125,0.1622674763202667,0.5614002346992493,0.0839798524975776,47.09278869628906,94.05525207519533,-21.33016967773438
40673,0.148162841796875,0.9476470947265624,0.1227264404296875,0.1622674763202667,0.5614002346992493,0.0839798524975776,47.12532043457031,94.14443969726562,-21.35955810546875
40674,0.1241302490234375,0.9314727783203124,0.1197662353515625,0.1736580729484558,0.6107723116874695,0.0581581108272075,47.21641540527344,94.12174987792967,-21.29603576660156
40675,0.0783233642578125,0.9165802001953124,0.1114349365234375,0.1387903690338135,0.5946902632713318,0.0411857850849628,47.31150817871094,94.2409210205078,-21.54188537597656
40676,0.0783233642578125,0.9165802001953124,0.1114349365234375,0.1387903690338135,0.5946902632713318,0.0411857850849628,47.31150817871094,94.2409210205078,-21.54188537597656
40677,0.0715484619140625,0.925628662109375,0.1183624267578125,0.1027583330869675,0.5947829484939575,0.0261948518455028,47.41387939453125,94.1766357421875,-21.62875366210938
40678,0.0723876953125,0.9380035400390624,0.1114501953125,0.0604537576436996,0.601854681968689,0.0183076336979866,47.62962341308594,94.10203552246094,-21.68742370605469
40679,0.0770111083984375,0.971710205078125,0.1102447509765625,-0.00843689404428,0.6291832327842712,0.0137230027467012,47.67559814453125,94.00689697265624,-21.88328552246094
40680,0.0770111083984375,0.971710205078125,0.1102447509765625,-0.00843689404428,0.6291832327842712,0.0137230027467012,47.67559814453125,94.00689697265624,-21.88328552246094
40681,0.0699920654296875,0.992095947265625,0.1190185546875,-0.0206703916192054,0.6358898878097534,0.0244414266198873,47.78578186035156,93.99577331542967,-21.90632629394531
40682,0.06524658203125,1.006332397460938,0.128875732421875,-0.0229889396578073,0.6376744508743286,0.0340090990066528,47.89912414550781,93.9774169921875,-21.96971130371094
40683,0.054168701171875,1.008102416992188,0.1458740234375,0.0337454453110694,0.606325626373291,0.0382887981832027,48.05828857421875,94.15985107421876,-21.99137878417969
40684,0.054168701171875,1.008102416992188,0.1458740234375,0.0337454453110694,0.606325626373291,0.0382887981832027,48.05828857421875,94.15985107421876,-21.99137878417969
40685,0.0427093505859375,1.003372192382812,0.1494140625,0.0337454453110694,0.606325626373291,0.0382887981832027,48.09291076660156,94.03793334960938,-21.96653747558594
40686,0.0310516357421875,0.996673583984375,0.1495361328125,0.0554049350321292,0.6102396845817566,0.0294622853398323,48.26426696777344,94.10133361816406,-22.05526733398438
40687,0.0307464599609375,0.98992919921875,0.15521240234375,0.0678757205605506,0.5974226593971252,0.0181691497564315,48.46290588378906,94.10093688964844,-22.13986206054688
40688,0.0307464599609375,0.98992919921875,0.15521240234375,0.0678757205605506,0.5974226593971252,0.0181691497564315,48.46290588378906,94.10093688964844,-22.13986206054688
40689,0.033905029296875,0.987335205078125,0.160980224609375,0.0498794093728065,0.5837856531143188,0.0189017858356237,48.54994201660156,94.10105895996094,-22.22906494140625
40690,0.0404052734375,0.9846038818359376,0.1540985107421875,0.027191674336791,0.5636827945709229,0.0213409755378961,48.63151550292969,94.07005310058594,-22.29025268554688
40691,0.066253662109375,0.967742919921875,0.122100830078125,0.0324713885784149,0.5570192933082581,0.0313749685883522,48.79606628417969,94.03785705566406,-22.37495422363281
40692,0.066253662109375,0.967742919921875,0.122100830078125,0.0324713885784149,0.5570192933082581,0.0313749685883522,48.79606628417969,94.03785705566406,-22.37495422363281
