time_idx,accelerometerAccelerationX(G),accelerometerAccelerationY(G),accelerometerAccelerationZ(G),gyroRotationX(rad/s),gyroRotationY(rad/s),gyroRotationZ(rad/s),magnetometerX(µT),magnetometerY(µT),magnetometerZ(µT)
315000,0.0467071533203125,0.033050537109375,0.33441162109375,-0.5765594840049744,5.180947303771973,-1.454513430595398,66.82015991210938,89.66587829589844,9.374664306640623
315001,-0.0389556884765625,-0.1728057861328125,-0.1100006103515625,-0.1171636432409286,4.58796501159668,-1.453884601593018,65.2906494140625,89.71458435058594,10.27070617675781
315002,-0.0771331787109375,-0.2115631103515625,-0.046722412109375,0.371644139289856,4.054534435272217,-1.416668772697449,63.59184265136719,89.66032409667969,11.21980285644531
315003,-0.07635498046875,-0.232177734375,-0.199676513671875,1.18928599357605,3.045509815216064,-1.228157162666321,60.18745422363281,90.05961608886719,12.37287902832031
315004,-0.07635498046875,-0.232177734375,-0.199676513671875,1.18928599357605,3.045509815216064,-1.228157162666321,60.18745422363281,90.05961608886719,12.37287902832031
315005,-0.105224609375,-0.260040283203125,-0.236602783203125,1.315490007400513,2.531009197235107,-1.091776251792908,58.62190246582031,90.36781311035156,12.58024597167969
315006,-0.216583251953125,-0.349822998046875,-0.2209930419921875,0.6708207130432129,2.052310466766357,-0.8357111215591431,56.20745849609375,90.98968505859376,12.343017578125
315007,-0.25830078125,-0.3675994873046875,-0.3213653564453125,0.2150513231754303,1.922539949417114,-0.7131361961364746,55.1295166015625,91.13485717773438,12.24542236328125
315008,-0.25830078125,-0.3675994873046875,-0.3213653564453125,0.2150513231754303,1.922539949417114,-0.7131361961364746,55.1295166015625,91.13485717773438,12.24542236328125
315009,-0.3155059814453125,-0.287872314453125,-0.7368011474609375,-0.5433221459388733,-0.481734424829483,-0.4451726675033569,53.51033020019531,91.34587097167967,12.12368774414062
315010,-0.3371429443359375,-0.049041748046875,-0.180023193359375,-0.4959234595298767,-0.6189364790916443,-0.4518705308437347,52.98396301269531,91.34152221679688,12.07536315917969
315011,-0.26019287109375,0.05682373046875,-0.0948638916015625,-0.2942515909671783,-0.5807145237922668,-0.4738746285438538,52.81057739257812,91.25112915039062,12.31269836425781
315012,-0.26019287109375,0.05682373046875,-0.0948638916015625,-0.2942515909671783,-0.5807145237922668,-0.4738746285438538,52.81057739257812,91.25112915039062,12.31269836425781
315013,-0.158966064453125,0.1309661865234375,-0.0530242919921875,-0.1002757400274277,-0.7057248950004578,-0.6009963750839233,52.69819641113281,91.13517761230467,12.54292297363281
315014,-0.0662994384765625,0.1557464599609375,-0.02325439453125,0.0399048067629337,-1.017985343933105,-0.7897817492485046,52.54872131347656,91.11471557617188,12.68890380859375
315015,0.0057525634765625,0.216644287109375,0.294525146484375,0.2394378930330276,-1.459408044815063,-0.8838559985160828,52.17488098144531,91.02125549316406,12.61692810058594
315016,0.0057525634765625,0.216644287109375,0.294525146484375,0.2394378930330276,-1.459408044815063,-0.8838559985160828,52.17488098144531,91.02125549316406,12.61692810058594
315017,-0.0503692626953125,0.3536224365234375,0.599273681640625,0.2394378930330276,-1.459408044815063,-0.8838559985160828,52.00070190429688,90.97628784179688,12.43818664550781
315018,-0.567626953125,3.596527099609375,0.8643341064453125,0.7892898321151733,0.8053947687149048,-2.032387971878052,52.03369140625,91.20539855957033,11.87655639648438
315019,-1.39447021484375,4.888458251953125,0.948577880859375,0.7047203779220581,1.747633695602417,-0.0377939827740192,51.88545227050781,91.65948486328124,11.17071533203125
315020,-1.532928466796875,6.706283569335938,0.5889434814453125,0.0775443241000175,2.931022644042969,1.37872040271759,51.51495361328125,92.12841796875,10.2071533203125
315021,-1.532928466796875,6.706283569335938,0.5889434814453125,0.0775443241000175,2.931022644042969,1.37872040271759,51.51495361328125,92.12841796875,10.2071533203125
315022,-0.8679656982421875,6.700531005859375,-0.3489227294921875,-0.307836651802063,0.2196141183376312,-1.69358503818512,51.26255798339844,92.47434997558594,9.534637451171877
315023,-0.9678955078125,4.754440307617188,-0.17840576171875,-0.3878481388092041,-1.053534269332886,-2.830936908721924,51.12966918945312,92.43539428710938,9.6453857421875
315024,-0.9678955078125,4.754440307617188,-0.17840576171875,-0.3878481388092041,-1.053534269332886,-2.830936908721924,51.12966918945312,92.43539428710938,9.6453857421875
315025,-0.708343505859375,3.126617431640625,-0.4900054931640625,-0.3952890038490295,-2.042440176010132,-2.891258239746094,50.57366943359375,92.33973693847656,9.966415405273438
315026,0.4814605712890625,1.504425048828125,-0.8484344482421875,-0.6000011563301086,-5.96113920211792,-1.52164363861084,48.93675231933594,92.17323303222656,10.19709777832031
315027,0.6045684814453125,1.043243408203125,-0.2271575927734375,-0.5566573739051819,-5.707190036773682,-0.411358505487442,48.46003723144531,92.08956909179688,10.36978149414062
315028,0.6045684814453125,1.043243408203125,-0.2271575927734375,-0.5566573739051819,-5.707190036773682,-0.411358505487442,48.46003723144531,92.08956909179688,10.36978149414062
315029,-0.04742431640625,1.58062744140625,0.0032958984375,0.295659601688385,0.664391040802002,-0.2633445560932159,49.12083435058594,92.42996215820312,11.37869262695312
315030,-0.0160064697265625,2.081817626953125,-0.2035369873046875,0.8244951963424683,1.812213182449341,-0.8299328684806824,49.75721740722656,92.44004821777344,11.82685852050781
315031,-0.0357818603515625,2.201919555664062,-0.1308441162109375,0.9060699939727784,1.855377197265625,-1.100370526313782,49.99749755859375,92.25096130371094,11.99142456054688
315032,-0.0357818603515625,2.201919555664062,-0.1308441162109375,0.9060699939727784,1.855377197265625,-1.100370526313782,49.99749755859375,92.25096130371094,11.99142456054688
315033,-0.2157440185546875,1.963409423828125,-0.0595855712890625,0.4327314496040344,0.2953181862831116,-1.633548617362976,49.03958129882812,91.96630859375,11.32095336914062
315034,-0.3758544921875,1.738937377929688,0.0411834716796875,0.3110015392303467,-0.7533766031265259,-1.49935781955719,48.60787963867188,91.88026428222656,10.97137451171875
315035,-0.5178985595703125,1.541412353515625,0.2015533447265625,0.2062887251377106,-1.434932470321655,-1.055909276008606,48.10888671875,91.80718994140624,10.83343505859375
315036,-0.5178985595703125,1.541412353515625,0.2015533447265625,0.2062887251377106,-1.434932470321655,-1.055909276008606,48.10888671875,91.80718994140624,10.83343505859375
315037,-0.629974365234375,1.4254150390625,0.3342132568359375,0.1293718367815018,-1.747667551040649,-0.5880009531974792,47.96275329589844,91.80873107910156,10.71946716308594
315038,-0.761993408203125,1.365142822265625,0.52337646484375,0.460114598274231,-1.779732227325439,0.0261826012283563,48.28231811523438,91.55224609375,10.90786743164062
315039,-0.75396728515625,1.32440185546875,0.5889434814453125,0.7328545451164246,-1.536044955253601,0.1553400605916977,48.65443420410156,91.4481964111328,11.07455444335938
315040,-0.75396728515625,1.32440185546875,0.5889434814453125,0.7328545451164246,-1.536044955253601,0.1553400605916977,48.65443420410156,91.4481964111328,11.07455444335938
315041,-0.6970367431640625,1.203781127929688,0.5778656005859375,1.122424602508545,-0.440610408782959,0.2528775334358215,49.70046997070312,91.53956604003906,10.79916381835938
315042,-0.6376190185546875,1.14276123046875,0.47088623046875,1.151571393013,0.120920829474926,0.243674710392952,50.02330017089844,91.66177368164062,10.59478759765625
315043,-0.5635223388671875,1.059234619140625,0.3340911865234375,1.073345541954041,0.4902368187904358,0.2011871784925461,50.2420654296875,91.91738891601562,10.1536865234375
315044,-0.5635223388671875,1.059234619140625,0.3340911865234375,1.073345541954041,0.4902368187904358,0.2011871784925461,50.2420654296875,91.91738891601562,10.1536865234375
315045,-0.5009613037109375,0.96636962890625,0.2134246826171875,0.8934838771820068,0.6709746718406677,0.1792368590831757,50.37794494628906,92.23448181152344,9.756195068359377
315046,-0.4322967529296875,0.891021728515625,0.1246490478515625,0.4191466569900513,0.751508355140686,0.1669256091117859,50.43878173828125,92.34898376464844,9.33441162109375
315047,-0.3386383056640625,0.759918212890625,0.019775390625,0.2360213249921799,0.7026103138923645,0.1759561151266098,50.28729248046875,92.82432556152344,8.689361572265625
315048,-0.3386383056640625,0.759918212890625,0.019775390625,0.2360213249921799,0.7026103138923645,0.1759561151266098,50.28729248046875,92.82432556152344,8.689361572265625
315049,-0.3064727783203125,0.630279541015625,-0.0482177734375,0.1048063039779663,0.4415254592895508,0.2619796693325043,50.08612060546875,92.89079284667967,8.22784423828125
315050,-0.288543701171875,0.5643768310546875,-0.0712890625,0.1288429349660873,0.2246259152889252,0.3352187275886536,49.95622253417969,92.93292236328124,8.216781616210938
315051,-0.2614593505859375,0.5089874267578125,-0.0825653076171875,0.2117498070001602,-0.0444806478917598,0.4078133106231689,49.95124816894531,92.94435119628906,8.0931396484375
315052,-0.2614593505859375,0.5089874267578125,-0.0825653076171875,0.2117498070001602,-0.0444806478917598,0.4078133106231689,49.95124816894531,92.94435119628906,8.0931396484375
315053,-0.1954193115234375,0.412628173828125,-0.0498809814453125,0.599915087223053,-0.7928475737571716,0.518385648727417,50.21694946289062,92.98664855957033,7.826644897460938
315054,-0.1629180908203125,0.386962890625,-0.010650634765625,0.599915087223053,-0.7928475737571716,0.518385648727417,50.359375,93.02854919433594,7.685653686523438
315055,-0.1212615966796875,0.359039306640625,0.0323333740234375,0.6903209090232849,-0.9445915222167968,0.5174127817153931,50.63111877441406,93.16944885253906,7.43402099609375
315056,-0.068084716796875,0.3279876708984375,0.070281982421875,0.7207486033439636,-1.057789444923401,0.511143147945404,50.83784484863281,93.19366455078124,7.287612915039062
315057,-0.068084716796875,0.3279876708984375,0.070281982421875,0.7207486033439636,-1.057789444923401,0.511143147945404,50.83784484863281,93.19366455078124,7.287612915039062
315058,0.03118896484375,0.3166046142578125,0.1600189208984375,0.5300281643867493,-1.210702896118164,0.5267607569694519,51.4959716796875,93.41427612304688,6.571380615234375
315059,0.069793701171875,0.368377685546875,0.2224273681640625,0.3376592695713043,-1.22051477432251,0.5563769340515137,51.80195617675781,93.58665466308594,6.334136962890625
315060,0.0808868408203125,0.461578369140625,0.319610595703125,0.1299311071634293,-1.109182596206665,0.634950578212738,52.06130981445312,93.81373596191406,6.00579833984375
315061,0.0808868408203125,0.461578369140625,0.319610595703125,0.1299311071634293,-1.109182596206665,0.634950578212738,52.06130981445312,93.81373596191406,6.00579833984375
315062,-0.025054931640625,0.682586669921875,0.51397705078125,-0.0083783045411109,0.0464388728141784,0.8803179860115051,52.76457214355469,94.06651306152344,5.624542236328125
315063,-0.1025848388671875,0.771240234375,0.5079498291015625,0.0099732717499136,0.8467744588851929,0.9129318594932556,53.24301147460938,94.08952331542967,5.561355590820312
315064,-0.1025848388671875,0.771240234375,0.5079498291015625,0.0099732717499136,0.8467744588851929,0.9129318594932556,53.24301147460938,94.08952331542967,5.561355590820312
315065,-0.163116455078125,0.8421630859375,0.4541778564453125,-0.0249833799898624,1.559906959533691,0.8932609558105469,53.55445861816406,94.01644897460938,5.612442016601562
315066,-0.226348876953125,1.020797729492188,0.2669525146484375,-0.2328636050224304,2.499821186065674,0.7579468488693237,54.00447082519531,94.14141845703124,5.538345336914062
315067,-0.2523345947265625,1.086654663085938,0.097015380859375,-0.4125675857067108,2.57969331741333,0.6075402498245239,54.0562744140625,94.08903503417967,5.55865478515625
315068,-0.2523345947265625,1.086654663085938,0.097015380859375,-0.4125675857067108,2.57969331741333,0.6075402498245239,54.0562744140625,94.08903503417967,5.55865478515625
315069,-0.291290283203125,1.136947631835938,-0.0865325927734375,-0.5974569916725159,2.329366207122803,0.4112913906574249,53.93487548828125,94.13621520996094,5.825485229492188
315070,-0.2327423095703125,1.081710815429688,-0.5985565185546875,-0.7815427184104919,0.3324437141418457,0.1108008176088333,53.68611145019531,93.90193176269533,6.295928955078125
315071,-0.1371307373046875,0.9930572509765624,-0.507568359375,-0.6548968553543091,-0.7998594045639038,0.1294789016246796,53.43849182128906,93.82267761230467,6.642822265625
315072,-0.1371307373046875,0.9930572509765624,-0.507568359375,-0.6548968553543091,-0.7998594045639038,0.1294789016246796,53.43849182128906,93.82267761230467,6.642822265625
315073,-0.097747802734375,0.962158203125,-0.1166534423828125,-0.5151115655899048,-1.21443498134613,0.267717719078064,53.33479309082031,93.76496887207033,6.939041137695312
315074,-0.0636444091796875,0.9609375,0.2071380615234375,-0.486558198928833,-0.9114381074905396,0.3991582989692688,53.42999267578125,93.56466674804688,7.206619262695312
315075,0.0774993896484375,0.908935546875,0.4513397216796875,-0.3401634395122528,1.600930213928223,0.5156431198120117,53.87823486328125,93.24224853515624,7.407699584960938
315076,0.0774993896484375,0.908935546875,0.4513397216796875,-0.3401634395122528,1.600930213928223,0.5156431198120117,53.87823486328125,93.24224853515624,7.407699584960938
315077,0.0617828369140625,0.905059814453125,0.3327789306640625,-0.3401634395122528,1.600930213928223,0.5156431198120117,54.14312744140625,93.10577392578124,7.66796875
315078,-0.0208587646484375,0.9342803955078124,-0.065643310546875,-0.0149805471301078,1.694483876228333,0.4195035398006439,54.09425354003906,92.91714477539062,8.29632568359375
315079,-0.0355377197265625,0.9192352294921876,-0.08306884765625,0.0166889652609825,1.254164338111877,0.3498173952102661,53.99267578125,92.71339416503906,8.599151611328125
315080,-0.0355377197265625,0.9192352294921876,-0.08306884765625,0.0166889652609825,1.254164338111877,0.3498173952102661,53.99267578125,92.71339416503906,8.599151611328125
315081,0.050933837890625,0.9323883056640624,0.07647705078125,-0.1896133422851562,1.092436909675598,0.2069289535284042,53.55937194824219,92.61410522460938,8.329635620117188
315082,0.050933837890625,0.9323883056640624,0.07647705078125,-0.1896133422851562,1.092436909675598,0.2069289535284042,53.55937194824219,92.61410522460938,8.329635620117188
315083,0.1121063232421875,1.0618896484375,0.0490264892578125,-0.2585902810096741,1.227448582649231,0.1304392367601395,53.26596069335938,92.779296875,8.0916748046875
315084,0.1121063232421875,1.0618896484375,0.0490264892578125,-0.2585902810096741,1.227448582649231,0.1304392367601395,53.26596069335938,92.779296875,8.0916748046875
315085,0.112091064453125,1.053665161132812,-0.003082275390625,-0.140189602971077,1.308711171150208,0.0682887732982635,53.09941101074219,92.87873840332033,8.195083618164062
315086,0.107330322265625,1.019363403320312,-0.0141448974609375,-0.140189602971077,1.308711171150208,0.0682887732982635,52.93907165527344,92.77297973632812,8.36444091796875
315087,0.11553955078125,0.9718475341796876,0.06634521484375,0.141983762383461,1.439458250999451,0.1863325983285904,52.416015625,92.68968200683594,8.601806640625
315088,0.11553955078125,0.9718475341796876,0.06634521484375,0.141983762383461,1.439458250999451,0.1863325983285904,52.416015625,92.68968200683594,8.601806640625
315089,0.1345367431640625,0.9511871337890624,0.0833587646484375,0.252884715795517,1.499156713485718,0.2879316508769989,52.18426513671875,92.65713500976562,8.765960693359375
315090,0.151641845703125,0.9585113525390624,0.0756988525390625,0.3016418814659119,1.287927389144897,0.4427252411842346,51.63688659667969,92.6234893798828,8.529739379882812
315091,0.1680908203125,0.9554595947265624,0.0810699462890625,0.2721976935863495,1.043018221855164,0.5020668506622314,51.50666809082031,92.70059204101562,8.351058959960938
315092,0.1680908203125,0.9554595947265624,0.0810699462890625,0.2721976935863495,1.043018221855164,0.5020668506622314,51.50666809082031,92.70059204101562,8.351058959960938
315093,0.1840362548828125,0.9492950439453124,0.0982666015625,0.2177680134773254,0.7638760805130005,0.5316596031188965,51.34588623046875,92.7711181640625,8.282302856445312
315094,0.2091827392578125,0.9347076416015624,0.1622161865234375,0.1533887535333633,0.2315413504838943,0.5267636775970459,51.39581298828125,92.88504028320312,8.221328735351562
315095,0.2135467529296875,0.9330902099609376,0.21728515625,0.2077249586582184,0.0702531263232231,0.5077574849128723,51.56550598144531,92.85000610351562,8.326370239257812
315096,0.2135467529296875,0.9330902099609376,0.21728515625,0.2077249586582184,0.0702531263232231,0.5077574849128723,51.56550598144531,92.85000610351562,8.326370239257812
315097,0.21331787109375,0.93597412109375,0.273529052734375,0.3239506483078003,0.042885947972536,0.4782635271549225,51.74183654785156,92.8583984375,8.297515869140625
315098,0.1898040771484375,0.9285430908203124,0.3145751953125,0.578763484954834,0.3154114782810211,0.4099611639976501,52.01579284667969,93.09942626953124,7.915481567382812
315099,0.1459808349609375,0.9241943359375,0.2860565185546875,0.6280085444450378,0.5004468560218811,0.4195389449596405,52.12435913085938,93.20172119140624,7.733428955078125
315100,0.1459808349609375,0.9241943359375,0.2860565185546875,0.6280085444450378,0.5004468560218811,0.4195389449596405,52.12435913085938,93.20172119140624,7.733428955078125
315101,0.1077728271484375,0.9449615478515624,0.2343902587890625,0.6144272089004517,0.6229623556137085,0.4274543821811676,52.15998840332031,93.4700927734375,7.333023071289062
315102,0.000518798828125,1.061431884765625,0.1379547119140625,0.5067383050918579,0.6313862204551697,0.3192650675773621,52.24742126464844,93.70852661132812,6.810104370117188
315103,-0.0677947998046875,1.161468505859375,0.1098175048828125,0.4596461653709412,0.5604886412620544,0.1669775396585464,52.277587890625,93.89924621582033,6.65643310546875
315104,-0.0677947998046875,1.161468505859375,0.1098175048828125,0.4596461653709412,0.5604886412620544,0.1669775396585464,52.277587890625,93.89924621582033,6.65643310546875
315105,-0.2320556640625,1.41448974609375,-0.2701263427734375,0.5362352132797241,-0.5142590403556824,-0.3634762167930603,52.26840209960938,94.24569702148438,6.188735961914062
315106,-0.3103790283203125,1.462295532226562,-0.13262939453125,0.6541639566421509,-1.420481324195862,-0.6295651793479919,52.25227355957031,94.45068359375,5.802017211914062
315107,-0.3674468994140625,1.344467163085938,0.2228546142578125,0.6042842864990234,-1.594917058944702,-0.6451531648635864,52.1695556640625,94.62591552734376,5.655532836914062
315108,-0.3674468994140625,1.344467163085938,0.2228546142578125,0.6042842864990234,-1.594917058944702,-0.6451531648635864,52.1695556640625,94.62591552734376,5.655532836914062
315109,-0.428741455078125,1.163970947265625,0.2872161865234375,0.4741481244564056,-1.295532822608948,-0.3391205370426178,52.23170471191406,94.66075134277344,5.372787475585938
315110,-0.4221649169921875,1.10443115234375,0.1601409912109375,0.3424921035766602,-0.9411938786506652,0.0817041844129562,52.27394104003906,94.8800048828125,5.066390991210938
315111,-0.2245330810546875,1.20697021484375,0.1270751953125,0.2436819076538086,0.2153985947370529,0.3481284081935883,52.63911437988281,95.1978759765625,4.776931762695312
315112,-0.2245330810546875,1.20697021484375,0.1270751953125,0.2436819076538086,0.2153985947370529,0.3481284081935883,52.63911437988281,95.1978759765625,4.776931762695312
315113,-0.273040771484375,1.073684692382812,0.0897216796875,0.2765684723854065,0.89809650182724,0.0732318684458732,52.77116394042969,95.43072509765624,4.568435668945312
315114,-0.4741668701171875,0.8011627197265625,0.1028594970703125,0.2452523708343506,0.8356203436851501,-0.0635688528418541,52.76469421386719,95.5336456298828,4.495223999023438
315115,-0.5144195556640625,0.6998291015625,0.0605316162109375,0.2084149867296219,0.6845077872276306,-0.1034720614552498,52.66520690917969,95.45613098144533,4.519622802734375
315116,-0.5228424072265625,0.6840667724609375,-0.022857666015625,0.1780285835266113,0.397344708442688,-0.078020766377449,52.56381225585938,95.5321807861328,4.33905029296875
315117,-0.5228424072265625,0.6840667724609375,-0.022857666015625,0.1780285835266113,0.397344708442688,-0.078020766377449,52.56381225585938,95.5321807861328,4.33905029296875
315118,-0.4857330322265625,0.84759521484375,-0.140594482421875,0.2052285224199295,-0.3278412520885468,-0.2002798318862915,52.3299560546875,95.58709716796876,4.181060791015625
315119,-0.45654296875,0.9067535400390624,-0.164093017578125,0.2002958059310913,-0.6094526648521423,-0.2816673517227173,52.26268005371094,95.56202697753906,4.168746948242188
315120,-0.4241790771484375,0.9130706787109376,-0.1619873046875,0.1644675135612488,-0.7307932376861572,-0.3267592191696167,52.11744689941406,95.65362548828124,4.005752563476562
315121,-0.4241790771484375,0.9130706787109376,-0.1619873046875,0.1644675135612488,-0.7307932376861572,-0.3267592191696167,52.11744689941406,95.65362548828124,4.005752563476562
315122,-0.3799591064453125,0.9010772705078124,-0.092315673828125,-0.0178527664393186,0.0354959405958652,-0.1287220269441605,52.10931396484375,96.02276611328124,3.826156616210938
315123,-0.2276763916015625,0.9043731689453124,-0.068511962890625,-0.0384270176291465,0.5608335137367249,-0.0191502589732408,52.03402709960938,96.0578155517578,3.778640747070312
315124,-0.1213226318359375,0.8956451416015625,-0.0238189697265625,-0.1505397111177444,0.8100156188011169,-0.0655446574091911,51.89285278320312,96.112548828125,3.792266845703125
315125,-0.1213226318359375,0.8956451416015625,-0.0238189697265625,-0.1505397111177444,0.8100156188011169,-0.0655446574091911,51.89285278320312,96.112548828125,3.792266845703125
315126,-0.1000518798828125,0.86846923828125,0.045806884765625,-0.2559652030467987,0.6282380819320679,-0.1099161133170128,51.59561157226562,96.11032104492188,3.848739624023438
315127,-0.12982177734375,0.9029541015625,0.05914306640625,-0.3405048549175262,0.3688371479511261,-0.1293247044086456,51.47860717773438,95.97720336914062,3.923599243164062
315128,-0.12982177734375,0.9029541015625,0.05914306640625,-0.3405048549175262,0.3688371479511261,-0.1293247044086456,51.47860717773438,95.97720336914062,3.923599243164062
315129,-0.19183349609375,0.963897705078125,0.080718994140625,-0.3579951524734497,0.162606492638588,-0.1215554624795914,51.34689331054688,95.95883178710938,4.17596435546875
315130,-0.31488037109375,1.0709228515625,-0.009429931640625,-0.2008273750543594,0.0933975949883461,-0.1004576310515404,51.15861511230469,95.81224060058594,4.291732788085938
315131,-0.3532257080078125,1.092269897460938,-0.0753631591796875,-0.1317718774080276,0.0178937800228595,-0.1027223840355873,51.17353820800781,95.70481872558594,4.437469482421875
315132,-0.3532257080078125,1.092269897460938,-0.0753631591796875,-0.1317718774080276,0.0178937800228595,-0.1027223840355873,51.17353820800781,95.70481872558594,4.437469482421875
315133,-0.3693389892578125,1.070449829101562,-0.0743255615234375,-0.0452010333538055,0.0762084871530532,-0.1691703796386719,51.025390625,95.85711669921876,4.456466674804688
315134,-0.3365631103515625,1.015731811523438,-0.0698394775390625,-0.0452010333538055,0.0762084871530532,-0.1691703796386719,50.93917846679688,95.80003356933594,4.457717895507812
315135,-0.293365478515625,0.945526123046875,-0.0672454833984375,-0.0043492084369063,0.1393621563911438,-0.1869536340236664,50.89849853515625,95.81494140625,4.542327880859375
315136,-0.2674560546875,0.9073028564453124,-0.05694580078125,0.0139914490282535,0.1626672148704529,-0.1904200166463852,50.75419616699219,95.74822998046876,4.631088256835938
315137,-0.2674560546875,0.9073028564453124,-0.05694580078125,0.0139914490282535,0.1626672148704529,-0.1904200166463852,50.75419616699219,95.74822998046876,4.631088256835938
315138,-0.2277069091796875,0.8999176025390625,-0.0434112548828125,-0.0747842267155647,0.1127840727567673,-0.1790967881679535,50.55326843261719,95.73796081542967,4.588821411132812
315139,-0.207305908203125,0.910400390625,-0.0399322509765625,-0.1244391277432442,0.0775011852383613,-0.1709150224924088,50.43132019042969,95.69703674316406,4.6064453125
315140,-0.207305908203125,0.910400390625,-0.0399322509765625,-0.1244391277432442,0.0775011852383613,-0.1709150224924088,50.43132019042969,95.69703674316406,4.6064453125
315141,-0.1921234130859375,0.927490234375,-0.0457611083984375,-0.1341524720191956,0.0472814962267875,-0.1525791585445404,50.42514038085938,95.59429931640624,4.626571655273438
315142,-0.1815185546875,0.948638916015625,-0.050994873046875,-0.1118106842041016,0.0080797644332051,-0.1348936408758163,50.25888061523438,95.64378356933594,4.665252685546875
315143,-0.1541595458984375,0.94000244140625,-0.06243896484375,-0.0392645820975303,-0.0914140716195106,-0.0917866453528404,50.14060974121094,95.54725646972656,4.736190795898438
315144,-0.1541595458984375,0.94000244140625,-0.06243896484375,-0.0392645820975303,-0.0914140716195106,-0.0917866453528404,50.14060974121094,95.54725646972656,4.736190795898438
315145,-0.1317138671875,0.910552978515625,-0.084014892578125,0.0819364115595817,-0.363126277923584,-0.0398161225020885,50.13189697265625,95.47224426269533,4.630020141601562
315146,-0.1224822998046875,0.89776611328125,-0.1070556640625,0.0819364115595817,-0.363126277923584,-0.0398161225020885,50.08970642089844,95.45103454589844,4.760543823242188
315147,-0.11639404296875,0.8815765380859375,-0.1337127685546875,0.118803083896637,-0.460631251335144,-0.0077117155306041,50.14678955078125,95.3852996826172,4.709121704101562
315148,-0.11639404296875,0.8815765380859375,-0.1337127685546875,0.118803083896637,-0.460631251335144,-0.0077117155306041,50.14678955078125,95.3852996826172,4.709121704101562
315149,-0.11328125,0.8670196533203125,-0.151580810546875,0.1870505809783936,-0.6131981611251831,0.0917091444134712,50.22187805175781,95.4853973388672,4.715972900390625
315150,-0.1107635498046875,0.8622894287109375,-0.146942138671875,0.1870505809783936,-0.6131981611251831,0.0917091444134712,50.1976318359375,95.58428955078124,4.69293212890625
315151,-0.099151611328125,0.873199462890625,-0.136627197265625,0.2070163041353226,-0.6893799901008606,0.1814544796943665,50.49122619628906,95.6422882080078,4.509811401367188
315152,-0.099151611328125,0.873199462890625,-0.136627197265625,0.2070163041353226,-0.6893799901008606,0.1814544796943665,50.49122619628906,95.6422882080078,4.509811401367188
315153,-0.1020050048828125,0.8852081298828125,-0.136260986328125,0.2235143184661865,-0.747927725315094,0.2169964909553528,50.71932983398438,95.66682434082033,4.372528076171875
315154,-0.15362548828125,0.9340972900390624,-0.040130615234375,0.2166489511728287,-0.7020249962806702,0.2797456383705139,51.09022521972656,95.85374450683594,4.331512451171875
315155,-0.189605712890625,0.960968017578125,0.0283050537109375,0.1593220084905624,-0.5714097023010254,0.2989675402641296,51.44050598144531,95.91146850585938,4.313385009765625
315156,-0.189605712890625,0.960968017578125,0.0283050537109375,0.1593220084905624,-0.5714097023010254,0.2989675402641296,51.44050598144531,95.91146850585938,4.313385009765625
315157,-0.2168121337890625,0.9816436767578124,0.056121826171875,0.0783043950796127,-0.4671376347541809,0.3016003370285034,51.7032470703125,95.9783172607422,4.279556274414062
315158,-0.2252655029296875,1.001937866210938,0.0619964599609375,-0.0059811933897435,-0.5534767508506775,0.2776683568954468,52.26058959960938,96.04660034179688,4.188232421875
315159,-0.21710205078125,1.042160034179688,0.08740234375,-0.0163978822529315,-0.5777666568756104,0.2513158619403839,52.412353515625,95.97943115234376,4.209869384765625
315160,-0.19427490234375,1.0968017578125,0.0675811767578125,-0.0330833829939365,-0.7067691087722778,0.1533203125,52.60836791992188,95.95147705078124,4.144790649414062
315161,-0.19427490234375,1.0968017578125,0.0675811767578125,-0.0330833829939365,-0.7067691087722778,0.1533203125,52.60836791992188,95.95147705078124,4.144790649414062
315162,-0.1637115478515625,1.155609130859375,0.0424957275390625,-0.0330833829939365,-0.7067691087722778,0.1533203125,52.90426635742188,95.95761108398438,4.180908203125
315163,-0.1232452392578125,1.261001586914062,0.0914459228515625,-0.0553122572600841,-0.691361129283905,0.0112936673685908,53.33702087402344,95.96633911132812,4.206863403320312
315164,-0.1232452392578125,1.261001586914062,0.0914459228515625,-0.0553122572600841,-0.691361129283905,0.0112936673685908,53.33702087402344,95.96633911132812,4.206863403320312
315165,-0.107574462890625,1.236083984375,0.0361785888671875,-0.0251519586890935,-0.662668764591217,-0.0336823314428329,53.57322692871094,96.02272033691406,4.262908935546875
315166,-0.05145263671875,1.059097290039062,-0.0256195068359375,0.1961026638746262,-0.8619139790534973,-0.0408100150525569,53.65397644042969,96.13223266601562,4.27960205078125
315167,-0.066192626953125,0.949615478515625,0.00738525390625,0.3400667607784271,-0.8111205697059631,-0.0298580303788185,53.77757263183594,96.0505828857422,4.299301147460938
315168,-0.066192626953125,0.949615478515625,0.00738525390625,0.3400667607784271,-0.8111205697059631,-0.0298580303788185,53.77757263183594,96.0505828857422,4.299301147460938
315169,-0.0994110107421875,0.877685546875,-0.0047760009765625,0.4168150722980499,-0.7585180997848511,-0.0135200694203376,53.98182678222656,96.12237548828124,4.161422729492188
315170,-0.11846923828125,0.8849639892578125,0.0395660400390625,0.2398003488779068,-0.8569352030754089,0.0118236364796757,54.2301025390625,96.28482055664062,3.758560180664062
315171,-0.143646240234375,0.9073333740234376,0.073486328125,0.120414562523365,-0.8825358748435974,-0.000867391587235,54.33596801757812,96.34904479980467,3.603164672851562
315172,-0.143646240234375,0.9073333740234376,0.073486328125,0.120414562523365,-0.8825358748435974,-0.000867391587235,54.33596801757812,96.34904479980467,3.603164672851562
315173,-0.1723175048828125,0.9533843994140624,0.08905029296875,0.0516160577535629,-0.8817833065986633,-0.0299997106194496,54.50981140136719,96.34182739257812,3.558212280273438
315174,-0.1922607421875,1.003372192382812,0.0996246337890625,0.0400230512022972,-0.7735700011253357,-0.068960428237915,54.69898986816406,96.4089813232422,3.393356323242188
315175,-0.22308349609375,1.018417358398438,0.0836029052734375,0.0779086500406265,-0.7121148705482483,-0.0743021965026855,55.016845703125,96.38375854492188,3.390121459960938
315176,-0.22308349609375,1.018417358398438,0.0836029052734375,0.0779086500406265,-0.7121148705482483,-0.0743021965026855,55.016845703125,96.38375854492188,3.390121459960938
315177,-0.2404937744140625,0.9835968017578124,0.07391357421875,0.115784652531147,-0.6906647086143494,-0.0733591690659523,55.21055603027344,96.24891662597656,3.569671630859375
315178,-0.243499755859375,0.9144744873046876,0.081787109375,0.1201873943209648,-0.678430438041687,-0.0421919263899326,55.44773864746094,96.33975219726562,3.4931640625
315179,-0.2227783203125,0.89654541015625,0.1036834716796875,0.1262040138244629,-0.6131755113601685,-0.0158276986330747,55.52195739746094,96.32125854492188,3.539337158203125
315180,-0.2227783203125,0.89654541015625,0.1036834716796875,0.1262040138244629,-0.6131755113601685,-0.0158276986330747,55.52195739746094,96.32125854492188,3.539337158203125
315181,-0.2079010009765625,0.9588623046875,0.1041717529296875,0.1694707870483398,-0.4298126101493835,0.0304628349840641,55.59783935546875,96.62315368652344,2.993621826171875
315182,-0.1989288330078125,0.9966278076171876,0.0817718505859375,0.2037595212459564,-0.4137846529483795,0.0512267015874385,55.69192504882812,96.48361206054688,2.8570556640625
315183,-0.1828155517578125,1.021240234375,0.0815887451171875,0.2486130148172379,-0.3990400731563568,0.0663001909852027,55.76768493652344,96.57362365722656,2.70465087890625
315184,-0.1702423095703125,1.034866333007812,0.096527099609375,0.2788654565811157,-0.3453206419944763,0.0771411210298538,55.79360961914062,96.652587890625,2.65814208984375
315185,-0.1702423095703125,1.034866333007812,0.096527099609375,0.2788654565811157,-0.3453206419944763,0.0771411210298538,55.79360961914062,96.652587890625,2.65814208984375
315186,-0.1870269775390625,1.050765991210938,0.0894317626953125,0.297078013420105,-0.2186034470796585,0.0838743969798088,56.00608825683594,96.69793701171876,2.4468994140625
315187,-0.210174560546875,1.04827880859375,0.0725860595703125,0.3010293543338776,-0.2131173312664032,0.077267087996006,56.08396911621094,96.77970886230467,2.318634033203125
315188,-0.210174560546875,1.04827880859375,0.0725860595703125,0.3010293543338776,-0.2131173312664032,0.077267087996006,56.08396911621094,96.77970886230467,2.318634033203125
315189,-0.2199859619140625,1.012130737304688,0.080322265625,0.327367752790451,-0.197386309504509,0.0557791106402874,56.37213134765625,96.81028747558594,2.060623168945312
315190,-0.2003326416015625,0.98150634765625,0.087005615234375,0.3591003715991974,-0.1523440033197403,0.0378312692046165,56.39817810058594,96.77615356445312,1.87786865234375
315191,-0.1713714599609375,0.9566650390625,0.0908050537109375,0.3874742090702057,-0.0876046866178512,0.0340136252343654,56.45698547363281,96.77737426757812,1.73309326171875
315192,-0.1400604248046875,0.9399871826171876,0.0815887451171875,0.3887269794940948,-0.0322199873626232,0.031831432133913,56.48683166503906,96.9316864013672,1.494735717773438
315193,-0.1400604248046875,0.9399871826171876,0.0815887451171875,0.3887269794940948,-0.0322199873626232,0.031831432133913,56.48683166503906,96.9316864013672,1.494735717773438
315194,-0.0926055908203125,0.95379638671875,0.0485076904296875,0.3249551951885223,-0.0017526262672618,0.0270566511899232,56.43861389160156,97.03271484375,1.2210693359375
315195,-0.076751708984375,0.976531982421875,0.042388916015625,0.2956023514270782,-0.0157709736377,0.0169315785169601,56.46450805664062,97.0126953125,1.166671752929688
315196,-0.076751708984375,0.976531982421875,0.042388916015625,0.2956023514270782,-0.0157709736377,0.0169315785169601,56.46450805664062,97.0126953125,1.166671752929688
315197,-0.07861328125,1.008819580078125,0.053955078125,0.2919175922870636,-0.0024202808272093,0.001847967505455,56.52200317382812,97.17233276367188,0.6705780029296875
315198,-0.0976715087890625,1.013168334960938,0.059051513671875,0.3151347935199738,0.0695327371358871,0.0130681311711669,56.51789855957031,97.24513244628906,0.5284423828125
315199,-0.1298370361328125,1.010726928710938,0.0577392578125,0.3151347935199738,0.0695327371358871,0.0130681311711669,56.55158996582031,97.27308654785156,0.4429168701171875
315200,-0.1617279052734375,1.002304077148438,0.0444488525390625,0.3129027783870697,0.0847689509391784,0.0424350760877132,56.48777770996094,97.46585083007812,0.290283203125
315201,-0.1617279052734375,1.002304077148438,0.0444488525390625,0.3129027783870697,0.0847689509391784,0.0424350760877132,56.48777770996094,97.46585083007812,0.290283203125
315202,-0.1832733154296875,0.9831085205078124,0.02862548828125,0.3032834529876709,0.0829476118087768,0.0470689758658409,56.57572937011719,97.48747253417967,0.047149658203125
315203,-0.17486572265625,0.970062255859375,0.0198822021484375,0.289347380399704,0.093277484178543,0.0433610565960407,56.56663513183594,97.50418090820312,-0.017578125
315204,-0.15765380859375,0.9539794921875,0.0134124755859375,0.2695750296115875,0.0899218991398811,0.0398842990398407,56.54904174804688,97.65965270996094,-0.099822998046875
315205,-0.1386260986328125,0.9454498291015624,0.02703857421875,0.2317392230033875,0.0919901132583618,0.0236286297440528,56.52520751953125,97.69294738769533,-0.2761688232421875
315206,-0.1216278076171875,0.9416961669921876,0.045135498046875,0.2317392230033875,0.0919901132583618,0.0236286297440528,56.49612426757812,97.66267395019533,-0.3074798583984375
315207,-0.10107421875,0.941650390625,0.054290771484375,0.2065118998289108,0.0870291739702224,0.0151177002117037,56.47222900390625,97.75318908691406,-0.4611053466796875
315208,-0.10107421875,0.941650390625,0.054290771484375,0.2065118998289108,0.0870291739702224,0.0151177002117037,56.47222900390625,97.75318908691406,-0.4611053466796875
315209,-0.088470458984375,0.948822021484375,0.061492919921875,0.1299963444471359,0.0645973682403564,0.0007629956235177,56.53504943847656,97.711181640625,-0.4800262451171875
315210,-0.10198974609375,0.978271484375,0.0588226318359375,0.0999609529972076,0.0812732875347137,-0.0068168933503329,56.59388732910156,97.80705261230467,-0.7615509033203125
315211,-0.11700439453125,0.9892120361328124,0.0391845703125,0.0884819254279136,0.1045210808515549,-0.0112667689099907,56.60427856445312,97.86790466308594,-0.8021087646484375
315212,-0.11700439453125,0.9892120361328124,0.0391845703125,0.0884819254279136,0.1045210808515549,-0.0112667689099907,56.60427856445312,97.86790466308594,-0.8021087646484375
315213,-0.1310272216796875,0.9886322021484376,0.0271759033203125,0.0909048691391944,0.1290812939405441,-0.0133991623297333,56.5572509765625,97.8133544921875,-0.7936553955078125
315214,-0.15655517578125,0.9776763916015624,-0.001190185546875,0.0671952813863754,0.1334320902824402,-0.0222102310508489,56.56282043457031,97.75735473632812,-0.8968048095703125
315215,-0.1535491943359375,0.972412109375,-0.0060882568359375,0.0483510196208953,0.1248742938041687,-0.0237292982637882,56.50526428222656,97.77822875976562,-0.8912811279296875
315216,-0.1422576904296875,0.967742919921875,-0.0047607421875,0.0332887135446071,0.1346643418073654,-0.0159376878291368,56.5108642578125,97.89962768554688,-1.022537231445312
315217,-0.1422576904296875,0.967742919921875,-0.0047607421875,0.0332887135446071,0.1346643418073654,-0.0159376878291368,56.5108642578125,97.89962768554688,-1.022537231445312
315218,-0.128997802734375,0.9800872802734376,0.0042572021484375,0.0293019618839025,0.1470227390527725,-0.0149054462090134,56.42033386230469,97.87615966796876,-1.043441772460938
315219,-0.128662109375,0.9927520751953124,-0.00030517578125,0.0273003298789262,0.1599079072475433,-0.007316502276808,56.41339111328125,97.93734741210938,-1.005126953125
315220,-0.120819091796875,1.01397705078125,-0.0041351318359375,0.0313968062400817,0.1699562817811966,-0.0014682007022202,56.31349182128906,98.11380004882812,-1.066162109375
315221,-0.120819091796875,1.01397705078125,-0.0041351318359375,0.0313968062400817,0.1699562817811966,-0.0014682007022202,56.31349182128906,98.11380004882812,-1.066162109375
315222,-0.1163330078125,1.011764526367188,-0.0077362060546875,0.0285557452589273,0.1792746782302856,-0.0021877868566662,56.26950073242188,98.1458740234375,-1.151580810546875
315223,-0.1120452880859375,1.002395629882812,-0.00543212890625,0.0159438122063875,0.1877746880054474,-0.0054898401722311,56.2718505859375,98.1062469482422,-1.167205810546875
315224,-0.113311767578125,0.9923248291015624,-0.0022430419921875,0.001694303122349,0.2261439263820648,-0.0267088431864976,56.25755310058594,97.99285888671876,-1.02740478515625
315225,-0.1179962158203125,0.971893310546875,-0.0027313232421875,0.0063388561829924,0.2302103042602539,-0.0304758828133344,56.17724609375,98.01910400390624,-0.967742919921875
315226,-0.1268310546875,0.9578399658203124,-0.00665283203125,0.0063388561829924,0.2302103042602539,-0.0304758828133344,56.10975646972656,98.0295867919922,-0.957977294921875
315227,-0.131591796875,0.9619140625,-0.0115966796875,0.004097007215023,0.2120406180620193,-0.034689538180828,56.11575317382812,98.04705810546876,-1.04296875
315228,-0.131591796875,0.9619140625,-0.0115966796875,0.004097007215023,0.2120406180620193,-0.034689538180828,56.11575317382812,98.04705810546876,-1.04296875
315229,-0.1150970458984375,0.9725189208984376,-0.0168609619140625,-0.0139120873063802,0.1668840646743774,-0.0427346788346767,56.12666320800781,97.9600067138672,-1.127975463867188
315230,-0.0998992919921875,0.978973388671875,-0.0289154052734375,-0.0139120873063802,0.1668840646743774,-0.0427346788346767,56.04942321777344,97.97984313964844,-1.113265991210938
315231,-0.087371826171875,0.9860076904296876,-0.0393218994140625,-0.0138340564444661,0.1659000217914581,-0.0441016815602779,55.94277954101562,97.902099609375,-0.9518890380859376
315232,-0.087371826171875,0.9860076904296876,-0.0393218994140625,-0.0138340564444661,0.1659000217914581,-0.0441016815602779,55.94277954101562,97.902099609375,-0.9518890380859376
315233,-0.0809173583984375,0.989898681640625,-0.042236328125,-0.0091048153117299,0.1672907173633575,-0.0459416583180427,55.92958068847656,98.00613403320312,-1.124649047851562
315234,-0.0810699462890625,0.9918365478515624,-0.0408782958984375,-0.0048237834125757,0.1629127562046051,-0.0413407832384109,55.83018493652344,97.89508056640624,-1.105377197265625
315235,-0.088775634765625,0.9980926513671876,-0.050079345703125,0.0010687265312299,0.1523826122283936,-0.0315648503601551,55.81797790527344,97.91259765625,-1.037261962890625
315236,-0.088775634765625,0.9980926513671876,-0.050079345703125,0.0010687265312299,0.1523826122283936,-0.0315648503601551,55.81797790527344,97.91259765625,-1.037261962890625
315237,-0.09820556640625,0.9968414306640624,-0.06781005859375,0.0160503387451171,0.1335247755050659,-0.0224741492420435,55.79695129394531,97.97506713867188,-1.010955810546875
315238,-0.1001129150390625,0.99603271484375,-0.0731658935546875,0.0160503387451171,0.1335247755050659,-0.0224741492420435,55.67367553710938,98.01535034179688,-0.9945526123046876
315239,-0.0970306396484375,1.000320434570312,-0.074859619140625,0.0221921205520629,0.1393397897481918,-0.0172753930091857,55.70616149902344,98.03611755371094,-1.005661010742188
315240,-0.0970306396484375,1.000320434570312,-0.074859619140625,0.0221921205520629,0.1393397897481918,-0.0172753930091857,55.70616149902344,98.03611755371094,-1.005661010742188
315241,-0.09442138671875,1.002777099609375,-0.0664215087890625,0.0160820316523313,0.1468288600444794,-0.0170173328369855,55.71218872070312,97.92770385742188,-1.022415161132812
315242,-0.098236083984375,1.000747680664062,-0.0404510498046875,0.0264087039977312,0.1515402495861053,-0.0245314426720142,55.61122131347656,97.86122131347656,-1.041839599609375
315243,-0.1054229736328125,0.9892578125,-0.0235595703125,0.0264087039977312,0.1515402495861053,-0.0245314426720142,55.60142517089844,97.98141479492188,-1.045425415039062
315244,-0.1054229736328125,0.9892578125,-0.0235595703125,0.0264087039977312,0.1515402495861053,-0.0245314426720142,55.60142517089844,97.98141479492188,-1.045425415039062
315245,-0.1229248046875,0.9682769775390624,-0.01092529296875,0.0324122682213783,0.1544100791215897,-0.0375194102525711,55.67428588867188,98.0392608642578,-1.084884643554688
315246,-0.1334381103515625,0.9717254638671876,-0.0130615234375,0.0201974138617515,0.1384787857532501,-0.0452558957040309,55.64759826660156,98.01692199707033,-1.102203369140625
315247,-0.134735107421875,0.979705810546875,-0.018218994140625,0.0050450921989977,0.1157625541090965,-0.0467395409941673,55.61233520507812,97.98037719726562,-1.10650634765625
315248,-0.134735107421875,0.979705810546875,-0.018218994140625,0.0050450921989977,0.1157625541090965,-0.0467395409941673,55.61233520507812,97.98037719726562,-1.10650634765625
315249,-0.1306304931640625,0.9854736328125,-0.024200439453125,0.0035401401109993,0.1071533486247063,-0.0532120876014232,55.62251281738281,97.95814514160156,-1.10064697265625
315250,-0.125,0.991455078125,-0.0276947021484375,0.0232912078499794,0.0989912971854209,-0.0537926591932773,55.50692749023438,98.18087768554688,-1.257080078125
315251,-0.1199493408203125,0.9979400634765624,-0.0197906494140625,0.025296302512288,0.0908681228756904,-0.052029114216566,55.44886779785156,98.18406677246094,-1.289154052734375
315252,-0.1199493408203125,0.9979400634765624,-0.0197906494140625,0.025296302512288,0.0908681228756904,-0.052029114216566,55.44886779785156,98.18406677246094,-1.289154052734375
315253,-0.119049072265625,1.001373291015625,-0.0200653076171875,0.028138693422079,0.0737256184220314,-0.0537431240081787,55.37530517578125,98.2163543701172,-1.290008544921875
315254,-0.118408203125,1.006561279296875,-0.0235137939453125,0.0571546331048011,0.0666200369596481,-0.0586246959865093,55.26255798339844,98.29302978515624,-1.401931762695312
315255,-0.117462158203125,1.002090454101562,-0.0341339111328125,0.0736816748976707,0.0706539303064346,-0.0581306815147399,55.24635314941406,98.33932495117188,-1.422317504882812
315256,-0.1126861572265625,0.9993743896484376,-0.04608154296875,0.0795371681451797,0.052033107727766,-0.0529372505843639,55.18905639648438,98.384521484375,-1.502349853515625
315257,-0.1044464111328125,0.996826171875,-0.05047607421875,0.0729181468486785,0.0249234586954116,-0.0470844209194183,55.17118835449219,98.31056213378906,-1.500045776367188
315258,-0.0998382568359375,0.995208740234375,-0.05157470703125,0.0631981417536735,-0.0116292256861925,-0.0353800952434539,55.1842041015625,98.3087921142578,-1.50146484375
315259,-0.102081298828125,0.9945068359375,-0.0462646484375,0.0533865243196487,-0.0450036935508251,-0.0308681670576334,55.12042236328125,98.35630798339844,-1.469772338867188
315260,-0.102081298828125,0.9945068359375,-0.0462646484375,0.0533865243196487,-0.0450036935508251,-0.0308681670576334,55.12042236328125,98.35630798339844,-1.469772338867188
315261,-0.1169281005859375,0.9889373779296876,-0.0281829833984375,0.0609935782849788,-0.0900100469589233,-0.0206879675388336,55.04579162597656,98.42796325683594,-1.666778564453125
315262,-0.12603759765625,0.9820709228515624,-0.0242156982421875,0.0731306672096252,-0.0882757976651191,-0.0220999754965305,55.05497741699219,98.36839294433594,-1.729690551757812
315263,-0.1336517333984375,0.975738525390625,-0.0244598388671875,0.0800700709223747,-0.0759224593639373,-0.0278460122644901,55.11817932128906,98.32911682128906,-1.83648681640625
315264,-0.1336517333984375,0.975738525390625,-0.0244598388671875,0.0800700709223747,-0.0759224593639373,-0.0278460122644901,55.11817932128906,98.32911682128906,-1.83648681640625
315265,-0.13916015625,0.9732208251953124,-0.0279083251953125,0.0812684893608093,-0.0649254694581031,-0.0341933891177177,55.04908752441406,98.36279296875,-1.842132568359375
315266,-0.1380462646484375,0.97613525390625,-0.039398193359375,0.0595288388431072,-0.0617501847445964,-0.0454367250204086,55.049560546875,98.37393188476562,-1.744781494140625
315267,-0.13397216796875,0.974884033203125,-0.0527191162109375,0.0435437485575676,-0.0670543983578681,-0.0535774752497673,55.099853515625,98.44898986816406,-1.837081909179688
315268,-0.13397216796875,0.974884033203125,-0.0527191162109375,0.0435437485575676,-0.0670543983578681,-0.0535774752497673,55.099853515625,98.44898986816406,-1.837081909179688
315269,-0.1290130615234375,0.9726715087890624,-0.0632781982421875,0.0263096336275339,-0.0727082937955856,-0.0518003478646278,55.04859924316406,98.37124633789062,-1.8480224609375
315270,-0.12054443359375,0.9721832275390624,-0.068206787109375,-0.0254470370709896,-0.076363481581211,-0.0424369387328624,55.01899719238281,98.361328125,-1.66607666015625
315271,-0.1189727783203125,0.975616455078125,-0.0676116943359375,-0.0500546433031559,-0.0737170949578285,-0.0338261388242244,54.99296569824219,98.35372924804688,-1.66754150390625
315272,-0.1189727783203125,0.975616455078125,-0.0676116943359375,-0.0500546433031559,-0.0737170949578285,-0.0338261388242244,54.99296569824219,98.35372924804688,-1.66754150390625
315273,-0.12109375,0.9797821044921876,-0.0656585693359375,-0.0586137771606445,-0.0573825985193252,-0.0255913808941841,55.01945495605469,98.4056396484375,-1.6932373046875
315274,-0.1248626708984375,0.9840545654296876,-0.0630645751953125,-0.0649465098977088,-0.0385929308831691,-0.0213787909597158,54.98039245605469,98.4093780517578,-1.6043701171875
315275,-0.135101318359375,0.9845428466796876,-0.059814453125,-0.0453014336526393,-0.007226487621665,-0.0107839377596974,55.05375671386719,98.35470581054688,-1.355178833007812
315276,-0.1402740478515625,0.981170654296875,-0.05804443359375,-0.0326114743947982,-0.0037760960403829,-0.0033691651187837,55.03564453125,98.26258850097656,-1.237396240234375
315277,-0.1402740478515625,0.981170654296875,-0.05804443359375,-0.0326114743947982,-0.0037760960403829,-0.0033691651187837,55.03564453125,98.26258850097656,-1.237396240234375
315278,-0.1435546875,0.98040771484375,-0.0496826171875,-0.0232171714305877,-0.0133903734385967,0.0072134379297494,55.15292358398438,98.09947204589844,-1.031326293945312
315279,-0.140472412109375,0.9803619384765624,-0.0590667724609375,-0.0240763071924448,-0.0243391618132591,0.0050307111814618,55.08645629882812,98.10411071777344,-1.055496215820312
315280,-0.140472412109375,0.9803619384765624,-0.0590667724609375,-0.0240763071924448,-0.0243391618132591,0.0050307111814618,55.08645629882812,98.10411071777344,-1.055496215820312
315281,-0.129974365234375,0.9791107177734376,-0.065704345703125,-0.0334631502628326,-0.0432713069021701,0.0029664952307939,55.02204895019531,98.16773986816406,-1.381362915039062
315282,-0.1082611083984375,0.9813690185546876,-0.054107666015625,-0.0631467476487159,-0.0457291379570961,-0.0099106878042221,55.0731201171875,98.24464416503906,-1.44525146484375
315283,-0.106903076171875,0.9848785400390624,-0.05047607421875,-0.0721309185028076,-0.0290984977036714,-0.0139088910073041,55.04466247558594,98.1638641357422,-1.344772338867188
315284,-0.106903076171875,0.9848785400390624,-0.05047607421875,-0.0721309185028076,-0.0290984977036714,-0.0139088910073041,55.04466247558594,98.1638641357422,-1.344772338867188
315285,-0.1175384521484375,0.993408203125,-0.0455169677734375,-0.0687550976872444,-0.0223263446241617,-0.0211188681423664,55.01628112792969,98.2586669921875,-1.380630493164062
315286,-0.12335205078125,0.9954376220703124,-0.040618896484375,-0.0626119822263717,-0.0305139664560556,-0.0212371107190847,55.06002807617188,98.25730895996094,-1.280364990234375
315287,-0.126068115234375,0.9965362548828124,-0.0427093505859375,-0.0551972091197967,-0.0374847911298275,-0.0206885002553463,55.07406616210938,98.06988525390624,-1.089874267578125
315288,-0.126373291015625,0.999359130859375,-0.0472259521484375,-0.0270409379154443,-0.0556574016809463,-0.012868926860392,55.09342956542969,98.0233917236328,-0.9633941650390624
315289,-0.126373291015625,0.999359130859375,-0.0472259521484375,-0.0270409379154443,-0.0556574016809463,-0.012868926860392,55.09342956542969,98.0233917236328,-0.9633941650390624
315290,-0.124603271484375,0.99615478515625,-0.0522308349609375,-0.0270409379154443,-0.0556574016809463,-0.012868926860392,55.02970886230469,98.19381713867188,-1.118972778320312
315291,-0.117279052734375,0.9933319091796876,-0.0677642822265625,-0.015223161317408,-0.0727791339159011,0.0025598304346203,55.00698852539062,98.22006225585938,-1.280899047851562
315292,-0.117279052734375,0.9933319091796876,-0.0677642822265625,-0.015223161317408,-0.0727791339159011,0.0025598304346203,55.00698852539062,98.22006225585938,-1.280899047851562
315293,-0.11492919921875,0.992767333984375,-0.0750732421875,-0.0141395209357142,-0.0807446464896202,0.010963968001306,55.01493835449219,98.2246551513672,-1.106430053710938
315294,-0.1070709228515625,0.997894287109375,-0.086029052734375,-0.0118444086983799,-0.1047943234443665,0.0303728189319372,55.00416564941406,98.32359313964844,-1.158233642578125
315295,-0.1043548583984375,0.9986724853515624,-0.0832366943359375,-0.0009174589649774,-0.1173271611332893,0.0404917672276496,55.06661987304688,98.3109130859375,-1.099212646484375
315296,-0.1043548583984375,0.9986724853515624,-0.0832366943359375,-0.0009174589649774,-0.1173271611332893,0.0404917672276496,55.06661987304688,98.3109130859375,-1.099212646484375
315297,-0.109161376953125,0.9917144775390624,-0.0667877197265625,0.0272798240184783,-0.1105307713150978,0.0633249133825302,55.1324462890625,98.25827026367188,-1.22100830078125
315298,-0.11572265625,0.979400634765625,-0.0601959228515625,0.0272798240184783,-0.1105307713150978,0.0633249133825302,55.10481262207031,98.15176391601562,-1.303375244140625
315299,-0.120361328125,0.974517822265625,-0.058990478515625,0.0294660124927759,-0.109805591404438,0.0716688632965087,55.23057556152344,98.24212646484376,-1.183609008789062
315300,-0.120361328125,0.974517822265625,-0.058990478515625,0.0294660124927759,-0.109805591404438,0.0716688632965087,55.23057556152344,98.24212646484376,-1.183609008789062
315301,-0.1227569580078125,0.977691650390625,-0.062469482421875,0.0288729276508092,-0.1213911399245262,0.0725631490349769,55.28239440917969,98.2113037109375,-1.114425659179688
315302,-0.1222076416015625,0.9798126220703124,-0.0608978271484375,0.038568165153265,-0.1339215785264969,0.0754968896508216,55.32997131347656,98.17030334472656,-1.141647338867188
315303,-0.11907958984375,0.985992431640625,-0.0511322021484375,0.0639590099453926,-0.1385128647089005,0.079782448709011,55.48652648925781,98.20225524902344,-1.076614379882812
315304,-0.11907958984375,0.985992431640625,-0.0511322021484375,0.0639590099453926,-0.1385128647089005,0.079782448709011,55.48652648925781,98.20225524902344,-1.076614379882812
315305,-0.1175537109375,0.9889068603515624,-0.044158935546875,0.0662735626101493,-0.1357359886169434,0.0762755945324897,55.531982421875,98.22923278808594,-1.285293579101562
315306,-0.1200714111328125,0.9912261962890624,-0.0461273193359375,0.064375527203083,-0.1355533003807068,0.0705918744206428,55.65476989746094,98.24942016601562,-1.22589111328125
315307,-0.1234130859375,0.990478515625,-0.0469207763671875,0.0635158568620681,-0.1343189179897308,0.0647249370813369,55.75785827636719,98.29965209960938,-1.240081787109375
315308,-0.1234130859375,0.990478515625,-0.0469207763671875,0.0635158568620681,-0.1343189179897308,0.0647249370813369,55.75785827636719,98.29965209960938,-1.240081787109375
315309,-0.1287078857421875,0.994110107421875,-0.0489959716796875,0.0636620670557022,-0.1302727907896042,0.0604340471327304,55.80308532714844,98.30471801757812,-1.249465942382812
315310,-0.1371307373046875,0.9885101318359376,-0.0465545654296875,0.0743338838219642,-0.1157857179641724,0.0500557087361812,55.89497375488281,98.23988342285156,-1.488800048828125
315311,-0.13714599609375,0.981964111328125,-0.048583984375,0.067164659500122,-0.1144208535552025,0.0406936332583427,55.87155151367188,98.16667175292967,-1.367568969726562
315312,-0.13714599609375,0.981964111328125,-0.048583984375,0.067164659500122,-0.1144208535552025,0.0406936332583427,55.87155151367188,98.16667175292967,-1.367568969726562
315313,-0.1324005126953125,0.9765167236328124,-0.0460968017578125,0.0520392321050167,-0.1158256679773331,0.0317885540425777,56.00599670410156,98.2483367919922,-1.385894775390625
315314,-0.1271514892578125,0.9764556884765624,-0.0447235107421875,0.0176788624376058,-0.1232577487826347,0.0198948793113231,55.99893188476562,98.31459045410156,-1.541336059570312
315315,-0.1257476806640625,0.97894287109375,-0.0420379638671875,0.0019180085510015,-0.1232031583786011,0.0136870499700307,56.01889038085938,98.39006042480467,-1.584487915039062
315316,-0.1257476806640625,0.97894287109375,-0.0420379638671875,0.0019180085510015,-0.1232031583786011,0.0136870499700307,56.01889038085938,98.39006042480467,-1.584487915039062
315317,-0.1205596923828125,0.9855194091796876,-0.0426025390625,-0.0187656972557306,-0.1244191601872444,0.0021201425697654,56.16667175292969,98.31129455566406,-1.669525146484375
315318,-0.1170806884765625,0.9864959716796876,-0.0476226806640625,-0.0230890735983848,-0.1275686174631119,-0.0025704831350594,56.19972229003906,98.29783630371094,-1.6680908203125
315319,-0.111968994140625,0.989471435546875,-0.050750732421875,-0.0219071637839078,-0.1347056180238724,-0.0037073865532875,56.16818237304688,98.31961059570312,-1.704208374023438
315320,-0.111968994140625,0.989471435546875,-0.050750732421875,-0.0219071637839078,-0.1347056180238724,-0.0037073865532875,56.16818237304688,98.31961059570312,-1.704208374023438
315321,-0.1074981689453125,0.995361328125,-0.0488433837890625,-0.028826056048274,-0.1375085860490799,-0.0097538270056247,56.255859375,98.23187255859376,-1.87152099609375
315322,-0.1024169921875,1.003662109375,-0.0504608154296875,-0.0236312933266162,-0.1456799656152725,-0.0124585339799523,56.29075622558594,98.19403076171876,-1.848388671875
315323,-0.10406494140625,1.006423950195312,-0.0467529296875,-0.0197489373385906,-0.1452615857124329,-0.0135898450389504,56.37762451171875,98.21661376953124,-1.85333251953125
315324,-0.10406494140625,1.006423950195312,-0.0467529296875,-0.0197489373385906,-0.1452615857124329,-0.0135898450389504,56.37762451171875,98.21661376953124,-1.85333251953125
315325,-0.1090545654296875,1.003402709960938,-0.0383453369140625,-0.0129197929054498,-0.1279854029417038,-0.0118212392553687,56.33552551269531,98.28327941894533,-1.729705810546875
315326,-0.1214141845703125,0.988311767578125,-0.027252197265625,-0.0062901200726628,-0.1156043633818626,-0.010685134679079,56.40200805664062,98.33731079101562,-1.737274169921875
315327,-0.1279144287109375,0.9835052490234376,-0.029144287109375,-0.0025465146172791,-0.1031751185655594,-0.0084720477461814,56.43858337402344,98.4549560546875,-1.839553833007812
315328,-0.1279144287109375,0.9835052490234376,-0.029144287109375,-0.0025465146172791,-0.1031751185655594,-0.0084720477461814,56.43858337402344,98.4549560546875,-1.839553833007812
315329,-0.1392669677734375,0.9791107177734376,-0.0308380126953125,-0.0029079054947942,-0.082316443324089,-0.0088645983487367,56.55703735351562,98.41867065429688,-1.843154907226562
315330,-0.14044189453125,0.98199462890625,-0.0286102294921875,-0.0091295829042792,-0.0670954138040542,-0.0092792520299553,56.5740966796875,98.35150146484376,-1.701873779296875
315331,-0.1381683349609375,0.9839019775390624,-0.0335540771484375,-0.0148095721378922,-0.0574963167309761,-0.013711018487811,56.58187866210938,98.33706665039062,-1.565887451171875
315332,-0.1344146728515625,0.984588623046875,-0.042510986328125,-0.0194466691464185,-0.0469158440828323,-0.0197518672794103,56.60418701171875,98.40554809570312,-1.705032348632812
315333,-0.1344146728515625,0.984588623046875,-0.042510986328125,-0.0194466691464185,-0.0469158440828323,-0.0197518672794103,56.60418701171875,98.40554809570312,-1.705032348632812
315334,-0.11572265625,0.9931793212890624,-0.043853759765625,-0.0223500467836856,-0.0346416011452674,-0.0149677637964487,56.65081787109375,98.31964111328124,-1.650894165039062
315335,-0.10369873046875,1.000106811523438,-0.051605224609375,-0.0285437610000371,-0.0292337853461504,-0.014600514434278,56.57041931152344,98.34576416015624,-1.63568115234375
315336,-0.10369873046875,1.000106811523438,-0.051605224609375,-0.0285437610000371,-0.0292337853461504,-0.014600514434278,56.57041931152344,98.34576416015624,-1.63568115234375
315337,-0.0943603515625,1.005569458007812,-0.0573883056640625,-0.0349225625395774,-0.0356709137558937,-0.0156111838296055,56.56988525390625,98.31877136230467,-1.76318359375
315338,-0.0880126953125,1.00653076171875,-0.046722412109375,-0.0337955132126808,-0.0518272444605827,-0.0060270000249147,56.51046752929688,98.3102569580078,-1.697708129882812
315339,-0.0870208740234375,1.000457763671875,-0.042205810546875,-0.0256209410727024,-0.0561346411705017,0.0027284084353595,56.54940795898438,98.34115600585938,-1.611373901367188
315340,-0.0870208740234375,1.000457763671875,-0.042205810546875,-0.0256209410727024,-0.0561346411705017,0.0027284084353595,56.54940795898438,98.34115600585938,-1.611373901367188
315341,-0.0872039794921875,0.9930877685546876,-0.0386962890625,-0.0120111228898167,-0.0657174959778785,0.0148734878748655,56.61466979980469,98.40983581542967,-1.420623779296875
315342,-0.0929718017578125,0.9865570068359376,-0.0265350341796875,0.0082515385001897,-0.0627390146255493,0.0191633086651563,56.56904602050781,98.37335205078124,-1.415924072265625
315343,-0.0997772216796875,0.9876708984375,-0.0266876220703125,0.0199918169528245,-0.0721791237592697,0.0208645351231098,56.60252380371094,98.38970947265624,-1.386550903320312
315344,-0.0997772216796875,0.9876708984375,-0.0266876220703125,0.0199918169528245,-0.0721791237592697,0.0208645351231098,56.60252380371094,98.38970947265624,-1.386550903320312
315345,-0.1015777587890625,0.99676513671875,-0.0472259521484375,0.0237138513475656,-0.1065464168787003,0.0170836448669433,56.64456176757812,98.32749938964844,-1.195327758789062
315346,-0.0970001220703125,0.993072509765625,-0.0512847900390625,0.0323113352060318,-0.1102671176195145,0.0177060272544622,56.626953125,98.32626342773438,-1.229904174804688
315347,-0.095458984375,0.9875640869140624,-0.05023193359375,0.0368184670805931,-0.1055938005447388,0.0162825658917427,56.70285034179688,98.27235412597656,-1.131454467773438
315348,-0.095458984375,0.9875640869140624,-0.05023193359375,0.0368184670805931,-0.1055938005447388,0.0162825658917427,56.70285034179688,98.27235412597656,-1.131454467773438
315349,-0.0965728759765625,0.990142822265625,-0.0463104248046875,0.0397210456430912,-0.1146083399653435,0.0175646133720874,56.718994140625,98.19393920898438,-1.147216796875
315350,-0.0979766845703125,0.997802734375,-0.0387420654296875,0.0545966662466526,-0.1268950998783112,0.0160271693021059,56.78251647949219,98.12017822265624,-1.165298461914062
315351,-0.1008148193359375,0.9978485107421876,-0.0404205322265625,0.0654296055436134,-0.1197413131594658,0.0211122091859579,56.84423828125,98.19871520996094,-1.138778686523438
315352,-0.1008148193359375,0.9978485107421876,-0.0404205322265625,0.0654296055436134,-0.1197413131594658,0.0211122091859579,56.84423828125,98.19871520996094,-1.138778686523438
315353,-0.105010986328125,0.992401123046875,-0.04608154296875,0.0585011281073093,-0.1240314021706581,0.0180969778448343,56.84263610839844,98.15443420410156,-1.110916137695312
315354,-0.1131591796875,0.9781341552734376,-0.051177978515625,0.0462625697255134,-0.1310741305351257,0.0179028343409299,56.89225769042969,98.1941375732422,-1.1072998046875
315355,-0.125396728515625,0.966949462890625,-0.0494537353515625,0.0354085899889469,-0.1283332109451294,0.0167568754404783,56.87310791015625,98.20631408691406,-1.372787475585938
315356,-0.125396728515625,0.966949462890625,-0.0494537353515625,0.0354085899889469,-0.1283332109451294,0.0167568754404783,56.87310791015625,98.20631408691406,-1.372787475585938
315357,-0.12872314453125,0.9803009033203124,-0.049468994140625,0.0355856902897357,-0.068142831325531,0.0009408948244526,56.90235900878906,98.29473876953124,-1.50457763671875
315358,-0.1242218017578125,0.9847564697265624,-0.050506591796875,0.0355856902897357,-0.068142831325531,0.0009408948244526,56.8895263671875,98.3380889892578,-1.519744873046875
315359,-0.117889404296875,0.9866790771484376,-0.0552215576171875,0.0241319686174392,-0.0543314144015312,-0.0008671252289786,56.96636962890625,98.24783325195312,-1.413726806640625
315360,-0.117889404296875,0.9866790771484376,-0.0552215576171875,0.0241319686174392,-0.0543314144015312,-0.0008671252289786,56.96636962890625,98.24783325195312,-1.413726806640625
315361,-0.09832763671875,0.9964752197265624,-0.055572509765625,-0.0019643476698547,-0.0588555932044982,0.0047966195270419,57.01176452636719,98.32485961914062,-1.407546997070312
315362,-0.090911865234375,1.00665283203125,-0.047454833984375,-0.0070525831542909,-0.0634839013218879,0.0016748619964346,56.97721862792969,98.33108520507812,-1.349197387695312
315363,-0.0871124267578125,1.01287841796875,-0.0373992919921875,-0.0014064153656363,-0.053403303027153,0.0083412863314151,57.00190734863281,98.2119598388672,-1.298919677734375
315364,-0.0871124267578125,1.01287841796875,-0.0373992919921875,-0.0014064153656363,-0.053403303027153,0.0083412863314151,57.00190734863281,98.2119598388672,-1.298919677734375
315365,-0.0875396728515625,1.018051147460938,-0.0286102294921875,0.0198205765336751,-0.0213028918951749,0.0296958442777395,57.12959289550781,98.22012329101562,-1.252105712890625
315366,-0.0900115966796875,1.014907836914062,-0.03387451171875,0.0404086746275425,-0.0232637766748666,0.0429402776062488,57.08505249023438,98.21778869628906,-1.362564086914062
315367,-0.088104248046875,1.012298583984375,-0.0352325439453125,0.0602524206042289,-0.0283480174839496,0.0562401041388511,57.19432067871094,98.15779113769533,-1.282302856445312
315368,-0.088104248046875,1.012298583984375,-0.0352325439453125,0.0602524206042289,-0.0283480174839496,0.0562401041388511,57.19432067871094,98.15779113769533,-1.282302856445312
315369,-0.08294677734375,1.015731811523438,-0.030059814453125,0.0690834671258926,-0.0283024776726961,0.0673361644148826,57.150390625,98.17913818359376,-1.350433349609375
315370,-0.0771942138671875,1.008865356445312,-0.02630615234375,0.090976245701313,-0.0304955914616584,0.0730427876114845,57.17955017089844,98.22772216796876,-1.6212158203125
315371,-0.0833740234375,1.000579833984375,-0.02471923828125,0.1019260957837105,-0.0493648871779441,0.0761914402246475,57.26205444335938,98.2051239013672,-1.485565185546875
315372,-0.0833740234375,1.000579833984375,-0.02471923828125,0.1019260957837105,-0.0493648871779441,0.0761914402246475,57.26205444335938,98.2051239013672,-1.485565185546875
315373,-0.104156494140625,0.97393798828125,-0.0272369384765625,0.1192209348082542,-0.1063477471470833,0.0845431163907051,57.3375244140625,98.12127685546876,-1.443893432617188
315374,-0.1169891357421875,0.9564666748046876,-0.02777099609375,0.122544027864933,-0.1246633678674698,0.0832312405109405,57.4266357421875,98.0885772705078,-1.499786376953125
315375,-0.126129150390625,0.958953857421875,-0.031158447265625,0.1280042976140976,-0.1331974714994431,0.0713436901569366,57.51106262207031,98.01007080078124,-1.54583740234375
315376,-0.13055419921875,0.974456787109375,-0.043121337890625,0.1280042976140976,-0.1331974714994431,0.0713436901569366,57.68141174316406,97.95533752441406,-1.566436767578125
315377,-0.13055419921875,0.974456787109375,-0.043121337890625,0.1280042976140976,-0.1331974714994431,0.0713436901569366,57.68141174316406,97.95533752441406,-1.566436767578125
315378,-0.1478424072265625,0.9653778076171876,-0.0554962158203125,0.1046712845563889,-0.0708994716405868,0.0534459128975868,57.73365783691406,97.98419189453124,-1.611160278320312
315379,-0.1559600830078125,0.9619903564453124,-0.0560150146484375,0.1046712845563889,-0.0708994716405868,0.0534459128975868,57.72225952148438,97.91073608398438,-1.460205078125
315380,-0.1559600830078125,0.9619903564453124,-0.0560150146484375,0.1046712845563889,-0.0708994716405868,0.0534459128975868,57.72225952148438,97.91073608398438,-1.460205078125
315381,-0.1650238037109375,0.9602508544921876,-0.0605926513671875,0.0798250585794448,-0.045052696019411,0.0429458692669868,57.74333190917969,98.03269958496094,-1.631088256835938
315382,-0.1690673828125,0.963623046875,-0.063873291015625,-0.0339992456138134,0.0359026081860065,0.0133831836283206,57.78829956054688,98.0233917236328,-1.917465209960938
315383,-0.1591644287109375,0.9704742431640624,-0.0681304931640625,-0.0339992456138134,0.0359026081860065,0.0133831836283206,57.78758239746094,98.05606079101562,-1.983795166015625
315384,-0.1591644287109375,0.9704742431640624,-0.0681304931640625,-0.0339992456138134,0.0359026081860065,0.0133831836283206,57.78758239746094,98.05606079101562,-1.983795166015625
315385,-0.130859375,0.979278564453125,-0.0827178955078125,-0.0812069699168205,0.0309230275452137,-0.0029057750944048,57.82681274414062,98.1737060546875,-1.976959228515625
315386,-0.059906005859375,1.00018310546875,-0.072784423828125,-0.141107589006424,-0.003435211488977,-0.0284063406288623,57.75401306152344,98.27247619628906,-2.07623291015625
315387,-0.0480804443359375,1.016525268554688,-0.056182861328125,-0.1329268962144852,-0.0069378009065985,-0.0245570074766874,57.75299072265625,98.38812255859376,-2.035491943359375
315388,-0.0469207763671875,1.017471313476562,-0.0408782958984375,-0.1081059649586678,-0.0089058773592114,-0.0114111127331852,57.75128173828125,98.40301513671876,-1.929458618164062
315389,-0.0469207763671875,1.017471313476562,-0.0408782958984375,-0.1081059649586678,-0.0089058773592114,-0.0114111127331852,57.75128173828125,98.40301513671876,-1.929458618164062
315390,-0.05218505859375,0.99749755859375,-0.02459716796875,-0.0822461396455764,-0.0365111380815506,0.019137741997838,57.87716674804688,98.27262878417967,-1.898834228515625
315391,-0.05633544921875,0.9841156005859376,-0.0224609375,-0.0734638273715972,-0.0633051991462707,0.0283951554447412,57.84434509277344,98.24600219726562,-1.796463012695312
315392,-0.0640106201171875,0.972442626953125,-0.02545166015625,-0.0622487254440784,-0.0983313620090484,0.0316330268979072,57.82441711425781,98.26780700683594,-1.775253295898438
315393,-0.0640106201171875,0.972442626953125,-0.02545166015625,-0.0622487254440784,-0.0983313620090484,0.0316330268979072,57.82441711425781,98.26780700683594,-1.775253295898438
315394,-0.0917816162109375,0.956756591796875,-0.0394439697265625,-0.0633611306548118,-0.1149944961071014,0.0279107261449098,57.97956848144531,98.22564697265624,-1.709213256835938
315395,-0.103973388671875,0.969879150390625,-0.0488739013671875,-0.0710464790463447,-0.1112226620316505,0.026265425607562,58.08253479003906,98.11215209960938,-1.621871948242188
315396,-0.103973388671875,0.969879150390625,-0.0488739013671875,-0.0710464790463447,-0.1112226620316505,0.026265425607562,58.08253479003906,98.11215209960938,-1.621871948242188
315397,-0.121795654296875,0.998565673828125,-0.0489044189453125,-0.0355148501694202,-0.1062774360179901,0.0355785004794597,58.15061950683594,98.09962463378906,-1.644332885742188
315398,-0.12579345703125,1.008102416992188,-0.0436859130859375,-0.0355148501694202,-0.1062774360179901,0.0355785004794597,58.11563110351562,98.1672821044922,-1.663177490234375
315399,-0.1253204345703125,1.011093139648438,-0.03753662109375,-0.0234925430268049,-0.1000919789075851,0.0419519767165184,58.11140441894531,98.09181213378906,-1.640625
315400,-0.1253204345703125,1.011093139648438,-0.03753662109375,-0.0234925430268049,-0.1000919789075851,0.0419519767165184,58.11140441894531,98.09181213378906,-1.640625
315401,-0.1254119873046875,1.011825561523438,-0.03369140625,-0.012915532104671,-0.0821380093693733,0.0437578670680522,58.11851501464844,98.07063293457033,-1.648635864257812
315402,-0.142181396484375,0.999786376953125,-0.0289459228515625,0.0056632119230926,-0.0497265420854091,0.0345872715115547,58.30157470703125,98.067138671875,-1.752777099609375
315403,-0.1521759033203125,0.99322509765625,-0.02532958984375,0.0187097713351249,0.0029459886718541,0.0168572776019573,58.22920227050781,98.04840087890624,-1.536636352539062
315404,-0.1521759033203125,0.99322509765625,-0.02532958984375,0.0187097713351249,0.0029459886718541,0.0168572776019573,58.22920227050781,98.04840087890624,-1.536636352539062
315405,-0.1576385498046875,0.98443603515625,-0.031097412109375,0.0187097713351249,0.0029459886718541,0.0168572776019573,58.265869140625,98.0391845703125,-1.652664184570312
315406,-0.145477294921875,0.97027587890625,-0.0622406005859375,0.0061985072679817,0.0416939184069633,-0.0111983260139823,58.39712524414062,97.94972229003906,-1.349700927734375
315407,-0.1269073486328125,0.971771240234375,-0.0687408447265625,-0.0201279055327177,0.0587530620396137,-0.0235748346894979,58.32637023925781,98.08665466308594,-1.418106079101562
315408,-0.1269073486328125,0.971771240234375,-0.0687408447265625,-0.0201279055327177,0.0587530620396137,-0.0235748346894979,58.32637023925781,98.08665466308594,-1.418106079101562
315409,-0.1058349609375,0.983123779296875,-0.06927490234375,-0.063479907810688,0.0898880809545517,-0.045972816646099,58.34580993652344,98.2295379638672,-1.387039184570312
315410,-0.085906982421875,1.002090454101562,-0.068450927734375,-0.0691186189651489,0.0861093178391456,-0.0484612770378589,58.10630798339844,98.38238525390624,-1.39093017578125
315411,-0.0845489501953125,1.006866455078125,-0.060760498046875,-0.0685694739222526,0.0845899879932403,-0.0396869592368602,58.12367248535156,98.41065979003906,-1.374740600585938
315412,-0.0845489501953125,1.006866455078125,-0.060760498046875,-0.0685694739222526,0.0845899879932403,-0.0396869592368602,58.12367248535156,98.41065979003906,-1.374740600585938
315413,-0.074005126953125,1.006790161132812,-0.045806884765625,-0.0548033267259597,0.070306122303009,-0.0067881313152611,58.14048767089844,98.10684204101562,-1.328079223632812
315414,-0.0692291259765625,1.000167846679688,-0.04376220703125,-0.0212104804813861,0.0379162244498729,0.0203361641615629,58.07705688476562,98.10597229003906,-1.359420776367188
315415,-0.07000732421875,0.9961700439453124,-0.0420684814453125,-0.0212104804813861,0.0379162244498729,0.0203361641615629,58.01097106933594,98.07432556152344,-1.166244506835938
315416,-0.0726318359375,0.9877166748046876,-0.0386962890625,-0.0045340317301452,0.0121368234977126,0.0233780276030302,58.13914489746094,97.90641784667967,-1.104019165039062
315417,-0.0726318359375,0.9877166748046876,-0.0386962890625,-0.0045340317301452,0.0121368234977126,0.0233780276030302,58.13914489746094,97.90641784667967,-1.104019165039062
315418,-0.0810394287109375,0.9859466552734376,-0.0337982177734375,0.0149105060845613,-0.0269208308309316,0.0325408987700939,57.9976806640625,98.08381652832033,-1.130538940429688
315419,-0.0830230712890625,0.9902496337890624,-0.0326080322265625,0.0266848746687173,-0.0331473015248775,0.0351100489497184,58.05865478515625,98.08169555664062,-1.298782348632812
315420,-0.0853729248046875,0.9912567138671876,-0.038299560546875,0.0400571376085281,-0.0318183824419975,0.041405763477087,58.105224609375,98.01394653320312,-1.281219482421875
315421,-0.0853729248046875,0.9912567138671876,-0.038299560546875,0.0400571376085281,-0.0318183824419975,0.041405763477087,58.105224609375,98.01394653320312,-1.281219482421875
315422,-0.0844573974609375,0.9947357177734376,-0.04315185546875,0.0459571070969104,-0.0450854524970054,0.0435450784862041,58.10928344726562,97.98658752441406,-1.313766479492188
315423,-0.0845947265625,1.003631591796875,-0.0399169921875,0.0477621965110302,-0.0627233013510704,0.0384456589818,58.17208862304688,97.93978881835938,-1.346817016601562
315424,-0.0845947265625,1.003631591796875,-0.0399169921875,0.0477621965110302,-0.0627233013510704,0.0384456589818,58.17208862304688,97.93978881835938,-1.346817016601562
315425,-0.089141845703125,1.002914428710938,-0.0410919189453125,0.0542307496070861,-0.0663886070251464,0.0382941253483295,58.13786315917969,97.95388793945312,-1.332763671875
315426,-0.0964202880859375,0.9921722412109376,-0.0440521240234375,0.0581929981708526,-0.0826781019568443,0.0365148670971393,58.30865478515625,98.0766143798828,-1.359176635742188
315427,-0.0951690673828125,0.9839935302734376,-0.0449676513671875,0.054276555776596,-0.0917128771543502,0.0325733907520771,58.33961486816406,98.04402160644533,-1.34271240234375
315428,-0.0888214111328125,0.9796600341796876,-0.0481414794921875,0.049146506935358,-0.1030446290969849,0.0260316003113985,58.33859252929688,98.14932250976562,-1.328781127929688
315429,-0.0888214111328125,0.9796600341796876,-0.0481414794921875,0.049146506935358,-0.1030446290969849,0.0260316003113985,58.33859252929688,98.14932250976562,-1.328781127929688
315430,-0.076202392578125,0.977752685546875,-0.050262451171875,0.0226547122001647,-0.1236503049731255,0.005903695244342,58.34817504882812,98.20217895507812,-1.4775390625
315431,-0.0769500732421875,0.978118896484375,-0.0526580810546875,0.0095330514013767,-0.1310911774635315,-0.0009968212107196,58.33763122558594,98.23622131347656,-1.513168334960938
315432,-0.0769500732421875,0.978118896484375,-0.0526580810546875,0.0095330514013767,-0.1310911774635315,-0.0009968212107196,58.33763122558594,98.23622131347656,-1.513168334960938
315433,-0.0790863037109375,0.9825439453125,-0.0543365478515625,-0.0047811730764806,-0.1429393142461777,-0.0018338527297601,58.31343078613281,98.1381378173828,-1.508255004882812
315434,-0.0814056396484375,0.98492431640625,-0.0510406494140625,-0.014093448407948,-0.1495016068220139,-0.0011920308461412,58.33456420898438,98.19059753417967,-1.514297485351562
315435,-0.0860595703125,0.9875640869140624,-0.03546142578125,-0.0190357435494661,-0.159707099199295,-0.0022333269007503,58.41848754882812,98.0251922607422,-1.407196044921875
315436,-0.089447021484375,0.9876708984375,-0.038238525390625,-0.0207569431513547,-0.1703323125839233,-0.0036418726667761,58.41903686523438,98.07388305664062,-1.411331176757812
315437,-0.090911865234375,0.9860687255859376,-0.0405120849609375,-0.0162583328783512,-0.1786597520112991,-0.0031119037885218,58.50431823730469,98.2255859375,-1.392562866210938
315438,-0.091064453125,0.9837799072265624,-0.037933349609375,-0.0196408126503229,-0.1778834462165833,-0.0032005868852138,58.61973571777344,98.13999938964844,-1.361419677734375
315439,-0.0947113037109375,0.983001708984375,-0.0356292724609375,-0.0260941851884126,-0.1696715950965881,-0.005716208834201,58.72140502929688,98.14353942871094,-1.3233642578125
315440,-0.10064697265625,0.9833831787109376,-0.0368194580078125,-0.0312660448253154,-0.1596003174781799,-0.00393428793177,58.68292236328125,98.17288208007812,-1.442047119140625
315441,-0.1062774658203125,0.9855804443359376,-0.0351715087890625,-0.0391897484660148,-0.1472461819648743,-0.0038381477352231,58.627685546875,98.23406982421876,-1.55218505859375
315442,-0.1129913330078125,0.9935760498046876,-0.030426025390625,-0.0408241301774978,-0.1367916762828827,0.0007981493836268,58.78221130371094,98.18362426757812,-1.509063720703125
315443,-0.1179351806640625,1.004913330078125,-0.0269317626953125,-0.031668446958065,-0.1325945258140564,0.0047966195270419,58.84478759765625,98.18724060058594,-1.583236694335938
315444,-0.1179351806640625,1.004913330078125,-0.0269317626953125,-0.031668446958065,-0.1325945258140564,0.0047966195270419,58.84478759765625,98.18724060058594,-1.583236694335938
315445,-0.11773681640625,1.00927734375,-0.0262298583984375,-0.0160029344260692,-0.1394196748733521,0.0110374707728624,58.84622192382812,98.287353515625,-1.608795166015625
315446,-0.11016845703125,0.995208740234375,-0.01861572265625,0.0111264204606413,-0.1274301260709763,0.0133046200498938,58.99114990234375,98.26539611816406,-1.685272216796875
315447,-0.1070556640625,0.990692138671875,-0.014617919921875,0.0080331591889262,-0.1214124485850334,0.0062235412187874,59.04434204101562,98.1593017578125,-1.631820678710938
315448,-0.103363037109375,0.99005126953125,-0.014862060546875,0.0081844264641404,-0.1091320812702179,0.000934236915782,59.22100830078125,98.17672729492188,-1.687362670898438
315449,-0.103363037109375,0.99005126953125,-0.014862060546875,0.0081844264641404,-0.1091320812702179,0.000934236915782,59.22100830078125,98.17672729492188,-1.687362670898438
315450,-0.1024932861328125,0.986297607421875,-0.0190887451171875,0.0087623326107859,-0.0792996138334274,-0.0079034632071852,59.16566467285156,98.17282104492188,-1.799346923828125
315451,-0.10150146484375,0.9885406494140624,-0.0230712890625,0.0068983859382569,-0.0753051415085792,-0.011085407808423,59.23165893554688,98.18055725097656,-1.869216918945312
315452,-0.096710205078125,0.9881439208984376,-0.0377197265625,0.0045990129001438,-0.0463291481137275,0.0001366201613564,59.41049194335938,98.10198974609376,-1.909393310546875
315453,-0.096710205078125,0.9881439208984376,-0.0377197265625,0.0045990129001438,-0.0463291481137275,0.0001366201613564,59.41049194335938,98.10198974609376,-1.909393310546875
315454,-0.0970611572265625,0.991119384765625,-0.040924072265625,0.0045990129001438,-0.0463291481137275,0.0001366201613564,59.41717529296875,98.01849365234376,-1.968338012695312
315455,-0.0983428955078125,0.9913787841796876,-0.0413055419921875,0.0023276028223335,-0.0265807434916496,0.0046887611970305,59.38221740722656,98.04954528808594,-1.989593505859375
315456,-0.1078948974609375,0.989227294921875,-0.0391693115234375,-0.0004588626616168,0.0235143806785345,0.0098699415102601,59.47456359863281,98.04548645019533,-2.002227783203125
315457,-0.1078948974609375,0.989227294921875,-0.0391693115234375,-0.0004588626616168,0.0235143806785345,0.0098699415102601,59.47456359863281,98.04548645019533,-2.002227783203125
315458,-0.1214447021484375,0.988189697265625,-0.0321807861328125,0.0070746871642768,0.0488349162042141,0.0122100608423352,59.56324768066406,97.9543914794922,-2.101364135742188
315459,-0.12646484375,0.984893798828125,-0.0279998779296875,0.0127328392118215,0.0756835788488388,0.0162213146686554,59.5416259765625,97.88563537597656,-1.986236572265625
315460,-0.1244964599609375,0.9820556640625,-0.02630615234375,0.0089745866134762,0.1063746437430382,0.0149001199752092,59.62838745117188,97.94923400878906,-2.068359375
315461,-0.1244964599609375,0.9820556640625,-0.02630615234375,0.0089745866134762,0.1063746437430382,0.0149001199752092,59.62838745117188,97.94923400878906,-2.068359375
315462,-0.1077880859375,0.9799652099609376,-0.0410919189453125,-0.0722462311387062,0.1386923640966415,0.007179882377386,59.57029724121094,97.89254760742188,-2.122833251953125
315463,-0.0836639404296875,0.9878387451171876,-0.0484161376953125,-0.0722462311387062,0.1386923640966415,0.007179882377386,59.63383483886719,97.83782958984376,-2.134185791015625
315464,-0.057708740234375,1.007476806640625,-0.0452728271484375,-0.1071240529417992,0.1332898736000061,0.0094667384400963,59.63609313964844,97.84727478027344,-2.095794677734375
315465,-0.057708740234375,1.007476806640625,-0.0452728271484375,-0.1071240529417992,0.1332898736000061,0.0094667384400963,59.63609313964844,97.84727478027344,-2.095794677734375
315466,-0.0341796875,1.022384643554688,-0.0294647216796875,-0.1270490288734436,0.1128586381673813,0.0226994529366493,59.62594604492188,97.86247253417967,-2.089431762695312
315467,-0.032257080078125,1.02130126953125,-0.0189971923828125,-0.107519805431366,0.0784394145011901,0.0380046404898166,59.58743286132812,97.87879943847656,-1.925750732421875
315468,-0.0337066650390625,1.011260986328125,-0.011627197265625,-0.0770348608493804,0.0397037379443645,0.0608990378677845,59.56724548339844,97.83843994140624,-1.834793090820312
315469,-0.0337066650390625,1.011260986328125,-0.011627197265625,-0.0770348608493804,0.0397037379443645,0.0608990378677845,59.56724548339844,97.83843994140624,-1.834793090820312
315470,-0.050201416015625,0.985443115234375,0.00323486328125,-0.0018261295044794,-0.0189430639147758,0.0961526334285736,59.45945739746094,97.8481903076172,-1.476226806640625
315471,-0.0626220703125,0.984771728515625,0.0035247802734375,0.0149224903434515,-0.0245418287813663,0.1104351654648781,59.38493347167969,98.0494384765625,-1.533309936523438
315472,-0.0689697265625,0.9987335205078124,-0.018463134765625,0.0344674289226532,-0.0454582944512367,0.142242357134819,59.43974304199219,98.03533935546876,-1.436813354492188
315473,-0.0625,1.003738403320312,-0.02569580078125,0.0645422413945198,-0.1343607306480408,0.1782562881708145,59.40249633789062,97.93643188476562,-1.394119262695312
315474,-0.0625,1.003738403320312,-0.02569580078125,0.0645422413945198,-0.1343607306480408,0.1782562881708145,59.40249633789062,97.93643188476562,-1.394119262695312
315475,-0.05413818359375,1.00457763671875,-0.0187225341796875,0.0645422413945198,-0.1343607306480408,0.1782562881708145,59.37155151367188,97.90069580078124,-1.2452392578125
315476,-0.0473480224609375,1.007858276367188,-0.006103515625,0.0822320207953453,-0.1634360700845718,0.1900500953197479,59.40011596679688,97.89877319335938,-1.18194580078125
315477,-0.0458221435546875,1.006866455078125,0.0003662109375,0.1111795157194138,-0.191984087228775,0.1884942799806595,59.4693603515625,97.7973175048828,-0.99676513671875
315478,-0.048675537109375,0.9980010986328124,0.005157470703125,0.1111795157194138,-0.191984087228775,0.1884942799806595,59.47807312011719,97.7491455078125,-0.8182830810546875
315479,-0.0557708740234375,0.9871826171875,0.008941650390625,0.1173244938254356,-0.1755063086748123,0.1767643839120865,59.61032104492188,97.74331665039062,-0.8234100341796875
315480,-0.069549560546875,0.9779205322265624,0.005615234375,0.1203402578830719,-0.1315846592187881,0.1552425771951675,59.66838073730469,97.66360473632812,-1.101913452148438
315481,-0.069549560546875,0.9779205322265624,0.005615234375,0.1203402578830719,-0.1315846592187881,0.1552425771951675,59.66838073730469,97.66360473632812,-1.101913452148438
315482,-0.094757080078125,0.970184326171875,-0.0434722900390625,0.1187343746423721,-0.0478721857070922,0.1288064420223236,59.64401245117188,97.73077392578124,-1.412384033203125
315483,-0.085662841796875,0.9903106689453124,-0.0569610595703125,0.0455951802432537,-0.0422065742313861,0.0805230736732482,59.72248840332031,97.68772888183594,-1.373336791992188
315484,-0.0756683349609375,1.007781982421875,-0.0557861328125,0.009433981962502,-0.0228989236056804,0.0523015521466732,59.79127502441406,97.77653503417967,-1.503402709960938
315485,-0.067596435546875,1.016067504882812,-0.0427703857421875,0.009433981962502,-0.0228989236056804,0.0523015521466732,59.74502563476562,97.78195190429688,-1.372528076171875
315486,-0.062225341796875,1.014266967773438,-0.0254669189453125,-0.0039926110766828,0.0095927063375711,0.0355982072651386,59.77296447753906,97.65191650390624,-1.364883422851562
315487,-0.0641021728515625,1.003097534179688,-0.0120697021484375,-0.0087223853915929,0.050362505018711,0.0264755487442016,59.84133911132812,97.65960693359376,-1.402267456054688
315488,-0.066070556640625,0.99981689453125,-0.0079498291015625,-0.0298468451946973,0.065961442887783,0.0210336465388536,59.88290405273438,97.68414306640624,-1.476577758789062
315489,-0.066070556640625,0.99981689453125,-0.0079498291015625,-0.0298468451946973,0.065961442887783,0.0210336465388536,59.88290405273438,97.68414306640624,-1.476577758789062
315490,-0.056427001953125,0.9946136474609376,-0.0028076171875,-0.0584446676075458,0.0669247061014175,-0.0046967510133981,59.82142639160156,97.61485290527344,-1.341354370117188
315491,-0.0524444580078125,0.990936279296875,-0.0048980712890625,-0.0563916377723217,0.0726504996418952,-0.0222629606723785,59.87112426757812,97.5731201171875,-1.295547485351562
315492,-0.054351806640625,0.9915618896484376,-0.00628662109375,-0.0479097366333007,0.0912092700600624,-0.0380049049854278,59.79902648925781,97.6595458984375,-1.378677368164062
315493,-0.0550689697265625,0.99957275390625,-0.013519287109375,-0.0315898843109607,0.1161593645811081,-0.0531854555010795,59.78497314453125,97.7550048828125,-1.31561279296875
315494,-0.048797607421875,1.006484985351562,-0.0300445556640625,-0.0105549059808254,0.122041754424572,-0.0571346580982208,59.733154296875,97.74179077148438,-1.143646240234375
315495,-0.0434112548828125,1.010528564453125,-0.0429534912109375,0.0133027555420994,0.1171210333704948,-0.0595328360795974,59.63215637207031,97.6831512451172,-1.12701416015625
315496,-0.037322998046875,1.015579223632812,-0.0510406494140625,0.0420257486402988,0.1045354604721069,-0.0520288459956646,59.64152526855469,97.70169067382812,-1.1556396484375
315497,-0.0264892578125,1.02276611328125,-0.0531768798828125,0.1027170568704605,0.0866185128688812,-0.0478783100843429,59.66929626464844,97.7593231201172,-1.134368896484375
315498,-0.0148773193359375,1.02117919921875,-0.050262451171875,0.1027170568704605,0.0866185128688812,-0.0478783100843429,59.59689331054688,97.66009521484376,-1.171798706054688
315499,-0.009979248046875,1.019119262695312,-0.0502471923828125,0.1129627674818039,0.0858355462551116,-0.0409221313893795,59.48446655273438,97.82350158691406,-1.392410278320312
315500,-0.007354736328125,1.016891479492188,-0.0551605224609375,0.10604228079319,0.0702557861804962,-0.038839541375637,59.47763061523438,97.78125,-1.494644165039062
315501,-0.007354736328125,1.016891479492188,-0.0551605224609375,0.10604228079319,0.0702557861804962,-0.038839541375637,59.47763061523438,97.78125,-1.494644165039062
315502,-0.0081634521484375,0.9987030029296876,-0.0906829833984375,0.1206454560160637,-0.1450296193361282,0.002951847622171,59.47317504882812,97.77995300292967,-1.506851196289062
315503,-0.00201416015625,0.9893341064453124,-0.0968017578125,0.1206454560160637,-0.1450296193361282,0.002951847622171,59.34674072265625,97.79588317871094,-1.363723754882812
315504,0.0104827880859375,0.98345947265625,-0.0869903564453125,0.1448887437582016,-0.2485818564891815,0.0292955711483955,59.36344909667969,97.78184509277344,-1.385986328125
315505,0.0104827880859375,0.98345947265625,-0.0869903564453125,0.1448887437582016,-0.2485818564891815,0.0292955711483955,59.36344909667969,97.78184509277344,-1.385986328125
315506,0.0308685302734375,0.9966278076171876,-0.0742340087890625,0.1440682262182236,-0.2788958251476288,0.0336591601371765,59.35252380371094,97.91941833496094,-1.625656127929688
315507,0.0303955078125,0.99420166015625,-0.076202392578125,0.1355224102735519,-0.3275869190692902,0.0356464125216007,59.39251708984375,98.01925659179688,-1.708404541015625
315508,0.02490234375,0.99310302734375,-0.070831298828125,0.1207828745245934,-0.3749967813491821,0.0332793928682804,59.49874877929688,98.01022338867188,-1.805465698242188
315509,0.0157470703125,0.991180419921875,-0.06353759765625,0.084569476544857,-0.4393880069255829,0.0332439728081226,59.630859375,97.9601593017578,-1.868545532226562
315510,0.0113525390625,0.991790771484375,-0.0562744140625,0.084569476544857,-0.4393880069255829,0.0332439728081226,59.68682861328125,97.93344116210938,-1.983551025390625
315511,0.0073089599609375,0.99365234375,-0.0560150146484375,0.069780945777893,-0.4591875672340393,0.0415746085345745,59.77507019042969,97.79135131835938,-1.988174438476562
315512,-0.0001678466796875,0.9990997314453124,-0.062957763671875,0.0505888760089874,-0.5386059284210205,0.0370949059724807,59.81558227539062,97.94509887695312,-2.265945434570312
315513,-0.0001678466796875,0.9990997314453124,-0.062957763671875,0.0505888760089874,-0.5386059284210205,0.0370949059724807,59.81558227539062,97.94509887695312,-2.265945434570312
315514,-0.0150146484375,0.992767333984375,-0.0772247314453125,0.0200496073812246,-0.66177898645401,0.0187843404710292,59.92182922363281,98.0849609375,-2.270172119140625
315515,-0.0174560546875,0.9919586181640624,-0.0694732666015625,0.0200496073812246,-0.66177898645401,0.0187843404710292,60.03689575195312,98.0612335205078,-2.278549194335938
315516,-0.0163726806640625,0.9883880615234376,-0.057159423828125,0.0176839213818311,-0.6981756091117859,0.004661863669753,60.13150024414062,98.02989196777344,-2.270355224609375
315517,-0.016448974609375,0.9877471923828124,-0.04351806640625,0.0242089331150054,-0.7014161944389343,-0.0081122545525431,60.2003173828125,98.00692749023438,-2.370193481445312
315518,-0.0192108154296875,0.9853515625,-0.0352630615234375,0.0234379470348358,-0.6914921402931213,-0.0101237408816814,60.26414489746094,98.0015106201172,-2.460983276367188
315519,-0.0248260498046875,0.9911956787109376,-0.03253173828125,0.018304705619812,-0.6689618229866028,-0.0142875928431749,60.39643859863281,98.02362060546876,-2.4637451171875
315520,-0.0298614501953125,0.9947662353515624,-0.0311737060546875,0.0077284933067858,-0.6513988375663757,-0.0236960090696811,60.53369140625,97.96983337402344,-2.588485717773438
315521,-0.0298614501953125,0.9947662353515624,-0.0311737060546875,0.0077284933067858,-0.6513988375663757,-0.0236960090696811,60.53369140625,97.96983337402344,-2.588485717773438
315522,-0.04278564453125,0.9938201904296876,-0.033111572265625,-0.0099426452070474,-0.6139931082725525,-0.0349177718162536,60.62916564941406,97.8651123046875,-2.664230346679688
315523,-0.0711822509765625,0.9952239990234376,-0.046295166015625,-0.0272880792617797,-0.5521414875984192,-0.0612918548285961,60.67575073242188,97.9159698486328,-2.62396240234375
315524,-0.0814056396484375,0.9909210205078124,-0.0368499755859375,-0.0279434844851493,-0.5214163064956665,-0.0764939785003662,60.73178100585938,97.93205261230467,-2.740814208984375
315525,-0.0814056396484375,0.9909210205078124,-0.0368499755859375,-0.0279434844851493,-0.5214163064956665,-0.0764939785003662,60.73178100585938,97.93205261230467,-2.740814208984375
315526,-0.1065826416015625,0.9962615966796876,-0.030303955078125,-0.0215697400271892,-0.4464967846870422,-0.1117598190903664,60.73837280273438,97.96110534667967,-2.70758056640625
315527,-0.11297607421875,0.988525390625,-0.0252532958984375,-0.0130329774692654,-0.4163623154163361,-0.1322179585695267,60.78498840332031,98.03147888183594,-2.799819946289062
315528,-0.11627197265625,0.9812774658203124,-0.0223388671875,-0.0051068775355815,-0.3619443476200104,-0.1544694602489471,60.76325988769531,97.9692840576172,-2.759506225585938
315529,-0.11627197265625,0.9812774658203124,-0.0223388671875,-0.0051068775355815,-0.3619443476200104,-0.1544694602489471,60.76325988769531,97.9692840576172,-2.759506225585938
315530,-0.1267242431640625,0.975341796875,-0.0349578857421875,0.0002258360618725,-0.2331512272357941,-0.2083018124103546,60.79048156738281,97.95799255371094,-2.903976440429688
315531,-0.124298095703125,0.9721832275390624,-0.0483245849609375,0.0014580807182937,-0.1778474897146225,-0.2342109084129333,60.76780700683594,97.90847778320312,-2.89117431640625
315532,-0.117156982421875,0.9774169921875,-0.036712646484375,-0.0223963856697082,-0.0618034452199935,-0.2926592826843262,60.61375427246094,97.9262237548828,-3.039337158203125
315533,-0.117156982421875,0.9774169921875,-0.036712646484375,-0.0223963856697082,-0.0618034452199935,-0.2926592826843262,60.61375427246094,97.9262237548828,-3.039337158203125
315534,-0.1202545166015625,0.9850921630859376,-0.0385284423828125,-0.0325731225311756,0.0052757221274077,-0.3157254755496979,60.45045471191406,97.88250732421876,-2.94024658203125
315535,-0.124755859375,0.9954833984375,-0.031494140625,-0.0358314998447895,0.0725359842181205,-0.3376864194869995,60.36390686035156,97.8625030517578,-2.833175659179688
315536,-0.13336181640625,1.007186889648438,-0.0262603759765625,-0.0331084169447422,0.1407619118690491,-0.3610815107822418,60.1458740234375,97.9022979736328,-2.870223999023438
315537,-0.13336181640625,1.007186889648438,-0.0262603759765625,-0.0331084169447422,0.1407619118690491,-0.3610815107822418,60.1458740234375,97.9022979736328,-2.870223999023438
315538,-0.1389923095703125,1.011764526367188,-0.0295867919921875,-0.0319267734885215,0.2326502948999405,-0.419532835483551,59.82450866699219,97.88156127929688,-2.924728393554688
315539,-0.1297760009765625,0.9941558837890624,-0.030853271484375,-0.0318388901650905,0.2637711763381958,-0.4380425810813904,59.64486694335938,97.8804931640625,-2.897918701171875
315540,-0.108154296875,0.980194091796875,-0.030029296875,-0.0588872842490673,0.3521625697612762,-0.418865978717804,59.32815551757812,98.11856079101562,-2.796981811523438
315541,-0.108154296875,0.980194091796875,-0.030029296875,-0.0588872842490673,0.3521625697612762,-0.418865978717804,59.32815551757812,98.11856079101562,-2.796981811523438
315542,-0.104736328125,0.9920196533203124,-0.0189971923828125,-0.0588872842490673,0.3521625697612762,-0.418865978717804,59.06088256835938,98.13777160644533,-2.740982055664062
315543,-0.10711669921875,1.011184692382812,-0.01678466796875,-0.0676850378513336,0.4021945893764496,-0.4071640372276306,58.77363586425781,98.1165008544922,-2.511138916015625
315544,-0.113677978515625,1.030349731445312,-0.0185699462890625,-0.0987023413181304,0.4941830933094025,-0.4036529362201691,58.50465393066406,98.35130310058594,-2.478805541992188
315545,-0.113677978515625,1.030349731445312,-0.0185699462890625,-0.0987023413181304,0.4941830933094025,-0.4036529362201691,58.50465393066406,98.35130310058594,-2.478805541992188
315546,-0.12408447265625,1.06573486328125,-0.0145263671875,-0.1102109253406525,0.5206831693649292,-0.4129516184329987,58.17337036132812,98.3826141357422,-2.261962890625
315547,-0.121490478515625,1.067703247070312,-0.0111083984375,-0.120725616812706,0.5332436561584473,-0.4281185865402222,57.9405517578125,98.35588073730467,-2.275650024414062
315548,-0.1157989501953125,1.016586303710938,-0.01068115234375,-0.1492054611444473,0.5382078289985657,-0.4511072635650635,57.45596313476562,98.35443115234376,-2.081222534179688
315549,-0.1157989501953125,1.016586303710938,-0.01068115234375,-0.1492054611444473,0.5382078289985657,-0.4511072635650635,57.45596313476562,98.35443115234376,-2.081222534179688
315550,-0.1155242919921875,0.987823486328125,-0.0207061767578125,-0.1528545320034027,0.5240528583526611,-0.4567654132843018,57.15666198730469,98.39659118652344,-2.024551391601562
315551,-0.11322021484375,0.9708709716796876,-0.033721923828125,-0.1372175067663193,0.500154435634613,-0.4606190025806427,56.81448364257812,98.2957763671875,-1.946014404296875
315552,-0.109527587890625,0.952056884765625,-0.03253173828125,-0.1047125607728958,0.4679666757583618,-0.4892336130142212,56.63838195800781,98.28160095214844,-1.883209228515625
315553,-0.109527587890625,0.952056884765625,-0.03253173828125,-0.1047125607728958,0.4679666757583618,-0.4892336130142212,56.63838195800781,98.28160095214844,-1.883209228515625
315554,-0.1108245849609375,0.942169189453125,-0.0068817138671875,-0.1321053057909012,0.4785929620265961,-0.5028793811798096,56.06539916992188,98.4098663330078,-1.664779663085938
315555,-0.1099090576171875,0.9246826171875,-0.0068359375,-0.1790304630994797,0.4782251715660095,-0.5014455318450928,55.84719848632812,98.42756652832033,-1.469955444335938
315556,-0.1161346435546875,0.9104461669921876,-0.0096435546875,-0.2163895666599274,0.4672273695468903,-0.4850479066371918,55.6260986328125,98.3228759765625,-1.452651977539062
315557,-0.1161346435546875,0.9104461669921876,-0.0096435546875,-0.2163895666599274,0.4672273695468903,-0.4850479066371918,55.6260986328125,98.3228759765625,-1.452651977539062
315558,-0.12762451171875,0.9380645751953124,-0.0008697509765625,-0.2388863414525986,0.4028513133525848,-0.4435172379016876,55.021240234375,98.36505126953124,-1.316070556640625
315559,-0.137908935546875,0.9459686279296876,0.0112762451171875,-0.2399316430091858,0.3706111013889313,-0.4332036375999451,54.75430297851562,98.28179931640624,-1.062103271484375
315560,-0.1615447998046875,0.950714111328125,0.0063018798828125,-0.2051805853843689,0.3376992046833038,-0.4056883752346039,54.28889465332031,98.107421875,-0.689971923828125
315561,-0.1714935302734375,0.9601593017578124,0.0004119873046875,-0.2051805853843689,0.3376992046833038,-0.4056883752346039,54.04400634765625,98.08389282226562,-0.5311431884765625
315562,-0.1714935302734375,0.9601593017578124,0.0004119873046875,-0.2051805853843689,0.3376992046833038,-0.4056883752346039,54.04400634765625,98.08389282226562,-0.5311431884765625
315563,-0.1816864013671875,0.976898193359375,-0.0028228759765625,-0.2075284272432327,0.337159126996994,-0.3996070623397827,53.81710815429688,98.06570434570312,-0.381927490234375
315564,-0.193756103515625,0.983642578125,-0.0059356689453125,-0.2475544065237045,0.3231703341007233,-0.396185964345932,53.56251525878906,98.0911102294922,-0.3328857421875
315565,-0.193756103515625,0.983642578125,-0.0059356689453125,-0.2475544065237045,0.3231703341007233,-0.396185964345932,53.56251525878906,98.0911102294922,-0.3328857421875
315566,-0.206024169921875,0.975921630859375,-0.002777099609375,-0.2810825407505035,0.293456107378006,-0.4026031196117401,53.26185607910156,97.90257263183594,-0.168182373046875
315567,-0.2103729248046875,0.96673583984375,0.015777587890625,-0.3278865218162537,0.3144588768482208,-0.4103742241859436,53.02359008789062,97.89234924316406,-0.0604248046875
315568,-0.217315673828125,0.949310302734375,0.0350494384765625,-0.3406225740909576,0.3436817228794098,-0.4207075536251068,52.78291320800781,97.84480285644533,0.1536865234375
315569,-0.217315673828125,0.949310302734375,0.0350494384765625,-0.3406225740909576,0.3436817228794098,-0.4207075536251068,52.78291320800781,97.84480285644533,0.1536865234375
315570,-0.2540283203125,0.93963623046875,0.05218505859375,-0.3464136123657227,0.3568529188632965,-0.4374918639659882,52.40769958496094,97.7611846923828,0.6102447509765625
315571,-0.27581787109375,0.9344940185546876,0.04595947265625,-0.3443035781383514,0.3445046544075012,-0.4600139260292053,52.20361328125,97.61167907714844,0.7551422119140625
315572,-0.2922515869140625,0.9266357421875,0.0368499755859375,-0.3287453949451447,0.2619719505310059,-0.4797399640083313,51.95008850097656,97.63468933105467,0.8187713623046875
315573,-0.30084228515625,0.927978515625,0.034912109375,-0.3287453949451447,0.2619719505310059,-0.4797399640083313,51.7327880859375,97.57716369628906,0.9329986572265624
315574,-0.30181884765625,0.934661865234375,0.033660888671875,-0.3123746812343597,0.2512772381305695,-0.4761809110641479,51.43190002441406,97.54454040527344,1.057830810546875
315575,-0.3019561767578125,0.9363555908203124,0.035125732421875,-0.3053580522537231,0.2599620819091797,-0.4696692228317261,51.16380310058594,97.5502471923828,1.243789672851562
315576,-0.3017120361328125,0.935394287109375,0.0417938232421875,-0.326702207326889,0.3384363651275635,-0.4271625280380249,50.92572021484375,97.49305725097656,1.508804321289062
315577,-0.3017120361328125,0.935394287109375,0.0417938232421875,-0.326702207326889,0.3384363651275635,-0.4271625280380249,50.92572021484375,97.49305725097656,1.508804321289062
315578,-0.3046875,0.9425048828125,0.04119873046875,-0.3531415462493896,0.3650496006011963,-0.4105190932750702,50.47309875488281,97.42323303222656,1.902740478515625
315579,-0.3082275390625,0.9467926025390624,0.0361328125,-0.3772857785224915,0.380047470331192,-0.4050260484218597,50.36503601074219,97.28385925292967,2.289443969726562
315580,-0.3082275390625,0.9467926025390624,0.0361328125,-0.3772857785224915,0.380047470331192,-0.4050260484218597,50.36503601074219,97.28385925292967,2.289443969726562
315581,-0.310760498046875,0.94964599609375,0.0352630615234375,-0.3979021012783051,0.3833058476448059,-0.399812638759613,50.04885864257812,97.1940460205078,2.397476196289062
315582,-0.31048583984375,0.94580078125,0.0442962646484375,-0.4097995162010193,0.3887141942977905,-0.400894433259964,49.47335815429688,97.20401000976562,2.462890625
315583,-0.3095703125,0.944915771484375,0.037384033203125,-0.4037839472293854,0.4025745987892151,-0.4003300964832306,49.08869934082031,96.9844970703125,2.67913818359375
315584,-0.3038330078125,0.9371185302734376,0.037384033203125,-0.3794927299022675,0.3916197121143341,-0.3975124657154083,48.86199951171875,96.8641357421875,2.860809326171875
315585,-0.3002471923828125,0.93450927734375,0.05523681640625,-0.3860635459423065,0.4198180437088013,-0.3961627781391144,48.53570556640625,96.7959442138672,3.087051391601562
315586,-0.2967529296875,0.9312896728515624,0.06890869140625,-0.3860635459423065,0.4198180437088013,-0.3961627781391144,48.38890075683594,96.6833953857422,3.160629272460938
315587,-0.292938232421875,0.9234466552734376,0.0644073486328125,-0.4253691434860229,0.4049205780029297,-0.4013863205909729,48.05220031738281,96.579833984375,3.420166015625
315588,-0.2944793701171875,0.911895751953125,0.060394287109375,-0.5020039677619934,0.3192504346370697,-0.4171791076660156,47.83073425292969,96.5584716796875,3.4747314453125
315589,-0.2944793701171875,0.911895751953125,0.060394287109375,-0.5020039677619934,0.3192504346370697,-0.4171791076660156,47.83073425292969,96.5584716796875,3.4747314453125
315590,-0.2935638427734375,0.8835601806640625,0.0881195068359375,-0.5313299298286438,0.293826550245285,-0.4117404222488403,47.33860778808594,96.40957641601562,3.882293701171875
315591,-0.295654296875,0.8799591064453125,0.108734130859375,-0.551567554473877,0.3134498000144958,-0.3987503051757812,47.19879150390625,96.3745574951172,4.162948608398438
315592,-0.3022613525390625,0.8820037841796875,0.115753173828125,-0.5649368762969971,0.3339787721633911,-0.3956495821475983,46.92005920410156,96.16685485839844,4.28692626953125
315593,-0.3022613525390625,0.8820037841796875,0.115753173828125,-0.5649368762969971,0.3339787721633911,-0.3956495821475983,46.92005920410156,96.16685485839844,4.28692626953125
315594,-0.325714111328125,0.8966217041015625,0.1027374267578125,-0.5857630968093872,0.3017806112766266,-0.4150464534759521,46.43624877929688,96.03678894042967,4.772964477539062
315595,-0.33233642578125,0.894866943359375,0.0916748046875,-0.5776228308677673,0.2213156074285507,-0.4350119233131409,46.26766967773438,95.8718719482422,5.108627319335938
315596,-0.35076904296875,0.9042510986328124,0.1132965087890625,-0.5549913048744202,0.1638523191213608,-0.4713395535945892,45.7481689453125,95.58642578125,5.546035766601562
315597,-0.35076904296875,0.9042510986328124,0.1132965087890625,-0.5549913048744202,0.1638523191213608,-0.4713395535945892,45.7481689453125,95.58642578125,5.546035766601562
315598,-0.372589111328125,0.91351318359375,0.112457275390625,-0.5457218885421753,0.1214065924286842,-0.499299019575119,45.50883483886719,95.4805145263672,5.853378295898438
315599,-0.393402099609375,0.9140472412109376,0.134368896484375,-0.5379079580307007,0.0973100438714027,-0.5201995372772217,45.18511962890625,95.38409423828124,5.979995727539062
315600,-0.419891357421875,0.926544189453125,0.1393890380859375,-0.5358945727348328,0.1107406318187714,-0.5369523763656616,44.92131042480469,95.24114990234376,6.170944213867188
315601,-0.419891357421875,0.926544189453125,0.1393890380859375,-0.5358945727348328,0.1107406318187714,-0.5369523763656616,44.92131042480469,95.24114990234376,6.170944213867188
315602,-0.4405059814453125,0.912445068359375,0.1050567626953125,-0.5031680464744568,0.0138841243460774,-0.5456984639167786,44.39872741699219,95.04055786132812,6.689407348632812
315603,-0.4444580078125,0.9064178466796876,0.116546630859375,-0.4837645292282104,0.018507370725274,-0.5344378352165222,44.17941284179688,94.88908386230467,6.856430053710938
315604,-0.43963623046875,0.8953094482421875,0.097381591796875,-0.4614408612251282,-0.0309017226099968,-0.5109050869941711,43.98635864257812,94.66619873046876,7.119827270507812
315605,-0.43963623046875,0.8953094482421875,0.097381591796875,-0.4614408612251282,-0.0309017226099968,-0.5109050869941711,43.98635864257812,94.66619873046876,7.119827270507812
315606,-0.4235687255859375,0.8979644775390625,0.0761871337890625,-0.4414713978767395,-0.0706603229045867,-0.5069100856781006,43.46926879882812,94.64909362792967,7.494491577148438
315607,-0.4180450439453125,0.892578125,0.0893707275390625,-0.4285854399204254,-0.0598878338932991,-0.488872230052948,43.36074829101562,94.41778564453124,7.724334716796875
315608,-0.4179534912109375,0.8948211669921875,0.091461181640625,-0.4275119304656982,-0.0237902849912643,-0.4677634835243225,43.1368408203125,94.2681121826172,7.856796264648438
315609,-0.4179534912109375,0.8948211669921875,0.091461181640625,-0.4275119304656982,-0.0237902849912643,-0.4677634835243225,43.1368408203125,94.2681121826172,7.856796264648438
315610,-0.4242095947265625,0.8798980712890625,0.0910186767578125,-0.454772025346756,0.033295638859272,-0.4297550916671753,42.6204833984375,94.031005859375,8.218032836914062
315611,-0.42279052734375,0.8669281005859375,0.1027984619140625,-0.4867379665374756,0.0478218495845794,-0.4135604202747345,42.45932006835938,94.01161193847656,8.282196044921875
315612,-0.419036865234375,0.86602783203125,0.1102142333984375,-0.5243692398071289,0.0410845875740051,-0.4087179899215698,42.27833557128906,93.796875,8.454498291015625
315613,-0.419036865234375,0.86602783203125,0.1102142333984375,-0.5243692398071289,0.0410845875740051,-0.4087179899215698,42.27833557128906,93.796875,8.454498291015625
315614,-0.429595947265625,0.85894775390625,0.1232147216796875,-0.5818530321121216,-0.0035965989809483,-0.4112250804901123,41.81356811523438,93.44059753417967,8.684463500976562
315615,-0.429779052734375,0.8630828857421875,0.1309661865234375,-0.5916358828544617,0.0013675332302227,-0.4040167033672333,41.65753173828125,93.07936096191406,8.976898193359375
315616,-0.4310150146484375,0.882354736328125,0.1240692138671875,-0.5897461175918579,0.0100736729800701,-0.4055472314357758,41.52725219726562,92.82052612304688,9.1458740234375
315617,-0.4310150146484375,0.882354736328125,0.1240692138671875,-0.5897461175918579,0.0100736729800701,-0.4055472314357758,41.52725219726562,92.82052612304688,9.1458740234375
315618,-0.4463958740234375,0.9228973388671876,0.136260986328125,-0.56119704246521,-0.003123888047412,-0.4170102775096893,41.05250549316406,92.52072143554688,9.453079223632812
315619,-0.4524688720703125,0.9336090087890624,0.153472900390625,-0.541178286075592,-0.0007843009079806,-0.4245981574058533,40.89254760742188,92.27178955078124,9.719970703125
315620,-0.4524688720703125,0.9336090087890624,0.153472900390625,-0.541178286075592,-0.0007843009079806,-0.4245981574058533,40.89254760742188,92.27178955078124,9.719970703125
315621,-0.452545166015625,0.92828369140625,0.167724609375,-0.5044309496879578,0.019464511424303,-0.4173868596553802,40.66981506347656,92.1121826171875,9.790939331054688
315622,-0.459686279296875,0.9168853759765624,0.1868438720703125,-0.4300611019134521,0.0228517856448888,-0.3992475271224976,40.3944091796875,91.64920043945312,10.26907348632812
315623,-0.467803955078125,0.9098052978515624,0.1950225830078125,-0.3987662792205811,0.0171939004212617,-0.3906116783618927,40.31050109863281,91.54965209960938,10.37344360351562
315624,-0.4676666259765625,0.8917694091796875,0.1921539306640625,-0.371227353811264,-0.0081692468374967,-0.3760164976119995,40.23796081542969,91.34121704101562,10.52896118164062
315625,-0.4676666259765625,0.8917694091796875,0.1921539306640625,-0.371227353811264,-0.0081692468374967,-0.3760164976119995,40.23796081542969,91.34121704101562,10.52896118164062
315626,-0.48358154296875,0.87420654296875,0.199859619140625,-0.3167814016342163,-0.0717127993702888,-0.3737623989582062,39.89535522460938,90.9836883544922,10.73944091796875
315627,-0.4826507568359375,0.8541412353515625,0.2048797607421875,-0.2942763566970825,-0.0869186520576477,-0.37100550532341,39.84431457519531,90.80007934570312,10.902099609375
315628,-0.4868621826171875,0.8516845703125,0.209686279296875,-0.2696636915206909,-0.0843835920095443,-0.3821502923965454,39.76017761230469,90.71954345703124,11.08738708496094
315629,-0.4868621826171875,0.8516845703125,0.209686279296875,-0.2696636915206909,-0.0843835920095443,-0.3821502923965454,39.76017761230469,90.71954345703124,11.08738708496094
315630,-0.4918060302734375,0.8248748779296875,0.2176666259765625,-0.2690410614013672,-0.0320578031241893,-0.3878667652606964,39.42660522460938,90.33175659179688,11.33790588378906
315631,-0.4956817626953125,0.81964111328125,0.2144622802734375,-0.2690410614013672,-0.0320578031241893,-0.3878667652606964,39.36894226074219,90.2856903076172,11.37384033203125
315632,-0.5055084228515625,0.8082733154296875,0.224517822265625,-0.286354273557663,-0.0130822462961077,-0.3793781995773315,39.19081115722656,90.15707397460938,11.441650390625
315633,-0.5055084228515625,0.8082733154296875,0.224517822265625,-0.286354273557663,-0.0130822462961077,-0.3793781995773315,39.19081115722656,90.15707397460938,11.441650390625
315634,-0.5096893310546875,0.7894134521484375,0.233428955078125,-0.3297523260116577,-0.0005049353349022,-0.3515601754188538,39.0264892578125,89.93011474609375,11.47280883789062
315635,-0.523162841796875,0.7988739013671875,0.233734130859375,-0.3496602773666382,-0.0184213519096374,-0.3443973362445831,38.80422973632812,89.79023742675781,11.62855529785156
315636,-0.525543212890625,0.781829833984375,0.2412567138671875,-0.3782410323619843,-0.0321113318204879,-0.3375253081321716,38.71871948242188,89.65408325195312,11.86532592773438
315637,-0.525543212890625,0.781829833984375,0.2412567138671875,-0.3782410323619843,-0.0321113318204879,-0.3375253081321716,38.71871948242188,89.65408325195312,11.86532592773438
315638,-0.527252197265625,0.75537109375,0.2714080810546875,-0.452643096446991,-0.0073420689441263,-0.3571786284446716,38.59030151367188,89.15469360351562,12.32044982910156
315639,-0.5212249755859375,0.732757568359375,0.2715911865234375,-0.4943239688873291,-0.0020580908749252,-0.3886390924453735,38.45918273925781,89.10371398925781,12.4443359375
315640,-0.5196075439453125,0.7121734619140625,0.2628936767578125,-0.5245985388755798,-0.0233380794525146,-0.4245938956737518,38.39884948730469,88.90534973144531,12.5963134765625
315641,-0.5196075439453125,0.7121734619140625,0.2628936767578125,-0.5245985388755798,-0.0233380794525146,-0.4245938956737518,38.39884948730469,88.90534973144531,12.5963134765625
315642,-0.51263427734375,0.685333251953125,0.26116943359375,-0.5497917532920837,-0.1388042271137238,-0.4597928822040558,38.18344116210938,88.3978271484375,12.98344421386719
315643,-0.51763916015625,0.691009521484375,0.279632568359375,-0.5573351383209229,-0.2021802663803101,-0.4606376588344574,38.04768371582031,88.06632995605469,13.19479370117188
315644,-0.514739990234375,0.69366455078125,0.2937469482421875,-0.5529555678367615,-0.2624460160732269,-0.4137572348117828,38.00839233398438,87.84764099121094,13.36485290527344
315645,-0.514739990234375,0.69366455078125,0.2937469482421875,-0.5529555678367615,-0.2624460160732269,-0.4137572348117828,38.00839233398438,87.84764099121094,13.36485290527344
315646,-0.532562255859375,0.744293212890625,0.3240509033203125,-0.5455451011657715,-0.2431418150663376,-0.3963074088096619,37.87098693847656,87.37417602539062,13.84291076660156
315647,-0.5366058349609375,0.7658843994140625,0.3200225830078125,-0.531541645526886,-0.2548842132091522,-0.3996421992778778,37.77389526367188,87.17453002929688,13.97322082519531
315648,-0.5367584228515625,0.771148681640625,0.3289794921875,-0.509714663028717,-0.2712802290916443,-0.3854779303073883,37.68455505371094,86.85604858398438,14.09049987792969
315649,-0.5367584228515625,0.771148681640625,0.3289794921875,-0.509714663028717,-0.2712802290916443,-0.3854779303073883,37.68455505371094,86.85604858398438,14.09049987792969
315650,-0.5395965576171875,0.787109375,0.347198486328125,-0.47624272108078,-0.3138724267482758,-0.3634365200996399,37.56332397460938,86.34896850585938,14.52107238769531
315651,-0.5258941650390625,0.777679443359375,0.34185791015625,-0.483389288187027,-0.3452822864055634,-0.35550856590271,37.55560302734375,86.09329223632812,14.76666259765625
315652,-0.5258941650390625,0.777679443359375,0.34185791015625,-0.483389288187027,-0.3452822864055634,-0.35550856590271,37.55560302734375,86.09329223632812,14.76666259765625
315653,-0.5137939453125,0.7734527587890625,0.3277587890625,-0.4826361536979675,-0.5259003043174744,-0.3690914809703827,37.5938720703125,85.76731872558594,15.00247192382812
315654,-0.4930572509765625,0.741943359375,0.33367919921875,-0.4660960733890533,-0.6210209131240845,-0.3766716420650482,37.54765319824219,85.25665283203125,15.56719970703125
315655,-0.48944091796875,0.724334716796875,0.3560333251953125,-0.4344891309738159,-0.6701650619506836,-0.3951558470726013,37.71339416503906,85.10359191894531,15.76507568359375
315656,-0.4935455322265625,0.7034149169921875,0.3760833740234375,-0.4162307679653168,-0.6401631832122803,-0.4496947228908539,37.80917358398438,84.82878112792969,15.8638916015625
315657,-0.4935455322265625,0.7034149169921875,0.3760833740234375,-0.4162307679653168,-0.6401631832122803,-0.4496947228908539,37.80917358398438,84.82878112792969,15.8638916015625
315658,-0.53851318359375,0.695831298828125,0.4064178466796875,-0.4211605489253998,-0.5549060702323914,-0.489324688911438,37.99171447753906,84.46064758300781,16.32350158691406
315659,-0.565826416015625,0.697845458984375,0.38397216796875,-0.4723113477230072,-0.4449614882469177,-0.6108841300010681,38.04953002929688,84.13507080078125,16.75285339355469
315660,-0.5754852294921875,0.6899566650390625,0.351654052734375,-0.4723113477230072,-0.4449614882469177,-0.6108841300010681,38.11099243164062,83.92341613769531,16.80044555664062
315661,-0.5754852294921875,0.6899566650390625,0.351654052734375,-0.4723113477230072,-0.4449614882469177,-0.6108841300010681,38.11099243164062,83.92341613769531,16.80044555664062
315662,-0.567779541015625,0.648223876953125,0.27276611328125,-0.595047652721405,-0.6256934404373169,-0.8316969275474548,38.11373901367188,83.34416198730469,17.37513732910156
315663,-0.540496826171875,0.6077117919921875,0.2577972412109375,-0.595047652721405,-0.6256934404373169,-0.8316969275474548,38.02958679199219,83.32200622558594,17.55326843261719
315664,-0.519073486328125,0.5695037841796875,0.2708740234375,-0.6514819264411926,-0.6867536306381226,-0.8894185423851013,38.11494445800781,82.96427917480469,17.68684387207031
315665,-0.49188232421875,0.5332794189453125,0.2893829345703125,-0.7901702523231506,-0.7753002643585205,-0.9579867124557496,38.07603454589844,82.59101867675781,18.05673217773438
315666,-0.4843597412109375,0.52142333984375,0.3224334716796875,-0.7901702523231506,-0.7753002643585205,-0.9579867124557496,38.01260375976562,82.2369384765625,18.35240173339844
315667,-0.4658660888671875,0.510955810546875,0.3490753173828125,-0.8459113240242004,-0.8444995880126953,-0.9849802255630492,38.03099060058594,81.65045166015625,18.78018188476562
315668,-0.4532928466796875,0.5074005126953125,0.3856964111328125,-0.8668802380561829,-0.8821848630905151,-1.001747488975525,38.09745788574219,81.21292114257812,18.97445678710938
315669,-0.4461669921875,0.52081298828125,0.40435791015625,-0.8518008589744568,-0.9297968745231628,-1.035035133361816,38.20315551757812,80.63916015625,19.40028381347656
315670,-0.43597412109375,0.5435333251953125,0.4063720703125,-0.8518008589744568,-0.9297968745231628,-1.035035133361816,38.22789001464844,80.27047729492188,19.71604919433594
315671,-0.4458160400390625,0.568328857421875,0.4305572509765625,-0.8608271479606628,-0.9738351702690125,-1.076069355010986,38.331787109375,79.72763061523438,20.20234680175781
315672,-0.4650421142578125,0.5433502197265625,0.4628143310546875,-0.9726980328559875,-0.8710076212882996,-1.065914511680603,38.47724914550781,79.15373229980469,20.62275695800781
315673,-0.4650421142578125,0.5433502197265625,0.4628143310546875,-0.9726980328559875,-0.8710076212882996,-1.065914511680603,38.47724914550781,79.15373229980469,20.62275695800781
315674,-0.4917449951171875,0.5228271484375,0.4796600341796875,-1.162465810775757,-0.8854842782020569,-1.068540692329407,38.58772277832031,78.06106567382812,21.35983276367188
315675,-0.4917449951171875,0.5228271484375,0.4796600341796875,-1.162465810775757,-0.8854842782020569,-1.068540692329407,38.58772277832031,78.06106567382812,21.35983276367188
315676,-0.54443359375,0.516876220703125,0.5344390869140625,-1.211439967155457,-0.8925648331642151,-1.080666303634644,38.770263671875,76.94122314453125,22.13772583007812
315677,-0.5798492431640625,0.5090179443359375,0.5858306884765625,-1.203650236129761,-0.7939953804016113,-1.126276135444641,38.88522338867188,76.40974426269531,22.58412170410156
315678,-0.6207122802734375,0.505828857421875,0.6430816650390625,-1.203650236129761,-0.7939953804016113,-1.126276135444641,39.08290100097656,75.74166870117188,23.18519592285156
315679,-0.66259765625,0.490478515625,0.684539794921875,-1.212710857391357,-0.699133038520813,-1.136802315711975,39.24871826171875,75.12767028808594,23.61378479003906
315680,-0.7139892578125,0.4955902099609375,0.71337890625,-1.270174980163574,-0.5195323824882507,-1.167167901992798,39.31365966796875,74.44427490234375,23.72431945800781
315681,-0.7139892578125,0.4955902099609375,0.71337890625,-1.270174980163574,-0.5195323824882507,-1.167167901992798,39.31365966796875,74.44427490234375,23.72431945800781
315682,-0.7489471435546875,0.5089263916015625,0.68896484375,-1.33978009223938,-0.3576867580413818,-1.192678332328796,39.40473937988281,73.78738403320312,23.97720336914062
315683,-0.821014404296875,0.7743682861328125,0.5955047607421875,-1.706211686134338,-0.3417645394802094,-1.532436370849609,39.34757995605469,72.50563049316406,24.61091613769531
315684,-0.7572479248046875,0.668701171875,0.47747802734375,-1.845971941947937,-0.5075905323028564,-1.688383340835571,39.26641845703125,71.87342834472656,24.85420227050781
315685,-0.6668701171875,0.5499420166015625,0.39605712890625,-1.806173205375671,-0.6745715141296387,-1.688504576683044,39.14506530761719,70.98471069335938,25.18037414550781
315686,-0.602081298828125,0.462982177734375,0.4045867919921875,-1.748530149459839,-0.7903897166252136,-1.593041181564331,39.10997009277344,69.91159057617188,25.66789245605469
