time_idx,accelerometerAccelerationX(G),accelerometerAccelerationY(G),accelerometerAccelerationZ(G),gyroRotationX(rad/s),gyroRotationY(rad/s),gyroRotationZ(rad/s),magnetometerX(µT),magnetometerY(µT),magnetometerZ(µT)
45000,-0.1148834228515625,0.9948883056640624,0.0111083984375,0.2831637859344482,-0.2043502032756805,0.1640041172504425,62.77645874023438,96.38948059082033,-10.68421936035156
45001,-0.1148834228515625,0.9948883056640624,0.0111083984375,0.2831637859344482,-0.2043502032756805,0.1640041172504425,62.77645874023438,96.38948059082033,-10.68421936035156
45002,-0.13763427734375,0.95635986328125,0.01226806640625,0.2593793570995331,-0.180649146437645,0.12711001932621,62.89898681640625,96.3638916015625,-10.81059265136719
45003,-0.20550537109375,0.90618896484375,-0.024017333984375,0.1494062691926956,-0.0656562447547912,0.089311771094799,62.95848083496094,96.32852172851562,-11.00506591796875
45004,-0.1764678955078125,0.969207763671875,-0.0957794189453125,0.0787235721945762,-0.15761598944664,0.0880725979804992,62.98292541503906,96.35009765625,-11.05197143554688
45005,-0.1310577392578125,1.016952514648438,-0.0623626708984375,0.0449789278209209,-0.3910407423973083,0.1576255857944489,63.07533264160156,96.33802795410156,-11.193115234375
45006,-0.0669097900390625,0.993927001953125,0.0466461181640625,0.00031292141648,-0.4826521277427673,0.2731330096721649,63.16728210449219,96.23875427246094,-11.341552734375
45007,-0.047332763671875,1.009613037109375,0.0962677001953125,0.0070214243605732,-0.370149552822113,0.3594574928283691,63.13790893554688,96.14810180664062,-11.47686767578125
45008,-0.084625244140625,1.041763305664062,0.055908203125,0.0765949115157127,-0.2301130890846252,0.3506325781345367,63.288330078125,95.99246215820312,-11.51165771484375
45009,-0.0928192138671875,1.005645751953125,0.021240234375,0.1603430658578873,-0.4928829371929169,0.2921327948570251,63.54054260253906,95.93644714355467,-11.61526489257812
45010,-0.0928192138671875,1.005645751953125,0.021240234375,0.1603430658578873,-0.4928829371929169,0.2921327948570251,63.54054260253906,95.93644714355467,-11.61526489257812
45011,-0.138763427734375,0.97442626953125,0.079864501953125,0.1585422456264496,-0.4497972428798676,0.1805319637060165,63.71505737304688,95.8699951171875,-11.68681335449219
45012,-0.113861083984375,0.977386474609375,0.0057525634765625,0.1578681915998459,-0.31534543633461,0.1933465600013733,63.99369812011719,95.70751953125,-11.61006164550781
45013,-0.113861083984375,0.977386474609375,0.0057525634765625,0.1578681915998459,-0.31534543633461,0.1933465600013733,63.99369812011719,95.70751953125,-11.61006164550781
45014,-0.120819091796875,0.9972381591796876,0.0071563720703125,0.101000651717186,-0.3644389510154724,0.1607262939214706,64.03530883789062,95.68856811523438,-11.77473449707031
45015,-0.1457366943359375,0.98370361328125,-0.004425048828125,0.0758636072278022,-0.392229825258255,0.1118881851434708,64.06201171875,95.70626831054688,-11.98313903808594
45016,-0.1838531494140625,0.9472808837890624,-0.0141143798828125,0.0098933773115277,-0.4404751360416412,0.1436559706926346,64.18269348144531,95.76792907714844,-12.13633728027344
45017,-0.1975555419921875,0.945037841796875,-0.0216522216796875,-0.0314673781394958,-0.451634019613266,0.1544907689094543,64.26861572265625,95.7236785888672,-12.2115478515625
45018,-0.1975555419921875,0.945037841796875,-0.0216522216796875,-0.0314673781394958,-0.451634019613266,0.1544907689094543,64.26861572265625,95.7236785888672,-12.2115478515625
45019,-0.2266387939453125,0.9340667724609376,-0.014434814453125,-0.0691018402576446,-0.4340273439884186,0.1178241074085236,64.32879638671875,95.6298370361328,-12.30722045898438
45020,-0.2249755859375,0.9415130615234376,-0.01123046875,-0.0850022435188293,-0.4077185094356537,0.0679713264107704,64.38768005371094,95.68955993652344,-12.27268981933594
45021,-0.2123565673828125,0.9621429443359376,0.0177764892578125,-0.0913442969322204,-0.3670147657394409,0.0134678715839982,64.47825622558594,95.5508270263672,-12.32904052734375
45022,-0.149688720703125,0.986236572265625,0.0423583984375,-0.0661630406975746,-0.2764518260955811,-0.0215676091611385,64.55221557617188,95.56968688964844,-12.37417602539062
45023,-0.096466064453125,1.0169677734375,0.0294036865234375,-0.0490535609424114,-0.2524245381355286,-0.0337574295699596,64.47471618652344,95.65431213378906,-12.47805786132812
45024,-0.096466064453125,1.0169677734375,0.0294036865234375,-0.0490535609424114,-0.2524245381355286,-0.0337574295699596,64.47471618652344,95.65431213378906,-12.47805786132812
45025,-0.1011810302734375,0.9986114501953124,0.0240936279296875,-0.0484293177723884,-0.2949016690254211,-0.0363811776041984,64.53292846679688,95.71298217773438,-12.44668579101562
45026,-0.1080474853515625,0.996673583984375,0.0350189208984375,-0.0428324192762374,-0.3024035394191742,-0.0328799188137054,64.52244567871094,95.68147277832033,-12.46488952636719
45027,-0.116241455078125,0.991455078125,0.0358734130859375,-0.0339992456138134,-0.2882070243358612,-0.0285679958760738,64.41545104980469,95.75837707519533,-12.42204284667969
45028,-0.1237030029296875,0.9828338623046876,0.029449462890625,-0.0336735397577285,-0.2856874167919159,-0.028031900525093,64.47068786621094,95.73744201660156,-12.31428527832031
45029,-0.1231231689453125,0.98651123046875,0.023834228515625,-0.0393202416598796,-0.2923876643180847,-0.0134231308475136,64.3887939453125,95.73883056640624,-12.33683776855469
45030,-0.1278076171875,0.99884033203125,0.016326904296875,-0.0613001100718975,-0.3271701335906982,0.0188037808984518,64.43081665039062,95.67204284667967,-12.44390869140625
45031,-0.136810302734375,0.9776458740234376,0.0204315185546875,-0.0767962411046028,-0.3492083251476288,0.0063226106576621,64.47001647949219,95.6663818359375,-12.47207641601562
45032,-0.13250732421875,0.9572601318359376,0.03094482421875,-0.0671619921922683,-0.3098942041397095,0.0017656758427619,64.46644592285156,95.61648559570312,-12.443115234375
45033,-0.13690185546875,0.9975738525390624,0.0178680419921875,-0.0502131022512912,-0.2700759470462799,0.0086494144052267,64.54795837402344,95.462890625,-12.41035461425781
45034,-0.13690185546875,0.9975738525390624,0.0178680419921875,-0.0502131022512912,-0.2700759470462799,0.0086494144052267,64.54795837402344,95.462890625,-12.41035461425781
45035,-0.131317138671875,0.986907958984375,0.0363311767578125,-0.0559096038341522,-0.2504079937934875,0.0028362665325403,64.65472412109375,95.38194274902344,-12.33634948730469
45036,-0.1071014404296875,0.9955596923828124,0.03607177734375,-0.0286518838256597,-0.1698423027992249,-0.0367340445518493,64.780517578125,95.37245178222656,-12.25511169433594
45037,-0.1071014404296875,0.9955596923828124,0.03607177734375,-0.0286518838256597,-0.1698423027992249,-0.0367340445518493,64.780517578125,95.37245178222656,-12.25511169433594
45038,-0.120208740234375,0.98681640625,0.040771484375,-0.0309704318642616,-0.2139122933149338,-0.0359486788511276,64.71827697753906,95.45480346679688,-12.32748413085938
45039,-0.1363067626953125,0.9902801513671876,0.0527191162109375,-0.0267882049083709,-0.2074424028396606,-0.0382967889308929,64.72357177734375,95.5947265625,-12.44110107421875
45040,-0.135589599609375,0.9868011474609376,0.049896240234375,-0.0112992599606514,-0.1914463937282562,-0.0425112396478653,64.66737365722656,95.63566589355467,-12.46434020996094
45041,-0.1366424560546875,0.9822845458984376,0.04681396484375,-0.0060666808858513,-0.1911710202693939,-0.0436912886798381,64.60981750488281,95.65447998046876,-12.38861083984375
45042,-0.141845703125,0.9737091064453124,0.03900146484375,-0.0183185525238513,-0.1875536441802979,-0.0403090715408325,64.57150268554688,95.73947143554688,-12.46015930175781
45043,-0.148773193359375,0.972686767578125,0.0104217529296875,-0.0499057732522487,-0.200448676943779,-0.0210797190666198,64.58497619628906,95.71432495117188,-12.55770874023438
45044,-0.15264892578125,0.9941253662109376,-0.0081939697265625,-0.0906348302960395,-0.2276137173175812,0.0010660634143278,64.54121398925781,95.72300720214844,-12.5333251953125
45045,-0.1669158935546875,1.01251220703125,0.000701904296875,-0.1232923716306686,-0.2270762920379639,0.0270798206329345,64.50344848632812,95.618408203125,-12.5244140625
45046,-0.1583709716796875,1.0234375,-0.00506591796875,-0.1552974432706833,-0.1827016323804855,0.0541156977415084,64.49296569824219,95.6577606201172,-12.543701171875
45047,-0.086578369140625,1.042892456054688,-0.027740478515625,-0.229516014456749,-0.2614172101020813,0.1425946950912476,64.5478515625,95.62933349609376,-12.71260070800781
45048,-0.0090789794921875,1.076217651367188,-0.0002288818359375,-0.28818279504776,-0.4491336047649384,0.2863713204860687,64.49906921386719,95.61996459960938,-12.68594360351562
45049,0.046844482421875,1.095352172851562,0.07647705078125,-0.2937762141227722,-0.5025526285171509,0.4323846995830536,64.610595703125,95.62081909179688,-12.59584045410156
45050,0.0671844482421875,1.109176635742188,0.1429595947265625,-0.2459551692008972,-0.3588063716888428,0.5813078880310059,64.68629455566406,95.69956970214844,-12.59226989746094
45051,-0.0031585693359375,1.158737182617188,0.1572723388671875,-0.1791247427463531,-0.0935986563563346,0.7323504090309143,64.93228149414062,95.51658630371094,-12.47489929199219
45052,-0.079315185546875,0.901397705078125,0.075927734375,0.1252700388431549,0.380684494972229,0.3348919749259949,65.83877563476562,95.0126495361328,-12.42378234863281
45053,-0.079315185546875,0.901397705078125,0.075927734375,0.1252700388431549,0.380684494972229,0.3348919749259949,65.83877563476562,95.0126495361328,-12.42378234863281
45054,-0.0833892822265625,0.74041748046875,0.0619049072265625,0.2541047036647797,0.3068568706512451,0.1038989648222923,66.1593017578125,94.80070495605467,-12.37913513183594
45055,-0.162628173828125,0.6812286376953125,0.0736083984375,0.3271709382534027,0.0796860381960868,-0.1078697443008423,66.34107971191406,94.62452697753906,-12.30616760253906
45056,-0.1050567626953125,0.8437347412109375,0.0367889404296875,0.4895374774932861,-0.088629737496376,-0.2766228020191193,66.40235900878906,94.43359375,-12.6781005859375
45057,-0.1050567626953125,0.8437347412109375,0.0367889404296875,0.4895374774932861,-0.088629737496376,-0.2766228020191193,66.40235900878906,94.43359375,-12.6781005859375
45058,-0.04144287109375,0.9462127685546876,0.038604736328125,0.5262086987495422,-0.1146067380905151,-0.2300797998905182,66.20582580566406,94.55404663085938,-12.905517578125
45059,-0.059814453125,1.0137939453125,0.08856201171875,0.549837589263916,0.2026409953832626,-0.2614228129386902,65.9193115234375,94.59083557128906,-13.29804992675781
45060,-0.08917236328125,0.9696197509765624,0.00531005859375,0.5907959342002869,1.492324948310852,-0.3981630802154541,65.44723510742188,94.8595733642578,-14.35731506347656
45061,-0.08917236328125,0.9696197509765624,0.00531005859375,0.5907959342002869,1.492324948310852,-0.3981630802154541,65.44723510742188,94.8595733642578,-14.35731506347656
45062,-0.1345672607421875,1.061141967773438,-0.13958740234375,0.4330153465270996,1.729241609573364,-0.4569675326347351,65.35392761230469,95.01992797851562,-14.83633422851562
45063,-0.175994873046875,1.17352294921875,-0.2557220458984375,0.142595499753952,1.495087146759033,-0.4150049090385437,65.12478637695312,94.9292449951172,-15.09613037109375
45064,-0.246551513671875,1.247817993164062,-0.1993255615234375,-0.1747076213359833,0.9685083031654358,-0.3754311501979828,64.86994934082031,94.9782257080078,-15.23837280273438
45065,-0.2888946533203125,1.133392333984375,-0.060211181640625,-0.4018896520137787,0.311604231595993,-0.3054699003696442,64.80174255371094,94.82000732421876,-15.2412109375
45066,-0.30731201171875,0.9156646728515624,0.0523834228515625,-0.4092498123645782,-0.1611193865537643,-0.2177104949951172,64.7559814453125,94.68240356445312,-15.15347290039062
45067,-0.250274658203125,0.86187744140625,0.0782318115234375,-0.2408221960067749,-0.4335639476776123,-0.167820155620575,64.65794372558594,94.63148498535156,-15.06758117675781
45068,-0.1941680908203125,0.9051055908203124,0.076202392578125,-0.0949885621666908,-0.5869734883308411,-0.2109460532665253,64.65664672851562,94.532958984375,-14.71832275390625
45069,-0.1478271484375,0.9349212646484376,0.052978515625,-0.0195747669786214,-0.645563006401062,-0.2130249291658401,64.53866577148438,94.57054138183594,-14.77812194824219
45070,-0.1210479736328125,0.989715576171875,0.00726318359375,0.0035824843216687,-0.6594010591506958,-0.1951721608638763,64.36717224121094,94.6748046875,-14.82429504394531
45071,-0.1254119873046875,1.00726318359375,-0.0172576904296875,0.0086291749030351,-0.6281840205192566,-0.1862577497959137,64.34112548828125,94.70518493652344,-14.72203063964844
45072,-0.1381378173828125,0.9705810546875,-0.0093841552734375,0.0011073424248024,-0.4537366032600403,-0.1827090978622437,64.23468017578125,94.83566284179688,-14.6494140625
45073,-0.22113037109375,0.9262542724609376,-0.048980712890625,-0.0390637777745723,-0.1726018637418747,-0.2259034365415573,64.0845947265625,94.85313415527344,-14.66873168945312
45074,-0.28240966796875,0.8824615478515625,-0.10302734375,-0.1144346967339516,0.104006826877594,-0.3520219624042511,63.97149658203125,94.91555786132812,-14.57809448242188
45075,-0.2035369873046875,0.8461456298828125,-0.0965118408203125,-0.172895073890686,0.3157827258110046,-0.4495881795883179,63.83543395996094,95.02606201171876,-14.36732482910156
45076,-0.1400146484375,0.85357666015625,-0.0229339599609375,-0.2682623565196991,0.4807546436786652,-0.3409839570522308,63.70938110351562,94.91999816894533,-13.80311584472656
45077,-0.1775665283203125,0.9563140869140624,0.0086822509765625,-0.4521570801734924,0.7000063061714172,-0.2827840149402618,63.589599609375,95.09420776367188,-13.32357788085938
45078,-0.14453125,1.016586303710938,-0.0684814453125,-0.6588010787963867,0.5975227952003479,-0.1991330683231354,63.48957824707031,95.23883056640624,-13.00590515136719
45079,-0.1322021484375,1.067642211914062,-0.0790557861328125,-0.8280295133590698,0.1181530058383942,-0.112560898065567,63.35041809082031,95.28352355957033,-12.49703979492188
45080,-0.1289215087890625,1.076431274414062,0.0183563232421875,-0.9092729687690736,-0.4453849196434021,-0.1097280979156494,63.17506408691406,95.32003784179688,-11.96630859375
45081,-0.1278533935546875,1.060394287109375,0.1509246826171875,-0.8736872673034668,-0.8657430410385132,-0.1520143002271652,63.18252563476562,95.39761352539062,-11.47892761230469
45082,-0.0970306396484375,1.037506103515625,0.2435302734375,-0.680221676826477,-1.011223316192627,-0.133576974272728,63.13458251953125,95.282958984375,-11.01109313964844
45083,-0.0794219970703125,1.043975830078125,0.272216796875,-0.3948527872562408,-0.8588353395462036,-0.0609243363142013,63.06388854980469,95.30990600585938,-10.69389343261719
45084,-0.0815887451171875,1.06146240234375,0.2021942138671875,-0.1071166023612022,-0.463133841753006,0.0162295699119567,63.13900756835938,95.1894073486328,-10.53692626953125
45085,-0.0955657958984375,1.066802978515625,0.1189422607421875,0.091823399066925,-0.0623664371669292,0.080520674586296,63.1839599609375,95.15431213378906,-10.40602111816406
45086,-0.1063232421875,1.03045654296875,0.06805419921875,0.1404202282428741,0.2105769515037537,0.1377573311328888,63.2239990234375,95.1521453857422,-10.42962646484375
45087,-0.1130828857421875,0.9946441650390624,0.0302581787109375,0.0949930921196937,0.387481153011322,0.1902367919683456,63.26901245117188,95.08935546875,-10.54606628417969
45088,-0.1280517578125,0.9452972412109376,-0.006256103515625,-0.0197635851800441,0.5218663811683655,0.1658414304256439,63.42442321777344,95.0581512451172,-10.58932495117188
45089,-0.1280517578125,0.9452972412109376,-0.006256103515625,-0.0197635851800441,0.5218663811683655,0.1658414304256439,63.42442321777344,95.0581512451172,-10.58932495117188
45090,-0.11395263671875,0.9225616455078124,-0.0118408203125,-0.0874401032924652,0.4627037346363068,0.1342693865299225,63.47463989257812,95.02137756347656,-10.6163330078125
45091,-0.0894317626953125,0.9292449951171876,-0.003875732421875,-0.1537653207778931,0.3012157678604126,0.1058116480708122,63.54751586914062,95.025390625,-10.42938232421875
45092,-0.0425872802734375,0.9987640380859376,0.0650482177734375,-0.1879829466342926,-0.0374536328017711,0.0377971790730953,63.61569213867188,94.99749755859376,-10.24378967285156
45093,-0.0425872802734375,0.9987640380859376,0.0650482177734375,-0.1879829466342926,-0.0374536328017711,0.0377971790730953,63.61569213867188,94.99749755859376,-10.24378967285156
45094,-0.024932861328125,1.0242919921875,0.100494384765625,-0.1307745277881622,-0.1167969256639481,0.0108105698600411,63.59318542480469,94.96224975585938,-10.06697082519531
45095,-0.0252532958984375,1.048095703125,0.12396240234375,-0.0530909150838851,-0.1061698421835899,-0.0041441447101533,63.62628173828125,94.91403198242188,-9.96929931640625
45096,-0.03564453125,1.039230346679688,0.1086883544921875,0.021523667499423,-0.0619810782372951,-0.0101487739011645,63.66310119628906,94.91184997558594,-9.991134643554688
45097,-0.0370025634765625,1.018341064453125,0.07586669921875,0.0810027047991752,-0.0783653780817985,0.0189470592886209,63.7467041015625,94.80158996582033,-9.872146606445312
45098,-0.06463623046875,1.01123046875,0.04534912109375,0.0913200601935386,-0.1493002772331238,-0.0428942032158374,63.75656127929688,94.71932983398438,-9.943939208984377
45099,-0.0546417236328125,0.994354248046875,0.041534423828125,0.0768050327897071,-0.2896547317504883,-0.0431599877774715,63.71493530273438,94.76649475097656,-9.981521606445312
45100,-0.0865936279296875,1.0206298828125,0.0657958984375,0.0550560615956783,-0.3932870924472809,-0.0126156602054834,63.75291442871094,94.76530456542967,-10.12020874023438
45101,-0.1901397705078125,0.9572296142578124,0.124908447265625,0.0826046019792556,-0.33555668592453,0.0245780479162931,63.74873352050781,94.71963500976562,-10.25209045410156
45102,-0.1901397705078125,0.9572296142578124,0.124908447265625,0.0826046019792556,-0.33555668592453,0.0245780479162931,63.74873352050781,94.71963500976562,-10.25209045410156
45103,-0.1876983642578125,0.966522216796875,0.067291259765625,0.1272469013929367,-0.2364421039819717,0.0093900393694639,63.82914733886719,94.70880126953124,-10.32220458984375
45104,-0.1151275634765625,1.021820068359375,0.05206298828125,0.1115795224905014,-0.410833865404129,0.110588826239109,63.82447814941406,94.84857177734376,-10.69326782226562
45105,-0.1151275634765625,1.021820068359375,0.05206298828125,0.1115795224905014,-0.410833865404129,0.110588826239109,63.82447814941406,94.84857177734376,-10.69326782226562
45106,-0.124267578125,1.016357421875,0.0650482177734375,0.1097616478800774,-0.3846384882926941,0.1001841276884079,63.80165100097656,94.81320190429688,-10.79866027832031
45107,-0.1509552001953125,0.97119140625,0.0731201171875,0.1485636383295059,-0.2152252197265625,0.0484173335134983,63.82563781738281,94.93391418457033,-10.82463073730469
45108,-0.1441802978515625,0.88037109375,0.071014404296875,0.2156020700931549,-0.0025318672414869,0.0083759082481265,63.93536376953125,94.79136657714844,-10.90884399414062
45109,-0.1500244140625,0.96746826171875,0.0123443603515625,0.1197466403245926,0.1535770446062088,-0.1437797993421555,64.0689697265625,94.74525451660156,-11.268798828125
45110,-0.1500244140625,0.96746826171875,0.0123443603515625,0.1197466403245926,0.1535770446062088,-0.1437797993421555,64.0689697265625,94.74525451660156,-11.268798828125
45111,-0.1622161865234375,0.966644287109375,0.034576416015625,0.0268164332956075,-0.1097424775362015,-0.1995701044797897,64.018798828125,94.66310119628906,-11.27395629882812
45112,-0.1863555908203125,0.9922943115234376,0.0932464599609375,-0.0324420966207981,-0.3157467842102051,-0.1913103014230728,63.93601989746094,94.57290649414062,-11.33113098144531
45113,-0.2074432373046875,1.021636962890625,0.11199951171875,0.0090177301317453,-0.4400151968002319,-0.1683951318264008,63.87608337402344,94.58558654785156,-11.418701171875
45114,-0.2022705078125,1.015487670898438,0.1476287841796875,0.0641446337103843,-0.428771048784256,-0.1353743374347687,63.794677734375,94.65614318847656,-11.37144470214844
45115,-0.2057342529296875,0.99627685546875,0.127685546875,0.1053285524249077,-0.3566904664039612,-0.0921128839254379,63.71005249023438,94.70716857910156,-11.39485168457031
45116,-0.211456298828125,0.985015869140625,0.085693359375,0.1476531028747559,-0.3135917484760284,-0.0614306032657623,63.67056274414062,94.76406860351562,-11.426513671875
45117,-0.2009124755859375,0.9765777587890624,0.04962158203125,0.1623905003070831,-0.2112102508544922,-0.0044373590499162,63.61964416503906,94.80990600585938,-11.6453857421875
45118,-0.2009124755859375,0.9765777587890624,0.04962158203125,0.1623905003070831,-0.2112102508544922,-0.0044373590499162,63.61964416503906,94.80990600585938,-11.6453857421875
45119,-0.17529296875,0.9662017822265624,0.046173095703125,0.1181964129209518,-0.1963569968938828,0.0118609201163053,63.5352783203125,94.8863525390625,-11.64535522460938
45120,-0.169921875,0.96563720703125,0.062896728515625,0.0768055617809295,-0.1609020680189133,0.0400893613696098,63.50090026855469,94.90135192871094,-11.69155883789062
45121,-0.1814422607421875,0.9756317138671876,0.0726165771484375,0.0624183714389801,-0.0689196810126304,0.028857747092843,63.54872131347656,94.99522399902344,-11.88619995117188
45122,-0.173797607421875,0.981781005859375,0.0600128173828125,0.0707133188843727,-0.0077535272575914,-0.019376628100872,63.62416076660156,94.89334106445312,-11.88885498046875
45123,-0.1356353759765625,0.9779510498046876,0.057464599609375,0.0609158165752887,-0.0813443884253501,-0.0532712116837501,63.62306213378906,94.97833251953124,-11.94181823730469
45124,-0.11376953125,0.9863433837890624,0.0802154541015625,0.0474612601101398,-0.2145671546459198,-0.0319054685533046,63.55674743652344,95.08201599121094,-11.93647766113281
45125,-0.135711669921875,1.020721435546875,0.102783203125,0.082878902554512,-0.2691640853881836,0.0166852362453937,63.50553894042969,95.15480041503906,-11.97686767578125
45126,-0.1691436767578125,1.027542114257812,0.1109466552734375,0.1661532819271088,-0.2351049184799194,0.0457597635686397,63.49905395507812,95.24984741210938,-12.08338928222656
45127,-0.1896514892578125,1.014251708984375,0.0959930419921875,0.2288212031126022,-0.1124045699834824,0.0498865991830825,63.42184448242188,95.31974792480467,-12.25709533691406
45128,-0.1802215576171875,0.9821319580078124,0.054290771484375,0.2616547644138336,-0.0099953757598996,0.0276795644313097,63.48097229003906,95.28671264648438,-12.36003112792969
45129,-0.1762542724609375,0.949432373046875,0.0147552490234375,0.2024471163749695,0.0964700803160667,0.0371012948453426,63.49923706054688,95.13075256347656,-12.6573486328125
45130,-0.1802520751953125,0.961639404296875,-0.0130615234375,0.1181040033698082,0.0271623786538839,0.0350333526730537,63.6151123046875,94.98463439941406,-12.78056335449219
45131,-0.1802520751953125,0.961639404296875,-0.0130615234375,0.1181040033698082,0.0271623786538839,0.0350333526730537,63.6151123046875,94.98463439941406,-12.78056335449219
45132,-0.153411865234375,0.967987060546875,0.0013275146484375,0.0418086983263492,-0.0866547301411628,0.0416246764361858,63.63398742675781,94.9242706298828,-12.80718994140625
45133,-0.0960693359375,0.9738311767578124,0.064849853515625,0.0383987873792648,-0.1925532072782516,0.0764002352952957,63.69625854492188,94.6968231201172,-12.81910705566406
45134,-0.0960693359375,0.9738311767578124,0.064849853515625,0.0383987873792648,-0.1925532072782516,0.0764002352952957,63.69625854492188,94.6968231201172,-12.81910705566406
45135,-0.098358154296875,0.977813720703125,0.0763092041015625,0.0855913311243057,-0.1734684556722641,0.0545948036015033,63.7723388671875,94.601806640625,-12.60479736328125
45136,-0.1149444580078125,0.98779296875,0.0786590576171875,0.1968752443790436,-0.1440676897764206,-0.011754659935832,63.84254455566406,94.63255310058594,-12.6634521484375
45137,-0.1309661865234375,0.9944305419921876,0.081268310546875,0.2399268448352814,-0.0532416515052318,-0.0226342063397169,63.73274230957031,94.82498168945312,-12.97573852539062
45138,-0.1309661865234375,0.9944305419921876,0.081268310546875,0.2399268448352814,-0.0532416515052318,-0.0226342063397169,63.73274230957031,94.82498168945312,-12.97573852539062
45139,-0.1494293212890625,0.99658203125,0.071746826171875,0.2664647102355957,0.014233530499041,-0.0594164542853832,63.78837585449219,94.75871276855467,-13.03390502929688
45140,-0.1590728759765625,0.9809112548828124,0.0498046875,0.2733630836009979,0.0470018647611141,-0.0889221504330635,63.76467895507812,94.84263610839844,-13.19029235839844
45141,-0.14215087890625,0.971343994140625,0.03302001953125,0.2651722729206085,0.0277530681341886,-0.0952072069048881,63.68064880371094,94.97674560546876,-13.35136413574219
45142,-0.1539459228515625,0.9745635986328124,0.0403900146484375,0.2276358157396317,0.0322673916816711,-0.1106285080313683,63.66114807128906,95.0699462890625,-13.57821655273438
45143,-0.2155914306640625,0.9688873291015624,0.023193359375,0.1785020977258682,0.0933557823300361,-0.0949885621666908,63.64935302734375,95.0753936767578,-13.776611328125
45144,-0.286376953125,1.005569458007812,-0.0130462646484375,0.1174981370568275,0.1506081521511078,-0.041029192507267,63.61480712890625,95.12832641601562,-13.94021606445312
45145,-0.2854766845703125,1.037063598632812,-0.025390625,0.0287328455597162,0.1632203459739685,-0.0075276908464729,63.57539367675781,95.10398864746094,-14.087890625
45146,-0.187103271484375,0.9956207275390624,0.0018157958984375,-0.0218243394047021,0.0893684923648834,-0.0244584716856479,63.53416442871094,95.1601104736328,-14.08659362792969
45147,-0.1265869140625,0.9767608642578124,0.0466766357421875,0.022319421172142,0.1181447505950928,-0.0507587864995002,63.45008850097656,95.26115417480467,-14.05941772460938
45148,-0.1265869140625,0.9767608642578124,0.0466766357421875,0.022319421172142,0.1181447505950928,-0.0507587864995002,63.45008850097656,95.26115417480467,-14.05941772460938
45149,-0.120025634765625,0.9855804443359376,0.030487060546875,0.03635960444808,0.1201527714729309,-0.0747155174612999,63.47999572753906,95.3710479736328,-14.12278747558594
45150,-0.121826171875,0.984283447265625,0.034637451171875,0.0492735393345356,0.1169252842664719,-0.0989257842302322,63.55778503417969,95.31803894042967,-14.02764892578125
45151,-0.1277008056640625,0.9757080078125,0.0388641357421875,0.0652194842696189,0.1273454427719116,-0.1180744394659996,63.45341491699219,95.38070678710938,-14.07986450195312
45152,-0.137054443359375,0.9783477783203124,0.03643798828125,0.0749791711568832,0.1196110844612122,-0.1224963515996933,63.46357727050781,95.2615966796875,-13.95724487304688
45153,-0.1574859619140625,0.9787139892578124,0.0373382568359375,0.0695503130555152,0.123945377767086,-0.1193325221538544,63.37052917480469,95.19454956054688,-14.02647399902344
45154,-0.1678314208984375,0.9749298095703124,0.0258636474609375,0.048231977969408,0.1280330717563629,-0.1011593714356422,63.386474609375,95.21878051757812,-14.02536010742188
45155,-0.1677093505859375,0.97576904296875,0.0194854736328125,0.0221505761146545,0.1084034368395805,-0.0838996917009353,63.38241577148438,95.36891174316406,-13.99095153808594
45156,-0.158782958984375,0.9862823486328124,0.040863037109375,0.0222349986433982,0.0731607601046562,-0.064319334924221,63.28671264648438,95.20892333984376,-13.90328979492188
45157,-0.158782958984375,0.9862823486328124,0.040863037109375,0.0222349986433982,0.0731607601046562,-0.064319334924221,63.28671264648438,95.20892333984376,-13.90328979492188
45158,-0.1678009033203125,0.985321044921875,0.0482940673828125,0.0498948544263839,0.0847649574279785,-0.0595972836017608,63.22660827636719,95.24302673339844,-13.99713134765625
45159,-0.1920318603515625,0.9757080078125,0.0393524169921875,0.0658242851495742,0.1008078381419182,-0.0377734787762165,63.14323425292969,95.3619384765625,-13.98478698730469
45160,-0.1791839599609375,0.9810333251953124,0.0167999267578125,0.029814088717103,0.046327818185091,0.0113077815622091,63.14466857910156,95.2456512451172,-13.95712280273438
45161,-0.1791839599609375,0.9810333251953124,0.0167999267578125,0.029814088717103,0.046327818185091,0.0113077815622091,63.14466857910156,95.2456512451172,-13.95712280273438
45162,-0.1800537109375,0.9759368896484376,0.037139892578125,0.0307070463895797,0.0033918018452823,0.0248361080884933,63.13865661621094,95.29795837402344,-14.08062744140625
45163,-0.1824188232421875,0.9756317138671876,0.0439453125,0.0414249375462532,-0.0511595904827117,0.0431328229606151,63.11982727050781,95.15464782714844,-13.9918212890625
45164,-0.1782989501953125,0.9814300537109376,0.047515869140625,0.0549673773348331,-0.1199695467948914,0.0499531775712966,63.1951904296875,95.17979431152344,-14.16943359375
45165,-0.168487548828125,0.983154296875,0.0501708984375,0.0682136714458465,-0.1309745311737061,0.047881506383419,63.218017578125,95.27947998046876,-14.22900390625
45166,-0.1602783203125,0.9842987060546876,0.0364990234375,0.0683337822556495,-0.0850288718938827,0.0291552226990461,63.16462707519531,95.32220458984376,-14.23146057128906
45167,-0.157501220703125,0.9825439453125,0.02203369140625,0.0471014641225338,-0.0492450445890426,0.0035241609439253,63.20407104492188,95.3153076171875,-14.30224609375
45168,-0.15606689453125,0.9731597900390624,0.0262603759765625,0.0238075945526361,-0.0500458553433418,-0.0220882575958967,63.22515869140625,95.35549926757812,-14.33621215820312
45169,-0.1544342041015625,0.9622039794921876,0.040252685546875,0.028048412874341,-0.0052783852443099,-0.0634444877505302,63.20465087890625,95.43287658691406,-14.29052734375
45170,-0.1544342041015625,0.9622039794921876,0.040252685546875,0.028048412874341,-0.0052783852443099,-0.0634444877505302,63.20465087890625,95.43287658691406,-14.29052734375
45171,-0.1569061279296875,0.968017578125,0.0147705078125,-0.0013233247445896,0.0476013422012329,-0.0726720765233039,63.06475830078125,95.51768493652344,-14.25088500976562
45172,-0.126251220703125,0.985992431640625,-0.012451171875,-0.0755967572331428,0.0219758730381727,-0.0581490583717823,63.12321472167969,95.50431823730467,-14.21343994140625
45173,-0.0997772216796875,1.008026123046875,0.00860595703125,-0.1556207537651062,-0.0289280544966459,-0.0349028557538986,63.18051147460938,95.50067138671876,-14.14361572265625
45174,-0.0774688720703125,1.028060913085938,0.02777099609375,-0.1808073371648788,-0.0360533408820629,-0.0090068103745579,63.1219482421875,95.5777587890625,-14.07667541503906
45175,-0.0225372314453125,1.011444091796875,0.0359649658203125,-0.1093941330909729,0.0147240851074457,0.0141405863687396,63.15962219238281,95.68524169921876,-14.11428833007812
45176,0.06500244140625,0.9770965576171876,0.0660858154296875,-0.0228749550879001,0.0733940526843071,0.0907000750303268,63.17750549316406,95.8740692138672,-13.97236633300781
45177,0.0501556396484375,0.980621337890625,0.04278564453125,0.007693872321397,0.088752768933773,0.1638182252645493,63.15138244628906,95.87496948242188,-14.01971435546875
45178,-0.3252105712890625,0.9802398681640624,-0.0096282958984375,-0.0211668033152818,0.2195131778717041,0.1987146884202957,63.36894226074219,95.88703918457033,-14.02973937988281
45179,-0.3252105712890625,0.9802398681640624,-0.0096282958984375,-0.0211668033152818,0.2195131778717041,0.1987146884202957,63.36894226074219,95.88703918457033,-14.02973937988281
45180,-0.4412384033203125,0.992523193359375,-0.0048828125,-0.0238339602947235,0.0005677859298884,-0.0302580371499061,63.4678955078125,95.77920532226562,-13.80905151367188
45181,-0.4412384033203125,0.992523193359375,-0.0048828125,-0.0238339602947235,0.0005677859298884,-0.0302580371499061,63.4678955078125,95.77920532226562,-13.80905151367188
45182,-0.2830963134765625,0.934661865234375,0.0773773193359375,0.0653071030974388,-0.0748649165034294,-0.1287971287965775,63.50428771972656,95.69659423828124,-13.78672790527344
45183,-0.1232147216796875,0.9678192138671876,0.091217041015625,0.1647551208734512,-0.0492887198925018,-0.1363413333892822,63.51457214355469,95.7909698486328,-13.7525634765625
45184,-0.11431884765625,0.987274169921875,0.0606231689453125,0.2173839807510376,-0.0559468902647495,-0.1616741120815277,63.46760559082031,95.83290100097656,-13.71083068847656
45185,-0.154693603515625,0.963653564453125,0.0325469970703125,0.1722559183835983,-0.0525649413466453,-0.1645410060882568,63.42646789550781,95.91136169433594,-13.66502380371094
45186,-0.1836395263671875,0.97723388671875,0.0061492919921875,0.0892238840460777,-0.005012069363147,-0.1709768027067184,63.32882690429688,95.86685180664062,-13.9459228515625
45187,-0.1938629150390625,0.9665985107421876,0.007354736328125,0.046003445982933,0.0592942163348197,-0.191890612244606,63.2769775390625,95.86251831054688,-14.00735473632812
45188,-0.1937408447265625,0.9241943359375,0.0012664794921875,0.0533769391477108,0.189296692609787,-0.2595402300357819,63.18295288085938,95.83299255371094,-14.211181640625
45189,-0.1937408447265625,0.9241943359375,0.0012664794921875,0.0533769391477108,0.189296692609787,-0.2595402300357819,63.18295288085938,95.83299255371094,-14.211181640625
45190,-0.2003631591796875,0.9019927978515624,-0.0156707763671875,0.026814304292202,0.2293263971805573,-0.3003792762756348,63.07798767089844,95.93252563476562,-14.18072509765625
45191,-0.2144012451171875,0.924163818359375,-0.0217437744140625,-0.0274947416037321,0.2678751349449158,-0.3088997900485992,62.94564819335938,95.96353149414062,-14.16944885253906
45192,-0.195098876953125,0.987060546875,-0.016265869140625,-0.0640583410859108,0.2858149707317352,-0.2973821461200714,62.929931640625,95.93309020996094,-13.97567749023438
45193,-0.1668243408203125,1.004608154296875,0.0003204345703125,-0.072535715997219,0.2543601095676422,-0.2910286486148834,62.67747497558594,95.97592163085938,-13.96795654296875
45194,-0.0760955810546875,1.060684204101562,0.027313232421875,-0.1062153875827789,0.2118227779865265,-0.1366665065288544,62.50288391113281,96.01795959472656,-13.96061706542969
45195,-0.0845794677734375,1.183563232421875,0.0335235595703125,-0.2597402334213257,0.1090737581253052,0.1865379214286804,62.39030456542969,95.98583984375,-13.75474548339844
45196,-0.1791534423828125,1.127944946289062,-0.012603759765625,-0.3771816492080688,0.0900441408157348,0.2554386854171753,62.37811279296875,95.97952270507812,-13.67684936523438
45197,-0.2115631103515625,1.0987548828125,-0.0278778076171875,-0.3095370829105377,-0.0632386207580566,0.3122513890266418,62.41641235351562,95.87062072753906,-13.63890075683594
45198,-0.2021026611328125,0.9917144775390624,0.065399169921875,-0.1041370555758476,-0.3258404135704041,0.2149288207292557,62.59445190429688,95.78890991210938,-13.49317932128906
45199,-0.098602294921875,0.883575439453125,0.136199951171875,0.0743820890784263,-0.360284686088562,0.1734873652458191,62.63705444335938,95.57421875,-13.33319091796875
45200,-0.1296844482421875,0.9515838623046876,0.0537872314453125,0.0905016735196113,-0.3406630456447601,0.1830859333276749,63.06381225585938,95.12762451171876,-13.0804443359375
45201,-0.1296844482421875,0.9515838623046876,0.0537872314453125,0.0905016735196113,-0.3406630456447601,0.1830859333276749,63.06381225585938,95.12762451171876,-13.0804443359375
45202,-0.145965576171875,0.92364501953125,0.0586395263671875,0.0917328521609306,-0.3236691355705261,0.1536460220813751,63.19493103027344,95.14230346679688,-13.17219543457031
45203,-0.1235809326171875,0.88800048828125,0.0654144287109375,0.1155561581254005,-0.2050213217735291,0.024084297940135,63.27659606933594,95.1217041015625,-13.22116088867188
45204,-0.1548309326171875,0.943267822265625,-0.0033111572265625,0.1266237199306488,0.0758779868483543,-0.1902684718370438,63.34916687011719,95.0540771484375,-13.19598388671875
45205,-0.1548309326171875,0.943267822265625,-0.0033111572265625,0.1266237199306488,0.0758779868483543,-0.1902684718370438,63.34916687011719,95.0540771484375,-13.19598388671875
45206,-0.180633544921875,0.9620513916015624,-0.020965576171875,0.0621872060000896,0.1370689123868942,-0.2178822606801987,63.34652709960938,94.99046325683594,-13.19070434570312
45207,-0.2080535888671875,0.9720458984375,-0.03387451171875,0.0014085458824411,0.2053592801094055,-0.2175270020961761,63.28285217285156,95.01710510253906,-13.34512329101562
45208,-0.211181640625,0.9818115234375,-0.018890380859375,-0.0283360332250595,0.2913290560245514,-0.206462100148201,63.14811706542969,95.01597595214844,-13.17916870117188
45209,-0.2048492431640625,0.99090576171875,0.002349853515625,-0.0308465957641601,0.3883179128170013,-0.2051946967840195,63.10125732421875,95.0399932861328,-13.21217346191406
45210,-0.216094970703125,0.991546630859375,0.0087127685546875,-0.0283871665596962,0.4573542475700378,-0.2114936113357544,63.07466125488281,95.01181030273438,-13.21725463867188
45211,-0.237152099609375,0.992279052734375,0.0068206787109375,-0.0331907086074352,0.467326432466507,-0.2195315510034561,62.93443298339844,95.04708862304688,-13.0894775390625
45212,-0.235137939453125,0.9979400634765624,0.008453369140625,-0.0515060685575008,0.4268383979797363,-0.249840721487999,62.79725646972656,95.212890625,-13.04226684570312
45213,-0.1954498291015625,0.96771240234375,0.0424957275390625,-0.0759016871452331,0.2506490051746368,-0.3103629350662231,62.50050354003906,95.49789428710938,-12.80464172363281
45214,-0.1954498291015625,0.96771240234375,0.0424957275390625,-0.0759016871452331,0.2506490051746368,-0.3103629350662231,62.50050354003906,95.49789428710938,-12.80464172363281
45215,-0.1723480224609375,0.9548492431640624,0.0594329833984375,-0.0830831676721572,0.2141192108392715,-0.2910574078559875,62.33766174316406,95.43473815917967,-12.67190551757812
45216,-0.1134033203125,0.98046875,0.0436553955078125,-0.0816208273172378,0.1851647943258286,-0.1929537355899811,62.19786071777344,95.48788452148438,-12.66519165039062
45217,-0.0758056640625,1.07586669921875,0.038330078125,-0.1328163743019104,-0.3246891498565674,0.0881977677345275,62.05282592773438,95.3629913330078,-12.61764526367188
45218,-0.0758056640625,1.07586669921875,0.038330078125,-0.1328163743019104,-0.3246891498565674,0.0881977677345275,62.05282592773438,95.3629913330078,-12.61764526367188
45219,-0.1927490234375,0.9606475830078124,0.0884246826171875,-0.0918412432074546,-0.3004831373691559,-0.0066954530775547,62.09939575195312,95.29428100585938,-12.40345764160156
45220,-0.1927337646484375,0.960723876953125,0.063140869140625,0.2847979068756104,0.1619958281517029,-0.1216316297650337,62.07243347167969,95.23971557617188,-12.34342956542969
45221,-0.1927337646484375,0.960723876953125,0.063140869140625,0.2847979068756104,0.1619958281517029,-0.1216316297650337,62.07243347167969,95.23971557617188,-12.34342956542969
45222,-0.1612701416015625,0.9409027099609376,0.0276031494140625,0.250524640083313,0.2106262147426605,-0.1771481484174728,62.11036682128906,95.1129913330078,-12.53974914550781
45223,-0.189178466796875,0.953033447265625,-0.0067138671875,0.1550705432891846,0.0200490746647119,-0.1177806928753853,62.08782958984375,95.09788513183594,-12.6236572265625
45224,-0.205780029296875,0.9935150146484376,-0.010589599609375,0.0243239812552928,-0.2569926381111145,-0.065908707678318,61.94302368164062,95.17092895507812,-12.64114379882812
45225,-0.17486572265625,0.9949188232421876,0.075714111328125,0.0156892146915197,-0.3468218743801117,-0.071475513279438,61.80059814453125,95.18572998046876,-12.80094909667969
45226,-0.17486572265625,0.9949188232421876,0.075714111328125,0.0156892146915197,-0.3468218743801117,-0.071475513279438,61.80059814453125,95.18572998046876,-12.80094909667969
45227,-0.191375732421875,0.991729736328125,0.053924560546875,0.0868981480598449,-0.1783521622419357,-0.0987713187932968,61.76930236816406,95.16293334960938,-12.78964233398438
45228,-0.200927734375,0.978790283203125,0.023681640625,0.136451318860054,-0.0658314749598503,-0.1243216842412949,61.73802185058594,95.20413208007812,-12.99610900878906
45229,-0.2098388671875,0.96014404296875,0.01251220703125,0.1564183682203293,-0.0006905576447024,-0.1557592302560806,61.67033386230469,95.18368530273438,-13.00985717773438
45230,-0.2233428955078125,0.9421234130859376,0.009735107421875,0.1475082337856293,0.0069636334665119,-0.1824092268943787,61.59666442871094,95.26252746582033,-13.0498046875
45231,-0.2362213134765625,0.9459228515625,0.0107574462890625,0.1284719556570053,-0.005795837379992,-0.1809218525886536,61.48077392578125,95.26219177246094,-13.232421875
45232,-0.240631103515625,0.94769287109375,0.019744873046875,0.0931121036410331,-0.0033486587926745,-0.1810744404792786,61.3897705078125,95.20895385742188,-13.20071411132812
45233,-0.2452392578125,0.9559783935546876,0.025604248046875,0.0812796726822853,0.0423224233090877,-0.1737323850393295,61.34967041015625,95.18240356445312,-13.29962158203125
45234,-0.2452392578125,0.9559783935546876,0.025604248046875,0.0812796726822853,0.0423224233090877,-0.1737323850393295,61.34967041015625,95.18240356445312,-13.29962158203125
45235,-0.2462615966796875,0.962158203125,0.0304718017578125,0.07216127961874,0.084771879017353,-0.1766647845506668,61.30091857910156,95.23548889160156,-13.19436645507812
45236,-0.2494354248046875,0.974029541015625,0.037750244140625,0.0575820691883564,0.1343772560358047,-0.1737438291311264,61.1778564453125,95.14605712890624,-12.96270751953125
45237,-0.2498016357421875,0.9879150390625,0.02935791015625,0.0528794601559639,0.164342075586319,-0.1677629053592682,61.23292541503906,95.10794067382812,-12.92196655273438
45238,-0.25091552734375,0.9804840087890624,0.028350830078125,0.0439972840249538,0.1788999736309052,-0.1676952540874481,61.04225158691406,95.2381591796875,-13.04997253417969
45239,-0.2492523193359375,0.9717864990234376,0.021575927734375,0.0316735059022903,0.1973514258861542,-0.1778030246496201,60.9000244140625,95.3020477294922,-13.25370788574219
45240,-0.255950927734375,0.9693756103515624,0.01953125,0.023871511220932,0.2210833877325058,-0.1781609505414963,60.83428955078125,95.3239288330078,-13.29486083984375
45241,-0.2549285888671875,0.948455810546875,0.0144805908203125,0.0095431711524724,0.2453138828277588,-0.1899355798959732,60.7822265625,95.43464660644533,-13.28594970703125
45242,-0.256683349609375,0.943023681640625,0.0154266357421875,-0.0038349519018083,0.2867507934570312,-0.1743853837251663,60.7138671875,95.50143432617188,-13.33767700195312
45243,-0.25238037109375,0.9670562744140624,0.0135040283203125,-0.0178785994648933,0.3288950622081757,-0.1666970998048782,60.64503479003906,95.52279663085938,-13.23628234863281
45244,-0.2496795654296875,0.9803009033203124,0.017333984375,-0.0229367408901453,0.3684544563293457,-0.1526007205247879,60.67158508300781,95.51301574707033,-13.21871948242188
45245,-0.2477569580078125,0.9824981689453124,0.0183258056640625,-0.0280574671924114,0.4033375978469849,-0.143847182393074,60.598876953125,95.52151489257812,-13.14443969726562
45246,-0.2489166259765625,0.9796142578125,0.018280029296875,-0.0457720160484314,0.4330020248889923,-0.1489660441875458,60.458740234375,95.47836303710938,-13.1610107421875
45247,-0.2583465576171875,0.966461181640625,0.0279388427734375,-0.044937115162611,0.4682020843029022,-0.145657867193222,60.43399047851562,95.389892578125,-13.10313415527344
45248,-0.2646942138671875,0.96356201171875,0.032501220703125,-0.0252771265804767,0.5227817296981812,-0.1479087769985199,60.36618041992188,95.39077758789062,-13.109130859375
45249,-0.264068603515625,0.9622039794921876,0.02142333984375,-0.0163861643522977,0.5656591653823853,-0.1537365615367889,60.25575256347656,95.59567260742188,-13.07086181640625
45250,-0.2560272216796875,0.960662841796875,0.01116943359375,-0.0198213756084442,0.5848477482795715,-0.1524076461791992,60.22746276855469,95.69279479980467,-13.11735534667969
45251,-0.251251220703125,0.9579010009765624,0.0098876953125,-0.0339007079601287,0.5934873223304749,-0.1456315070390701,60.13780212402344,95.74566650390624,-13.10844421386719
45252,-0.255767822265625,0.9572296142578124,0.0171051025390625,-0.0429583862423896,0.6184586882591248,-0.1427246630191803,60.06471252441406,95.76033020019533,-12.91468811035156
45253,-0.2635498046875,0.9636383056640624,0.0189208984375,-0.0395506061613559,0.6511399745941162,-0.1415448784828186,59.9619140625,95.70115661621094,-12.83758544921875
45254,-0.2652587890625,0.971160888671875,0.0232696533203125,-0.0303898639976978,0.6716020703315735,-0.1422913670539856,59.8817138671875,95.66050720214844,-12.94615173339844
45255,-0.2658233642578125,0.98199462890625,0.02423095703125,-0.0139270005747675,0.6931105852127075,-0.1328770965337753,59.8240966796875,95.66030883789062,-12.96420288085938
45256,-0.2667388916015625,0.9782867431640624,0.014251708984375,-0.0165121313184499,0.6912985444068909,-0.1086391285061836,59.81184387207031,95.64720153808594,-12.78187561035156
45257,-0.265777587890625,0.9839324951171876,0.018035888671875,0.0010167949367314,0.6838555335998535,-0.0947169214487075,59.8038330078125,95.6229248046875,-12.63893127441406
45258,-0.2633209228515625,0.980682373046875,0.0230712890625,0.013398895971477,0.694340169429779,-0.0988493487238884,59.79612731933594,95.62013244628906,-12.52552795410156
45259,-0.26239013671875,0.9706268310546876,0.0137481689453125,0.0189385376870632,0.7134600281715393,-0.101776160299778,59.73953247070312,95.6619873046875,-12.43724060058594
45260,-0.25543212890625,0.9765167236328124,0.00146484375,0.0088123995810747,0.7572999596595764,-0.1134818196296692,59.57719421386719,95.71255493164062,-12.22364807128906
45261,-0.25543212890625,0.9765167236328124,0.00146484375,0.0088123995810747,0.7572999596595764,-0.1134818196296692,59.57719421386719,95.71255493164062,-12.22364807128906
45262,-0.2571868896484375,0.976043701171875,0.0056304931640625,-0.0043718451634049,0.7733516097068787,-0.1249818801879883,59.52226257324219,95.64241027832033,-12.29498291015625
45263,-0.2622528076171875,0.972015380859375,0.020172119140625,0.011093663983047,0.8100649118423462,-0.1311945021152496,59.41567993164062,95.79566955566406,-12.32850646972656
45264,-0.2599945068359375,0.9719390869140624,0.006744384765625,0.021419271826744,0.84482342004776,-0.1313268691301346,59.37533569335938,95.8412628173828,-12.26133728027344
45265,-0.258209228515625,0.9706573486328124,-0.001220703125,0.0216139480471611,0.8371012806892395,-0.137516051530838,59.30467224121094,95.8408660888672,-12.26380920410156
45266,-0.258209228515625,0.9706573486328124,-0.001220703125,0.0216139480471611,0.8371012806892395,-0.137516051530838,59.30467224121094,95.8408660888672,-12.26380920410156
45267,-0.2568359375,0.969512939453125,0.000762939453125,0.0194778274744749,0.8345441222190857,-0.1500305086374283,59.25820922851562,95.77833557128906,-12.24183654785156
45268,-0.248291015625,0.9643707275390624,-0.0164947509765625,0.0268273521214723,0.8349207043647766,-0.1753345280885696,59.15327453613281,95.83041381835938,-11.90664672851562
45269,-0.248291015625,0.9643707275390624,-0.0164947509765625,0.0268273521214723,0.8349207043647766,-0.1753345280885696,59.15327453613281,95.83041381835938,-11.90664672851562
45270,-0.247528076171875,0.962799072265625,-0.0184173583984375,0.0313334204256534,0.83579021692276,-0.1814592778682709,59.07167053222656,95.92620849609376,-11.96333312988281
45271,-0.247100830078125,0.9631195068359376,-0.014617919921875,0.0323161296546459,0.8442518711090088,-0.1867437809705734,59.01083374023438,96.0245361328125,-11.83097839355469
45272,-0.2403717041015625,0.964935302734375,-0.0241546630859375,0.039735160768032,0.8426808714866638,-0.193127378821373,58.85624694824219,96.08059692382812,-11.77987670898438
45273,-0.2403717041015625,0.964935302734375,-0.0241546630859375,0.039735160768032,0.8426808714866638,-0.193127378821373,58.85624694824219,96.08059692382812,-11.77987670898438
45274,-0.24481201171875,0.9644317626953124,-0.0260162353515625,0.0400986820459365,0.8296740055084229,-0.1941228657960892,58.74392700195312,95.98663330078124,-11.68028259277344
45275,-0.2429046630859375,0.96246337890625,-0.03057861328125,0.024604145437479,0.7965354919433594,-0.1884167790412903,58.66270446777344,95.9691162109375,-11.68060302734375
45276,-0.2313995361328125,0.95855712890625,-0.038421630859375,-0.0318189151585102,0.692845344543457,-0.1765345484018326,58.48178100585938,95.85725402832033,-11.44969177246094
45277,-0.2313995361328125,0.95855712890625,-0.038421630859375,-0.0318189151585102,0.692845344543457,-0.1765345484018326,58.48178100585938,95.85725402832033,-11.44969177246094
45278,-0.2313995361328125,0.95855712890625,-0.038421630859375,-0.0318189151585102,0.692845344543457,-0.1765345484018326,58.48178100585938,95.85725402832033,-11.44969177246094
45279,-0.235626220703125,0.965087890625,-0.040252685546875,-0.0296271350234746,0.6748668551445007,-0.1790120899677277,58.359375,96.05363464355467,-11.62190246582031
45280,-0.242828369140625,0.9654541015625,-0.0374908447265625,-0.0121115241199731,0.7000744938850403,-0.174857035279274,58.10453796386719,96.06805419921876,-11.39674377441406
45281,-0.242828369140625,0.9654541015625,-0.0374908447265625,-0.0121115241199731,0.7000744938850403,-0.174857035279274,58.10453796386719,96.06805419921876,-11.39674377441406
45282,-0.2467498779296875,0.962615966796875,-0.037872314453125,-0.0020050939638167,0.7043507099151611,-0.1701991558074951,58.03669738769531,96.02809143066406,-11.35243225097656
45283,-0.247406005859375,0.958160400390625,-0.0390625,-0.005331115797162,0.7069297432899475,-0.1745305210351944,58.02940368652344,95.9943389892578,-11.3843994140625
45284,-0.2452545166015625,0.95159912109375,-0.0495147705078125,-0.0286513529717922,0.650784432888031,-0.1564063876867294,57.75296020507812,96.11878967285156,-11.21788024902344
45285,-0.2452545166015625,0.95159912109375,-0.0495147705078125,-0.0286513529717922,0.650784432888031,-0.1564063876867294,57.75296020507812,96.11878967285156,-11.21788024902344
45286,-0.2475738525390625,0.953948974609375,-0.0478973388671875,-0.0402728542685508,0.617317795753479,-0.148744210600853,57.72964477539062,96.12985229492188,-11.13758850097656
45287,-0.248931884765625,0.95538330078125,-0.0469207763671875,-0.0477289073169231,0.5934761166572571,-0.1412055939435959,57.67262268066406,96.188720703125,-11.14140319824219
45288,-0.2501068115234375,0.9556121826171876,-0.0461273193359375,-0.0359188504517078,0.574053168296814,-0.1331223696470261,57.48580932617188,96.27293395996094,-11.00747680664062
45289,-0.2552032470703125,0.963409423828125,-0.0596771240234375,-0.0155017282813787,0.5369835495948792,-0.1343804448843002,57.45957946777344,96.22451782226562,-10.971923828125
45290,-0.251861572265625,0.962188720703125,-0.0657806396484375,-0.0232962686568498,0.5017017126083374,-0.1367764919996262,57.48275756835938,96.20964050292967,-10.84072875976562
45291,-0.251861572265625,0.962188720703125,-0.0657806396484375,-0.0232962686568498,0.5017017126083374,-0.1367764919996262,57.48275756835938,96.20964050292967,-10.84072875976562
45292,-0.2471923828125,0.9528656005859376,-0.075897216796875,-0.054248858243227,0.4310241043567657,-0.1401067674160004,57.30162048339844,96.17547607421876,-10.69906616210938
45293,-0.2471923828125,0.9528656005859376,-0.075897216796875,-0.054248858243227,0.4310241043567657,-0.1401067674160004,57.30162048339844,96.17547607421876,-10.69906616210938
45294,-0.2471923828125,0.9528656005859376,-0.075897216796875,-0.054248858243227,0.4310241043567657,-0.1401067674160004,57.30162048339844,96.17547607421876,-10.69906616210938
45295,-0.24273681640625,0.943450927734375,-0.07763671875,-0.0480562075972557,0.4032294750213623,-0.1291883438825607,57.17208862304688,96.30178833007812,-10.64991760253906
45296,-0.2432861328125,0.9572296142578124,-0.0755157470703125,-0.0512051321566104,0.4051434993743896,-0.1149939671158791,57.10209655761719,96.315673828125,-10.51344299316406
45297,-0.2432861328125,0.9572296142578124,-0.0755157470703125,-0.0512051321566104,0.4051434993743896,-0.1149939671158791,57.10209655761719,96.315673828125,-10.51344299316406
45298,-0.251800537109375,0.957794189453125,-0.080657958984375,-0.0580377355217933,0.3846800327301025,-0.110206663608551,57.05215454101562,96.3175048828125,-10.50059509277344
45299,-0.2539215087890625,0.956451416015625,-0.0712432861328125,-0.0715418308973312,0.3763360977172852,-0.1067892983555794,56.99122619628906,96.20724487304688,-10.44134521484375
45300,-0.2545928955078125,0.9555816650390624,-0.073211669921875,-0.0865732431411743,0.33574578166008,-0.108175203204155,56.93318176269531,96.27622985839844,-10.25662231445312
45301,-0.2545928955078125,0.9555816650390624,-0.073211669921875,-0.0865732431411743,0.33574578166008,-0.108175203204155,56.93318176269531,96.27622985839844,-10.25662231445312
45302,-0.2524871826171875,0.9514923095703124,-0.0741729736328125,-0.0986509397625923,0.3009891211986542,-0.1070114076137543,56.88090515136719,96.274658203125,-10.24375915527344
45303,-0.2564239501953125,0.94720458984375,-0.0703887939453125,-0.1097962707281113,0.2218868583440781,-0.1009077057242393,56.83363342285156,96.327880859375,-10.18083190917969
45304,-0.2585906982421875,0.94415283203125,-0.064849853515625,-0.1071783825755119,0.1930280476808548,-0.0851322039961814,56.77119445800781,96.30995178222656,-10.099609375
45305,-0.2585906982421875,0.94415283203125,-0.064849853515625,-0.1071783825755119,0.1930280476808548,-0.0851322039961814,56.77119445800781,96.30995178222656,-10.099609375
45306,-0.2596893310546875,0.9434661865234376,-0.0669403076171875,-0.1019415482878685,0.1657740473747253,-0.0724947080016136,56.74977111816406,96.32456970214844,-10.0836181640625
45307,-0.2582244873046875,0.94769287109375,-0.074554443359375,-0.1049043089151382,0.1217914149165154,-0.0582111068069934,56.68107604980469,96.26400756835938,-10.042724609375
45308,-0.257568359375,0.9595489501953124,-0.073272705078125,-0.1271907091140747,0.0441845059394836,-0.045240182429552,56.52629089355469,96.28350830078124,-9.914627075195312
45309,-0.257568359375,0.9595489501953124,-0.073272705078125,-0.1271907091140747,0.0441845059394836,-0.045240182429552,56.52629089355469,96.28350830078124,-9.914627075195312
45310,-0.2601318359375,0.961669921875,-0.071380615234375,-0.1264599412679672,0.0302950553596019,-0.0412084236741066,56.55191040039062,96.2990264892578,-9.788284301757812
45311,-0.264923095703125,0.9599761962890624,-0.070281982421875,-0.1234103515744209,0.0225601699203252,-0.0382898636162281,56.52558898925781,96.2511749267578,-9.620574951171877
45312,-0.274993896484375,0.959442138671875,-0.077392578125,-0.1087999865412712,-0.0141392545774579,-0.037362553179264,56.49868774414062,96.2357177734375,-9.393356323242188
45313,-0.274993896484375,0.959442138671875,-0.077392578125,-0.1087999865412712,-0.0141392545774579,-0.037362553179264,56.49868774414062,96.2357177734375,-9.393356323242188
45314,-0.275909423828125,0.957427978515625,-0.0798187255859375,-0.0994245931506156,-0.0304593723267316,-0.034931618720293,56.54655456542969,96.36734008789062,-9.506927490234377
45315,-0.2770538330078125,0.954864501953125,-0.0806427001953125,-0.090559996664524,-0.0414161495864391,-0.038033403456211,56.585205078125,96.35920715332033,-9.440719604492188
45316,-0.27691650390625,0.9556732177734376,-0.0774078369140625,-0.0662583857774734,-0.0522671975195407,-0.0294694751501083,56.54193115234375,96.33927917480467,-9.227523803710938
45317,-0.27752685546875,0.9545135498046876,-0.077117919921875,-0.0535588338971138,-0.0572979114949703,-0.0238129217177629,56.55497741699219,96.2877960205078,-9.05938720703125
45318,-0.27752685546875,0.9545135498046876,-0.077117919921875,-0.0535588338971138,-0.0572979114949703,-0.0238129217177629,56.55497741699219,96.2877960205078,-9.05938720703125
45319,-0.2783203125,0.9514617919921876,-0.080810546875,-0.0436694510281086,-0.0690512359142303,-0.0185023117810487,56.55169677734375,96.35223388671876,-8.911727905273438
45320,-0.2819671630859375,0.945648193359375,-0.0823516845703125,-0.0327395722270011,-0.0973968580365181,-0.0100563624873757,56.53526306152344,96.2867431640625,-9.064498901367188
45321,-0.2819671630859375,0.945648193359375,-0.0823516845703125,-0.0327395722270011,-0.0973968580365181,-0.0100563624873757,56.53526306152344,96.2867431640625,-9.064498901367188
45322,-0.281158447265625,0.9449310302734376,-0.08367919921875,-0.0289762578904628,-0.1112301200628281,-0.0096984338015317,56.55265808105469,96.29743957519533,-9.149765014648438
45323,-0.28118896484375,0.944671630859375,-0.082061767578125,-0.02893684245646,-0.1192406415939331,-0.0092723276466131,56.57057189941406,96.31202697753906,-9.141281127929688
45324,-0.2802581787109375,0.948638916015625,-0.0820465087890625,-0.0380946546792984,-0.1429180055856705,-0.0060160807333886,56.60589599609375,96.31671142578124,-9.231658935546877
45325,-0.2802581787109375,0.948638916015625,-0.0820465087890625,-0.0380946546792984,-0.1429180055856705,-0.0060160807333886,56.60589599609375,96.31671142578124,-9.231658935546877
45326,-0.282196044921875,0.95074462890625,-0.078826904296875,-0.039396408945322,-0.1582626104354858,-0.0106539754197001,56.57568359375,96.37718200683594,-9.217056274414062
45327,-0.285552978515625,0.9523773193359376,-0.0731353759765625,-0.0402203910052776,-0.1617926210165024,-0.0113059179857373,56.58163452148438,96.4206085205078,-9.267196655273438
45328,-0.288238525390625,0.9530029296875,-0.0633544921875,-0.0275133829563856,-0.1892625987529755,-0.0168841741979122,56.61064147949219,96.46426391601562,-9.228759765625
45329,-0.288238525390625,0.9530029296875,-0.0633544921875,-0.0275133829563856,-0.1892625987529755,-0.0168841741979122,56.61064147949219,96.46426391601562,-9.228759765625
45330,-0.288238525390625,0.9530029296875,-0.0633544921875,-0.0275133829563856,-0.1892625987529755,-0.0168841741979122,56.61064147949219,96.46426391601562,-9.228759765625
45331,-0.2875213623046875,0.9528961181640624,-0.0581207275390625,-0.0206347052007913,-0.1986584961414337,-0.0133560188114643,56.67643737792969,96.4220733642578,-9.2633056640625
45332,-0.2891845703125,0.95159912109375,-0.054046630859375,-0.007121292874217,-0.2145612984895706,-0.0082483422011137,56.70372009277344,96.38906860351562,-8.941131591796875
45333,-0.291748046875,0.9529571533203124,-0.0495758056640625,0.0044552022591233,-0.2133666127920151,-0.0027659591287374,56.68998718261719,96.43148803710938,-8.988555908203125
45334,-0.291748046875,0.9529571533203124,-0.0495758056640625,0.0044552022591233,-0.2133666127920151,-0.0027659591287374,56.68998718261719,96.43148803710938,-8.988555908203125
45335,-0.2930755615234375,0.9536285400390624,-0.0485687255859375,0.0129501530900597,-0.2113114446401596,0.0011864382540807,56.72868347167969,96.4344482421875,-9.085556030273438
45336,-0.3103179931640625,0.91162109375,-0.0194854736328125,0.057243850082159,-0.363122284412384,-0.0321709848940372,56.727294921875,96.32647705078124,-8.951156616210938
45337,-0.30078125,0.909423828125,0.094268798828125,0.180853933095932,-0.4303109049797058,-0.020340159535408,56.69508361816406,96.2389678955078,-9.052749633789062
45338,-0.30078125,0.909423828125,0.094268798828125,0.180853933095932,-0.4303109049797058,-0.020340159535408,56.69508361816406,96.2389678955078,-9.052749633789062
45339,-0.29217529296875,0.989898681640625,-0.0078582763671875,0.2458148300647736,-0.5589791536331177,-0.0106550408527255,56.69358825683594,96.3237762451172,-9.156402587890623
45340,-0.3011627197265625,1.04058837890625,-0.10308837890625,0.1430098861455917,-0.4460070431232452,-0.0018767296569421,56.71638488769531,96.31021118164062,-9.260467529296877
45341,-0.318939208984375,0.967864990234375,-0.1239776611328125,0.0746441408991813,-0.2024830728769302,0.017905231565237,56.80122375488281,96.35832214355467,-9.36968994140625
45342,-0.3214874267578125,0.9352569580078124,-0.077545166015625,0.0994653403759002,-0.0968375951051712,0.0222043711692094,56.72737121582031,96.41213989257812,-9.670730590820312
45343,-0.3167877197265625,0.928253173828125,-0.065887451171875,0.0689686834812164,-0.1878692358732224,0.0135461688041687,56.83120727539062,96.2021026611328,-9.650222778320312
45344,-0.310882568359375,0.9224853515625,-0.041046142578125,0.0476183854043483,-0.2967477738857269,0.0232272911816835,56.94578552246094,96.02952575683594,-9.826309204101562
45345,-0.310882568359375,0.9224853515625,-0.041046142578125,0.0476183854043483,-0.2967477738857269,0.0232272911816835,56.94578552246094,96.02952575683594,-9.826309204101562
45346,-0.3086700439453125,0.9375762939453124,-0.037261962890625,0.0619685612618923,-0.3320280015468597,0.0331547558307647,56.9979248046875,96.14981079101562,-9.900192260742188
45347,-0.3068389892578125,0.9497222900390624,-0.0296783447265625,0.0703745633363723,-0.3826616108417511,0.0392773635685443,57.00666809082031,96.21739196777344,-9.80157470703125
45348,-0.291229248046875,0.9708251953125,-0.0178375244140625,0.0640820488333702,-0.3493172526359558,0.0420164242386817,56.96122741699219,96.1702117919922,-9.78045654296875
45349,-0.291229248046875,0.9708251953125,-0.0178375244140625,0.0640820488333702,-0.3493172526359558,0.0420164242386817,56.96122741699219,96.1702117919922,-9.78045654296875
45350,-0.298370361328125,0.9700469970703124,-0.0089874267578125,0.0912002176046371,-0.2766616940498352,0.0408885776996612,56.96562194824219,96.17967224121094,-9.855072021484377
45351,-0.304901123046875,0.9642181396484376,-0.008270263671875,0.13013856112957,-0.2079353481531143,0.0377076976001262,57.09811401367188,96.0212860107422,-9.895339965820312
45352,-0.296142578125,0.9481353759765624,-0.0403900146484375,0.1557581722736359,-0.1371179074048996,0.025539182126522,57.14695739746094,95.92771911621094,-10.06675720214844
45353,-0.296142578125,0.9481353759765624,-0.0403900146484375,0.1557581722736359,-0.1371179074048996,0.025539182126522,57.14695739746094,95.92771911621094,-10.06675720214844
45354,-0.3054656982421875,0.942657470703125,-0.0430755615234375,0.1348986923694611,-0.1269134730100632,0.0232363473623991,57.19279479980469,95.93988037109376,-10.14242553710938
45355,-0.310302734375,0.9407958984375,-0.033660888671875,0.1334933489561081,-0.0757083445787429,0.0313781611621379,57.17247009277344,96.06130981445312,-10.16510009765625
45356,-0.32000732421875,0.944366455078125,-0.03717041015625,0.1383397728204727,0.0119504025205969,0.0432129837572574,57.25535583496094,96.27677917480467,-10.33792114257812
45357,-0.32000732421875,0.944366455078125,-0.03717041015625,0.1383397728204727,0.0119504025205969,0.0432129837572574,57.25535583496094,96.27677917480467,-10.33792114257812
45358,-0.3162841796875,0.9379730224609376,-0.0408172607421875,0.1450549215078354,0.0737940594553947,0.0456543043255806,57.25535583496094,96.27677917480467,-10.33792114257812
45359,-0.3125762939453125,0.9366607666015624,-0.0391693115234375,0.1505474299192429,0.1343796402215958,0.0553005412220954,57.26222229003906,96.072509765625,-10.15545654296875
45360,-0.2999114990234375,0.9317626953125,-0.0532073974609375,0.1299348324537277,0.1482869386672974,0.0547551251947879,57.29141235351562,96.05201721191406,-10.33697509765625
45361,-0.2999114990234375,0.9317626953125,-0.0532073974609375,0.1299348324537277,0.1482869386672974,0.0547551251947879,57.29141235351562,96.05201721191406,-10.33697509765625
45362,-0.29833984375,0.9330902099609376,-0.0548095703125,0.09009899944067,0.1054177656769753,0.0566688701510429,57.35708618164062,95.99732971191406,-10.36354064941406
45363,-0.29876708984375,0.9416046142578124,-0.0533447265625,0.0703790932893753,0.0202293712645769,0.0517090000212192,57.38325500488281,96.05848693847656,-10.41497802734375
45364,-0.294952392578125,0.9452056884765624,-0.0535430908203125,-0.026265425607562,-0.0764787942171096,0.0283267125487327,57.58186340332031,96.00218200683594,-10.27493286132812
45365,-0.294952392578125,0.9452056884765624,-0.0535430908203125,-0.026265425607562,-0.0764787942171096,0.0283267125487327,57.58186340332031,96.00218200683594,-10.27493286132812
45366,-0.29718017578125,0.947021484375,-0.0503997802734375,-0.0314945429563522,-0.0662687718868255,0.0317659191787242,57.4921875,95.94705200195312,-10.15805053710938
45367,-0.296844482421875,0.9515228271484376,-0.062103271484375,-0.0342021770775318,-0.0787603259086608,0.0255026966333389,57.54302978515625,95.93392944335938,-9.947952270507812
45368,-0.3005218505859375,0.952423095703125,-0.0499420166015625,-0.0683305859565734,-0.1369855552911758,0.0187278818339109,57.70187377929688,96.0045928955078,-10.01828002929688
45369,-0.3005218505859375,0.952423095703125,-0.0499420166015625,-0.0683305859565734,-0.1369855552911758,0.0187278818339109,57.70187377929688,96.0045928955078,-10.01828002929688
45370,-0.3038787841796875,0.95599365234375,-0.0388336181640625,-0.0770692154765129,-0.1508960425853729,0.0182189512997865,57.68411254882812,96.01290893554688,-10.21537780761719
45371,-0.30682373046875,0.9564208984375,-0.03045654296875,-0.0543133057653904,-0.1524811536073685,0.0170096103101968,57.70640563964844,95.98033142089844,-10.13182067871094
45372,-0.3049468994140625,0.94891357421875,-0.0291748046875,-0.003344397759065,-0.1413097232580185,0.0151430005207657,57.60470581054688,96.1576690673828,-10.16294860839844
45373,-0.3049468994140625,0.94891357421875,-0.0291748046875,-0.003344397759065,-0.1413097232580185,0.0151430005207657,57.60470581054688,96.1576690673828,-10.16294860839844
45374,-0.3011474609375,0.94635009765625,-0.0336151123046875,0.0046328348107635,-0.1415880173444748,0.0137128829956054,57.56510925292969,96.15022277832033,-10.17546081542969
45375,-0.290435791015625,0.9457550048828124,-0.046875,-0.0040155141614377,-0.1440831422805786,0.010055030696094,57.53411865234375,96.17022705078124,-10.07052612304688
45376,-0.291229248046875,0.9454498291015624,-0.0461578369140625,-0.0451717376708984,-0.0701090469956398,0.0137397805228829,57.58049011230469,96.16558837890624,-10.15510559082031
45377,-0.291229248046875,0.9454498291015624,-0.0461578369140625,-0.0451717376708984,-0.0701090469956398,0.0137397805228829,57.58049011230469,96.16558837890624,-10.15510559082031
45378,-0.29595947265625,0.947662353515625,-0.0377197265625,-0.0295802634209394,-0.057251039892435,0.0149744218215346,57.61427307128906,96.15809631347656,-10.16371154785156
45379,-0.2998046875,0.9453582763671876,-0.032012939453125,0.0017057546647265,-0.06921848654747,0.0183483809232711,57.59085083007812,96.17774963378906,-10.02815246582031
45380,-0.2899017333984375,0.95068359375,-0.042510986328125,0.0249769892543554,-0.0759658738970756,0.0263711530715227,57.57711791992188,96.21434020996094,-9.967269897460938
45381,-0.2899017333984375,0.95068359375,-0.042510986328125,0.0249769892543554,-0.0759658738970756,0.0263711530715227,57.57711791992188,96.21434020996094,-9.967269897460938
45382,-0.288055419921875,0.9572296142578124,-0.045166015625,0.0298843961209058,-0.053211823105812,0.0297586936503648,57.50704956054688,96.11997985839844,-9.85784912109375
45383,-0.28521728515625,0.9517822265625,-0.04791259765625,0.0352852866053581,-0.0472165159881115,0.0339723490178585,57.58338928222656,96.14997863769533,-9.922103881835938
45384,-0.2826995849609375,0.95745849609375,-0.0624237060546875,0.0197902154177427,-0.0968676880002021,0.0284156631678342,57.5006103515625,96.02967834472656,-9.957611083984377
45385,-0.27862548828125,0.9587860107421876,-0.0545501708984375,0.0113123096525669,-0.0960064232349395,0.0291946362704038,57.45877075195312,95.938232421875,-9.928573608398438
45386,-0.27862548828125,0.9587860107421876,-0.0545501708984375,0.0113123096525669,-0.0960064232349395,0.0291946362704038,57.45877075195312,95.938232421875,-9.928573608398438
45387,-0.2796173095703125,0.9610443115234376,-0.0529022216796875,0.0199974104762077,-0.0709724426269531,0.0290465652942657,57.52099609375,95.9243621826172,-9.923736572265623
45388,-0.2834014892578125,0.959869384765625,-0.05828857421875,0.0184708870947361,-0.0503356084227562,0.0233375467360019,57.39625549316406,95.9183349609375,-9.994857788085938
45389,-0.2834014892578125,0.959869384765625,-0.05828857421875,0.0184708870947361,-0.0503356084227562,0.0233375467360019,57.39625549316406,95.9183349609375,-9.994857788085938
45390,-0.2836456298828125,0.9518585205078124,-0.045501708984375,0.0145568381994962,-0.0495699495077133,0.0288167335093021,57.41802978515625,95.93406677246094,-9.917251586914062
45391,-0.2841949462890625,0.9519195556640624,-0.04290771484375,0.0205606687813997,-0.04508838057518,0.0303339380770921,57.48268127441406,95.9223175048828,-9.96173095703125
45392,-0.287261962890625,0.9543914794921876,-0.0433502197265625,0.0252259951084852,-0.0589586570858955,0.0298889223486185,57.51809692382812,95.93653869628906,-9.992385864257812
45393,-0.288177490234375,0.9517974853515624,-0.0469512939453125,0.0259343944489955,-0.0631592646241188,0.0316527336835861,57.48497009277344,95.94976806640624,-9.936004638671877
45394,-0.288177490234375,0.9517974853515624,-0.0469512939453125,0.0259343944489955,-0.0631592646241188,0.0316527336835861,57.48497009277344,95.94976806640624,-9.936004638671877
45395,-0.2881317138671875,0.96044921875,-0.047088623046875,0.0245916284620761,-0.0683771967887878,0.0291704013943672,57.42431640625,95.96864318847656,-10.01536560058594
45396,-0.2843780517578125,0.9591827392578124,-0.0514984130859375,0.0424534492194652,-0.0775163620710372,0.0329275913536548,57.3272705078125,95.97857666015624,-10.10150146484375
45397,-0.2843780517578125,0.9591827392578124,-0.0514984130859375,0.0424534492194652,-0.0775163620710372,0.0329275913536548,57.3272705078125,95.97857666015624,-10.10150146484375
45398,-0.2798614501953125,0.958404541015625,-0.0517578125,0.0497792735695838,-0.0630993396043777,0.0278758388012647,57.41079711914062,95.99786376953124,-10.19306945800781
45399,-0.2774658203125,0.9544219970703124,-0.04827880859375,0.0577863343060016,-0.0542541854083538,0.0289821159094572,57.464111328125,95.9901885986328,-10.17240905761719
45400,-0.275634765625,0.9536590576171876,-0.0511474609375,0.0559636652469635,-0.0551644526422023,0.0354045964777469,57.55593872070312,96.09605407714844,-10.23086547851562
45401,-0.2764129638671875,0.9531707763671876,-0.04632568359375,0.0479443557560443,-0.0600289814174175,0.0356674492359161,57.62962341308594,96.06608581542967,-10.31851196289062
45402,-0.2764129638671875,0.9531707763671876,-0.04632568359375,0.0479443557560443,-0.0600289814174175,0.0356674492359161,57.62962341308594,96.06608581542967,-10.31851196289062
45403,-0.2779541015625,0.953948974609375,-0.04132080078125,0.0449959710240364,-0.0509910136461257,0.0377500429749488,57.58206176757812,96.0316162109375,-10.40028381347656
45404,-0.28094482421875,0.9509735107421876,-0.0348968505859375,0.0391444712877273,-0.0475558005273342,0.036138828843832,57.6519775390625,96.07942199707033,-10.42768859863281
45405,-0.28094482421875,0.9509735107421876,-0.0348968505859375,0.0391444712877273,-0.0475558005273342,0.036138828843832,57.6519775390625,96.07942199707033,-10.42768859863281
45406,-0.2816162109375,0.95062255859375,-0.03912353515625,0.0400813743472099,-0.0414299964904785,0.0356349609792232,57.61709594726562,96.16590881347656,-10.60618591308594
45407,-0.282440185546875,0.9500732421875,-0.0468902587890625,0.0307637713849544,-0.0543181002140045,0.0312207695096731,57.66383361816406,96.16543579101562,-10.57615661621094
45408,-0.2838134765625,0.957794189453125,-0.0594329833984375,0.0252046883106231,-0.0948482155799865,0.0314178429543972,57.62516784667969,96.01510620117188,-10.62214660644531
45409,-0.2838134765625,0.957794189453125,-0.0594329833984375,0.0252046883106231,-0.0948482155799865,0.0314178429543972,57.62516784667969,96.01510620117188,-10.62214660644531
45410,-0.28509521484375,0.9605560302734376,-0.0544586181640625,0.0297099594026804,-0.0993308499455452,0.026096848770976,57.63143920898438,96.04440307617188,-10.75640869140625
45411,-0.2848663330078125,0.9598541259765624,-0.055267333984375,0.0365122035145759,-0.0858701691031456,0.0277964770793914,57.6900634765625,95.9661102294922,-10.68016052246094
45412,-0.282867431640625,0.9586639404296876,-0.055084228515625,0.0391924083232879,-0.0778750926256179,0.0260188169777393,57.64395141601562,95.89817810058594,-10.62295532226562
45413,-0.28021240234375,0.9571075439453124,-0.0497283935546875,0.0366717278957366,-0.0640620738267898,0.024661935865879,57.64602661132812,95.90208435058594,-10.46585083007812
45414,-0.27734375,0.9589996337890624,-0.0532073974609375,0.039263516664505,-0.0612574964761734,0.0242728497833013,57.77983093261719,95.91563415527344,-10.44699096679688
45415,-0.2775115966796875,0.95654296875,-0.0481109619140625,0.0307137034833431,-0.0619214251637458,0.0254611521959304,57.84445190429688,95.7744598388672,-10.09455871582031
45416,-0.274932861328125,0.9539642333984376,-0.038818359375,0.0285600051283836,-0.0652993768453598,0.0230099782347679,57.91807556152344,95.773681640625,-10.13374328613281
45417,-0.274932861328125,0.9539642333984376,-0.038818359375,0.0285600051283836,-0.0652993768453598,0.0230099782347679,57.91807556152344,95.773681640625,-10.13374328613281
45418,-0.2733154296875,0.9516143798828124,-0.0345916748046875,0.0315408818423748,-0.0632471442222595,0.0219439137727022,57.86247253417969,95.817626953125,-10.13685607910156
45419,-0.275146484375,0.9538421630859376,-0.0381927490234375,0.0274896807968616,-0.1041921824216843,0.0199843607842922,57.89862060546875,95.75247192382812,-10.29045104980469
45420,-0.2747344970703125,0.95660400390625,-0.0460968017578125,0.0254169423133134,-0.116943933069706,0.0178564954549074,57.88973999023438,95.78945922851562,-10.33499145507812
45421,-0.2747344970703125,0.95660400390625,-0.0460968017578125,0.0254169423133134,-0.116943933069706,0.0178564954549074,57.88973999023438,95.78945922851562,-10.33499145507812
45422,-0.27294921875,0.96112060546875,-0.0523681640625,0.0238579288125038,-0.1271014958620071,0.014413028024137,57.89141845703125,95.9037628173828,-10.43582153320312
45423,-0.2726287841796875,0.9606781005859376,-0.055419921875,0.0194360166788101,-0.1302797049283981,0.0099948430433869,57.86822509765625,95.9159698486328,-10.451171875
45424,-0.2720794677734375,0.957275390625,-0.047119140625,0.0156348869204521,-0.1346286535263062,0.0042767701670527,57.83853149414062,95.99082946777344,-10.25039672851562
45425,-0.2721710205078125,0.951202392578125,-0.0407257080078125,0.0121528031304478,-0.1371405422687531,0.0048072719946503,57.83964538574219,95.86741638183594,-10.21513366699219
45426,-0.2721710205078125,0.951202392578125,-0.0407257080078125,0.0121528031304478,-0.1371405422687531,0.0048072719946503,57.83964538574219,95.86741638183594,-10.21513366699219
45427,-0.27532958984375,0.9474029541015624,-0.03814697265625,0.0144124953076243,-0.1428040266036987,0.0003310309257358,57.8690185546875,95.77359008789062,-10.13871765136719
45428,-0.2772064208984375,0.9493255615234376,-0.0361175537109375,0.0202954187989234,-0.1473226100206375,-0.001978995045647,57.90156555175781,95.9033203125,-10.28627014160156
45429,-0.2772064208984375,0.9493255615234376,-0.0361175537109375,0.0202954187989234,-0.1473226100206375,-0.001978995045647,57.90156555175781,95.9033203125,-10.28627014160156
45430,-0.2767181396484375,0.953826904296875,-0.037384033203125,0.020398749038577,-0.1476706862449646,-0.0023584954906255,57.872802734375,95.93202209472656,-10.3353271484375
45431,-0.2765350341796875,0.9546966552734376,-0.03985595703125,0.0220278035849332,-0.1401698887348175,-0.0052594766020774,57.93516540527344,95.9047393798828,-10.43319702148438
45432,-0.2714385986328125,0.956756591796875,-0.03936767578125,0.019965186715126,-0.1247528493404388,-0.0081617897376418,57.95169067382812,95.79383850097656,-10.31059265136719
45433,-0.2714385986328125,0.956756591796875,-0.03936767578125,0.019965186715126,-0.1247528493404388,-0.0081617897376418,57.95169067382812,95.79383850097656,-10.31059265136719
45434,-0.2696380615234375,0.9579925537109376,-0.039825439453125,0.0132750589400529,-0.1307047456502914,-0.0074864123016595,57.93925476074219,95.77883911132812,-10.34994506835938
45435,-0.2696380615234375,0.9576263427734376,-0.03936767578125,0.0039446740411221,-0.1293683797121048,-0.0116635803133249,58.03108215332031,95.87667846679688,-10.26313781738281
45436,-0.274139404296875,0.9512481689453124,-0.0428314208984375,0.0033571808598935,-0.1139039322733879,-0.0136545598506927,57.98976135253906,95.8441925048828,-9.945068359375
45437,-0.274139404296875,0.9512481689453124,-0.0428314208984375,0.0033571808598935,-0.1139039322733879,-0.0136545598506927,57.98976135253906,95.8441925048828,-9.945068359375
45438,-0.280731201171875,0.9477081298828124,-0.041595458984375,0.0047212517820298,-0.0940407440066337,-0.0143765425309538,57.94847106933594,95.91853332519533,-10.15415954589844
45439,-0.2836151123046875,0.9474639892578124,-0.043609619140625,0.004040281753987,-0.0879753977060318,-0.0116004636511206,57.89389038085938,96.04380798339844,-10.44544982910156
45440,-0.283355712890625,0.9550933837890624,-0.04644775390625,-0.0012807141756638,-0.0826546624302864,-0.0068299430422484,57.85690307617188,96.23796081542967,-10.84284973144531
45441,-0.283355712890625,0.9550933837890624,-0.04644775390625,-0.0012807141756638,-0.0826546624302864,-0.0068299430422484,57.85690307617188,96.23796081542967,-10.84284973144531
45442,-0.283355712890625,0.9550933837890624,-0.04644775390625,-0.0012807141756638,-0.0826546624302864,-0.0068299430422484,57.85690307617188,96.23796081542967,-10.84284973144531
45443,-0.283355712890625,0.957305908203125,-0.042022705078125,-0.0023292007390409,-0.0742848813533783,-0.0056570866145193,57.86236572265625,96.10263061523438,-10.78280639648438
45444,-0.27960205078125,0.96197509765625,-0.03924560546875,-0.0030173615086823,-0.0664890110492706,-0.0016002934426069,57.83685302734375,96.02684020996094,-10.76272583007812
45445,-0.27960205078125,0.96197509765625,-0.03924560546875,-0.0030173615086823,-0.0664890110492706,-0.0016002934426069,57.83685302734375,96.02684020996094,-10.76272583007812
45446,-0.2790069580078125,0.9613189697265624,-0.03924560546875,-0.0054221958853304,-0.0552949458360672,-0.0037262949626892,57.85496520996094,96.17567443847656,-10.81533813476562
45447,-0.2787322998046875,0.954986572265625,-0.0387115478515625,-0.0056171393953263,-0.0339872613549232,-0.0043963463976979,57.82167053222656,96.07508850097656,-10.81309509277344
45448,-0.279449462890625,0.9537506103515624,-0.039886474609375,-0.0094057526439428,-0.0288295168429613,-0.0052147358655929,57.79791259765625,96.04750061035156,-10.8819580078125
45449,-0.279449462890625,0.9537506103515624,-0.039886474609375,-0.0094057526439428,-0.0288295168429613,-0.0052147358655929,57.79791259765625,96.04750061035156,-10.8819580078125
45450,-0.2786407470703125,0.95526123046875,-0.039031982421875,-0.0081854918971657,-0.0263232160359621,-0.0016556872287765,57.81448364257812,96.0482177734375,-10.97599792480469
45451,-0.2796478271484375,0.9577178955078124,-0.03875732421875,-0.007547931279987,-0.0326370373368263,-0.0034003241453319,57.85905456542969,96.1648406982422,-10.98817443847656
45452,-0.2793121337890625,0.9588623046875,-0.039794921875,-0.0017395768081769,-0.0322716534137725,-0.0038488004356622,57.87974548339844,96.08456420898438,-10.66415405273438
45453,-0.2793121337890625,0.9588623046875,-0.039794921875,-0.0017395768081769,-0.0322716534137725,-0.0038488004356622,57.87974548339844,96.08456420898438,-10.66415405273438
45454,-0.2787017822265625,0.9591522216796876,-0.0416412353515625,0.0004335626144893,-0.0245687253773212,-0.0033643713686615,57.86543273925781,96.06980895996094,-10.76821899414062
45455,-0.277313232421875,0.9559478759765624,-0.041839599609375,0.0005486111622303,-0.0195169765502214,-0.0020682108588516,57.81195068359375,96.16879272460938,-10.9385986328125
45456,-0.274627685546875,0.9535675048828124,-0.0446624755859375,-0.0111570470035076,-0.0258134882897138,0.0004628573951777,57.808837890625,96.05577087402344,-10.96295166015625
45457,-0.277008056640625,0.9544677734375,-0.0382232666015625,-0.0173624791204929,-0.0278385560959577,0.0012373046483844,57.820556640625,96.10246276855467,-11.03636169433594
45458,-0.277008056640625,0.9544677734375,-0.0382232666015625,-0.0173624791204929,-0.0278385560959577,0.0012373046483844,57.820556640625,96.10246276855467,-11.03636169433594
45459,-0.2786712646484375,0.956817626953125,-0.0362548828125,-0.0180343948304653,-0.0208948962390422,-0.0011709919199347,57.84523010253906,96.00082397460938,-10.92198181152344
45460,-0.278961181640625,0.9560546875,-0.0342254638671875,-0.0105016427114605,-0.0039119170978665,-0.0016761935548856,57.82199096679688,95.95306396484376,-10.98297119140625
45461,-0.2785186767578125,0.956512451171875,-0.03076171875,-0.0108688930049538,0.0112286861985921,-0.0013137373607605,57.83555603027344,95.987060546875,-10.952392578125
45462,-0.2785186767578125,0.956512451171875,-0.03076171875,-0.0108688930049538,0.0112286861985921,-0.0013137373607605,57.83555603027344,95.987060546875,-10.952392578125
45463,-0.2765655517578125,0.956817626953125,-0.0293121337890625,-0.005100485868752,0.0172253251075744,-0.0015020228456705,57.82145690917969,96.172119140625,-10.90763854980469
45464,-0.276123046875,0.957794189453125,-0.0306243896484375,-0.0066712186671793,0.020905015990138,0.0006596649764105,57.81822204589844,96.19303894042967,-10.82025146484375
45465,-0.276123046875,0.957794189453125,-0.0306243896484375,-0.0066712186671793,0.020905015990138,0.0006596649764105,57.81822204589844,96.19303894042967,-10.82025146484375
45466,-0.2755584716796875,0.9556121826171876,-0.0316162109375,-0.006531935185194,0.0203849002718925,0.0040448089130222,57.85282897949219,96.19302368164062,-10.78811645507812
45467,-0.2750701904296875,0.9568023681640624,-0.0336151123046875,-0.0082978773862123,0.0145669588819146,0.0091769862920045,57.80218505859375,96.2052001953125,-10.89065551757812
45468,-0.2746124267578125,0.95697021484375,-0.0344390869140625,-0.0059843892231583,0.001914812834002,0.0083665866404771,57.86956787109375,96.09701538085938,-11.08218383789062
45469,-0.2746124267578125,0.95697021484375,-0.0344390869140625,-0.0059843892231583,0.001914812834002,0.0083665866404771,57.86956787109375,96.09701538085938,-11.08218383789062
45470,-0.2727813720703125,0.95599365234375,-0.035247802734375,-0.0016096145845949,0.0029875340405851,0.0067990501411259,57.88410949707031,95.99078369140624,-10.8687744140625
45471,-0.272491455078125,0.9575958251953124,-0.0368804931640625,0.0003225088003091,0.0097948396578431,0.0108017809689045,57.9073486328125,96.13766479492188,-10.9263916015625
45472,-0.2720794677734375,0.9567108154296876,-0.037200927734375,0.0027180220931768,0.0114625114947557,0.0058608185499906,57.88348388671875,96.18031311035156,-10.83268737792969
45473,-0.27276611328125,0.957275390625,-0.0390777587890625,0.0012460930738598,0.0125253787264227,0.004176901653409,57.95480346679688,96.10997009277344,-10.90116882324219
45474,-0.271881103515625,0.9575653076171876,-0.0356903076171875,0.0013813816476613,0.019651198759675,0.0031281490810215,58.02931213378906,96.08073425292967,-10.90567016601562
45475,-0.271881103515625,0.9575653076171876,-0.0356903076171875,0.0013813816476613,0.019651198759675,0.0031281490810215,58.02931213378906,96.08073425292967,-10.90567016601562
45476,-0.27301025390625,0.95489501953125,-0.0329132080078125,0.0002735066518653,0.021041102707386,0.007790545001626,58.03305053710938,96.1411590576172,-10.959228515625
45477,-0.27301025390625,0.95489501953125,-0.0329132080078125,0.0002735066518653,0.021041102707386,0.007790545001626,58.03305053710938,96.1411590576172,-10.959228515625
45478,-0.2731475830078125,0.9551544189453124,-0.032440185546875,-0.004857872147113,0.011314439587295,0.0083197150379419,57.96760559082031,96.20469665527344,-11.02915954589844
45479,-0.273834228515625,0.956024169921875,-0.0303192138671875,-0.0064951833337545,0.0083125242963433,0.0100092245265841,57.84010314941406,96.16978454589844,-11.00425720214844
45480,-0.2753143310546875,0.9572296142578124,-0.029815673828125,-0.0092624742537736,0.0022612900938838,0.0048195226117968,57.89045715332031,96.14295959472656,-10.91676330566406
45481,-0.2753143310546875,0.9572296142578124,-0.029815673828125,-0.0092624742537736,0.0022612900938838,0.0048195226117968,57.89045715332031,96.14295959472656,-10.91676330566406
45482,-0.27655029296875,0.95611572265625,-0.0305023193359375,-0.012605806812644,0.0042906189337372,0.0065116952173411,57.90596008300781,96.151611328125,-10.99711608886719
45483,-0.2769012451171875,0.9567413330078124,-0.028289794921875,-0.0139602907001972,0.0008093346259556,0.0007840346079319,57.81600952148438,96.1087646484375,-10.95111083984375
45484,-0.277618408203125,0.9523468017578124,-0.0300445556640625,-0.013880661688745,0.007792143151164,-0.0039044604636728,57.93128967285156,95.98974609375,-11.0850830078125
45485,-0.277618408203125,0.9523468017578124,-0.0300445556640625,-0.013880661688745,0.007792143151164,-0.0039044604636728,57.93128967285156,95.98974609375,-11.0850830078125
45486,-0.2779388427734375,0.951751708984375,-0.029296875,-0.0104944529011845,0.0146551094949245,-0.0032898029312491,57.94198608398438,95.98622131347656,-10.94477844238281
45487,-0.27630615234375,0.95428466796875,-0.0314483642578125,-0.0055953012779355,0.0220863930881023,0.0004359594604466,57.98982238769531,96.01036071777344,-10.95724487304688
45488,-0.27459716796875,0.9590911865234376,-0.0328216552734375,0.0023875238839536,0.0403045453131198,-0.00154649768956,57.95870971679688,96.04273986816406,-10.88825988769531
45489,-0.27459716796875,0.9590911865234376,-0.0328216552734375,0.0023875238839536,0.0403045453131198,-0.00154649768956,57.95870971679688,96.04273986816406,-10.88825988769531
45490,-0.27496337890625,0.9590606689453124,-0.032379150390625,0.0058080879971385,0.0471976064145565,-0.0013720606220886,57.91831970214844,95.90658569335938,-10.86210632324219
45491,-0.275177001953125,0.96112060546875,-0.0314483642578125,0.0080824270844459,0.0486903078854084,0.0031497206073254,57.92680358886719,96.02276611328124,-10.84384155273438
45492,-0.27215576171875,0.96014404296875,-0.0324859619140625,0.0053665358573198,0.0517212525010108,0.0061569618992507,57.88752746582031,95.99151611328124,-10.89691162109375
45493,-0.27215576171875,0.96014404296875,-0.0324859619140625,0.0053665358573198,0.0517212525010108,0.0061569618992507,57.88752746582031,95.99151611328124,-10.89691162109375
45494,-0.2738800048828125,0.95849609375,-0.0292510986328125,0.0015499597648158,0.0473629869520664,0.0053944992832839,57.89476013183594,96.01692199707033,-10.93826293945312
45495,-0.2729339599609375,0.95458984375,-0.0280914306640625,-0.0022202774416655,0.0423746220767498,0.0065551046282052,57.86790466308594,96.12843322753906,-11.03504943847656
45496,-0.27130126953125,0.9520721435546876,-0.03143310546875,-0.0159816294908523,0.0412281304597854,0.0069718891754746,57.94793701171875,95.9345245361328,-11.00914001464844
45497,-0.27130126953125,0.9520721435546876,-0.03143310546875,-0.0159816294908523,0.0412281304597854,0.0069718891754746,57.94793701171875,95.9345245361328,-11.00914001464844
45498,-0.27301025390625,0.9521942138671876,-0.028961181640625,-0.0158340912312269,0.0310604479163885,0.0026370619889348,57.98420715332031,95.95401000976562,-10.91064453125
45499,-0.2747650146484375,0.95526123046875,-0.0299224853515625,-0.0106694223359227,0.0215841215103864,0.0015374429058283,58.05351257324219,95.95074462890624,-10.79472351074219
45500,-0.272369384765625,0.95941162109375,-0.0331573486328125,-0.0022735407110303,0.0050669303163886,0.0033904702868312,58.00643920898438,96.1378173828125,-10.86921691894531
45501,-0.272369384765625,0.95941162109375,-0.0331573486328125,-0.0022735407110303,0.0050669303163886,0.0033904702868312,58.00643920898438,96.1378173828125,-10.86921691894531
45502,-0.2690887451171875,0.9595184326171876,-0.0326080322265625,-0.0012487561907619,0.0054946336895227,0.0030876689124852,57.86500549316406,96.09608459472656,-10.82437133789062
45503,-0.2664794921875,0.95977783203125,-0.030517578125,-0.0016713999211788,-0.0009994843276217,-0.0003384877636563,57.98097229003906,96.0532684326172,-10.76933288574219
45504,-0.2624969482421875,0.960723876953125,-0.0278167724609375,-0.0113277556374669,-0.0044895568862557,-0.0034213629551231,58.01542663574219,96.02157592773438,-10.73696899414062
45505,-0.2624969482421875,0.960723876953125,-0.0278167724609375,-0.0113277556374669,-0.0044895568862557,-0.0034213629551231,58.01542663574219,96.02157592773438,-10.73696899414062
45506,-0.2621002197265625,0.9624176025390624,-0.02490234375,-0.0155033254995942,-0.0106747485697269,-0.0069287461228668,58.02482604980469,96.00016784667967,-10.74723815917969
45507,-0.261444091796875,0.9611053466796876,-0.02490234375,-0.0189132373780012,-0.0189470592886209,-0.0084675205871462,58.04881286621094,96.02688598632812,-10.77676391601562
45508,-0.2678375244140625,0.9510498046875,-0.029510498046875,-0.0209079440683126,-0.0342570394277572,-0.0046275085769593,58.04972839355469,95.98419189453124,-10.64540100097656
45509,-0.2678375244140625,0.9510498046875,-0.029510498046875,-0.0209079440683126,-0.0342570394277572,-0.0046275085769593,58.04972839355469,95.98419189453124,-10.64540100097656
45510,-0.27197265625,0.9485321044921876,-0.029693603515625,-0.0212658736854791,-0.0430438742041587,-0.0009201221400871,58.02967834472656,96.06137084960938,-10.65908813476562
45511,-0.27227783203125,0.9500732421875,-0.029144287109375,-0.0253588855266571,-0.0552571304142475,0.0026421220973134,58.02694702148438,96.103271484375,-10.6981201171875
45512,-0.2696685791015625,0.954010009765625,-0.026519775390625,-0.0070576430298388,-0.0510775633156299,-0.0031925975345075,58.11647033691406,96.09326171875,-10.75456237792969
45513,-0.2696685791015625,0.954010009765625,-0.026519775390625,-0.0070576430298388,-0.0510775633156299,-0.0031925975345075,58.11647033691406,96.09326171875,-10.75456237792969
45514,-0.2701873779296875,0.955291748046875,-0.023345947265625,0.0004008057294413,-0.0404185280203819,-0.0030876689124852,58.08023071289062,96.05931091308594,-10.68199157714844
45515,-0.27154541015625,0.955230712890625,-0.021209716796875,0.0046078013256192,-0.0377758741378784,-0.0061263358220458,58.11099243164062,96.00445556640624,-10.61383056640625
45516,-0.2723541259765625,0.9575958251953124,-0.022735595703125,0.0054064830765128,-0.0315360873937606,-0.0080518014729022,58.09779357910156,96.07272338867188,-10.58076477050781
45517,-0.2740936279296875,0.958251953125,-0.023529052734375,0.0066131614148616,-0.0307749565690755,-0.0083340965211391,58.04135131835938,96.12525939941406,-10.69107055664062
45518,-0.275848388671875,0.958831787109375,-0.0224609375,0.007840346544981,-0.0237777680158615,-0.0062445802614092,58.02566528320312,96.1043701171875,-10.66584777832031
45519,-0.2753753662109375,0.9604034423828124,-0.0236968994140625,0.0104510430246591,-0.0208301804959774,-0.0064818677492439,57.99462890625,96.15260314941406,-10.66813659667969
45520,-0.2779998779296875,0.9582061767578124,-0.0248870849609375,0.0105282748118042,-0.0267178975045681,-0.0018429075134918,58.03501892089844,96.09886169433594,-10.53153991699219
45521,-0.2779998779296875,0.9582061767578124,-0.0248870849609375,0.0105282748118042,-0.0267178975045681,-0.0018429075134918,58.03501892089844,96.09886169433594,-10.53153991699219
45522,-0.277252197265625,0.955902099609375,-0.0267181396484375,0.0110686300322413,-0.0309355445206165,-0.0027286747936159,57.96707153320312,96.0934600830078,-10.76821899414062
45523,-0.2769622802734375,0.9545135498046876,-0.02655029296875,0.0068139638751745,-0.0305808130651712,0.001227450906299,57.98696899414062,96.10801696777344,-10.66024780273438
45524,-0.276031494140625,0.9564666748046876,-0.0277252197265625,-0.0022999059874564,-0.0356567986309528,-0.003271160647273,58.04441833496094,96.04322814941406,-10.74630737304688
45525,-0.276031494140625,0.9564666748046876,-0.0277252197265625,-0.0022999059874564,-0.0356567986309528,-0.003271160647273,58.04441833496094,96.04322814941406,-10.74630737304688
45526,-0.27783203125,0.9562225341796876,-0.0281524658203125,-0.0046362970024347,-0.0287490896880626,-0.0041942121461033,58.1165771484375,95.9892578125,-10.63909912109375
45527,-0.2772064208984375,0.95697021484375,-0.0270233154296875,-0.0041840923950076,-0.0199172496795654,-0.0058941082097589,58.02101135253906,96.172607421875,-10.76829528808594
45528,-0.277618408203125,0.9600372314453124,-0.028167724609375,-0.0040812944062054,-0.012370916083455,-0.0119240377098321,57.98402404785156,96.22718811035156,-10.85906982421875
45529,-0.277618408203125,0.9600372314453124,-0.028167724609375,-0.0040812944062054,-0.012370916083455,-0.0119240377098321,57.98402404785156,96.22718811035156,-10.85906982421875
45530,-0.27667236328125,0.9617156982421876,-0.0263671875,0.0008721852791495,-0.0099927131086587,-0.0138042289763689,58.00959777832031,96.22190856933594,-10.89697265625
45531,-0.2773284912109375,0.962188720703125,-0.0275726318359375,0.0035049861762672,0.0035049861762672,-0.0126161929219961,57.93914794921875,96.1903076171875,-10.82647705078125
45532,-0.2738037109375,0.957794189453125,-0.030914306640625,-0.0051502874121069,-0.0089183934032917,-0.0119533324614167,57.99916076660156,95.99667358398438,-10.56979370117188
45533,-0.2738037109375,0.957794189453125,-0.030914306640625,-0.0051502874121069,-0.0089183934032917,-0.0119533324614167,57.99916076660156,95.99667358398438,-10.56979370117188
45534,-0.2738037109375,0.957794189453125,-0.030914306640625,-0.0051502874121069,-0.0089183934032917,-0.0119533324614167,57.99916076660156,95.99667358398438,-10.56979370117188
45535,-0.272796630859375,0.95782470703125,-0.0313873291015625,-0.0065553709864616,-0.0103711485862731,-0.012172776274383,57.94102478027344,95.97373962402344,-10.34800720214844
45536,-0.2726898193359375,0.953857421875,-0.0307464599609375,-0.0085207838565111,-0.0159595254808664,-0.0118811605498194,58.00173950195312,96.13705444335938,-10.38372802734375
45537,-0.2726898193359375,0.953857421875,-0.0307464599609375,-0.0085207838565111,-0.0159595254808664,-0.0118811605498194,58.00173950195312,96.13705444335938,-10.38372802734375
45538,-0.27325439453125,0.9539031982421876,-0.0319061279296875,-0.0037151097785681,-0.0222299378365278,-0.009345032274723,58.03727722167969,96.09245300292967,-10.4986572265625
45539,-0.2741546630859375,0.9559478759765624,-0.028778076171875,-0.0053188651800155,-0.027017768472433,-0.013898504897952,57.99372863769531,96.08767700195312,-10.58634948730469
45540,-0.2753143310546875,0.9577484130859376,-0.0279998779296875,2.929477159341332e-05,-0.0227071773260831,-0.0075766933150589,58.00155639648438,96.15382385253906,-10.59158325195312
45541,-0.2745513916015625,0.9607391357421876,-0.0291290283203125,0.0034184334799647,-0.0216512326151132,-0.0074443342164158,57.97930908203125,96.16868591308594,-10.65440368652344
45542,-0.27178955078125,0.962615966796875,-0.0274200439453125,0.0113972639665007,-0.0138178113847971,-0.0063580307178199,57.86857604980469,96.14811706542967,-10.63973999023438
45543,-0.26934814453125,0.9621429443359376,-0.0286712646484375,0.0132532212883234,-0.0158564615994691,-0.0091644702479243,57.7862548828125,96.24664306640624,-10.81770324707031
45544,-0.2719879150390625,0.95367431640625,-0.0279998779296875,0.0224168915301561,0.0027374632190912,-0.0094393081963062,57.81173706054688,96.29261779785156,-10.95147705078125
45545,-0.2719879150390625,0.95367431640625,-0.0279998779296875,0.0224168915301561,0.0027374632190912,-0.0094393081963062,57.81173706054688,96.29261779785156,-10.95147705078125
45546,-0.275054931640625,0.9502716064453124,-0.0295867919921875,0.0230938680469989,0.004776379559189,-0.0093753924593329,57.84184265136719,96.1834716796875,-10.85675048828125
45547,-0.2767486572265625,0.949737548828125,-0.029388427734375,0.026096848770976,0.0022232069168239,-0.0099101550877094,57.80130004882812,96.29336547851562,-10.81520080566406
45548,-0.27423095703125,0.9524383544921876,-0.0286102294921875,0.0293589532375335,0.0073953317478299,-0.0114076500758528,57.82501220703125,96.29898071289062,-10.56019592285156
45549,-0.27423095703125,0.9524383544921876,-0.0286102294921875,0.0293589532375335,0.0073953317478299,-0.0114076500758528,57.82501220703125,96.29898071289062,-10.56019592285156
45550,-0.2719879150390625,0.95465087890625,-0.0274200439453125,0.0263711530715227,0.0069148978218436,-0.0140590937808156,57.771728515625,96.25067138671876,-10.78912353515625
45551,-0.272613525390625,0.9562835693359376,-0.0262451171875,0.0270646400749683,0.0038967372383922,-0.0103831319138407,57.82754516601562,96.18270874023438,-10.87733459472656
45552,-0.2743072509765625,0.9599151611328124,-0.0218505859375,0.0219060983508825,-0.0085862977430224,-0.0092560825869441,57.72856140136719,96.12608337402344,-10.97908020019531
45553,-0.2743072509765625,0.9599151611328124,-0.0218505859375,0.0219060983508825,-0.0085862977430224,-0.0092560825869441,57.72856140136719,96.12608337402344,-10.97908020019531
45554,-0.2742919921875,0.9580841064453124,-0.0224151611328125,0.0230073146522045,-0.0081380875781178,-0.0082294335588812,57.72669982910156,96.18246459960938,-10.97825622558594
45555,-0.272308349609375,0.9556884765625,-0.025146484375,0.0207012835890054,-0.0182461161166429,-0.0039281626231968,57.71841430664062,96.18521118164062,-10.93603515625
45556,-0.2732696533203125,0.9562225341796876,-0.0295562744140625,0.0202016737312078,-0.0101399859413504,-0.0111341439187526,57.83842468261719,96.18685913085938,-10.67904663085938
45557,-0.2732696533203125,0.9562225341796876,-0.0295562744140625,0.0202016737312078,-0.0101399859413504,-0.0111341439187526,57.83842468261719,96.18685913085938,-10.67904663085938
45558,-0.27886962890625,0.9577178955078124,-0.0322418212890625,0.0258427821099758,0.0058586881496012,-0.0180791355669498,57.78453063964844,96.18565368652344,-10.715087890625
45559,-0.285736083984375,0.959228515625,-0.0367279052734375,0.0323941595852375,0.0215955730527639,-0.0194272268563509,57.82154846191406,96.10552978515624,-10.65235900878906
45560,-0.2935943603515625,0.966827392578125,-0.050048828125,0.0370584204792976,0.0596617311239242,-0.0201191157102584,57.83575439453125,96.25994873046876,-10.82354736328125
45561,-0.2935943603515625,0.966827392578125,-0.050048828125,0.0370584204792976,0.0596617311239242,-0.0201191157102584,57.83575439453125,96.25994873046876,-10.82354736328125
45562,-0.2922821044921875,0.970794677734375,-0.055938720703125,0.0364922322332859,0.0685247331857681,-0.0142130246385932,57.76521301269531,96.2369384765625,-10.78993225097656
45563,-0.288665771484375,0.9722900390625,-0.05987548828125,0.0363675951957702,0.0857244953513145,-0.0048770466819405,57.78681945800781,96.29450988769533,-10.78692626953125
45564,-0.2801666259765625,0.964874267578125,-0.0625457763671875,0.0354876853525638,0.1136503964662552,0.0108289457857608,57.74696350097656,96.19123840332033,-10.72674560546875
45565,-0.2801666259765625,0.964874267578125,-0.0625457763671875,0.0354876853525638,0.1136503964662552,0.0108289457857608,57.74696350097656,96.19123840332033,-10.72674560546875
45566,-0.2785186767578125,0.9604644775390624,-0.0609588623046875,0.036001943051815,0.1142165884375572,0.0101751396432519,57.75312805175781,96.0955047607422,-10.60984802246094
45567,-0.27740478515625,0.9573822021484376,-0.053955078125,0.0368115454912185,0.1178241074085236,0.014224742539227,57.76690673828125,96.08084106445312,-10.60142517089844
45568,-0.272003173828125,0.9503631591796876,-0.0387115478515625,0.0462117046117782,0.1275145560503006,0.0088693918660283,57.81565856933594,96.2083740234375,-11.07492065429688
45569,-0.2679901123046875,0.947174072265625,-0.0317230224609375,0.05290262773633,0.1297097951173782,0.0053966296836733,57.81352233886719,96.18888854980467,-11.19747924804688
45570,-0.2679901123046875,0.947174072265625,-0.0317230224609375,0.05290262773633,0.1297097951173782,0.0053966296836733,57.81352233886719,96.18888854980467,-11.19747924804688
45571,-0.263275146484375,0.9466400146484376,-0.028839111328125,0.0541319437325,0.1371389478445053,0.0042477417737245,57.74192810058594,96.2236785888672,-11.20649719238281
45572,-0.259124755859375,0.9521484375,-0.0251617431640625,0.0561085417866706,0.1293425410985947,0.0027803401462733,57.8204345703125,96.15597534179688,-11.29937744140625
45573,-0.259124755859375,0.9521484375,-0.0251617431640625,0.0561085417866706,0.1293425410985947,0.0027803401462733,57.8204345703125,96.15597534179688,-11.29937744140625
45574,-0.2565155029296875,0.957794189453125,-0.0259246826171875,0.0516674555838108,0.122555211186409,0.0021981731988489,57.80715942382812,96.15338134765624,-11.28190612792969
45575,-0.255035400390625,0.9599609375,-0.0275726318359375,0.0536525771021843,0.1077765300869942,0.0072448635473847,57.77723693847656,96.16163635253906,-11.27510070800781
45576,-0.2573699951171875,0.959716796875,-0.0316009521484375,0.0517412237823009,0.0879160091280937,0.0042482744902372,57.75592041015625,96.15924072265624,-11.18722534179688
45577,-0.2573699951171875,0.959716796875,-0.0316009521484375,0.0517412237823009,0.0879160091280937,0.0042482744902372,57.75592041015625,96.15924072265624,-11.18722534179688
45578,-0.257965087890625,0.958648681640625,-0.036895751953125,0.0509159117937088,0.0847636237740516,0.000255663471762,57.7772216796875,96.11477661132812,-11.26866149902344
45579,-0.259246826171875,0.960113525390625,-0.0410614013671875,0.0541684292256832,0.0753685235977172,-0.0026359967887401,57.79901123046875,96.1075439453125,-11.2119140625
45580,-0.2653961181640625,0.9575347900390624,-0.0458984375,0.0527321882545948,0.0610854588449001,-0.0162559356540441,57.77067565917969,96.15945434570312,-11.19328308105469
45581,-0.2653961181640625,0.9575347900390624,-0.0458984375,0.0527321882545948,0.0610854588449001,-0.0162559356540441,57.77067565917969,96.15945434570312,-11.19328308105469
45582,-0.279022216796875,0.951202392578125,-0.05352783203125,0.0563727281987667,0.0598606690764427,-0.0184253454208374,57.77175903320312,96.16506958007812,-11.30885314941406
45583,-0.279022216796875,0.951202392578125,-0.05352783203125,0.0563727281987667,0.0598606690764427,-0.0184253454208374,57.77175903320312,96.16506958007812,-11.30885314941406
45584,-0.277252197265625,0.9470977783203124,-0.0529632568359375,0.0374331250786781,0.0352389477193355,-0.0191819500178098,57.78758239746094,96.15492248535156,-11.44776916503906
45585,-0.277252197265625,0.9470977783203124,-0.0529632568359375,0.0374331250786781,0.0352389477193355,-0.0191819500178098,57.78758239746094,96.15492248535156,-11.44776916503906
45586,-0.278533935546875,0.946075439453125,-0.04736328125,0.0331526286900043,0.0379668213427066,-0.0208970252424478,57.76850891113281,96.16769409179688,-11.48484802246094
45587,-0.27874755859375,0.946075439453125,-0.042999267578125,0.025781262665987,0.0374259352684021,-0.0223644282668829,57.75151062011719,96.18522644042967,-11.53315734863281
45588,-0.2801361083984375,0.9540557861328124,-0.0373077392578125,0.0123602636158466,0.0316844247281551,-0.0198749043047428,57.79693603515625,96.22976684570312,-11.43673706054688
45589,-0.2801361083984375,0.9540557861328124,-0.0373077392578125,0.0123602636158466,0.0316844247281551,-0.0198749043047428,57.79693603515625,96.22976684570312,-11.43673706054688
45590,-0.2801513671875,0.95751953125,-0.03497314453125,0.0111248223111033,0.0282329693436622,-0.0213337838649749,57.687744140625,96.20106506347656,-11.50616455078125
45591,-0.2796173095703125,0.95904541015625,-0.0349884033203125,0.0104957837611436,0.0426510572433471,-0.0184136275202035,57.68612670898438,96.16896057128906,-11.48703002929688
45592,-0.28057861328125,0.9573516845703124,-0.0372161865234375,0.0130553478375077,0.0463283509016037,-0.0161344949156045,57.693603515625,96.1789093017578,-11.59523010253906
45593,-0.28057861328125,0.9573516845703124,-0.0372161865234375,0.0130553478375077,0.0463283509016037,-0.0161344949156045,57.693603515625,96.1789093017578,-11.59523010253906
45594,-0.280517578125,0.9547119140625,-0.03997802734375,0.0146029107272625,0.0480564758181572,-0.0178450439125299,57.71493530273438,96.2016143798828,-11.58879089355469
45595,-0.2798309326171875,0.9541168212890624,-0.043426513671875,0.0169419646263122,0.0507478639483451,-0.0162732452154159,57.70042419433594,96.26565551757812,-11.52970886230469
45596,-0.2760009765625,0.9525146484375,-0.0501708984375,0.0153179699555039,0.0590422824025154,-0.0124156568199396,57.70947265625,96.28736877441406,-11.538818359375
45597,-0.2760009765625,0.9525146484375,-0.0501708984375,0.0153179699555039,0.0590422824025154,-0.0124156568199396,57.70947265625,96.28736877441406,-11.538818359375
45598,-0.2707977294921875,0.9533538818359376,-0.05145263671875,0.011453989893198,0.0505886077880859,-0.0137227363884449,57.63484191894531,96.29515075683594,-11.50492858886719
45599,-0.267913818359375,0.9525146484375,-0.0537109375,0.0052429651841521,0.045509960502386,-0.0124422889202833,57.66053771972656,96.31100463867188,-11.56512451171875
45600,-0.2660980224609375,0.952392578125,-0.0550537109375,7.776429993100464e-05,0.0334940440952777,-0.0126031432300806,57.66886901855469,96.24554443359376,-11.52653503417969
45601,-0.2660980224609375,0.952392578125,-0.0550537109375,7.776429993100464e-05,0.0334940440952777,-0.0126031432300806,57.66886901855469,96.24554443359376,-11.52653503417969
45602,-0.263946533203125,0.9552459716796876,-0.0540008544921875,-0.0100180134177207,0.0299586970359087,-0.0137765323743224,57.65350341796875,96.2689971923828,-11.65240478515625
45603,-0.2610321044921875,0.9571075439453124,-0.0558624267578125,-0.0204528104513883,0.0172050856053829,-0.0119948778301477,57.64508056640625,96.14389038085938,-11.74594116210938
45604,-0.2598724365234375,0.9605865478515624,-0.0565643310546875,-0.0267085768282413,0.0049241846427321,-0.0134785240516066,57.63935852050781,96.28477478027344,-11.58184814453125
45605,-0.2598724365234375,0.9605865478515624,-0.0565643310546875,-0.0267085768282413,0.0049241846427321,-0.0134785240516066,57.63935852050781,96.28477478027344,-11.58184814453125
45606,-0.258758544921875,0.959075927734375,-0.0567779541015625,-0.0235729701817035,0.0025153555907309,-0.0126180574297905,57.57305908203125,96.44747924804688,-11.77352905273438
45607,-0.2576751708984375,0.9577178955078124,-0.0579833984375,-0.0222310032695531,-0.0089729884639382,-0.0143847977742552,57.55984497070312,96.35467529296876,-11.78297424316406
45608,-0.25341796875,0.9594268798828124,-0.0579071044921875,-0.025488581508398,-0.0341752804815769,-0.0130691966041922,57.60807800292969,96.32382202148438,-11.63742065429688
45609,-0.25341796875,0.9594268798828124,-0.0579071044921875,-0.025488581508398,-0.0341752804815769,-0.0130691966041922,57.60807800292969,96.32382202148438,-11.63742065429688
45610,-0.25177001953125,0.96197509765625,-0.051025390625,-0.0186250824481248,-0.052486378699541,-0.0116678411141037,57.65016174316406,96.12464904785156,-11.55276489257812
45611,-0.25177001953125,0.96197509765625,-0.051025390625,-0.0186250824481248,-0.052486378699541,-0.0116678411141037,57.65016174316406,96.12464904785156,-11.55276489257812
45612,-0.2515106201171875,0.962890625,-0.0511627197265625,-0.014600514434278,-0.060806892812252,-0.0116843525320291,57.67919921875,96.05075073242188,-11.42997741699219
45613,-0.2533416748046875,0.9637603759765624,-0.0486602783203125,-0.0124060697853565,-0.068701833486557,-0.0136412438005209,57.6978759765625,96.08653259277344,-11.33580017089844
45614,-0.2545318603515625,0.9629974365234376,-0.0475311279296875,-0.0092904372140765,-0.0685020983219146,-0.007896538823843,57.62464904785156,96.20281982421876,-11.43092346191406
45615,-0.2561798095703125,0.963653564453125,-0.04998779296875,-0.003182477550581,-0.0771179571747779,-0.0087974863126873,57.64045715332031,96.30613708496094,-11.36064147949219
45616,-0.258880615234375,0.9595794677734376,-0.0479583740234375,0.0039795613847672,-0.0889285430312156,-0.0085130603983998,57.60043334960938,96.37779235839844,-11.4754638671875
45617,-0.259796142578125,0.955963134765625,-0.047393798828125,0.0051596080884337,-0.089034803211689,-0.0095801893621683,57.64703369140625,96.292724609375,-11.49331665039062
45618,-0.259857177734375,0.9544525146484376,-0.04449462890625,0.0091642038896679,-0.0953906998038291,-0.0087700560688972,57.65879821777344,96.408203125,-11.47085571289062
45619,-0.2611236572265625,0.955047607421875,-0.0429840087890625,0.0090230563655495,-0.1011854708194733,-0.008608135394752,57.71000671386719,96.39906311035156,-11.43502807617188
45620,-0.2637786865234375,0.9576873779296876,-0.0414581298828125,0.0120550645515322,-0.1019037291407585,-0.0093817841261625,57.78187561035156,96.37811279296876,-11.4190673828125
45621,-0.2637786865234375,0.9576873779296876,-0.0414581298828125,0.0120550645515322,-0.1019037291407585,-0.0093817841261625,57.78187561035156,96.37811279296876,-11.4190673828125
45622,-0.2657623291015625,0.960906982421875,-0.04046630859375,0.0148761514574289,-0.1024709790945053,-0.0087367659434676,57.74700927734375,96.46229553222656,-11.47344970703125
45623,-0.2687835693359375,0.96221923828125,-0.04376220703125,0.0171387735754251,-0.0985769033432006,-0.0120934145525097,57.57888793945312,96.52629089355467,-11.59648132324219
45624,-0.2714080810546875,0.962158203125,-0.045074462890625,0.0158966742455959,-0.0960333198308944,-0.0117024620994925,57.56875610351562,96.55894470214844,-11.562744140625
45625,-0.2714080810546875,0.962158203125,-0.045074462890625,0.0158966742455959,-0.0960333198308944,-0.0117024620994925,57.56875610351562,96.55894470214844,-11.562744140625
45626,-0.273529052734375,0.957733154296875,-0.0484619140625,0.0109264170750975,-0.0944354236125946,-0.0126044750213623,57.63575744628906,96.36233520507812,-11.58979797363281
45627,-0.273529052734375,0.957733154296875,-0.0484619140625,0.0109264170750975,-0.0944354236125946,-0.0126044750213623,57.63575744628906,96.36233520507812,-11.58979797363281
45628,-0.273681640625,0.954620361328125,-0.0481109619140625,0.0001470064889872,-0.0946514084935188,-0.0121751734986901,57.55618286132812,96.2331085205078,-11.35301208496094
45629,-0.273681640625,0.954620361328125,-0.0481109619140625,0.0001470064889872,-0.0946514084935188,-0.0121751734986901,57.55618286132812,96.2331085205078,-11.35301208496094
45630,-0.2710113525390625,0.9547119140625,-0.0452728271484375,-0.0008522115531377,-0.0900987312197685,-0.0115951374173164,57.55097961425781,96.22889709472656,-11.41326904296875
45631,-0.269927978515625,0.9556884765625,-0.0432281494140625,0.002510295715183,-0.0829686522483825,-0.0134023576974868,57.58415222167969,96.35652160644533,-11.48359680175781
45632,-0.271759033203125,0.95709228515625,-0.042724609375,0.0055873119272291,-0.0704009309411048,-0.0172618106007576,57.550537109375,96.4166259765625,-11.53291320800781
45633,-0.272369384765625,0.9569244384765624,-0.042633056640625,0.0077061229385435,-0.0697433948516845,-0.0164159908890724,57.54570007324219,96.50704956054688,-11.46482849121094
45634,-0.272369384765625,0.9569244384765624,-0.042633056640625,0.0077061229385435,-0.0697433948516845,-0.0164159908890724,57.54570007324219,96.50704956054688,-11.46482849121094
45635,-0.273773193359375,0.955718994140625,-0.0439605712890625,0.005887450184673,-0.0708243697881698,-0.015687083825469,57.658447265625,96.34962463378906,-11.19696044921875
45636,-0.2767333984375,0.957977294921875,-0.0452728271484375,0.0072904033586382,-0.068551629781723,-0.0163384936749935,57.5953369140625,96.2459716796875,-11.17160034179688
45637,-0.2767333984375,0.957977294921875,-0.0452728271484375,0.0072904033586382,-0.068551629781723,-0.0163384936749935,57.5953369140625,96.2459716796875,-11.17160034179688
45638,-0.276123046875,0.95904541015625,-0.045135498046875,0.0061236727051436,-0.0667689070105552,-0.0149605739861726,57.47325134277344,96.34288024902344,-11.37615966796875
45639,-0.2762603759765625,0.9585723876953124,-0.04638671875,0.0074693677015602,-0.0574531741440296,-0.0138942440971732,57.51123046875,96.3139190673828,-11.50003051757812
45640,-0.274871826171875,0.95245361328125,-0.049072265625,0.0061580273322761,-0.0481592714786529,-0.017754228785634,57.50822448730469,96.54188537597656,-11.5921630859375
45641,-0.274871826171875,0.95245361328125,-0.049072265625,0.0061580273322761,-0.0481592714786529,-0.017754228785634,57.50822448730469,96.54188537597656,-11.5921630859375
45642,-0.2738800048828125,0.9530792236328124,-0.049896240234375,0.0052498895674943,-0.0483044162392616,-0.0147275468334555,57.50080871582031,96.46665954589844,-11.51022338867188
45643,-0.2725982666015625,0.9526519775390624,-0.0489349365234375,-0.0026258768048137,-0.0473107919096946,-0.0150881391018629,57.48403930664062,96.41970825195312,-11.475830078125
45644,-0.27203369140625,0.9543914794921876,-0.0464935302734375,-0.0041990061290562,-0.0410523600876331,-0.0166785791516304,57.50541687011719,96.3979034423828,-11.52279663085938
45645,-0.27203369140625,0.9543914794921876,-0.0464935302734375,-0.0041990061290562,-0.0410523600876331,-0.0166785791516304,57.50541687011719,96.3979034423828,-11.52279663085938
45646,-0.27203369140625,0.954864501953125,-0.0459442138671875,-0.0086526107043027,-0.0361244492232799,-0.0208011530339717,57.563720703125,96.29400634765624,-11.47799682617188
45647,-0.27191162109375,0.9581298828125,-0.0424346923828125,-0.0137520311400294,-0.0377377904951572,-0.0202453508973121,57.57501220703125,96.34588623046876,-11.54228210449219
45648,-0.273590087890625,0.9588623046875,-0.0378265380859375,-0.0131610753014683,-0.03763073310256,-0.0248821806162595,57.46685791015625,96.43051147460938,-11.52967834472656
45649,-0.273590087890625,0.9588623046875,-0.0378265380859375,-0.0131610753014683,-0.03763073310256,-0.0248821806162595,57.46685791015625,96.43051147460938,-11.52967834472656
45650,-0.2735443115234375,0.95843505859375,-0.0355987548828125,-0.0107746170833706,-0.0365958288311958,-0.0231852140277624,57.48324584960938,96.42930603027344,-11.69392395019531
45651,-0.2760009765625,0.9593658447265624,-0.034149169921875,-0.0063220779411494,-0.0407413057982921,-0.0248832460492849,57.52032470703125,96.39739990234376,-11.55551147460938
45652,-0.276153564453125,0.9594573974609376,-0.0343017578125,-0.0012644688831642,-0.0442766509950161,-0.0239117238670587,57.51240539550781,96.4409637451172,-11.43695068359375
45653,-0.276153564453125,0.9594573974609376,-0.0343017578125,-0.0012644688831642,-0.0442766509950161,-0.0239117238670587,57.51240539550781,96.4409637451172,-11.43695068359375
45654,-0.2764739990234375,0.9588775634765624,-0.0370025634765625,0.0009755159262567,-0.048938512802124,-0.0246941614896059,57.50302124023438,96.36131286621094,-11.412109375
45655,-0.2766265869140625,0.9579620361328124,-0.03607177734375,-0.0008588694618083,-0.047575507313013,-0.0259346608072519,57.47554016113281,96.3345184326172,-11.49020385742188
45656,-0.2768402099609375,0.9565582275390624,-0.0364837646484375,-0.0015366439474746,-0.0406459644436836,-0.0272907428443431,57.34754943847656,96.3511962890625,-11.46572875976562
45657,-0.2768402099609375,0.9565582275390624,-0.0364837646484375,-0.0015366439474746,-0.0406459644436836,-0.0272907428443431,57.34754943847656,96.3511962890625,-11.46572875976562
45658,-0.280487060546875,0.9554443359375,-0.0359039306640625,0.0031225562561303,-0.036683976650238,-0.0274918116629123,57.45558166503906,96.43617248535156,-11.6107177734375
45659,-0.284027099609375,0.954437255859375,-0.0392913818359375,0.0073990602977573,-0.0332309231162071,-0.0263810064643621,57.43263244628906,96.40951538085938,-11.65058898925781
45660,-0.2877960205078125,0.946990966796875,-0.04010009765625,0.0126321716234087,-0.0173715334385633,-0.0231716316193342,57.42282104492188,96.39523315429688,-11.6275634765625
45661,-0.2877960205078125,0.946990966796875,-0.04010009765625,0.0126321716234087,-0.0173715334385633,-0.0231716316193342,57.42282104492188,96.39523315429688,-11.6275634765625
45662,-0.2852020263671875,0.9481658935546876,-0.0386199951171875,0.0071607073768973,-0.0109072420746088,-0.0218062289059162,57.39108276367188,96.52301025390624,-11.4774169921875
45663,-0.28515625,0.9497528076171876,-0.037811279296875,0.0045734466984868,-0.0187324080616235,-0.0213524270802736,57.43402099609375,96.49278259277344,-11.55027770996094
45664,-0.28631591796875,0.95159912109375,-0.0355224609375,-0.0025883263442665,-0.0194546580314636,-0.0187055114656686,57.32852172851562,96.44967651367188,-11.584228515625
45665,-0.28631591796875,0.95159912109375,-0.0355224609375,-0.0025883263442665,-0.0194546580314636,-0.0187055114656686,57.32852172851562,96.44967651367188,-11.584228515625
45666,-0.288177490234375,0.953826904296875,-0.0341339111328125,-0.008780175819993,-0.0226848050951957,-0.0167803112417459,57.31993103027344,96.45735168457033,-11.58723449707031
45667,-0.2904052734375,0.9542999267578124,-0.033477783203125,-0.0116228340193629,-0.024040887132287,-0.0184738151729106,57.32952880859375,96.46327209472656,-11.55873107910156
45668,-0.2938690185546875,0.9550323486328124,-0.03155517578125,-0.0169451609253883,-0.0115892784669995,-0.0158913489431142,57.32398986816406,96.36634826660156,-11.30479431152344
45669,-0.2938690185546875,0.9550323486328124,-0.03155517578125,-0.0169451609253883,-0.0115892784669995,-0.0158913489431142,57.32398986816406,96.36634826660156,-11.30479431152344
45670,-0.2934722900390625,0.9527587890625,-0.0316619873046875,-0.0139725413173437,-0.0061580273322761,-0.0141003727912902,57.41009521484375,96.30970764160156,-11.25613403320312
45671,-0.293548583984375,0.952545166015625,-0.031524658203125,-0.012753346003592,0.0028969866689294,-0.0156575236469507,57.49789428710938,96.33265686035156,-11.08926391601562
45672,-0.2918853759765625,0.94854736328125,-0.031280517578125,-0.0159826949238777,0.0193835515528917,-0.0184162911027669,57.3818359375,96.3089599609375,-11.26045227050781
45673,-0.2918853759765625,0.94854736328125,-0.031280517578125,-0.0159826949238777,0.0193835515528917,-0.0184162911027669,57.3818359375,96.3089599609375,-11.26045227050781
45674,-0.2910003662109375,0.9459991455078124,-0.033355712890625,-0.0213007610291242,0.0225484520196914,-0.0175731349736452,57.39761352539062,96.28829956054688,-11.22538757324219
45675,-0.2898101806640625,0.94659423828125,-0.0342254638671875,-0.0282654594630003,0.0215162113308906,-0.0176333226263523,57.50271606445312,96.3708038330078,-11.06068420410156
45676,-0.2873992919921875,0.9523468017578124,-0.03216552734375,-0.0380941219627857,0.0111573133617639,-0.020216055214405,57.36787414550781,96.50387573242188,-11.06101989746094
45677,-0.2873992919921875,0.9523468017578124,-0.03216552734375,-0.0380941219627857,0.0111573133617639,-0.020216055214405,57.36787414550781,96.50387573242188,-11.06101989746094
45678,-0.2856597900390625,0.954345703125,-0.03289794921875,-0.0371798574924469,0.0102875251322984,-0.0220871921628713,57.36787414550781,96.50387573242188,-11.06101989746094
45679,-0.28466796875,0.955535888671875,-0.03363037109375,-0.0381055735051631,0.0180359911173582,-0.0206320416182279,57.30718994140625,96.37074279785156,-10.87796020507812
45680,-0.2847900390625,0.958648681640625,-0.0327911376953125,-0.0286636017262935,0.0239391550421714,-0.0236190427094698,57.36843872070312,96.50326538085938,-10.96612548828125
45681,-0.2847900390625,0.958648681640625,-0.0327911376953125,-0.0286636017262935,0.0239391550421714,-0.0236190427094698,57.36843872070312,96.50326538085938,-10.96612548828125
45682,-0.286712646484375,0.957244873046875,-0.034698486328125,-0.0223942548036575,0.0281890276819467,-0.0236565936356782,57.35260009765625,96.38052368164062,-10.95799255371094
45683,-0.2863311767578125,0.955902099609375,-0.0341339111328125,-0.0164681896567344,0.0365039482712745,-0.0212166048586368,57.33139038085938,96.49159240722656,-10.85223388671875
45684,-0.2839813232421875,0.9533538818359376,-0.02947998046875,-0.0104856640100479,0.0403828434646129,-0.0200964789837598,57.29557800292969,96.40602111816406,-10.82760620117188
45685,-0.2839813232421875,0.9533538818359376,-0.02947998046875,-0.0104856640100479,0.0403828434646129,-0.0200964789837598,57.29557800292969,96.40602111816406,-10.82760620117188
45686,-0.282928466796875,0.952972412109375,-0.0275421142578125,-0.0118265654891729,0.0372754670679569,-0.0201856959611177,57.28720092773438,96.35067749023438,-10.79008483886719
45687,-0.282745361328125,0.9539947509765624,-0.026031494140625,-0.011624963954091,0.0273445397615432,-0.0207625366747379,57.27272033691406,96.34426879882812,-10.61860656738281
45688,-0.28338623046875,0.9554901123046876,-0.0283050537109375,-0.0096877813339233,0.0242081340402364,-0.0180628895759582,57.27745056152344,96.48123168945312,-10.66450500488281
