time_idx,accelerometerAccelerationX(G),accelerometerAccelerationY(G),accelerometerAccelerationZ(G),gyroRotationX(rad/s),gyroRotationY(rad/s),gyroRotationZ(rad/s),magnetometerX(µT),magnetometerY(µT),magnetometerZ(µT)
280000,-0.4621734619140625,1.062469482421875,0.099090576171875,-1.120334625244141,0.2028236836194992,-0.114896222949028,39.79042053222656,99.40396118164062,-17.82403564453125
280001,-0.58978271484375,1.08062744140625,0.1376495361328125,-1.091318964958191,0.0801678076386451,-0.3743384480476379,39.53860473632812,99.33755493164062,-16.98384094238281
280002,-0.6269073486328125,1.053924560546875,0.1902313232421875,-1.082747578620911,0.1171423345804214,-0.4917020797729492,39.37260437011719,99.38241577148438,-16.51336669921875
280003,-0.65216064453125,1.003829956054688,0.2350616455078125,-1.102663516998291,0.2239939570426941,-0.5824860334396362,39.03555297851562,99.28781127929688,-16.03070068359375
280004,-0.684600830078125,0.9488677978515624,0.2125396728515625,-1.097235441207886,0.2936848700046539,-0.6397280693054199,38.71286010742188,99.20143127441406,-15.51995849609375
280005,-0.726898193359375,0.9136505126953124,0.1362457275390625,-1.03982937335968,0.3051234185695648,-0.6855828762054443,38.42889404296875,98.98147583007812,-14.95927429199219
280006,-0.7469482421875,0.8584136962890625,-0.01788330078125,-0.9338946938514708,0.2284611314535141,-0.7202958464622498,38.12391662597656,98.95758056640624,-14.52590942382812
280007,-0.731201171875,0.8199462890625,-0.1820068359375,-0.8218866586685181,0.091991975903511,-0.7232913970947266,37.70516967773438,98.90185546875,-14.0467529296875
280008,-0.731201171875,0.8199462890625,-0.1820068359375,-0.8218866586685181,0.091991975903511,-0.7232913970947266,37.70516967773438,98.90185546875,-14.0467529296875
280009,-0.57745361328125,0.8614959716796875,-0.332611083984375,-0.6506896018981934,-0.1034209281206131,-0.6430572867393494,36.84321594238281,98.74838256835938,-13.376708984375
280010,-0.57745361328125,0.8614959716796875,-0.332611083984375,-0.6506896018981934,-0.1034209281206131,-0.6430572867393494,36.84321594238281,98.74838256835938,-13.376708984375
280011,-0.479827880859375,1.006149291992188,-0.3488616943359375,-0.4497120380401611,0.0953936278820037,-0.5130771398544312,35.97557067871094,98.40386962890624,-12.54750061035156
280012,-0.47662353515625,1.063064575195312,-0.403564453125,-0.3644219040870667,0.2023424506187439,-0.4549491405487061,35.61337280273438,98.1963348388672,-12.35591125488281
280013,-0.5074005126953125,1.066986083984375,-0.4463043212890625,-0.3146013617515564,0.2513587176799774,-0.3929715156555176,35.27690124511719,98.0495147705078,-12.0242919921875
280014,-0.560150146484375,1.029388427734375,-0.4698944091796875,-0.2804276645183563,0.2755058705806732,-0.3012362718582153,35.01869201660156,97.87461853027344,-11.84182739257812
280015,-0.6020050048828125,0.9718475341796876,-0.5016937255859375,-0.2198250442743301,0.2687526345252991,-0.1658046841621399,34.77973937988281,97.76358032226562,-11.64511108398438
280016,-0.6020050048828125,0.9718475341796876,-0.5016937255859375,-0.2198250442743301,0.2687526345252991,-0.1658046841621399,34.77973937988281,97.76358032226562,-11.64511108398438
280017,-0.62847900390625,0.8905029296875,-0.6188507080078125,-0.06334088742733,0.3638549149036407,0.0999415144324302,34.56263732910156,97.60221862792967,-11.40667724609375
280018,-0.5727691650390625,0.883544921875,-0.678558349609375,0.0204727835953235,0.4454624354839325,0.2130880355834961,34.53807067871094,97.6970672607422,-11.37875366210938
280019,-0.4937744140625,0.907745361328125,-0.6945343017578125,0.0799715295433998,0.5374022126197815,0.3239887356758118,34.57914733886719,97.65643310546876,-11.32736206054688
280020,-0.43035888671875,0.9627227783203124,-0.6772003173828125,0.1124775409698486,0.6549195051193237,0.3676584362983704,34.54090881347656,97.74130249023438,-11.34608459472656
280021,-0.404052734375,1.007598876953125,-0.6511077880859375,0.1372462660074234,0.8232760429382324,0.4176110923290253,34.73237609863281,97.83201599121094,-11.44715881347656
280022,-0.404052734375,1.007598876953125,-0.6511077880859375,0.1372462660074234,0.8232760429382324,0.4176110923290253,34.73237609863281,97.83201599121094,-11.44715881347656
280023,-0.563812255859375,1.082550048828125,-0.6175384521484375,0.1940432488918304,0.8982086181640625,0.4015058875083923,35.14430236816406,98.27963256835938,-11.68817138671875
280024,-0.563812255859375,1.082550048828125,-0.6175384521484375,0.1940432488918304,0.8982086181640625,0.4015058875083923,35.14430236816406,98.27963256835938,-11.68817138671875
280025,-0.6356353759765625,1.080108642578125,-0.59857177734375,0.1798675060272217,0.8815696835517883,0.3311358392238617,35.31480407714844,98.36859130859376,-11.97946166992188
280026,-0.694183349609375,1.054946899414062,-0.5570831298828125,0.1180384904146194,0.8292380571365356,0.2264986485242844,35.35243225097656,98.4937744140625,-12.24664306640625
280027,-0.7355499267578125,0.986846923828125,-0.4877471923828125,0.0226496513932943,0.7347158193588257,0.1340171843767166,35.51832580566406,98.45303344726562,-12.46800231933594
280028,-0.7355499267578125,0.986846923828125,-0.4877471923828125,0.0226496513932943,0.7347158193588257,0.1340171843767166,35.51832580566406,98.45303344726562,-12.46800231933594
280029,-0.7378387451171875,0.7998809814453125,-0.219024658203125,0.0434595942497253,0.7342827916145325,0.0876646041870117,35.62477111816406,98.80087280273438,-12.81620788574219
280030,-0.7147369384765625,0.79443359375,-0.1318511962890625,0.2416065037250519,0.9820387959480286,0.1168232858181,35.67886352539062,98.9131317138672,-12.903564453125
280031,-0.65966796875,0.7606658935546875,-0.14532470703125,0.3521673679351807,1.002255916595459,0.1962952166795731,35.86451721191406,99.11866760253906,-13.12272644042969
280032,-0.6087646484375,0.71282958984375,-0.1419219970703125,0.2231691628694534,0.3814656138420105,0.4191421270370483,36.02951049804688,99.13127136230467,-13.34268188476562
280033,-0.5517425537109375,0.6718292236328125,-0.0917510986328125,0.2231691628694534,0.3814656138420105,0.4191421270370483,36.32939147949219,99.04640197753906,-13.53923034667969
280034,-0.48846435546875,0.6501312255859375,-0.0035247802734375,0.1162863969802856,0.0583495944738388,0.4783149063587189,36.69734191894531,98.893310546875,-13.648681640625
280035,-0.42498779296875,0.6422576904296875,0.097381591796875,0.0298947822302579,-0.1797844171524048,0.4710500836372375,36.9683837890625,98.8494873046875,-13.82981872558594
280036,-0.42498779296875,0.6422576904296875,0.097381591796875,0.0298947822302579,-0.1797844171524048,0.4710500836372375,36.9683837890625,98.8494873046875,-13.82981872558594
280037,-0.3188018798828125,0.6576690673828125,0.1593017578125,-0.0077812238596379,-0.0605546906590461,0.4684289991855621,37.56172180175781,99.12503051757812,-13.87400817871094
280038,-0.290557861328125,0.677490234375,0.088134765625,-0.0613845326006412,0.2004196494817734,0.4381200969219208,37.86274719238281,99.14469909667967,-13.78347778320312
280039,-0.277801513671875,0.7075958251953125,0.0340118408203125,-0.1047221496701241,0.4645748734474182,0.406909167766571,38.04350280761719,99.14405822753906,-13.80194091796875
280040,-0.2691192626953125,0.745513916015625,0.0061187744140625,-0.1264285147190094,0.6315326690673828,0.3972592055797577,38.37910461425781,99.22120666503906,-13.79283142089844
280041,-0.2473297119140625,0.748809814453125,-0.0077056884765625,-0.1745401173830032,0.5059108734130859,0.4023269414901733,38.57536315917969,99.10804748535156,-13.69834899902344
280042,-0.2103118896484375,0.73150634765625,-0.019927978515625,-0.1745401173830032,0.5059108734130859,0.4023269414901733,38.80146789550781,99.1403350830078,-13.72181701660156
280043,-0.1682281494140625,0.718170166015625,-0.05401611328125,-0.184741884469986,0.3836110532283783,0.388377845287323,38.99638366699219,99.08485412597656,-13.645751953125
280044,-0.140594482421875,0.720123291015625,-0.0942535400390625,-0.1776498854160309,0.2709843516349792,0.3625235855579376,39.18032836914062,99.0972137451172,-13.60450744628906
280045,-0.150299072265625,0.721771240234375,-0.116912841796875,-0.1646307557821274,0.2252472341060638,0.307273656129837,39.30018615722656,99.1820068359375,-13.5048828125
280046,-0.19830322265625,0.7195587158203125,-0.13873291015625,-0.163018211722374,0.2092874348163605,0.2166167348623276,39.39414978027344,99.18260192871094,-13.46400451660156
280047,-0.2983245849609375,0.7216033935546875,-0.151824951171875,-0.2158484011888504,0.1071189939975739,-0.0599376372992992,39.53486633300781,99.29547119140624,-13.35183715820312
280048,-0.4032440185546875,0.7219390869140625,-0.150787353515625,-0.2158484011888504,0.1071189939975739,-0.0599376372992992,39.56492614746094,99.26730346679688,-13.30516052246094
280049,-0.47625732421875,0.7205810546875,-0.0999298095703125,-0.2998506426811218,0.0552741736173629,-0.1982659548521042,39.58747863769531,99.28190612792967,-13.2098388671875
280050,-0.5485382080078125,0.7244415283203125,-0.0548095703125,-0.3937427699565887,0.0307765547186136,-0.3042304515838623,39.60726928710938,99.35154724121094,-13.10670471191406
280051,-0.621978759765625,0.7390594482421875,-0.039947509765625,-0.4492726027965546,-0.0034810178913176,-0.3598652184009552,39.52366638183594,99.354736328125,-13.07612609863281
280052,-0.621978759765625,0.7390594482421875,-0.039947509765625,-0.4492726027965546,-0.0034810178913176,-0.3598652184009552,39.52366638183594,99.354736328125,-13.07612609863281
280053,-0.6753082275390625,0.793212890625,0.06549072265625,-0.4937258362770081,0.136511504650116,-0.3460841774940491,39.12916564941406,99.25212097167967,-12.75706481933594
280054,-0.6699371337890625,0.801910400390625,0.100921630859375,-0.4802260100841522,0.2570056915283203,-0.3308282494544983,38.97242736816406,99.32684326171876,-12.57940673828125
280055,-0.6663818359375,0.7883148193359375,0.1004638671875,-0.4720708727836609,0.3227122724056244,-0.3216592669487,38.82073974609375,99.1617431640625,-12.36451721191406
280056,-0.67138671875,0.7691497802734375,0.0955352783203125,-0.4579784870147705,0.3647585213184357,-0.3248912692070007,38.52667236328125,99.0591278076172,-12.19049072265625
280057,-0.6779632568359375,0.752532958984375,0.08380126953125,-0.4520106017589569,0.43575119972229,-0.3438409864902496,38.26681518554688,99.06182861328124,-11.98779296875
280058,-0.6906890869140625,0.73211669921875,0.073638916015625,-0.4380556344985962,0.5315355062484741,-0.3867197632789612,38.23762512207031,99.05032348632812,-11.86259460449219
280059,-0.698150634765625,0.69580078125,0.082672119140625,-0.423946738243103,0.6458096504211426,-0.4360406994819641,37.97137451171875,98.94715881347656,-11.68984985351562
280060,-0.694732666015625,0.666656494140625,0.0947418212890625,-0.4453598856925964,0.7659893035888672,-0.4939460754394531,37.71138000488281,98.7608642578125,-11.47834777832031
280061,-0.6801300048828125,0.640350341796875,0.0867462158203125,-0.5028240084648132,0.8205910325050354,-0.5517728924751282,37.39677429199219,98.7414093017578,-11.4776611328125
280062,-0.6597747802734375,0.6163787841796875,0.0706787109375,-0.6191189289093018,0.7992082238197327,-0.5896220207214355,37.15412902832031,98.6776885986328,-11.25064086914062
280063,-0.635833740234375,0.613433837890625,0.0372161865234375,-0.7875806093215942,0.6917324066162109,-0.6042781472206116,36.68592834472656,98.6679229736328,-11.14120483398438
280064,-0.635833740234375,0.613433837890625,0.0372161865234375,-0.7875806093215942,0.6917324066162109,-0.6042781472206116,36.68592834472656,98.6679229736328,-11.14120483398438
280065,-0.6140899658203125,0.6593780517578125,-0.0814361572265625,-1.056137204170227,0.2704149782657623,-0.6097339391708374,35.95440673828125,98.48919677734376,-10.66212463378906
280066,-0.58441162109375,0.716217041015625,-0.16351318359375,-1.092149615287781,0.030678017064929,-0.6085120439529419,35.53375244140625,98.3874969482422,-10.3094482421875
280067,-0.5410308837890625,0.7808990478515625,-0.228759765625,-1.05848503112793,-0.1635495126247406,-0.5994197726249695,35.15653991699219,98.06613159179688,-9.861190795898438
280068,-0.48968505859375,0.8592071533203125,-0.265869140625,-0.9757680892944336,-0.2369225323200226,-0.5609040856361389,34.70805358886719,97.85716247558594,-9.403671264648438
280069,-0.4584808349609375,0.9568328857421876,-0.299224853515625,-0.8792764544487,-0.2207355797290802,-0.5267136096954346,34.33479309082031,97.65625,-8.85943603515625
280070,-0.44964599609375,1.05682373046875,-0.330657958984375,-0.7915700078010559,-0.1525487899780273,-0.4966180324554443,33.9566650390625,97.49024963378906,-8.334518432617188
280071,-0.4678802490234375,1.1524658203125,-0.37994384765625,-0.6898748278617859,-0.1279976516962051,-0.4695496559143066,33.66433715820312,97.33586120605467,-7.705764770507812
280072,-0.4678802490234375,1.1524658203125,-0.37994384765625,-0.6898748278617859,-0.1279976516962051,-0.4695496559143066,33.66433715820312,97.33586120605467,-7.705764770507812
280073,-0.5107269287109375,1.189620971679688,-0.4423828125,-0.4641570150852203,-0.2348798811435699,-0.3294434249401093,33.10646057128906,96.82962036132812,-6.9964599609375
280074,-0.5295257568359375,1.156036376953125,-0.4925384521484375,-0.3517226278781891,-0.3045575022697449,-0.2133149355649948,32.8360595703125,96.65948486328124,-6.425384521484375
280075,-0.497833251953125,1.10479736328125,-0.55816650390625,0.0360144600272178,-0.2831741869449615,0.0905314981937408,32.692626953125,96.3968505859375,-6.1134033203125
280076,-0.445098876953125,1.057373046875,-0.605072021484375,0.0360144600272178,-0.2831741869449615,0.0905314981937408,32.67340087890625,96.3379364013672,-6.003753662109375
280077,-0.3698883056640625,1.036468505859375,-0.6394500732421875,0.243131697177887,-0.145084485411644,0.2428970634937286,32.65068054199219,96.18252563476562,-5.699874877929688
280078,-0.3698883056640625,1.036468505859375,-0.6394500732421875,0.243131697177887,-0.145084485411644,0.2428970634937286,32.65068054199219,96.18252563476562,-5.699874877929688
280079,-0.3045501708984375,1.029815673828125,-0.6540069580078125,0.4016062915325165,0.0393428802490234,0.3549722135066986,32.72657775878906,96.25782775878906,-5.600875854492188
280080,-0.257110595703125,1.047409057617188,-0.6241912841796875,0.5134856700897217,0.3409903347492218,0.3939329087734222,33.11517333984375,96.31654357910156,-5.7449951171875
280081,-0.271697998046875,1.063629150390625,-0.587860107421875,0.5025497078895569,0.3680371344089508,0.4009508788585663,33.33114624023438,96.40650939941406,-5.972854614257812
280082,-0.2933197021484375,1.082122802734375,-0.535369873046875,0.4845656156539917,0.3625542223453522,0.4153223633766174,33.58404541015625,96.4807586669922,-6.201171875
280083,-0.3140411376953125,1.104034423828125,-0.48052978515625,0.471434623003006,0.359882265329361,0.4198031425476074,33.83662414550781,96.55783081054688,-6.487289428710938
280084,-0.3140411376953125,1.104034423828125,-0.48052978515625,0.471434623003006,0.359882265329361,0.4198031425476074,33.83662414550781,96.55783081054688,-6.487289428710938
280085,-0.3873138427734375,1.160140991210938,-0.4185638427734375,0.4379304647445679,0.4031943380832672,0.3874646425247192,34.15635681152344,96.8447723388672,-7.068557739257812
280086,-0.42340087890625,1.182952880859375,-0.377960205078125,0.4089166522026062,0.3858276009559631,0.3449581861495972,34.30575561523438,96.96434020996094,-7.346099853515625
280087,-0.4668731689453125,1.190338134765625,-0.29718017578125,0.4364351034164429,0.3812173902988434,0.177753746509552,34.55746459960938,97.13912963867188,-7.741958618164062
280088,-0.5269775390625,1.194351196289062,-0.2181549072265625,0.4364351034164429,0.3812173902988434,0.177753746509552,34.70783996582031,97.0898895263672,-7.947769165039062
280089,-0.611297607421875,1.209243774414062,-0.165557861328125,0.5325014591217041,0.3840853571891785,0.0902055278420448,35.0179443359375,97.12115478515624,-8.267837524414062
280090,-0.7066497802734375,1.215240478515625,-0.1448211669921875,0.6292287707328796,0.3422161936759949,-0.0048363003879785,35.12051391601562,97.35984802246094,-8.571792602539062
280091,-0.806732177734375,1.194610595703125,-0.118408203125,0.7282803058624268,0.2357291728258133,-0.0790788382291793,35.20989990234375,97.51284790039062,-8.862380981445312
280092,-0.8717498779296875,1.1058349609375,-0.078399658203125,0.7516487240791321,0.1511818021535873,-0.1216167137026787,35.24444580078125,97.66481018066406,-9.417892456054688
280093,-0.8759918212890625,0.96319580078125,-0.05194091796875,0.7846194505691528,-0.0017049557063728,-0.0791334360837936,35.21182250976562,97.77772521972656,-9.71221923828125
280094,-0.8522186279296875,0.820587158203125,-0.070159912109375,0.7846194505691528,-0.0017049557063728,-0.0791334360837936,35.29853820800781,97.91438293457033,-9.972640991210938
280095,-0.806976318359375,0.7299041748046875,-0.119659423828125,0.8183622360229492,-0.2607817947864532,-0.0110814133659005,35.41371154785156,97.95008850097656,-10.31138610839844
280096,-0.726654052734375,0.7069244384765625,-0.1166229248046875,0.9170448780059814,-0.6175614595413208,0.0464319474995136,35.56600952148438,97.9710693359375,-10.52603149414062
280097,-0.64794921875,0.7247161865234375,-0.067657470703125,0.9170448780059814,-0.6175614595413208,0.0464319474995136,35.54498291015625,98.04269409179688,-10.71908569335938
280098,-0.594818115234375,0.7520599365234375,-0.0211334228515625,1.011981010437012,-0.3718244135379791,0.0312684401869773,35.65034484863281,98.15472412109376,-10.90434265136719
280099,-0.5842742919921875,0.7854766845703125,0.002105712890625,1.100179553031921,0.0445411019027233,-0.0021321268286556,35.75767517089844,98.25721740722656,-11.49588012695312
280100,-0.5842742919921875,0.7854766845703125,0.002105712890625,1.100179553031921,0.0445411019027233,-0.0021321268286556,35.75767517089844,98.25721740722656,-11.49588012695312
280101,-0.5911865234375,0.71014404296875,-0.04144287109375,1.026457071304321,0.3648000657558441,-0.0792341008782386,35.848876953125,98.39981079101562,-12.50587463378906
280102,-0.578277587890625,0.62091064453125,-0.0223236083984375,0.90049147605896,0.3119725286960602,-0.0748092606663703,35.95162963867188,98.55996704101562,-12.93461608886719
280103,-0.5274658203125,0.527679443359375,-0.01507568359375,0.7523033022880554,0.2521526217460632,-0.0571322627365589,35.98451232910156,98.5963897705078,-13.39781188964844
280104,-0.4727325439453125,0.4562835693359375,0.00128173828125,0.5934599041938782,0.2320766448974609,-0.0397854968905448,35.98629760742188,98.6596221923828,-13.93910217285156
280105,-0.419464111328125,0.406829833984375,0.0180511474609375,0.4108445346355438,0.2284747213125229,0.0098334560170769,35.96974182128906,98.58349609375,-14.45191955566406
280106,-0.37176513671875,0.3916168212890625,0.0546112060546875,0.194491446018219,0.259343683719635,0.043229229748249,35.86610412597656,98.613525390625,-14.66294860839844
280107,-0.32000732421875,0.39898681640625,0.079681396484375,-0.0179278682917356,0.2409747987985611,0.0716536790132522,35.92189025878906,98.57380676269533,-14.79403686523438
280108,-0.32000732421875,0.39898681640625,0.079681396484375,-0.0179278682917356,0.2409747987985611,0.0716536790132522,35.92189025878906,98.57380676269533,-14.79403686523438
280109,-0.224334716796875,0.44659423828125,0.170440673828125,-0.4149793386459351,0.1605896800756454,0.0767792016267776,35.93122863769531,98.53170776367188,-15.06724548339844
280110,-0.1886444091796875,0.4892425537109375,0.1933746337890625,-0.5422624945640564,0.109322227537632,0.0665976703166961,36.015625,98.52066040039062,-14.82640075683594
280111,-0.200531005859375,0.5799560546875,0.178314208984375,-0.6764474511146545,-0.0020309265237301,0.0561165325343608,36.05674743652344,98.58139038085938,-14.63072204589844
280112,-0.34466552734375,0.70574951171875,0.1626129150390625,-0.6764474511146545,-0.0020309265237301,0.0561165325343608,36.06298828125,98.7012939453125,-14.58064270019531
280113,-0.431060791015625,0.7790679931640625,0.109832763671875,-0.7618086934089661,0.032507874071598,0.0533851943910121,36.06669616699219,98.71673583984376,-14.31468200683594
280114,-0.431060791015625,0.7790679931640625,0.109832763671875,-0.7618086934089661,0.032507874071598,0.0533851943910121,36.06669616699219,98.71673583984376,-14.31468200683594
280115,-0.4465789794921875,0.9154205322265624,0.15960693359375,-0.9867565631866456,0.1208728924393654,-0.0729993730783462,35.87176513671875,98.64295959472656,-13.740478515625
280116,-0.4706573486328125,0.962799072265625,0.1952056884765625,-0.9867565631866456,0.1208728924393654,-0.0729993730783462,35.92701721191406,98.668701171875,-13.42497253417969
280117,-0.5176239013671875,0.98681640625,0.2142181396484375,-1.058968424797058,0.0907906219363212,-0.1320419162511826,35.89297485351562,98.68180847167967,-13.06578063964844
280118,-0.564300537109375,1.009262084960938,0.2251739501953125,-1.119877338409424,0.0309230275452137,-0.2165317684412003,35.77703857421875,98.56690979003906,-12.65103149414062
280119,-0.603424072265625,1.005264282226562,0.244873046875,-1.224920392036438,0.0179648865014314,-0.405304342508316,35.60450744628906,98.47590637207033,-12.23780822753906
280120,-0.6356658935546875,0.9959564208984376,0.2723236083984375,-1.224920392036438,0.0179648865014314,-0.405304342508316,35.54843139648438,98.36865234375,-11.80851745605469
280121,-0.652801513671875,0.968109130859375,0.2927398681640625,-1.19443941116333,0.3386014997959137,-0.5400997400283813,35.3447265625,98.19711303710938,-11.28102111816406
280122,-0.671539306640625,0.93536376953125,0.303253173828125,-1.19443941116333,0.3386014997959137,-0.5400997400283813,35.093994140625,98.11360168457033,-10.79888916015625
280123,-0.6896209716796875,0.90087890625,0.2725372314453125,-1.140856385231018,0.5091516375541687,-0.5794000029563904,34.84019470214844,97.90211486816406,-10.16184997558594
280124,-0.70318603515625,0.84393310546875,0.1815185546875,-1.062778115272522,0.606693685054779,-0.6022040843963623,34.53584289550781,97.77175903320312,-9.72332763671875
280125,-0.7144317626953125,0.8040771484375,0.0541534423828125,-0.9667226672172546,0.6085528135299683,-0.6162317991256714,34.22877502441406,97.52993774414062,-9.152297973632812
280126,-0.70477294921875,0.7786407470703125,-0.0970001220703125,-0.8967593312263489,0.5217849016189575,-0.6238694787025452,33.89923095703125,97.41656494140624,-8.916900634765625
280127,-0.66375732421875,0.778961181640625,-0.2484130859375,-0.859472393989563,0.3863820731639862,-0.6158717274665833,33.41973876953125,97.12928771972656,-8.4779052734375
280128,-0.66375732421875,0.778961181640625,-0.2484130859375,-0.859472393989563,0.3863820731639862,-0.6158717274665833,33.41973876953125,97.12928771972656,-8.4779052734375
280129,-0.573699951171875,0.8987274169921875,-0.41375732421875,-0.790961503982544,0.2415910512208939,-0.6102156639099121,32.64115905761719,96.62216186523438,-7.7928466796875
280130,-0.5628814697265625,0.996490478515625,-0.4679412841796875,-0.7451735138893127,0.2621232271194458,-0.6147510409355164,32.36158752441406,96.47528076171876,-7.48248291015625
280131,-0.573455810546875,1.07818603515625,-0.5301666259765625,-0.691217839717865,0.2516103982925415,-0.5968151688575745,32.0142822265625,96.25213623046876,-7.072372436523438
280132,-0.573455810546875,1.07818603515625,-0.5301666259765625,-0.691217839717865,0.2516103982925415,-0.5968151688575745,32.0142822265625,96.25213623046876,-7.072372436523438
280133,-0.597900390625,1.137191772460938,-0.5581817626953125,-0.5578502416610718,0.1906546354293823,-0.3799521327018738,31.32072448730469,95.66644287109376,-6.344924926757812
280134,-0.5717926025390625,1.09381103515625,-0.5614776611328125,-0.4695970416069031,0.2248378992080688,-0.1485609710216522,30.96444702148438,95.58894348144533,-5.928192138671875
280135,-0.5435333251953125,1.032745361328125,-0.60107421875,-0.2472071200609207,0.3356831967830658,0.3064225018024445,30.72621154785156,95.38877868652344,-5.646041870117188
280136,-0.48358154296875,0.9457855224609376,-0.6637420654296875,-0.2472071200609207,0.3356831967830658,0.3064225018024445,30.59228515625,95.17303466796876,-5.437911987304688
280137,-0.4212799072265625,0.9042816162109376,-0.72015380859375,-0.1366012543439865,0.4515663981437683,0.5053654313087463,30.5196533203125,95.08404541015624,-5.212432861328125
280138,-0.3424224853515625,0.899169921875,-0.74285888671875,-0.0238179806619882,0.5939746499061584,0.6394937038421631,30.63107299804688,95.06980895996094,-5.140594482421875
280139,-0.2955474853515625,0.910125732421875,-0.7275390625,0.0801289230585098,0.7597681879997253,0.6832686066627502,30.81642150878906,95.09837341308594,-5.087982177734375
280140,-0.2834014892578125,0.92303466796875,-0.7181243896484375,0.1643460690975189,0.8852823972702026,0.6525972485542297,31.04161071777344,95.3265380859375,-5.200164794921875
280141,-0.2961273193359375,0.9391632080078124,-0.71539306640625,0.2181096971035004,0.911927342414856,0.6000823378562927,31.21063232421875,95.27098083496094,-5.285293579101562
280142,-0.33612060546875,0.9644622802734376,-0.7076873779296875,0.2439945489168167,0.9019293189048768,0.5436446666717529,31.63221740722656,95.4744873046875,-5.699615478515625
280143,-0.3958740234375,0.995758056640625,-0.6997222900390625,0.2495365887880325,0.9082908034324646,0.4834063351154327,31.73176574707031,95.75840759277344,-5.938430786132812
280144,-0.463165283203125,1.0294189453125,-0.68353271484375,0.217448964715004,0.8955749869346619,0.3946844637393951,31.89581298828125,95.8585205078125,-6.166824340820312
280145,-0.5201263427734375,1.019195556640625,-0.623687744140625,0.1500345021486282,0.8257192373275757,0.316953718662262,32.02345275878906,95.9992218017578,-6.45794677734375
280146,-0.5201263427734375,1.019195556640625,-0.623687744140625,0.1500345021486282,0.8257192373275757,0.316953718662262,32.02345275878906,95.9992218017578,-6.45794677734375
280147,-0.55841064453125,0.964080810546875,-0.5081329345703125,0.0621616430580616,0.7617029547691345,0.2683797776699066,32.03071594238281,96.07614135742188,-6.740310668945312
280148,-0.5827484130859375,0.8717193603515625,-0.3124542236328125,-0.0812647640705108,0.4660012423992157,0.3025654554367065,32.19218444824219,96.34068298339844,-7.082183837890625
280149,-0.590057373046875,0.823577880859375,-0.2005767822265625,-0.0945083945989608,0.3109720051288605,0.3633774220943451,32.2529296875,96.34397888183594,-7.067550659179688
280150,-0.59088134765625,0.789947509765625,-0.08941650390625,-0.0529092885553836,0.2345975935459137,0.4021745920181274,32.40516662597656,96.54737854003906,-7.279144287109375
280151,-0.570953369140625,0.7649383544921875,0.0118255615234375,0.0224054399877786,0.2726019620895386,0.4217056930065155,32.60728454589844,96.62806701660156,-7.2548828125
280152,-0.5529022216796875,0.758575439453125,0.0868988037109375,0.0924244746565818,0.3012061715126038,0.4571995139122009,32.90913391113281,96.5764617919922,-7.350128173828125
280153,-0.5536651611328125,0.7804107666015625,0.1424102783203125,0.1110149323940277,0.286430686712265,0.5206930041313171,33.08952331542969,96.65887451171876,-7.407394409179688
280154,-0.5587005615234375,0.811065673828125,0.178436279296875,0.1344395726919174,0.2351347506046295,0.5442012548446655,33.32308959960938,96.85113525390624,-7.668014526367188
280155,-0.5530548095703125,0.8102569580078125,0.20770263671875,0.1591329276561737,0.1867051720619202,0.51614910364151,33.56002807617188,96.94668579101562,-7.694046020507812
280156,-0.5217132568359375,0.7911224365234375,0.1991729736328125,0.1525794267654419,0.1270322501659393,0.4828390777111053,33.85198974609375,96.97250366210938,-7.71124267578125
280157,-0.46856689453125,0.7684173583984375,0.177978515625,0.1089395359158516,0.0274452064186334,0.4475527405738831,34.2061767578125,97.184326171875,-7.851058959960938
280158,-0.3931884765625,0.747650146484375,0.16290283203125,0.0361635982990264,-0.1014395356178284,0.4204129874706268,34.37905883789062,97.2519989013672,-8.029571533203125
280159,-0.293853759765625,0.74395751953125,0.1703033447265625,-0.034801922738552,-0.1989165544509888,0.4106122851371765,34.69114685058594,97.10855102539062,-7.89874267578125
280160,-0.293853759765625,0.74395751953125,0.1703033447265625,-0.034801922738552,-0.1989165544509888,0.4106122851371765,34.69114685058594,97.10855102539062,-7.89874267578125
280161,-0.1129608154296875,0.72802734375,0.1656494140625,-0.1054212301969528,-0.105914980173111,0.4130746722221375,35.19705200195312,97.17837524414062,-7.64202880859375
280162,-0.083984375,0.7270660400390625,0.1589813232421875,-0.1103691160678864,0.0577850043773651,0.4077446162700653,35.38002014160156,97.18328857421876,-7.576690673828125
280163,-0.099365234375,0.7306060791015625,0.121307373046875,-0.1404753476381302,0.1645735055208206,0.3714185655117035,35.60575866699219,97.13095092773438,-7.566680908203125
280164,-0.1832733154296875,0.7535400390625,0.0819854736328125,-0.1981762051582336,0.1426636725664139,0.2918379902839661,35.79171752929688,97.1199188232422,-7.58416748046875
280165,-0.3216552734375,0.78857421875,0.06036376953125,-0.2342673540115356,0.0313520655035972,0.1847775727510452,35.96514892578125,97.09481811523438,-7.403854370117188
280166,-0.4480133056640625,0.8289947509765625,0.0644683837890625,-0.252208799123764,-0.024041686207056,0.0732313394546508,36.04533386230469,97.13117980957033,-7.339370727539062
280167,-0.5355682373046875,0.8407135009765625,0.068359375,-0.2669171690940857,0.0184876639395952,-0.0521010160446167,36.08270263671875,97.20263671875,-7.212188720703125
280168,-0.5355682373046875,0.8407135009765625,0.068359375,-0.2669171690940857,0.0184876639395952,-0.0521010160446167,36.08270263671875,97.20263671875,-7.212188720703125
280169,-0.6416473388671875,0.792999267578125,0.0774078369140625,-0.2745940089225769,0.1551134139299393,-0.3018754422664642,36.13557434082031,97.10684204101562,-6.918731689453125
280170,-0.6553802490234375,0.7478485107421875,0.0970306396484375,-0.3093410730361938,0.1705528348684311,-0.3960464000701904,35.94595336914062,97.05438232421876,-6.728851318359375
280171,-0.649932861328125,0.698333740234375,0.1079864501953125,-0.3597105145454407,0.1649356931447983,-0.4693142175674438,35.7156982421875,97.0877685546875,-6.587020874023438
280172,-0.632049560546875,0.6531982421875,0.1132354736328125,-0.3935196101665497,0.1562503278255463,-0.5011773705482483,35.47299194335938,96.9716339111328,-6.573699951171875
280173,-0.61529541015625,0.625091552734375,0.110565185546875,-0.4005548655986786,0.1965165138244629,-0.5149434804916382,35.26676940917969,96.89077758789062,-6.429031372070312
280174,-0.6053466796875,0.613067626953125,0.092498779296875,-0.3974743783473969,0.2651096880435944,-0.5164300799369812,35.07948303222656,96.81428527832033,-6.280853271484375
280175,-0.608245849609375,0.6151275634765625,0.079681396484375,-0.3909978568553925,0.3656392395496368,-0.5244933366775513,34.68463134765625,96.82839965820312,-6.233932495117188
280176,-0.6172027587890625,0.62615966796875,0.082489013671875,-0.3787238597869873,0.5051763653755188,-0.5300814509391785,34.31138610839844,96.8181610107422,-6.106430053710938
280177,-0.6404266357421875,0.6472015380859375,0.0872802734375,-0.3533119857311249,0.6708502769470215,-0.5485400557518005,33.9666748046875,96.55892944335938,-5.83197021484375
280178,-0.6783447265625,0.659912109375,0.086639404296875,-0.3060073256492615,0.8212730884552002,-0.5886384844779968,33.59951782226562,96.46688842773438,-5.837921142578125
280179,-0.7031707763671875,0.667724609375,0.091400146484375,-0.2863366901874542,0.9280524849891664,-0.617985188961029,33.23635864257812,96.23548889160156,-5.897598266601562
280180,-0.73297119140625,0.6857147216796875,0.0751190185546875,-0.3096433281898499,0.977901577949524,-0.6327798366546631,32.85758972167969,96.08261108398438,-5.88421630859375
280181,-0.74566650390625,0.6996917724609375,0.025177001953125,-0.3598561882972717,0.8849012851715088,-0.6419914364814758,32.43098449707031,95.91549682617188,-5.795120239257812
280182,-0.7465057373046875,0.71392822265625,-0.0206146240234375,-0.4444661438465118,0.688666045665741,-0.6268244981765747,31.93840026855469,95.8606414794922,-5.908538818359375
280183,-0.728668212890625,0.725982666015625,-0.0787506103515625,-0.545069694519043,0.4663256406784058,-0.583987295627594,31.46635437011719,95.72747802734376,-5.907806396484375
280184,-0.676025390625,0.7495880126953125,-0.1565093994140625,-0.6487343311309814,0.231791153550148,-0.5100613832473755,31.06556701660156,95.53604125976562,-5.893264770507812
280185,-0.5957489013671875,0.7923126220703125,-0.2232666015625,-0.7271710634231567,0.0074355457909405,-0.4363203346729279,30.67315673828125,95.27783203125,-5.596725463867188
280186,-0.5172576904296875,0.856414794921875,-0.264678955078125,-0.7744999527931213,-0.1025940179824829,-0.39316725730896,30.39022827148438,95.02220153808594,-5.197906494140625
280187,-0.481475830078125,0.953338623046875,-0.3102874755859375,-0.7644861936569214,-0.0579972565174102,-0.3962543904781342,30.06048583984375,94.6885986328125,-4.839645385742188
280188,-0.4879608154296875,1.061752319335938,-0.3924713134765625,-0.7064381241798401,0.0374959744513034,-0.3789443969726562,29.75323486328125,94.58952331542967,-4.49407958984375
280189,-0.520111083984375,1.169387817382812,-0.48162841796875,-0.6116849780082703,0.02896374091506,-0.3600465953350067,29.44540405273438,94.27166748046876,-4.107421875
280190,-0.54974365234375,1.248825073242188,-0.5269927978515625,-0.5028873682022095,-0.0773637667298317,-0.3160727322101593,29.18806457519531,94.12394714355467,-3.89178466796875
280191,-0.5544281005859375,1.2923583984375,-0.532196044921875,-0.3681694865226746,-0.1907473206520081,-0.2516972124576569,28.96066284179688,93.93141174316406,-3.526535034179688
280192,-0.530517578125,1.270523071289062,-0.5203399658203125,-0.196002796292305,-0.1893795132637024,-0.1540646702051163,28.91120910644531,93.676025390625,-3.233627319335938
280193,-0.47900390625,1.207550048828125,-0.5517730712890625,0.2257252782583237,-0.0544288866221904,0.1440474539995193,28.80805969238281,93.40031433105467,-3.077865600585938
280194,-0.4156951904296875,1.150848388671875,-0.59130859375,0.2257252782583237,-0.0544288866221904,0.1440474539995193,28.76963806152344,93.36480712890624,-2.819900512695312
280195,-0.3643035888671875,1.098892211914062,-0.617156982421875,0.3922953307628632,0.0863790959119796,0.2540530562400818,28.87106323242188,93.39138793945312,-2.544082641601562
280196,-0.301116943359375,1.0665283203125,-0.631378173828125,0.5064895749092102,0.2279916256666183,0.3021649122238159,29.0848388671875,93.40469360351562,-2.49798583984375
280197,-0.2734527587890625,1.062240600585938,-0.628997802734375,0.5488743185997009,0.3454056084156036,0.273015022277832,29.23089599609375,93.51669311523438,-2.477935791015625
280198,-0.276214599609375,1.050369262695312,-0.63287353515625,0.5442957878112793,0.3688632547855377,0.2412911802530289,29.38481140136719,93.63825988769533,-2.903411865234375
280199,-0.30621337890625,1.0469970703125,-0.6043853759765625,0.5517217516899109,0.3370994627475739,0.2399614602327347,29.43492126464844,93.82737731933594,-3.39520263671875
280200,-0.30621337890625,1.0469970703125,-0.6043853759765625,0.5517217516899109,0.3370994627475739,0.2399614602327347,29.43492126464844,93.82737731933594,-3.39520263671875
280201,-0.3703460693359375,1.072799682617188,-0.4936676025390625,0.5692834258079529,0.3395011126995087,0.2220780700445175,29.67610168457031,94.29925537109376,-4.119476318359375
280202,-0.4140777587890625,1.094039916992188,-0.44512939453125,0.5405543446540833,0.3545397222042084,0.2117761671543121,29.7364501953125,94.4506378173828,-4.436569213867188
280203,-0.4140777587890625,1.094039916992188,-0.44512939453125,0.5405543446540833,0.3545397222042084,0.2117761671543121,29.7364501953125,94.4506378173828,-4.436569213867188
280204,-0.50982666015625,1.14581298828125,-0.3039093017578125,0.5319725275039673,0.3631220161914825,0.2075995355844498,29.89155578613281,94.66496276855467,-5.085296630859375
280205,-0.5595703125,1.163726806640625,-0.23699951171875,0.527650773525238,0.3626700639724731,0.1973982900381088,29.94085693359375,94.80158996582033,-5.37677001953125
280206,-0.5999298095703125,1.176254272460938,-0.1941986083984375,0.5444891452789307,0.3449544608592987,0.1870612353086472,29.941162109375,94.9688720703125,-5.697036743164062
280207,-0.642608642578125,1.173690795898438,-0.1694793701171875,0.5887631177902222,0.3224848508834839,0.0545740276575088,29.99055480957031,95.13288879394533,-6.13360595703125
280208,-0.642608642578125,1.173690795898438,-0.1694793701171875,0.5887631177902222,0.3224848508834839,0.0545740276575088,29.99055480957031,95.13288879394533,-6.13360595703125
280209,-0.709503173828125,1.053955078125,-0.1454010009765625,0.5966935157775879,0.3021864891052246,-0.0661598443984985,30.13145446777344,95.32566833496094,-6.8536376953125
280210,-0.7260589599609375,0.9571075439453124,-0.14501953125,0.6048212051391602,0.2340431213378906,-0.1862300634384155,30.15281677246094,95.43978881835938,-7.178237915039062
280211,-0.728851318359375,0.8626861572265625,-0.17608642578125,0.5686586499214172,0.0420441217720508,-0.3043809235095978,30.14427185058594,95.5857391357422,-7.523956298828125
280212,-0.728851318359375,0.8626861572265625,-0.17608642578125,0.5686586499214172,0.0420441217720508,-0.3043809235095978,30.14427185058594,95.5857391357422,-7.523956298828125
280213,-0.6591796875,0.730682373046875,-0.2252197265625,0.4627729654312134,-0.5359217524528503,-0.4258314669132233,29.96162414550781,95.61753845214844,-7.9859619140625
280214,-0.6174163818359375,0.6949615478515625,-0.2090911865234375,0.5333965420722961,-0.678056001663208,-0.4128738641738892,29.85771179199219,95.57333374023438,-8.085922241210938
280215,-0.5780029296875,0.6819915771484375,-0.1533660888671875,0.78856360912323,-0.3657662570476532,-0.3239392042160034,29.73123168945312,95.7417449951172,-8.356796264648438
280216,-0.5482330322265625,0.6689300537109375,-0.118194580078125,0.78856360912323,-0.3657662570476532,-0.3239392042160034,29.73945617675781,95.66960144042967,-8.513702392578125
280217,-0.5447845458984375,0.6467437744140625,-0.08837890625,0.8082219958305359,-0.2058330625295639,-0.2382522523403168,29.75959777832031,95.56643676757812,-8.550201416015625
280218,-0.5527496337890625,0.60028076171875,-0.069061279296875,0.7583540081977844,-0.1064542680978775,-0.1722335517406464,29.89996337890625,95.58033752441406,-8.791015625
280219,-0.5445556640625,0.5526123046875,-0.073486328125,0.698906421661377,-0.1142719835042953,-0.0180261377245187,29.92715454101562,95.5799560546875,-9.044204711914062
280220,-0.5169830322265625,0.507659912109375,-0.0545501708984375,0.698906421661377,-0.1142719835042953,-0.0180261377245187,29.97441101074219,95.7335205078125,-9.455368041992188
280221,-0.4804534912109375,0.45599365234375,-0.0172119140625,0.5568675398826599,-0.0633901581168174,0.0394462086260318,30.07942199707031,95.84521484375,-9.65264892578125
280222,-0.4386444091796875,0.419647216796875,0.0218048095703125,0.5568675398826599,-0.0633901581168174,0.0394462086260318,30.10453796386719,95.8073272705078,-9.853271484375
280223,-0.4045867919921875,0.394927978515625,0.061187744140625,0.4297835826873779,0.0390616469085216,0.0569716729223728,30.20783996582031,95.91766357421876,-10.19856262207031
280224,-0.3812713623046875,0.404815673828125,0.1015625,0.2784745097160339,0.176633894443512,0.0557018779218196,30.23048400878906,96.0130615234375,-10.30680847167969
280225,-0.36395263671875,0.4420928955078125,0.1349945068359375,0.0824634507298469,0.2882413864135742,0.0507976673543453,30.31222534179688,96.1562957763672,-10.68135070800781
280226,-0.3576202392578125,0.467987060546875,0.160675048828125,-0.1292930096387863,0.3494221866130829,0.0324266478419303,30.37910461425781,96.2059326171875,-10.73170471191406
280227,-0.3598785400390625,0.4863739013671875,0.1887359619140625,-0.3150998950004578,0.3684597909450531,0.0292777270078659,30.39338684082031,96.12776184082033,-10.78799438476562
280228,-0.3867340087890625,0.5250244140625,0.2558135986328125,-0.48701012134552,0.4243235886096954,0.0239388886839151,30.41990661621094,96.12271118164062,-10.77438354492188
280229,-0.413665771484375,0.5620269775390625,0.291229248046875,-0.6363828182220459,0.4794124066829681,0.028489165008068,30.3587646484375,96.07327270507812,-10.75831604003906
280230,-0.413665771484375,0.5620269775390625,0.291229248046875,-0.6363828182220459,0.4794124066829681,0.028489165008068,30.3587646484375,96.07327270507812,-10.75831604003906
280231,-0.4412078857421875,0.6164703369140625,0.288330078125,-0.7164084315299988,0.4871808290481567,0.0371114164590835,30.34210205078125,96.12734985351562,-10.61441040039062
280232,-0.537811279296875,0.734466552734375,0.22174072265625,-0.760837972164154,0.4275492131710052,0.0591586604714393,30.36442565917969,96.0179443359375,-10.16024780273438
280233,-0.537109375,0.7692413330078125,0.1882781982421875,-0.8125450611114502,0.3699884414672852,0.0308817494660615,30.30706787109375,95.88916015625,-9.915802001953123
280234,-0.5455474853515625,0.813812255859375,0.191650390625,-0.8846232891082764,0.373175710439682,-0.0180064309388399,30.23023986816406,95.78323364257812,-9.55755615234375
280235,-0.5699615478515625,0.884765625,0.2066192626953125,-1.034233808517456,0.4262977838516235,-0.1984800696372986,30.23945617675781,95.77777099609376,-9.312026977539062
280236,-0.60235595703125,0.971405029296875,0.2411041259765625,-1.034233808517456,0.4262977838516235,-0.1984800696372986,30.08717346191406,95.70445251464844,-9.147781372070312
280237,-0.640167236328125,1.034164428710938,0.2898712158203125,-1.103995084762573,0.4373666942119598,-0.3252076506614685,29.91680908203125,95.60890197753906,-8.865127563476562
280238,-0.687042236328125,1.085525512695312,0.3264617919921875,-1.138060331344604,0.4738171100616455,-0.4510518610477448,29.71292114257812,95.47079467773438,-8.48260498046875
280239,-0.7938690185546875,1.133209228515625,0.2938995361328125,-1.103032827377319,0.4533147513866425,-0.6767262816429138,29.09736633300781,95.1322784423828,-7.70806884765625
280240,-0.7938690185546875,1.133209228515625,0.2938995361328125,-1.103032827377319,0.4533147513866425,-0.6767262816429138,29.09736633300781,95.1322784423828,-7.70806884765625
280241,-0.8070526123046875,1.023696899414062,0.2541351318359375,-0.9731581807136536,0.4541033208370209,-0.6340094208717346,28.73870849609375,95.06657409667967,-7.3287353515625
280242,-0.79547119140625,0.900482177734375,0.20953369140625,-0.9731581807136536,0.4541033208370209,-0.6340094208717346,28.3656005859375,94.75320434570312,-6.94049072265625
280243,-0.758544921875,0.8129730224609375,0.129547119140625,-0.8896824717521667,0.5800876021385193,-0.5924580097198486,27.98103332519531,94.51676940917967,-6.7205810546875
280244,-0.701446533203125,0.7566375732421875,0.02362060546875,-0.8268001675605774,0.7435548305511475,-0.5908076167106628,27.574462890625,94.26077270507812,-6.370925903320312
280245,-0.650421142578125,0.7403564453125,-0.1284027099609375,-0.8083969354629517,0.8951459527015686,-0.6049338579177856,27.26109313964844,93.97222900390624,-6.014266967773438
280246,-0.617950439453125,0.760528564453125,-0.3556060791015625,-0.7731156349182129,0.8995007872581482,-0.6140722036361694,26.90742492675781,93.6626434326172,-5.863662719726562
280247,-0.60693359375,0.8228302001953125,-0.5474700927734375,-0.8197316527366638,0.4760501682758331,-0.6109440922737122,26.44334411621094,93.32919311523438,-5.446075439453125
280248,-0.60693359375,0.8228302001953125,-0.5474700927734375,-0.8197316527366638,0.4760501682758331,-0.6109440922737122,26.44334411621094,93.32919311523438,-5.446075439453125
280249,-0.640960693359375,1.031936645507812,-0.6196136474609375,-0.8868512511253357,0.3481608927249908,-0.6039532423019409,25.68963623046875,92.74453735351562,-5.165451049804688
280250,-0.6638336181640625,1.090377807617188,-0.5937957763671875,-0.9127249717712402,0.2845097482204437,-0.5313333868980408,25.28117370605469,92.39492797851562,-4.901565551757812
280251,-0.6647186279296875,1.092620849609375,-0.5574798583984375,-0.8749035596847534,0.2722855806350708,-0.3828049004077911,24.94625854492188,92.16213989257812,-4.633636474609375
280252,-0.653717041015625,1.061798095703125,-0.5500335693359375,-0.7825392484664917,0.3408920764923096,-0.178496778011322,24.59214782714844,91.73185729980467,-4.155654907226562
280253,-0.6080322265625,1.014801025390625,-0.6155548095703125,-0.6569821238517761,0.4109566509723663,0.048080176115036,24.45851135253906,91.46353149414062,-3.781204223632812
280254,-0.5342254638671875,0.9700775146484376,-0.685211181640625,-0.5366693139076233,0.468072921037674,0.2465724945068359,24.42225646972656,91.19961547851562,-3.390960693359375
280255,-0.4315948486328125,0.9310455322265624,-0.731689453125,-0.4170773923397064,0.5202610492706299,0.420923262834549,24.32765197753906,91.09764099121094,-3.189727783203125
280256,-0.32952880859375,0.9253082275390624,-0.7361907958984375,-0.2940707802772522,0.601389467716217,0.5547886490821838,24.445068359375,91.1138153076172,-3.004852294921875
280257,-0.239471435546875,0.9263153076171876,-0.729034423828125,-0.1758410632610321,0.7124107480049133,0.6271951794624329,24.48747253417969,91.0339813232422,-2.950180053710938
280258,-0.239471435546875,0.9263153076171876,-0.729034423828125,-0.1758410632610321,0.7124107480049133,0.6271951794624329,24.48747253417969,91.0339813232422,-2.950180053710938
280259,-0.2211456298828125,0.9592742919921876,-0.7132415771484375,0.0276380199939012,0.9095483422279358,0.5045787692070007,24.77755737304688,91.1574249267578,-2.976470947265625
280260,-0.2615966796875,0.9669189453125,-0.716766357421875,0.0276380199939012,0.9095483422279358,0.5045787692070007,24.93974304199219,91.163818359375,-3.186477661132812
280261,-0.3133697509765625,0.98358154296875,-0.7097930908203125,0.0608606860041618,0.8818261623382568,0.4592964947223663,25.04298400878906,91.36224365234376,-3.301239013671875
280262,-0.3751220703125,0.997283935546875,-0.676788330078125,0.0928457826375961,0.84438157081604,0.4093068242073059,25.15248107910156,91.55599975585938,-3.63006591796875
280263,-0.4502410888671875,1.022171020507812,-0.621429443359375,0.1200222745537758,0.8211532235145569,0.3537807166576385,25.1705322265625,91.78045654296876,-3.863845825195312
280264,-0.52099609375,1.008590698242188,-0.55560302734375,0.1343559473752975,0.8029566407203674,0.2851105630397797,25.24485778808594,91.92807006835938,-3.979278564453125
280265,-0.5723419189453125,0.9744720458984376,-0.4901885986328125,0.1076265946030617,0.6977961659431458,0.2285831123590469,25.21224975585938,92.09078979492188,-4.19549560546875
280266,-0.5984954833984375,0.94158935546875,-0.4057159423828125,0.0492799319326877,0.5061523914337158,0.1756202876567841,25.26040649414062,92.24357604980467,-4.477874755859375
280267,-0.6014251708984375,0.878021240234375,-0.2923431396484375,-0.0538371317088604,0.3018709123134613,0.1582972258329391,25.34228515625,92.36799621582033,-4.854232788085938
280268,-0.588470458984375,0.7977752685546875,-0.1611175537109375,-0.1095147728919983,0.1882820278406143,0.1956464648246765,25.318359375,92.46629333496094,-5.057907104492188
280269,-0.578399658203125,0.75494384765625,-0.049896240234375,-0.0480996184051036,0.2578571140766144,0.2430017292499542,25.41032409667969,92.4986572265625,-5.166107177734375
280270,-0.568206787109375,0.7853851318359375,0.0045928955078125,0.0625789612531662,0.3596007823944092,0.3189670741558075,25.51026916503906,92.71353149414062,-5.190414428710938
280271,-0.57037353515625,0.8243408203125,0.0204315185546875,0.2202580720186234,0.3049300909042358,0.4421214759349823,25.571044921875,92.7625732421875,-5.282135009765625
280272,-0.54766845703125,0.7839508056640625,0.0222625732421875,0.2202580720186234,0.3049300909042358,0.4421214759349823,25.77210998535156,92.85159301757812,-5.387115478515625
280273,-0.509979248046875,0.734588623046875,0.0524444580078125,0.20098876953125,0.1783468425273895,0.4757614731788635,25.91949462890625,92.96485900878906,-5.580886840820312
280274,-0.509979248046875,0.734588623046875,0.0524444580078125,0.20098876953125,0.1783468425273895,0.4757614731788635,25.91949462890625,92.96485900878906,-5.580886840820312
280275,-0.380218505859375,0.664306640625,0.091522216796875,0.1343511492013931,-0.1472765356302261,0.4236495494842529,26.46417236328125,93.21311950683594,-5.809600830078125
280276,-0.32745361328125,0.647705078125,0.100555419921875,0.1208238899707794,-0.2302878051996231,0.3968770503997803,26.75761413574219,93.27365112304688,-5.853439331054688
280277,-0.2926788330078125,0.662872314453125,0.102508544921875,0.1172752305865288,-0.2156113833189011,0.3594905138015747,27.03366088867188,93.43785095214844,-5.921127319335938
280278,-0.2766876220703125,0.6805267333984375,0.10723876953125,0.0806168168783187,-0.1287768930196762,0.3386025428771973,27.27490234375,93.47755432128906,-5.887283325195312
280279,-0.2766876220703125,0.6805267333984375,0.10723876953125,0.0806168168783187,-0.1287768930196762,0.3386025428771973,27.27490234375,93.47755432128906,-5.887283325195312
280280,-0.3080596923828125,0.684967041015625,0.098052978515625,-0.0239641889929771,0.0898579806089401,0.3138673901557922,27.65567016601562,93.76852416992188,-6.008819580078125
280281,-0.360992431640625,0.6859130859375,0.0774993896484375,-0.0617962554097175,0.131335124373436,0.2766084372997284,27.84423828125,93.80194091796876,-6.04608154296875
280282,-0.4630279541015625,0.7048187255859375,0.0735626220703125,-0.0967848673462867,0.1505484879016876,0.199548527598381,27.96875,93.84228515625,-5.94097900390625
280283,-0.5843658447265625,0.732269287109375,0.0946807861328125,-0.1620094031095505,0.1472331285476685,0.0912188589572906,28.01913452148438,93.93075561523438,-5.882003784179688
280284,-0.6666412353515625,0.7527618408203125,0.1339569091796875,-0.2384549081325531,0.1717794835567474,-0.0049055428244173,28.1722412109375,93.9257354736328,-5.83599853515625
280285,-0.7119598388671875,0.7666168212890625,0.176666259765625,-0.3123118281364441,0.2596622109413147,-0.0773536413908004,28.21028137207031,93.91940307617188,-5.765457153320312
280286,-0.7324676513671875,0.7767333984375,0.1986236572265625,-0.3790242671966553,0.3534259796142578,-0.1273986995220184,28.13040161132812,93.96224975585938,-5.7008056640625
280287,-0.746124267578125,0.78509521484375,0.2081146240234375,-0.4526862502098083,0.4060974419116974,-0.1646315604448318,28.02734375,93.9761199951172,-5.657089233398438
280288,-0.746124267578125,0.78509521484375,0.2081146240234375,-0.4526862502098083,0.4060974419116974,-0.1646315604448318,28.02734375,93.9761199951172,-5.657089233398438
280289,-0.751983642578125,0.763214111328125,0.2122955322265625,-0.5791978240013123,0.3591057062149048,-0.1876106411218643,27.85014343261719,93.89138793945312,-5.538101196289062
280290,-0.7241363525390625,0.7400665283203125,0.2378997802734375,-0.5944881439208984,0.3590263426303864,-0.173566997051239,27.74331665039062,93.8133544921875,-5.362091064453125
280291,-0.6935272216796875,0.7321624755859375,0.237213134765625,-0.5654634237289429,0.4144014418125153,-0.1620682626962662,27.50276184082031,93.68936157226562,-5.186538696289062
280292,-0.6707000732421875,0.73394775390625,0.2031097412109375,-0.4154139757156372,0.5341696739196777,-0.2001892775297165,27.32894897460938,93.59176635742188,-5.000686645507812
280293,-0.652984619140625,0.736053466796875,0.155242919921875,-0.343962162733078,0.5739511847496033,-0.2473493367433548,27.21302795410156,93.35752868652344,-4.878997802734375
280294,-0.634521484375,0.7377166748046875,0.1196441650390625,-0.3052650988101959,0.6318415999412537,-0.2950090169906616,27.10386657714844,93.30441284179688,-4.75836181640625
280295,-0.6172637939453125,0.7340087890625,0.10760498046875,-0.3093866109848022,0.6828081607818604,-0.3315601050853729,27.02398681640625,93.16940307617188,-4.574859619140625
280296,-0.5968780517578125,0.7215118408203125,0.0868988037109375,-0.3093866109848022,0.6828081607818604,-0.3315601050853729,26.77369689941406,92.97911071777344,-4.495773315429688
280297,-0.5769500732421875,0.7017822265625,0.0419769287109375,-0.3619510233402252,0.6605872511863708,-0.3558758199214935,26.47895812988281,92.88615417480467,-4.429855346679688
280298,-0.5769500732421875,0.7017822265625,0.0419769287109375,-0.3619510233402252,0.6605872511863708,-0.3558758199214935,26.47895812988281,92.88615417480467,-4.429855346679688
280299,-0.51043701171875,0.6394805908203125,-0.1023712158203125,-0.5725032091140747,0.2887473702430725,-0.3312050998210907,25.89390563964844,92.6326141357422,-4.470108032226562
280300,-0.4650115966796875,0.6366424560546875,-0.1613006591796875,-0.7041198015213013,0.0427485294640064,-0.302642434835434,25.54769897460938,92.46400451660156,-4.521011352539062
280301,-0.404449462890625,0.662109375,-0.1849517822265625,-0.91535884141922,-0.1810965538024902,-0.3004865944385529,25.3380126953125,92.31980895996094,-4.537628173828125
280302,-0.3582916259765625,0.7231597900390625,-0.2188720703125,-0.91535884141922,-0.1810965538024902,-0.3004865944385529,25.01724243164062,92.27615356445312,-4.390182495117188
280303,-0.334686279296875,0.8278656005859375,-0.285003662109375,-0.9536068439483644,-0.2136073559522629,-0.3473835289478302,24.83261108398438,92.03848266601562,-4.099685668945312
280304,-0.359649658203125,0.980255126953125,-0.3385162353515625,-0.9148783683776855,-0.2314526587724686,-0.4179929792881012,24.60481262207031,91.77284240722656,-3.5272216796875
280305,-0.4150238037109375,1.124832153320312,-0.351959228515625,-0.8111810088157654,-0.1711733490228653,-0.4353693127632141,24.37107849121094,91.62092590332033,-3.029510498046875
280306,-0.4556884765625,1.223709106445312,-0.350921630859375,-0.6877149939537048,-0.1132218986749649,-0.385579913854599,24.23954772949219,91.30303955078124,-2.460540771484375
280307,-0.4967803955078125,1.25872802734375,-0.35699462890625,-0.5544182062149048,-0.1323974579572678,-0.2816226184368134,23.99183654785156,90.89891052246094,-2.042770385742188
280308,-0.539794921875,1.247344970703125,-0.3619384765625,-0.4244964122772217,-0.1854529529809952,-0.1668350547552109,23.57701110839844,90.47007751464844,-1.405029296875
280309,-0.5549163818359375,1.185791015625,-0.3834991455078125,-0.3028783798217773,-0.1481295526027679,-0.0370648093521595,23.45947265625,90.38883972167967,-1.188812255859375
280310,-0.5389404296875,1.088546752929688,-0.463531494140625,-0.1773366928100586,-0.0516181886196136,0.0537654943764209,23.33090209960938,90.34376525878906,-0.8751983642578125
280311,-0.5064544677734375,0.991729736328125,-0.5609893798828125,-0.0367625430226326,0.0036938043776899,0.122794896364212,23.33880615234375,90.12437438964844,-0.7578887939453125
280312,-0.4689788818359375,0.9280242919921876,-0.6165924072265625,0.0915914326906204,0.0319145247340202,0.1846974045038223,23.371826171875,90.07649230957033,-0.4755859375
280313,-0.424041748046875,0.9013671875,-0.6300048828125,0.2069758176803589,0.0440039448440074,0.2280683219432831,23.50639343261719,89.96591186523438,-0.362335205078125
280314,-0.3590545654296875,0.9104766845703124,-0.6177215576171875,0.289452850818634,0.0892768800258636,0.2381523847579956,23.66282653808594,89.97914123535156,-0.4120941162109375
280315,-0.3032379150390625,0.9293060302734376,-0.617156982421875,0.3452942669391632,0.2286361008882523,0.164788156747818,23.743896484375,90.06730651855469,-0.599853515625
280316,-0.277801513671875,0.9587860107421876,-0.6075897216796875,0.3452942669391632,0.2286361008882523,0.164788156747818,23.88656616210938,90.31924438476562,-0.7418975830078125
280317,-0.2982940673828125,0.971771240234375,-0.562530517578125,0.3528632521629333,0.2442875057458878,0.1202326640486717,23.95252990722656,90.52961730957033,-0.8574981689453125
280318,-0.3450775146484375,0.9784393310546876,-0.5032958984375,0.3784613013267517,0.2523196041584015,0.1204933896660805,24.02517700195312,90.5878448486328,-1.056442260742188
280319,-0.376373291015625,0.9970855712890624,-0.4487762451171875,0.4078292846679688,0.2575212717056274,0.1393222063779831,24.04545593261719,90.59408569335938,-1.326690673828125
280320,-0.4053802490234375,1.013717651367188,-0.4003143310546875,0.4299777448177338,0.2831094563007355,0.1589819341897964,24.11140441894531,90.75428771972656,-1.7064208984375
280321,-0.4397735595703125,1.042144775390625,-0.352447509765625,0.4381808042526245,0.3317275941371918,0.1710460484027863,24.05824279785156,90.87359619140624,-2.048538208007812
280322,-0.4828338623046875,1.080657958984375,-0.3013153076171875,0.4163780510425568,0.3747358024120331,0.1651356965303421,24.10818481445312,91.05101013183594,-2.325698852539062
280323,-0.5388946533203125,1.126541137695312,-0.235748291015625,0.3614189326763153,0.3835894763469696,0.1364065706729889,24.19143676757812,91.15988159179688,-2.648269653320312
280324,-0.592803955078125,1.1812744140625,-0.15423583984375,0.2971477806568146,0.3647792935371399,0.0867218449711799,24.18304443359375,91.31808471679688,-2.893692016601562
280325,-0.66455078125,1.235885620117188,-0.0624847412109375,0.237002432346344,0.3662410974502563,0.0068136975169181,24.2723388671875,91.39410400390624,-3.029388427734375
280326,-0.7559814453125,1.259292602539062,0.0093994140625,0.215877428650856,0.357633501291275,-0.0817329436540603,24.34092712402344,91.52252197265624,-3.371368408203125
280327,-0.850555419921875,1.2452392578125,0.0670013427734375,0.2165200561285019,0.3447480499744415,-0.1617920994758606,24.32058715820312,91.5708465576172,-3.599380493164062
280328,-0.9100494384765624,1.165817260742188,0.083343505859375,0.2348567247390747,0.3205481767654419,-0.2223228216171265,24.36569213867188,91.63429260253906,-3.915451049804688
280329,-0.893707275390625,1.038558959960938,0.0678558349609375,0.3002873957157135,0.3281139731407166,-0.2585383355617523,24.22442626953125,91.6038055419922,-4.139175415039062
280330,-0.813934326171875,0.9002838134765625,0.0155181884765625,0.3584601581096649,0.3361386060714722,-0.3057127892971039,24.1099853515625,91.64479064941406,-4.28387451171875
280331,-0.73333740234375,0.76708984375,-0.063690185546875,0.4026276171207428,0.2781927287578583,-0.3202147483825684,24.08480834960938,91.64646911621094,-4.372756958007812
280332,-0.73333740234375,0.76708984375,-0.063690185546875,0.4026276171207428,0.2781927287578583,-0.3202147483825684,24.08480834960938,91.64646911621094,-4.372756958007812
280333,-0.57208251953125,0.640899658203125,-0.1727294921875,0.4828433394432068,0.0026746126823127,-0.3005830049514771,23.95370483398438,91.75311279296876,-4.64306640625
280334,-0.57208251953125,0.640899658203125,-0.1727294921875,0.4828433394432068,0.0026746126823127,-0.3005830049514771,23.95370483398438,91.75311279296876,-4.64306640625
280335,-0.4190521240234375,0.668426513671875,-0.1176910400390625,0.5259658098220825,-0.0759229958057403,-0.2316476106643677,23.94300842285156,91.80661010742188,-5.13714599609375
280336,-0.3940277099609375,0.7039031982421875,-0.0857086181640625,0.616259753704071,0.1569504737854004,-0.2181211411952972,23.85932922363281,91.66090393066406,-5.220565795898438
280337,-0.3764190673828125,0.7257232666015625,-0.091064453125,0.7415207028388977,0.3456341028213501,-0.1968289017677307,23.85684204101562,91.68174743652344,-5.416763305664062
280338,-0.3930206298828125,0.7323150634765625,-0.09722900390625,0.8127586841583252,0.4123905003070831,-0.1807284951210022,23.88043212890625,91.78109741210938,-5.735626220703125
280339,-0.4050445556640625,0.7100677490234375,-0.0889129638671875,0.7976326942443848,0.3609320819377899,-0.1588511615991592,23.77937316894531,91.81398010253906,-6.036514282226562
280340,-0.4005126953125,0.6534423828125,-0.0495452880859375,0.7267864942550659,0.2936824858188629,-0.1376907527446747,23.73825073242188,91.87066650390624,-6.428817749023438
280341,-0.38299560546875,0.5947418212890625,-0.014801025390625,0.643092691898346,0.2339858710765839,-0.1159167513251305,23.76271057128906,91.89649963378906,-6.85406494140625
280342,-0.36614990234375,0.5576171875,0.0198822021484375,0.5573684573173523,0.2256107479333878,-0.0898465290665626,23.73670959472656,92.02877807617188,-7.17169189453125
280343,-0.3579559326171875,0.5361328125,0.0458984375,0.4451108872890472,0.2426880151033401,-0.0671705156564712,23.69105529785156,92.10821533203124,-7.462310791015625
280344,-0.3502349853515625,0.5235443115234375,0.0743255615234375,0.3021470606327057,0.2712160646915436,-0.0205721203237772,23.69351196289062,92.0625457763672,-7.64617919921875
280345,-0.349609375,0.5409088134765625,0.118804931640625,0.1338262408971786,0.3010298907756805,0.0348061844706535,23.68051147460938,92.1699676513672,-7.878326416015625
280346,-0.3600006103515625,0.5833282470703125,0.156494140625,-0.0487041547894477,0.289646714925766,0.082298070192337,23.65350341796875,92.24690246582033,-8.071426391601562
280347,-0.37274169921875,0.6408538818359375,0.200897216796875,-0.2250711917877197,0.2409036904573441,0.1001798659563065,23.659912109375,92.24301147460938,-8.194305419921875
280348,-0.4055328369140625,0.704742431640625,0.22845458984375,-0.3516712188720703,0.168224960565567,0.0997295230627059,23.72854614257812,92.2067413330078,-8.207931518554688
280349,-0.5060882568359375,0.7931060791015625,0.240936279296875,-0.4093281328678131,0.1179298311471939,0.0912582725286483,23.77423095703125,92.22665405273438,-8.170120239257812
280350,-0.589019775390625,0.8633880615234375,0.2101287841796875,-0.4394434094429016,0.0899117812514305,0.0498660914599895,23.73931884765625,92.10516357421876,-8.008224487304688
280351,-0.6154022216796875,0.893310546875,0.1596221923828125,-0.444118857383728,0.0636788457632064,0.0133309857919812,23.71218872070312,92.18325805664062,-7.927291870117188
280352,-0.6020660400390625,0.921630859375,0.133148193359375,-0.4325165450572968,0.0853553786873817,-0.0172530226409435,23.83348083496094,92.22590637207033,-7.830398559570312
280353,-0.579254150390625,0.9604034423828124,0.134368896484375,-0.4393211901187897,0.1253411471843719,-0.0436297692358493,23.73237609863281,92.26895141601562,-7.6103515625
280354,-0.579254150390625,0.9604034423828124,0.134368896484375,-0.4393211901187897,0.1253411471843719,-0.0436297692358493,23.73237609863281,92.26895141601562,-7.6103515625
280355,-0.5663299560546875,1.001953125,0.152313232421875,-0.4903907477855682,0.1887608617544174,-0.0859556570649147,23.68232727050781,92.14466857910156,-7.386932373046875
280356,-0.563232421875,1.018569946289062,0.15399169921875,-0.5703284740447998,0.2327972948551178,-0.1373610496520996,23.55609130859375,92.08290100097656,-7.404754638671875
280357,-0.583282470703125,0.9551544189453124,0.15496826171875,-0.6377397179603577,0.2642148733139038,-0.2683992385864258,23.4168701171875,91.81961059570312,-7.065994262695312
280358,-0.611724853515625,0.8996429443359375,0.136932373046875,-0.6499143838882446,0.2901090681552887,-0.3593714833259583,23.187255859375,91.78756713867188,-6.960128784179688
280359,-0.646209716796875,0.8343048095703125,0.102203369140625,-0.6815029382705688,0.2919658124446869,-0.4588663876056671,22.9700927734375,91.62937927246094,-6.805938720703125
280360,-0.6655426025390625,0.748260498046875,0.0568695068359375,-0.729248046875,0.2535446584224701,-0.5357978940010071,22.84202575683594,91.44468688964844,-6.745193481445312
280361,-0.6731719970703125,0.69970703125,0.01934814453125,-0.7399574518203735,0.2682775259017944,-0.5817055106163025,22.51437377929688,91.31863403320312,-6.364517211914062
280362,-0.6731719970703125,0.69970703125,0.01934814453125,-0.7399574518203735,0.2682775259017944,-0.5817055106163025,22.51437377929688,91.31863403320312,-6.364517211914062
280363,-0.6132354736328125,0.6973724365234375,-0.1447906494140625,-0.7268149852752686,0.4651535749435425,-0.619927704334259,21.499267578125,90.6281280517578,-5.6883544921875
280364,-0.6132354736328125,0.6973724365234375,-0.1447906494140625,-0.7268149852752686,0.4651535749435425,-0.619927704334259,21.499267578125,90.6281280517578,-5.6883544921875
280365,-0.5855865478515625,0.7248077392578125,-0.254547119140625,-0.7189067602157593,0.4284719824790955,-0.6458207964897156,21.13273620605469,90.3770751953125,-5.445144653320312
280366,-0.5522918701171875,0.76385498046875,-0.3475189208984375,-0.6942482590675354,0.3483238816261292,-0.6344030499458313,20.74478149414062,90.27033996582033,-5.241500854492188
280367,-0.5255889892578125,0.8199005126953125,-0.4159088134765625,-0.6695588827133179,0.2795429527759552,-0.6019787788391113,20.40705871582031,89.8961181640625,-5.038604736328125
280368,-0.50872802734375,0.8867950439453125,-0.4624176025390625,-0.641748309135437,0.2083918154239655,-0.5712259411811829,19.9683837890625,89.54635620117188,-4.92474365234375
280369,-0.493133544921875,0.923828125,-0.496551513671875,-0.5805501937866211,0.1504028141498566,-0.5281546115875244,19.66229248046875,89.15934753417969,-4.67572021484375
280370,-0.480255126953125,0.926025390625,-0.5244903564453125,-0.4919183254241943,0.0682352483272552,-0.4597617387771606,19.20791625976562,88.9427490234375,-4.495147705078125
280371,-0.482269287109375,0.904632568359375,-0.536376953125,-0.3916175663471222,0.0173470322042703,-0.3433437943458557,18.99082946777344,88.72483825683594,-4.2294921875
280372,-0.5048980712890625,0.872100830078125,-0.5469818115234375,-0.3211236894130707,0.0053590792231261,-0.1853434890508652,18.83151245117188,88.51148986816406,-4.186492919921875
280373,-0.5359649658203125,0.8595733642578125,-0.556121826171875,-0.2673395574092865,0.0397058688104152,-0.0120867565274238,18.58503723144531,88.32467651367188,-3.81915283203125
280374,-0.5359649658203125,0.8595733642578125,-0.556121826171875,-0.2673395574092865,0.0397058688104152,-0.0120867565274238,18.58503723144531,88.32467651367188,-3.81915283203125
280375,-0.5641021728515625,0.848480224609375,-0.6193389892578125,-0.1667785942554474,0.1918210983276367,0.2694543898105621,18.44480895996094,88.16807556152344,-3.502960205078125
280376,-0.54266357421875,0.8355712890625,-0.6551971435546875,-0.1290240287780762,0.2950960993766785,0.3688746988773346,18.58695983886719,88.20176696777344,-3.443283081054688
280377,-0.5186309814453125,0.8411102294921875,-0.6580352783203125,-0.0947973504662513,0.4200710356235504,0.4291875958442688,18.61582946777344,88.15594482421875,-3.168228149414062
280378,-0.4912261962890625,0.847442626953125,-0.6485137939453125,0.0030887341126799,0.6646861433982849,0.472739577293396,18.74722290039062,88.22994995117188,-3.179290771484375
280379,-0.4912261962890625,0.847442626953125,-0.6485137939453125,0.0030887341126799,0.6646861433982849,0.472739577293396,18.74722290039062,88.22994995117188,-3.179290771484375
280380,-0.4791412353515625,0.8171234130859375,-0.66094970703125,0.0487760603427887,0.739033043384552,0.4577840864658356,18.95803833007812,88.49241638183594,-3.317916870117188
280381,-0.499237060546875,0.8116607666015625,-0.64971923828125,0.070864588022232,0.8281930088996887,0.4203003346920013,18.95660400390625,88.6070556640625,-3.51318359375
280382,-0.499237060546875,0.8116607666015625,-0.64971923828125,0.070864588022232,0.8281930088996887,0.4203003346920013,18.95660400390625,88.6070556640625,-3.51318359375
280383,-0.594390869140625,0.84600830078125,-0.5976715087890625,-0.0321360975503921,1.00298023223877,0.1596258729696274,19.02093505859375,89.06951904296875,-4.09112548828125
280384,-0.659912109375,0.8660888671875,-0.5769500732421875,-0.0321360975503921,1.00298023223877,0.1596258729696274,18.97029113769531,89.38075256347656,-4.437347412109375
280385,-0.711669921875,0.8588714599609375,-0.5467987060546875,-0.1784935742616653,0.8546168804168701,0.0459238141775131,19.02864074707031,89.38533020019531,-4.831268310546875
280386,-0.713531494140625,0.8099212646484375,-0.4758758544921875,-0.3741139471530914,0.5965864062309265,-0.0235964059829711,18.86810302734375,89.35389709472656,-5.14654541015625
280387,-0.6903228759765625,0.7771453857421875,-0.351806640625,-0.4932515323162079,0.5168958902359009,-0.0109128346666693,18.76240539550781,89.46322631835938,-5.51123046875
280388,-0.687774658203125,0.78375244140625,-0.25238037109375,-0.5489376783370972,0.5737455487251282,0.0748079270124435,18.59640502929688,89.47882080078125,-5.580825805664062
280389,-0.7006378173828125,0.8389434814453125,-0.1598968505859375,-0.5455994009971619,0.6337209939956665,0.1958424746990204,18.48326110839844,89.53062438964844,-5.543991088867188
280390,-0.7083740234375,0.870269775390625,-0.050445556640625,-0.5298803448677063,0.6916181445121765,0.2952662706375122,18.46479797363281,89.48130798339844,-5.569976806640625
280391,-0.6535491943359375,0.806732177734375,0.08636474609375,-0.4317812323570251,0.6390973925590515,0.5978645086288452,18.62600708007812,89.4490966796875,-5.626541137695312
280392,-0.6535491943359375,0.806732177734375,0.08636474609375,-0.4317812323570251,0.6390973925590515,0.5978645086288452,18.62600708007812,89.4490966796875,-5.626541137695312
280393,-0.63238525390625,0.8405914306640625,0.1197509765625,-0.3926338255405426,0.481222540140152,0.6682683229446411,18.86813354492188,89.47050476074219,-5.686538696289062
280394,-0.61077880859375,0.8616943359375,0.174774169921875,-0.2850684821605682,0.1800728291273117,0.6770431995391846,19.09971618652344,89.61787414550781,-5.898910522460938
280395,-0.548980712890625,0.8659210205078125,0.1879730224609375,-0.2850684821605682,0.1800728291273117,0.6770431995391846,19.34883117675781,89.73799133300781,-5.75897216796875
280396,-0.4868011474609375,0.86773681640625,0.198394775390625,-0.2205571383237839,0.0048557417467236,0.5887529850006104,19.64859008789062,89.71255493164062,-5.695938110351562
280397,-0.43585205078125,0.8611602783203125,0.2637481689453125,-0.1570471376180649,-0.0173779241740703,0.488800048828125,19.96446228027344,89.72698974609375,-5.556228637695312
280398,-0.3525848388671875,0.83984375,0.2693634033203125,-0.0904116556048393,0.0271280240267515,0.3890606760978699,20.253173828125,89.77278137207031,-5.434066772460938
280399,-0.2487945556640625,0.842010498046875,0.210693359375,-0.0883879214525222,-0.033572606742382,0.3216938674449921,20.61726379394531,89.89952087402344,-5.540069580078125
280400,-0.2487945556640625,0.842010498046875,0.210693359375,-0.0883879214525222,-0.033572606742382,0.3216938674449921,20.61726379394531,89.89952087402344,-5.540069580078125
280401,-0.0939178466796875,0.92254638671875,0.1470947265625,-0.1403597742319107,0.0072997245006263,0.3388965725898743,21.06208801269531,89.98779296875,-5.379348754882812
280402,-0.12042236328125,0.9659271240234376,0.165618896484375,-0.1531309634447098,0.2537529170513153,0.3239671587944031,21.17762756347656,90.00181579589844,-5.336990356445312
280403,-0.3147125244140625,0.98187255859375,0.142913818359375,-0.0093823168426752,0.6112388968467712,0.0774180889129638,21.33766174316406,90.13198852539062,-5.240570068359375
280404,-0.4922943115234375,0.9550933837890624,0.1009063720703125,-0.0093823168426752,0.6112388968467712,0.0774180889129638,21.39474487304688,90.13484191894533,-5.176498413085938
280405,-0.5601043701171875,0.9443817138671876,0.1077423095703125,0.0381263457238674,0.5500255823135376,-0.0605176724493503,21.35504150390625,90.26480102539062,-5.215316772460938
280406,-0.572479248046875,0.926300048828125,0.09454345703125,0.0673026069998741,0.4414543807506561,-0.1850287020206451,21.33248901367188,90.37898254394533,-5.445327758789062
280407,-0.54193115234375,0.8907012939453125,0.0803985595703125,0.0470452718436718,0.1969825774431229,-0.3023976683616638,21.33892822265625,90.3916015625,-5.589889526367188
280408,-0.54193115234375,0.8907012939453125,0.0803985595703125,0.0470452718436718,0.1969825774431229,-0.3023976683616638,21.33892822265625,90.3916015625,-5.589889526367188
280409,-0.513275146484375,0.7771148681640625,0.0688629150390625,0.0040045953355729,0.1950358003377914,-0.3320173621177673,21.26472473144531,90.20884704589844,-5.796966552734375
280410,-0.51983642578125,0.69287109375,0.04388427734375,-0.0349254943430423,0.2199880182743073,-0.3520693480968475,21.15054321289062,90.19841003417967,-5.935638427734375
280411,-0.5355987548828125,0.629730224609375,0.0297698974609375,-0.0747828930616378,0.2701388001441956,-0.3899030387401581,20.98350524902344,90.15608215332033,-5.987319946289062
280412,-0.56085205078125,0.5810699462890625,0.018218994140625,-0.1311636120080948,0.3141864240169525,-0.4391994774341583,20.81309509277344,90.10499572753906,-5.934219360351562
280413,-0.589385986328125,0.5396270751953125,0.0179595947265625,-0.2078903466463089,0.3363612294197083,-0.4894344210624695,20.65065002441406,90.047119140625,-6.022171020507812
280414,-0.61077880859375,0.516510009765625,0.03521728515625,-0.2952132821083069,0.3782125413417816,-0.5215574502944946,20.3411865234375,89.96260070800781,-5.960678100585938
280415,-0.627716064453125,0.5229034423828125,0.059356689453125,-0.4614432454109192,0.4943647086620331,-0.5579761862754822,20.02021789550781,89.80284118652344,-6.026046752929688
280416,-0.63275146484375,0.5401611328125,0.0705413818359375,-0.4614432454109192,0.4943647086620331,-0.5579761862754822,19.81120300292969,89.69255065917969,-6.020797729492188
280417,-0.6304473876953125,0.5564727783203125,0.0675201416015625,-0.5574544668197632,0.5449283123016357,-0.5543915629386902,19.56101989746094,89.60816955566406,-6.080886840820312
280418,-0.6304473876953125,0.5564727783203125,0.0675201416015625,-0.5574544668197632,0.5449283123016357,-0.5543915629386902,19.56101989746094,89.60816955566406,-6.080886840820312
280419,-0.6094970703125,0.6212310791015625,0.0186004638671875,-0.7759199738502502,0.4424498677253723,-0.4993464350700378,18.92460632324219,89.12338256835938,-5.950729370117188
280420,-0.5882568359375,0.6763763427734375,-0.0312042236328125,-0.8511505126953125,0.3144237101078033,-0.4641282558441162,18.55752563476562,88.89471435546875,-6.0018310546875
280421,-0.5509185791015625,0.7296295166015625,-0.1121978759765625,-0.8798308968544006,0.1616104692220688,-0.4232932031154633,18.25482177734375,88.69508361816406,-5.88153076171875
280422,-0.5012054443359375,0.7833099365234375,-0.1993408203125,-0.8534565567970276,-0.002961168764159,-0.3848363757133484,18.00244140625,88.39962768554688,-5.653152465820312
280423,-0.44891357421875,0.839691162109375,-0.228912353515625,-0.6919321417808533,-0.0828054025769233,-0.3337811529636383,17.76065063476562,88.0748291015625,-5.244430541992188
280424,-0.3896636962890625,0.887237548828125,-0.19500732421875,-0.6919321417808533,-0.0828054025769233,-0.3337811529636383,17.43153381347656,87.91195678710938,-4.929244995117188
280425,-0.3563995361328125,0.9467620849609376,-0.1840362548828125,-0.6531599760055542,0.0171931013464927,-0.3298655152320862,17.19451904296875,87.67222595214844,-4.637374877929688
280426,-0.3663482666015625,1.033340454101562,-0.2529449462890625,-0.597433865070343,0.0293725356459617,-0.3611629903316498,16.8709716796875,87.43705749511719,-4.289901733398438
280427,-0.3972625732421875,1.120697021484375,-0.337860107421875,-0.5264536738395691,-0.0486152060329914,-0.3731405436992645,16.64654541015625,87.08428955078125,-3.877609252929688
280428,-0.4237213134765625,1.159286499023438,-0.390869140625,-0.4072649776935577,-0.2146249562501907,-0.3735608160495758,16.41073608398438,86.87152099609375,-3.615249633789062
280429,-0.4241485595703125,1.152313232421875,-0.396484375,-0.2661286294460297,-0.3672046363353729,-0.3176501393318176,16.21821594238281,86.63299560546875,-3.380783081054688
280430,-0.4241485595703125,1.152313232421875,-0.396484375,-0.2661286294460297,-0.3672046363353729,-0.3176501393318176,16.21821594238281,86.63299560546875,-3.380783081054688
280431,-0.3874359130859375,1.06573486328125,-0.4207305908203125,0.0588870197534561,-0.4194814264774323,-0.0963776707649231,15.88475036621094,86.18144226074219,-2.998855590820312
280432,-0.36651611328125,0.9849700927734376,-0.48248291015625,0.2349885404109955,-0.4083571434020996,0.048576857894659,15.91548156738281,86.0018310546875,-2.823272705078125
280433,-0.3396148681640625,0.907135009765625,-0.5491790771484375,0.410494863986969,-0.3679258227348328,0.1922956705093384,15.87196350097656,86.02767944335938,-2.518035888671875
280434,-0.3396148681640625,0.907135009765625,-0.5491790771484375,0.410494863986969,-0.3679258227348328,0.1922956705093384,15.87196350097656,86.02767944335938,-2.518035888671875
280435,-0.3123931884765625,0.8564453125,-0.5960540771484375,0.6543317437171936,-0.1625364422798157,0.3498962223529816,16.09342956542969,85.99009704589844,-2.1414794921875
280436,-0.32232666015625,0.87890625,-0.5905609130859375,0.6842057704925537,-0.0390936061739921,0.3480799496173859,16.29508972167969,86.33062744140625,-2.383209228515625
280437,-0.3523712158203125,0.919281005859375,-0.5597076416015625,0.6562726497650146,0.0217122193425893,0.3234920501708984,16.48442077636719,86.318115234375,-2.536148071289062
280438,-0.3962249755859375,0.970611572265625,-0.509185791015625,0.604909360408783,0.0646306574344635,0.3036696016788483,16.65354919433594,86.55436706542969,-2.660171508789062
280439,-0.4312591552734375,1.022476196289062,-0.465728759765625,0.5036495923995972,0.1717256903648376,0.2396797090768814,16.81570434570312,86.66357421875,-3.028976440429688
280440,-0.467742919921875,1.073089599609375,-0.4237518310546875,0.5036495923995972,0.1717256903648376,0.2396797090768814,16.98419189453125,86.90158081054688,-3.333541870117188
280441,-0.5154571533203125,1.122955322265625,-0.390625,0.4237046539783478,0.2659081220626831,0.188996285200119,17.04409790039062,87.16181945800781,-3.5880126953125
280442,-0.56707763671875,1.170608520507812,-0.361968994140625,0.330736368894577,0.3377735018730164,0.1573020070791245,17.18125915527344,87.24191284179688,-3.795440673828125
280443,-0.625885009765625,1.221542358398438,-0.2934417724609375,0.2355778962373734,0.4058106243610382,0.1162080988287926,17.22566223144531,87.48777770996094,-4.076995849609375
280444,-0.675750732421875,1.249526977539062,-0.20574951171875,0.1804470121860504,0.4831687808036804,0.0763312578201293,17.26316833496094,87.75399780273438,-4.420516967773438
280445,-0.7349853515625,1.25634765625,-0.130767822265625,0.1752623617649078,0.5456497669219971,0.0427176356315612,17.34016418457031,87.83038330078125,-4.67864990234375
280446,-0.7836151123046875,1.232589721679688,-0.10137939453125,0.1963514089584351,0.5596300363540649,-0.0214269943535327,17.28179931640625,87.89427185058594,-4.879852294921875
280447,-0.811553955078125,1.172760009765625,-0.08612060546875,0.241875484585762,0.5100560784339905,-0.1081541702151299,17.232666015625,88.07942199707031,-5.168975830078125
280448,-0.8254547119140625,1.076889038085938,-0.087615966796875,0.2685944437980652,0.4286938309669495,-0.1686441451311111,17.22016906738281,88.16441345214844,-5.423248291015625
280449,-0.803314208984375,0.95452880859375,-0.1049041748046875,0.2756384909152985,0.3384456932544708,-0.2051805853843689,17.1500244140625,88.25218200683594,-5.665069580078125
280450,-0.7641448974609375,0.8447265625,-0.1350555419921875,0.2491432428359985,0.2432238310575485,-0.2204301059246063,17.12129211425781,88.30195617675781,-5.980789184570312
280451,-0.73577880859375,0.7767333984375,-0.181243896484375,0.2109242230653763,0.1079206094145775,-0.2145775407552719,17.13134765625,88.3160400390625,-6.299606323242188
280452,-0.721466064453125,0.7658843994140625,-0.213043212890625,0.222618967294693,-0.0420848689973354,-0.2039358168840408,17.16055297851562,88.35038757324219,-6.493972778320312
280453,-0.7235107421875,0.778533935546875,-0.2091522216796875,0.2962604165077209,-0.1550540328025818,-0.1826425194740295,17.18302917480469,88.28791809082031,-6.49688720703125
280454,-0.7237091064453125,0.7875213623046875,-0.169097900390625,0.4150347411632538,-0.2116262316703796,-0.1310762614011765,17.21380615234375,88.25724792480469,-6.534469604492188
280455,-0.6959228515625,0.77685546875,-0.1116180419921875,0.5767645239830017,-0.1563994586467743,-0.046203713864088,17.2816162109375,88.26066589355469,-6.568588256835938
280456,-0.6959228515625,0.77685546875,-0.1116180419921875,0.5767645239830017,-0.1563994586467743,-0.046203713864088,17.2816162109375,88.26066589355469,-6.568588256835938
280457,-0.612213134765625,0.7261810302734375,-0.0208587646484375,0.8988405466079712,0.1804589927196503,0.1058752983808517,17.51744079589844,88.25111389160156,-6.649276733398438
280458,-0.575164794921875,0.6708831787109375,0.02618408203125,0.9514172077178956,0.3452777564525604,0.1486898809671402,17.70761108398438,88.23606872558594,-6.788711547851562
280459,-0.5452880859375,0.602294921875,0.0735015869140625,0.9323271512985228,0.4937585890293121,0.1766344308853149,17.91845703125,88.38862609863281,-7.159805297851562
280460,-0.5036163330078125,0.5234375,0.096954345703125,0.8625810742378235,0.6072063446044922,0.2066293358802795,18.10630798339844,88.4813232421875,-7.670242309570312
280461,-0.432708740234375,0.4642181396484375,0.0965423583984375,0.7764573693275452,0.6894140839576721,0.2603602111339569,18.19499206542969,88.41336059570312,-8.124725341796875
280462,-0.372161865234375,0.4671783447265625,0.1126708984375,0.6633316278457642,0.7455506324768066,0.2968300879001617,18.27777099609375,88.58317565917969,-8.489288330078125
280463,-0.313690185546875,0.47113037109375,0.1341552734375,0.211297333240509,0.7213667035102844,0.2951837182044983,18.39207458496094,88.6986083984375,-9.117706298828123
280464,-0.2721405029296875,0.5023193359375,0.16949462890625,0.211297333240509,0.7213667035102844,0.2951837182044983,18.49908447265625,88.71231079101562,-9.561904907226562
280465,-0.236846923828125,0.5295562744140625,0.20526123046875,-0.0926684141159057,0.5820059180259705,0.2516242563724518,18.66218566894531,88.71234130859375,-10.05268859863281
280466,-0.2160186767578125,0.569183349609375,0.2269744873046875,-0.344255656003952,0.377403736114502,0.2178961038589478,18.66453552246094,88.86868286132812,-10.30543518066406
280467,-0.2111358642578125,0.6544036865234375,0.2202301025390625,-0.4581878185272217,0.1411733627319336,0.2030452638864517,18.74432373046875,89.01605224609375,-10.49592590332031
280468,-0.2111358642578125,0.6544036865234375,0.2202301025390625,-0.4581878185272217,0.1411733627319336,0.2030452638864517,18.74432373046875,89.01605224609375,-10.49592590332031
280469,-0.3567047119140625,0.9456024169921876,0.2110137939453125,-0.4122232496738434,-0.092700108885765,0.198930412530899,18.78738403320312,89.27528381347656,-10.72308349609375
280470,-0.43353271484375,1.03033447265625,0.173370361328125,-0.4182808697223663,-0.0528863854706287,0.1282237470149994,18.84445190429688,89.33880615234375,-10.5521240234375
280471,-0.4512786865234375,1.041595458984375,0.1474456787109375,-0.4521267116069794,-0.0788029357790947,0.0795699283480644,18.91804504394531,89.22799682617188,-10.4996337890625
280472,-0.45697021484375,1.01690673828125,0.197723388671875,-0.4983732998371124,-0.0706885531544685,0.0544541887938976,18.96571350097656,89.16175842285156,-10.02287292480469
280473,-0.475433349609375,1.0009765625,0.23651123046875,-0.5367566347122192,-0.0418539717793464,-0.0003012035158462,19.00137329101562,89.05363464355469,-9.832916259765623
280474,-0.5124359130859375,0.9849700927734376,0.2415313720703125,-0.5679899454116821,-0.0725562274456024,-0.0817028507590293,18.98028564453125,89.04841613769531,-9.54510498046875
280475,-0.5441131591796875,0.9407196044921876,0.2296600341796875,-0.5973007082939148,-0.1528571844100952,-0.1891235858201981,18.91456604003906,89.15382385253906,-9.57781982421875
280476,-0.583587646484375,0.9087066650390624,0.214385986328125,-0.6187775135040283,-0.2247966229915619,-0.3051572442054749,18.81674194335938,89.08766174316406,-9.251205444335938
280477,-0.6117401123046875,0.87255859375,0.1967926025390625,-0.6290271878242493,-0.1879091858863831,-0.5039326548576355,18.67266845703125,89.01890563964844,-8.931915283203125
280478,-0.642913818359375,0.748443603515625,0.14263916015625,-0.6663066744804382,-0.0539721548557281,-0.5223521590232849,18.36949157714844,88.6595458984375,-8.447952270507812
280479,-0.642913818359375,0.748443603515625,0.14263916015625,-0.6663066744804382,-0.0539721548557281,-0.5223521590232849,18.36949157714844,88.6595458984375,-8.447952270507812
280480,-0.6451568603515625,0.7113494873046875,0.065185546875,-0.7165080308914185,0.096756100654602,-0.5208469033241272,18.15342712402344,88.43148803710938,-8.139801025390625
280481,-0.62091064453125,0.67303466796875,-0.0298004150390625,-0.7487650513648987,0.1988859325647354,-0.5212213397026062,17.86537170410156,88.20423889160156,-7.887008666992188
280482,-0.5928192138671875,0.67138671875,-0.1193695068359375,-0.7578458786010742,0.2844825983047485,-0.5284595489501953,17.58552551269531,88.06718444824219,-7.675582885742188
280483,-0.5705718994140625,0.72021484375,-0.2285614013671875,-0.7480856776237488,0.3039449751377106,-0.5366125702857971,17.29090881347656,87.82316589355469,-7.435409545898438
280484,-0.5444793701171875,0.77960205078125,-0.3314361572265625,-0.7016705274581909,0.2780558466911316,-0.5566022396087646,16.94523620605469,87.51405334472656,-7.285232543945312
280485,-0.514801025390625,0.845550537109375,-0.395965576171875,-0.6409615874290466,0.2187371402978897,-0.5523926019668579,16.62200927734375,87.21781921386719,-7.063583374023438
280486,-0.482818603515625,0.9225311279296876,-0.418487548828125,-0.5814855098724365,0.2204306423664093,-0.5162559151649475,16.32693481445312,86.89527893066406,-6.920928955078125
280487,-0.475860595703125,0.9932098388671876,-0.4421539306640625,-0.5228887796401978,0.2589202523231506,-0.4901947379112244,16.07485961914062,86.53901672363281,-6.791534423828125
280488,-0.4627227783203125,1.018997192382812,-0.4785614013671875,-0.4574381411075592,0.2384210973978043,-0.4294850528240204,15.72740173339844,86.29322814941406,-6.662185668945312
280489,-0.4320526123046875,1.003311157226562,-0.4960479736328125,-0.3515902459621429,0.15801040828228,-0.329241007566452,15.58291625976562,85.98179626464844,-6.406478881835938
280490,-0.4314117431640625,0.9752960205078124,-0.49615478515625,-0.2134699374437332,0.1327724307775497,-0.1778184622526169,15.35762023925781,85.728759765625,-6.00689697265625
280491,-0.4336700439453125,0.937774658203125,-0.5203399658203125,-0.0638974905014038,0.1748897880315781,-0.0218959785997867,15.25740051269531,85.60818481445312,-5.87152099609375
280492,-0.4336700439453125,0.937774658203125,-0.5203399658203125,-0.0638974905014038,0.1748897880315781,-0.0218959785997867,15.25740051269531,85.60818481445312,-5.87152099609375
280493,-0.428436279296875,0.8423309326171875,-0.6444091796875,0.2445748597383499,0.4306299388408661,0.3434465825557709,15.19642639160156,85.50967407226562,-5.978485107421875
280494,-0.428436279296875,0.8423309326171875,-0.6444091796875,0.2445748597383499,0.4306299388408661,0.3434465825557709,15.19642639160156,85.50967407226562,-5.978485107421875
280495,-0.40948486328125,0.807281494140625,-0.7064056396484375,0.3508983552455902,0.5708115696907043,0.4819320142269135,15.18849182128906,85.63832092285156,-5.966094970703125
280496,-0.3245849609375,0.79718017578125,-0.758880615234375,0.3822770714759827,0.7544301152229309,0.580487072467804,15.399658203125,85.92649841308594,-6.24810791015625
280497,-0.3135528564453125,0.8285064697265625,-0.75323486328125,0.3227740526199341,0.7951647639274597,0.5458859801292419,15.5570068359375,86.11436462402344,-6.527542114257812
280498,-0.3135528564453125,0.8285064697265625,-0.75323486328125,0.3227740526199341,0.7951647639274597,0.5458859801292419,15.5570068359375,86.11436462402344,-6.527542114257812
280499,-0.37115478515625,0.9162750244140624,-0.74139404296875,0.1417342275381088,0.8063763976097107,0.4781644344329834,15.7669677734375,86.64042663574219,-7.560043334960938
280500,-0.421173095703125,0.9681549072265624,-0.716644287109375,0.0624625794589519,0.797526478767395,0.4519323110580444,15.7606201171875,86.8594970703125,-7.868637084960938
280501,-0.475616455078125,1.01904296875,-0.674468994140625,-0.0304844062775373,0.7695744633674622,0.4246732592582703,15.87623596191406,87.04133605957031,-8.243789672851562
280502,-0.5218048095703125,1.06768798828125,-0.60394287109375,-0.137073427438736,0.6991397142410278,0.3980040848255157,15.92814636230469,87.14959716796875,-8.532546997070312
280503,-0.5535888671875,1.110458374023438,-0.499237060546875,-0.2601650059223175,0.5737926959991455,0.3782309293746948,16.0380859375,87.37492370605469,-8.779571533203125
280504,-0.545745849609375,1.138320922851562,-0.355499267578125,-0.3943917751312256,0.4994603991508484,0.3488477468490601,16.04136657714844,87.48280334472656,-8.953903198242188
280505,-0.508758544921875,1.120132446289062,-0.232269287109375,-0.4735265374183655,0.4839810431003571,0.3151890933513641,16.28173828125,87.48037719726562,-8.99560546875
280506,-0.493927001953125,1.070236206054688,-0.1345062255859375,-0.4719353020191193,0.4877779185771942,0.2859273552894592,16.29661560058594,87.61643981933594,-9.098159790039062
280507,-0.5034027099609375,1.0166015625,-0.060211181640625,-0.4000453948974609,0.4886620938777924,0.2676258385181427,16.38836669921875,87.86428833007812,-9.189849853515623
280508,-0.5264434814453125,0.9672088623046876,-0.0096282958984375,-0.2967970371246338,0.4832444190979004,0.2921000421047211,16.5208740234375,88.02169799804688,-9.251052856445312
280509,-0.553436279296875,0.941162109375,0.0317840576171875,-0.1864596307277679,0.4477990865707397,0.3308389186859131,16.70791625976562,88.06344604492188,-9.352386474609377
280510,-0.553436279296875,0.941162109375,0.0317840576171875,-0.1864596307277679,0.4477990865707397,0.3308389186859131,16.70791625976562,88.06344604492188,-9.352386474609377
280511,-0.572418212890625,0.8944091796875,0.0936737060546875,0.0543897375464439,-0.0179590266197919,0.3424558937549591,17.23762512207031,88.17745971679688,-9.483688354492188
280512,-0.529937744140625,0.849945068359375,0.1070098876953125,0.0543897375464439,-0.0179590266197919,0.3424558937549591,17.54063415527344,88.36773681640625,-9.450927734375
280513,-0.457244873046875,0.8068389892578125,0.14605712890625,0.0536019764840602,-0.2730738818645477,0.3217937350273132,17.86798095703125,88.491455078125,-9.452072143554688
280514,-0.3734893798828125,0.7874298095703125,0.19952392578125,-0.0017608820926398,-0.3957065939903259,0.3189894258975983,18.19119262695312,88.45454406738281,-9.273193359375
280515,-0.3073272705078125,0.784271240234375,0.2306671142578125,-0.0617650970816612,-0.2913860380649567,0.3335675895214081,18.36502075195312,88.54502868652344,-9.313552856445312
280516,-0.2567901611328125,0.799468994140625,0.2332611083984375,-0.0572150871157646,-0.0108933942392468,0.3565610349178314,18.56938171386719,88.63600158691406,-9.133560180664062
280517,-0.23974609375,0.7999267578125,0.2195892333984375,-0.0111482581123709,0.3231618106365204,0.3621360957622528,18.65701293945312,88.78230285644531,-9.0653076171875
280518,-0.23974609375,0.7999267578125,0.2195892333984375,-0.0111482581123709,0.3231618106365204,0.3621360957622528,18.65701293945312,88.78230285644531,-9.0653076171875
280519,-0.352691650390625,0.730560302734375,0.151580810546875,0.0573519729077816,0.6794264316558838,0.2857998013496399,19.03086853027344,88.93505859375,-8.957382202148438
280520,-0.4189910888671875,0.7119140625,0.110595703125,0.096861831843853,0.6362422108650208,0.2114864140748978,19.17990112304688,89.10972595214844,-9.229232788085938
280521,-0.4656524658203125,0.713958740234375,0.082763671875,0.1563118398189545,0.5666186809539795,0.109768308699131,19.18408203125,89.24505615234375,-9.51348876953125
280522,-0.552337646484375,0.7692718505859375,0.0087738037109375,0.2103556394577026,0.5581690073013306,-0.1289020627737045,19.29751586914062,89.32376098632812,-9.947601318359377
280523,-0.552337646484375,0.7692718505859375,0.0087738037109375,0.2103556394577026,0.5581690073013306,-0.1289020627737045,19.29751586914062,89.32376098632812,-9.947601318359377
280524,-0.5606231689453125,0.807586669921875,-0.0428314208984375,0.1628168821334839,0.4878162741661072,-0.2309493273496628,19.21586608886719,89.23666381835938,-10.03248596191406
280525,-0.543304443359375,0.8252410888671875,-0.05126953125,0.0689902529120445,0.3523114323616028,-0.3029825091362,19.12266540527344,89.21853637695312,-10.32438659667969
280526,-0.507293701171875,0.8202362060546875,-0.052764892578125,-0.0182274729013443,0.1992862075567245,-0.3629337251186371,18.91087341308594,89.18588256835938,-10.52593994140625
280527,-0.4728851318359375,0.7936859130859375,-0.045684814453125,-0.0603243261575698,0.0568648800253868,-0.4090546071529388,18.79425048828125,89.05862426757812,-10.68174743652344
280528,-0.4586639404296875,0.7701873779296875,-0.029632568359375,-0.0771549716591835,-0.057607103139162,-0.447666734457016,18.63822937011719,89.01542663574219,-10.80111694335938
280529,-0.4689788818359375,0.75885009765625,-0.0123748779296875,-0.0964413210749626,-0.1306464225053787,-0.4937567114830017,18.45454406738281,88.96769714355469,-10.89466857910156
280530,-0.4943389892578125,0.7520751953125,-0.002655029296875,-0.1203170865774155,-0.1693709194660187,-0.5470907688140869,18.19734191894531,88.97819519042969,-10.94190979003906
280531,-0.533477783203125,0.7489471435546875,0.01483154296875,-0.2154294848442078,-0.0711301043629646,-0.6681551337242126,18.01382446289062,88.77452087402344,-10.89991760253906
280532,-0.5768585205078125,0.7409515380859375,0.044647216796875,-0.2154294848442078,-0.0711301043629646,-0.6681551337242126,17.69248962402344,88.53581237792969,-10.837158203125
280533,-0.608154296875,0.72833251953125,0.06396484375,-0.3243397176265717,0.1451302915811539,-0.7106826305389404,17.43557739257812,88.24085998535156,-10.558349609375
280534,-0.608154296875,0.72833251953125,0.06396484375,-0.3243397176265717,0.1451302915811539,-0.7106826305389404,17.43557739257812,88.24085998535156,-10.558349609375
280535,-0.6247711181640625,0.7105865478515625,0.0584564208984375,-0.5737490057945251,0.5260320901870728,-0.7197728157043457,17.05075073242188,88.18254089355469,-10.42715454101562
280536,-0.6479034423828125,0.690155029296875,0.0574493408203125,-0.5737490057945251,0.5260320901870728,-0.7197728157043457,16.71058654785156,87.92994689941406,-10.3890380859375
280537,-0.6973419189453125,0.6859893798828125,0.0545501708984375,-0.7989197969436646,0.5942308902740479,-0.6586724519729614,15.96011352539062,87.45979309082031,-10.37815856933594
280538,-0.7021484375,0.709320068359375,0.02081298828125,-0.8991151452064514,0.5336740612983704,-0.6239022016525269,15.66339111328125,87.26971435546875,-10.47447204589844
280539,-0.692230224609375,0.7408599853515625,-0.032135009765625,-0.9831187129020692,0.4514111280441284,-0.5868517756462097,15.2943115234375,86.89620971679688,-10.3905029296875
280540,-0.692230224609375,0.7408599853515625,-0.032135009765625,-0.9831187129020692,0.4514111280441284,-0.5868517756462097,15.2943115234375,86.89620971679688,-10.3905029296875
280541,-0.6309356689453125,0.8304901123046875,-0.1525421142578125,-0.9780541658401488,0.3106265664100647,-0.5077902674674988,14.67298889160156,86.37251281738281,-9.97674560546875
280542,-0.6309356689453125,0.8304901123046875,-0.1525421142578125,-0.9780541658401488,0.3106265664100647,-0.5077902674674988,14.67298889160156,86.37251281738281,-9.97674560546875
280543,-0.579193115234375,0.87646484375,-0.1982574462890625,-0.8955129384994507,0.3068411648273468,-0.4331402480602264,14.32577514648438,86.05972290039062,-9.74932861328125
280544,-0.4712982177734375,1.021102905273438,-0.283966064453125,-0.6424359679222107,0.3368171751499176,-0.2847912609577179,13.58619689941406,85.5736083984375,-9.1407470703125
280545,-0.430908203125,1.079238891601562,-0.308013916015625,-0.4789932072162628,0.35381880402565,-0.2534929811954498,13.2564697265625,85.39399719238281,-8.854827880859375
280546,-0.411346435546875,1.113983154296875,-0.3358612060546875,-0.2884277999401093,0.3636567890644073,-0.2427199631929398,13.04304504394531,85.27471923828125,-8.810089111328125
280547,-0.3875579833984375,1.135147094726562,-0.381317138671875,-0.0734569057822227,0.3892598748207092,-0.1976805925369263,12.91171264648438,85.05326843261719,-8.725936889648438
280548,-0.371795654296875,1.133499145507812,-0.454010009765625,0.1220635920763016,0.3828728199005127,-0.1502936333417892,12.79244995117188,84.91654968261719,-8.747390747070312
280549,-0.3467864990234375,1.0792236328125,-0.5716705322265625,0.2719175219535828,0.3053615093231201,-0.0513742417097091,12.67814636230469,84.74485778808594,-8.718597412109375
280550,-0.326263427734375,1.014328002929688,-0.7196807861328125,0.4242303669452667,0.1120373234152794,0.080626405775547,12.74642944335938,84.56336975097656,-8.877822875976562
280551,-0.286407470703125,0.97265625,-0.7729644775390625,0.57905513048172,-0.0541716255247592,0.2243010103702545,12.79730224609375,84.3748779296875,-9.002029418945312
280552,-0.2437286376953125,0.9541168212890624,-0.779998779296875,0.7332390546798706,-0.0459451228380203,0.3233538269996643,12.94326782226562,84.41584777832031,-9.04931640625
280553,-0.2030487060546875,0.9800262451171876,-0.7898406982421875,0.8256180286407471,0.0747283026576042,0.3323158919811249,13.030517578125,84.50836181640625,-9.0975341796875
280554,-0.2030487060546875,0.9800262451171876,-0.7898406982421875,0.8256180286407471,0.0747283026576042,0.3323158919811249,13.030517578125,84.50836181640625,-9.0975341796875
280555,-0.15911865234375,0.984466552734375,-0.800933837890625,0.8075170516967773,0.2065619677305222,0.2780942022800446,13.28848266601562,84.48411560058594,-9.171340942382812
280556,-0.16656494140625,0.976776123046875,-0.8175201416015625,0.6282154321670532,0.1515919268131256,0.2566437721252441,13.57553100585938,84.80078125,-9.928619384765623
280557,-0.225372314453125,1.009994506835938,-0.779815673828125,0.5184756517410278,0.1004602909088135,0.3095197677612305,13.56846618652344,84.99774169921875,-10.20848083496094
280558,-0.2557830810546875,1.082504272460938,-0.726470947265625,0.3950919210910797,0.0270071160048246,0.3454316854476929,13.67405700683594,85.12232971191406,-10.46510314941406
280559,-0.267578125,1.138427734375,-0.6647796630859375,0.1458629369735718,-0.0256241373717784,0.3331188261508942,13.83236694335938,85.35615539550781,-10.84931945800781
280560,-0.2790679931640625,1.184463500976562,-0.6012725830078125,0.1458629369735718,-0.0256241373717784,0.3331188261508942,13.83909606933594,85.47731018066406,-11.10560607910156
280561,-0.29327392578125,1.2220458984375,-0.5128326416015625,0.0488546229898929,-0.0249705966562032,0.296325147151947,14.02862548828125,85.60623168945312,-11.3570556640625
280562,-0.29327392578125,1.2220458984375,-0.5128326416015625,0.0488546229898929,-0.0249705966562032,0.296325147151947,14.02862548828125,85.60623168945312,-11.3570556640625
280563,-0.3736419677734375,1.253936767578125,-0.323516845703125,0.0328892394900322,-0.0648676827549934,0.1179242432117462,14.24948120117188,86.00869750976562,-11.44155883789062
280564,-0.4459381103515625,1.221527099609375,-0.258941650390625,0.1070814430713654,-0.1528443992137909,-0.009809753857553,14.27799987792969,86.22319030761719,-11.44218444824219
280565,-0.5381317138671875,1.154281616210938,-0.207305908203125,0.3319664895534515,-0.3710217475891113,-0.243768721818924,14.30999755859375,86.34730529785156,-11.48847961425781
280566,-0.6069183349609375,1.071319580078125,-0.1878204345703125,0.3319664895534515,-0.3710217475891113,-0.243768721818924,14.26446533203125,86.40245056152344,-11.54173278808594
280567,-0.6490020751953125,0.9637298583984376,-0.1631927490234375,0.4387477934360504,-0.5049757957458496,-0.3418776988983154,14.3111572265625,86.58303833007812,-11.65380859375
280568,-0.6490020751953125,0.9637298583984376,-0.1631927490234375,0.4387477934360504,-0.5049757957458496,-0.3418776988983154,14.3111572265625,86.58303833007812,-11.65380859375
280569,-0.678375244140625,0.730499267578125,-0.14874267578125,0.6434271931648254,-0.8133909106254578,-0.4277814328670502,14.30888366699219,86.4986572265625,-11.77760314941406
280570,-0.678375244140625,0.730499267578125,-0.14874267578125,0.6434271931648254,-0.8133909106254578,-0.4277814328670502,14.30888366699219,86.4986572265625,-11.77760314941406
280571,-0.66796875,0.6539154052734375,-0.1584014892578125,0.9014355540275574,-1.546954870223999,-0.1275449097156525,14.36408996582031,86.35215759277344,-11.69349670410156
280572,-0.64056396484375,0.674896240234375,-0.0699920654296875,0.9014355540275574,-1.546954870223999,-0.1275449097156525,14.52931213378906,86.32905578613281,-11.7166748046875
280573,-0.6042022705078125,0.731170654296875,0.07232666015625,0.9941585659980774,-1.428598165512085,0.0525042191147804,14.78657531738281,86.28092956542969,-11.33306884765625
280574,-0.5978851318359375,0.7664031982421875,0.17254638671875,1.119853615760803,-0.9370098114013672,0.1062811687588692,14.99380493164062,86.31961059570312,-11.12178039550781
280575,-0.58782958984375,0.7315826416015625,0.2041168212890625,1.234008193016052,-0.3914375305175781,0.0862379521131515,15.20379638671875,86.41104125976562,-10.87831115722656
280576,-0.618560791015625,0.6544647216796875,0.201507568359375,1.237804532051086,-0.0244155935943126,0.0547790937125682,15.36460876464844,86.53704833984375,-10.86958312988281
280577,-0.6273956298828125,0.5655670166015625,0.1826629638671875,1.107354879379272,0.0798791199922561,0.0447967648506164,15.43183898925781,86.71440124511719,-11.01858520507812
280578,-0.6273956298828125,0.5655670166015625,0.1826629638671875,1.107354879379272,0.0798791199922561,0.0447967648506164,15.43183898925781,86.71440124511719,-11.01858520507812
280579,-0.560546875,0.3823699951171875,0.217620849609375,0.7031592130661011,0.0669137835502624,0.0103112272918224,15.65702819824219,86.7528076171875,-11.82093811035156
280580,-0.4925689697265625,0.298065185546875,0.2203826904296875,0.5131424069404602,0.0606108829379081,0.0234725698828697,15.72026062011719,86.86149597167969,-12.27145385742188
280581,-0.4174957275390625,0.2450103759765625,0.222900390625,0.319713830947876,0.0658839419484138,0.0539718903601169,15.78498840332031,86.94757080078125,-12.53994750976562
280582,-0.34869384765625,0.2296905517578125,0.22015380859375,0.080561950802803,0.0834661275148391,0.0831649303436279,15.74658203125,86.91487121582031,-12.78001403808594
280583,-0.2865447998046875,0.25262451171875,0.213775634765625,-0.1694137901067734,0.0675817057490348,0.1134141758084297,15.86869812011719,86.9368896484375,-13.00627136230469
280584,-0.2865447998046875,0.25262451171875,0.213775634765625,-0.1694137901067734,0.0675817057490348,0.1134141758084297,15.86869812011719,86.9368896484375,-13.00627136230469
280585,-0.2421417236328125,0.44866943359375,0.210540771484375,-0.5815528631210327,-0.0988757163286209,0.1435214728116989,15.68052673339844,86.96852111816406,-13.21400451660156
280586,-0.3229522705078125,0.6136474609375,0.2334442138671875,-0.7244865894317627,-0.192437618970871,0.1782163381576538,15.71090698242188,87.00376892089844,-13.04598999023438
280587,-0.44293212890625,0.761688232421875,0.22430419921875,-0.959735095500946,-0.0639456957578659,0.1500110626220703,15.72879028320312,87.082763671875,-12.97354125976562
280588,-0.5127716064453125,0.8525390625,0.1684112548828125,-0.959735095500946,-0.0639456957578659,0.1500110626220703,15.71083068847656,87.08087158203125,-12.66165161132812
280589,-0.5591888427734375,0.9306793212890624,0.1631927490234375,-1.044907450675964,0.0350993983447551,0.111811488866806,15.70230102539062,87.0682373046875,-12.3631591796875
280590,-0.5947723388671875,1.011886596679688,0.1771697998046875,-1.120014786720276,0.1714130342006683,0.0505888760089874,15.55517578125,87.0089111328125,-11.98031616210938
280591,-0.6197357177734375,1.059463500976562,0.1984710693359375,-1.187333345413208,0.267004519701004,-0.0349068492650985,15.51066589355469,87.01362609863281,-11.65226745605469
280592,-0.6421051025390625,1.081253051757812,0.2239837646484375,-1.259901762008667,0.2658665776252747,-0.1350606083869934,15.51451110839844,86.90176391601562,-11.3006591796875
280593,-0.6564788818359375,1.110870361328125,0.234344482421875,-1.293171644210815,0.1063711792230606,-0.3597728312015533,15.46580505371094,86.82247924804688,-10.91584777832031
280594,-0.6564788818359375,1.110870361328125,0.234344482421875,-1.293171644210815,0.1063711792230606,-0.3597728312015533,15.46580505371094,86.82247924804688,-10.91584777832031
280595,-0.6775054931640625,1.17254638671875,0.22528076171875,-1.258962035179138,-0.0065380604937672,-0.4936432838439941,15.30938720703125,86.70344543457031,-10.52452087402344
280596,-0.7052764892578125,1.228485107421875,0.1918487548828125,-1.146300673484802,-0.0089841736480593,-0.5904896259307861,15.06219482421875,86.24137878417969,-9.794448852539062
280597,-0.68157958984375,1.15032958984375,0.1519775390625,-0.9735150933265686,0.1199048310518265,-0.618744432926178,14.76565551757812,86.09776306152344,-9.241790771484377
280598,-0.68157958984375,1.15032958984375,0.1519775390625,-0.9735150933265686,0.1199048310518265,-0.618744432926178,14.76565551757812,86.09776306152344,-9.241790771484377
280599,-0.6274871826171875,0.9247283935546876,-0.03955078125,-0.6750157475471497,0.4647993743419647,-0.5477427244186401,14.15625,85.54098510742188,-8.963607788085938
280600,-0.6274871826171875,0.9247283935546876,-0.03955078125,-0.6750157475471497,0.4647993743419647,-0.5477427244186401,14.15625,85.54098510742188,-8.963607788085938
280601,-0.6129913330078125,0.8400726318359375,-0.2191619873046875,-0.5466521382331848,0.4203141927719116,-0.5167626738548279,13.42134094238281,85.15505981445312,-8.60626220703125
280602,-0.6129913330078125,0.8400726318359375,-0.2191619873046875,-0.5466521382331848,0.4203141927719116,-0.5167626738548279,13.42134094238281,85.15505981445312,-8.60626220703125
280603,-0.568939208984375,0.8796539306640625,-0.342193603515625,-0.5076645612716675,0.2995283901691437,-0.5181246399879456,13.04826354980469,84.58055114746094,-8.51873779296875
280604,-0.54449462890625,0.8866729736328125,-0.3858489990234375,-0.4808012545108795,0.28318190574646,-0.4732892513275146,12.73086547851562,84.3294677734375,-8.4595947265625
280605,-0.5445098876953125,0.8995513916015625,-0.41339111328125,-0.4468579292297363,0.3166418671607971,-0.394618421792984,12.4969482421875,84.15745544433594,-8.4390869140625
280606,-0.5588226318359375,0.9096832275390624,-0.4533233642578125,-0.3916356861591339,0.3591544330120087,-0.3200075626373291,12.21986389160156,83.82916259765625,-8.271163940429688
280607,-0.5588226318359375,0.9096832275390624,-0.4533233642578125,-0.3916356861591339,0.3591544330120087,-0.3200075626373291,12.21986389160156,83.82916259765625,-8.271163940429688
280608,-0.604705810546875,0.9582366943359376,-0.6103668212890625,-0.2148217558860779,0.2721289992332458,-0.1256750971078873,11.82083129882812,83.31515502929688,-8.166397094726562
280609,-0.6021728515625,0.98687744140625,-0.66259765625,-0.1273033618927002,0.227473109960556,-0.0208980906754732,11.69671630859375,83.13156127929688,-8.1583251953125
280610,-0.6021728515625,0.98687744140625,-0.66259765625,-0.1273033618927002,0.227473109960556,-0.0208980906754732,11.69671630859375,83.13156127929688,-8.1583251953125
280611,-0.5281829833984375,1.037445068359375,-0.67779541015625,0.0067958543077111,0.501348614692688,0.2283833771944046,11.57893371582031,82.82072448730469,-8.044647216796875
280612,-0.5145721435546875,1.0413818359375,-0.6812896728515625,0.0811342671513557,0.7094884514808655,0.3051100969314575,11.56477355957031,82.77967834472656,-8.14837646484375
280613,-0.518829345703125,1.01898193359375,-0.6921539306640625,0.1498206555843353,0.8333683609962463,0.3598929345607758,11.59744262695312,82.77897644042969,-8.173233032226562
280614,-0.518829345703125,1.01898193359375,-0.6921539306640625,0.1498206555843353,0.8333683609962463,0.3598929345607758,11.59744262695312,82.77897644042969,-8.173233032226562
280615,-0.56787109375,0.942047119140625,-0.7371368408203125,0.2177054286003113,0.886138379573822,0.4167080223560333,11.64898681640625,82.97923278808594,-8.619354248046875
280616,-0.5695648193359375,0.92181396484375,-0.7105712890625,0.1987913846969604,0.890254557132721,0.4440522789955139,11.6683349609375,83.19657897949219,-9.06634521484375
280617,-0.5727386474609375,0.9131927490234376,-0.655792236328125,0.1466461718082428,0.8623432517051697,0.4445375204086304,11.69340515136719,83.36430358886719,-9.554275512695312
280618,-0.559844970703125,0.88433837890625,-0.5739593505859375,0.0900931432843208,0.8320551514625549,0.4460491240024567,11.77899169921875,83.63401794433594,-9.886688232421877
280619,-0.559844970703125,0.88433837890625,-0.5739593505859375,0.0900931432843208,0.8320551514625549,0.4460491240024567,11.77899169921875,83.63401794433594,-9.886688232421877
280620,-0.5380706787109375,0.8734130859375,-0.49639892578125,0.0137027623131871,0.7290778756141663,0.4510305523872375,11.85284423828125,83.74575805664062,-10.19668579101562
280621,-0.4875640869140625,0.8450775146484375,-0.280120849609375,-0.1728633940219879,0.2393832951784134,0.562620222568512,11.99278259277344,84.10301208496094,-11.06260681152344
280622,-0.4875640869140625,0.8450775146484375,-0.280120849609375,-0.1728633940219879,0.2393832951784134,0.562620222568512,11.99278259277344,84.10301208496094,-11.06260681152344
280623,-0.4564971923828125,0.77783203125,-0.0759735107421875,-0.0733146965503692,0.1547019630670547,0.6148591637611389,12.38783264160156,84.63447570800781,-11.39324951171875
280624,-0.4507598876953125,0.8003692626953125,0.0011444091796875,-0.0733146965503692,0.1547019630670547,0.6148591637611389,12.62313842773438,84.93258666992188,-11.59481811523438
280625,-0.457275390625,0.8123779296875,0.0760650634765625,-0.0362498834729194,0.1462219208478928,0.6025468707084656,12.77847290039062,85.07464599609375,-11.56681823730469
280626,-0.457275390625,0.8123779296875,0.0760650634765625,-0.0362498834729194,0.1462219208478928,0.6025468707084656,12.77847290039062,85.07464599609375,-11.56681823730469
280627,-0.46112060546875,0.79827880859375,0.111541748046875,-0.0110185630619525,0.0737160295248031,0.5701923966407776,13.10523986816406,85.23780822753906,-11.53300476074219
280628,-0.408843994140625,0.7412109375,0.14532470703125,-0.0043454798869788,-0.1646834909915924,0.4776895940303802,13.63410949707031,85.69715881347656,-11.67726135253906
280629,-0.3511810302734375,0.7159271240234375,0.1674652099609375,-0.0272718351334333,-0.2658194303512573,0.4114221632480621,13.97148132324219,85.85722351074219,-11.67984008789062
280630,-0.2783660888671875,0.697998046875,0.177642822265625,-0.0903890207409858,-0.2750611305236816,0.3658067584037781,14.26715087890625,86.03695678710938,-11.68919372558594
280631,-0.2783660888671875,0.697998046875,0.177642822265625,-0.0903890207409858,-0.2750611305236816,0.3658067584037781,14.26715087890625,86.03695678710938,-11.68919372558594
280632,-0.14556884765625,0.7167510986328125,0.14190673828125,-0.2173565477132797,-0.2447700649499893,0.3843202292919159,14.82005310058594,86.099609375,-11.43869018554688
280633,-0.129364013671875,0.7566680908203125,0.108123779296875,-0.2204154580831528,-0.1327127665281296,0.411686897277832,15.05392456054688,86.29916381835938,-11.23663330078125
280634,-0.129364013671875,0.7566680908203125,0.108123779296875,-0.2204154580831528,-0.1327127665281296,0.411686897277832,15.05392456054688,86.29916381835938,-11.23663330078125
280635,-0.1521453857421875,0.7806396484375,0.0241546630859375,-0.0940726995468139,0.1303502768278122,0.2818087935447693,15.34144592285156,86.50498962402344,-10.76617431640625
280636,-0.2079925537109375,0.7739105224609375,-0.0056915283203125,-0.0940726995468139,0.1303502768278122,0.2818087935447693,15.50538635253906,86.46060180664062,-10.58740234375
280637,-0.2877655029296875,0.769989013671875,-0.0140228271484375,-0.0956287905573844,0.0843721404671669,0.1716130375862122,15.73240661621094,86.69880676269531,-10.59393310546875
280638,-0.2877655029296875,0.769989013671875,-0.0140228271484375,-0.0956287905573844,0.0843721404671669,0.1716130375862122,15.73240661621094,86.69880676269531,-10.59393310546875
280639,-0.374908447265625,0.78240966796875,0.0174560546875,-0.1088319420814514,0.0307408683001995,0.0624527260661125,15.87928771972656,86.8790283203125,-10.5350341796875
280640,-0.4506683349609375,0.807159423828125,0.0518341064453125,-0.1100093275308609,0.0127149960026145,-0.0568262636661529,15.93052673339844,86.9329833984375,-10.610107421875
280641,-0.5832672119140625,0.84075927734375,0.104705810546875,-0.1209525167942047,-0.0228810813277959,-0.2795794606208801,15.88426208496094,86.9881591796875,-10.44596862792969
280642,-0.5832672119140625,0.84075927734375,0.104705810546875,-0.1209525167942047,-0.0228810813277959,-0.2795794606208801,15.88426208496094,86.9881591796875,-10.44596862792969
280643,-0.6231231689453125,0.8329620361328125,0.1212158203125,-0.1615319103002548,-0.0464460626244545,-0.3761038482189178,15.75186157226562,86.91311645507812,-10.47541809082031
280644,-0.633453369140625,0.7664794921875,0.16845703125,-0.1930330991744995,-0.0934441983699798,-0.4993083477020264,15.38360595703125,86.67727661132812,-10.54544067382812
280645,-0.630950927734375,0.72119140625,0.1771697998046875,-0.2028862684965134,-0.0812642276287078,-0.5211617350578308,15.2158203125,86.54611206054688,-10.58998107910156
280646,-0.630950927734375,0.72119140625,0.1771697998046875,-0.2028862684965134,-0.0812642276287078,-0.5211617350578308,15.2158203125,86.54611206054688,-10.58998107910156
280647,-0.62677001953125,0.662811279296875,0.1771087646484375,-0.287924736738205,0.032120119780302,-0.5499480962753296,14.75898742675781,86.20321655273438,-10.50946044921875
280648,-0.64129638671875,0.6567535400390625,0.166168212890625,-0.3123461902141571,0.1482885330915451,-0.5626865029335022,14.5118408203125,86.109619140625,-10.47575378417969
280649,-0.6648406982421875,0.6562347412109375,0.16204833984375,-0.320277601480484,0.2936955392360687,-0.581676185131073,14.17242431640625,85.80831909179688,-10.2884521484375
280650,-0.6648406982421875,0.6562347412109375,0.16204833984375,-0.320277601480484,0.2936955392360687,-0.581676185131073,14.17242431640625,85.80831909179688,-10.2884521484375
280651,-0.7129669189453125,0.6477508544921875,0.1374969482421875,-0.3278825283050537,0.5581479668617249,-0.6314892768859863,13.65107727050781,85.52644348144531,-10.3118896484375
280652,-0.721832275390625,0.6416015625,0.1126708984375,-0.361702024936676,0.5917240381240845,-0.6304839253425598,13.36720275878906,85.2509765625,-10.27462768554688
280653,-0.7187652587890625,0.6423187255859375,0.06414794921875,-0.4366023540496826,0.525643527507782,-0.6246963739395142,13.03343200683594,85.03622436523438,-10.43220520019531
280654,-0.7187652587890625,0.6423187255859375,0.06414794921875,-0.4366023540496826,0.525643527507782,-0.6246963739395142,13.03343200683594,85.03622436523438,-10.43220520019531
280655,-0.7079925537109375,0.643463134765625,-0.0016326904296875,-0.5333366394042969,0.3384150564670563,-0.6022059917449951,12.65568542480469,84.80941772460938,-10.57551574707031
280656,-0.67791748046875,0.6473846435546875,-0.0781097412109375,-0.6388473510742188,0.0590534657239913,-0.5477650761604309,12.35502624511719,84.45912170410156,-10.60546875
280657,-0.59356689453125,0.741607666015625,-0.1493988037109375,-0.8022330403327942,-0.4392253160476685,-0.4301955997943878,11.80448913574219,83.8304443359375,-10.37525939941406
280658,-0.59356689453125,0.741607666015625,-0.1493988037109375,-0.8022330403327942,-0.4392253160476685,-0.4301955997943878,11.80448913574219,83.8304443359375,-10.37525939941406
280659,-0.5563812255859375,0.84539794921875,-0.184814453125,-0.738060712814331,-0.4767146110534668,-0.3626860380172729,11.5394287109375,83.61805725097656,-9.950653076171877
280660,-0.549072265625,1.052490234375,-0.243927001953125,-0.6466261744499207,-0.3356927931308746,-0.3141741752624512,10.99482727050781,83.14576721191406,-8.932357788085938
280661,-0.5611572265625,1.116195678710938,-0.291259765625,-0.5636450052261353,-0.2449197322130203,-0.2909170687198639,10.80036926269531,82.88786315917969,-8.438766479492188
280662,-0.5611572265625,1.116195678710938,-0.291259765625,-0.5636450052261353,-0.2449197322130203,-0.2909170687198639,10.80036926269531,82.88786315917969,-8.438766479492188
280663,-0.575347900390625,1.1578369140625,-0.3413238525390625,-0.4777364730834961,-0.2699449360370636,-0.2788321673870087,10.64324951171875,82.63417053222656,-7.953750610351562
280664,-0.5552520751953125,1.141357421875,-0.384552001953125,-0.2173110097646713,-0.4187541007995605,-0.1523005962371826,10.49238586425781,82.30836486816406,-7.352554321289062
280665,-0.515777587890625,1.106033325195312,-0.4263153076171875,-0.0289680026471614,-0.4280032813549042,-0.0390560552477836,10.45301818847656,82.16058349609375,-6.933441162109375
280666,-0.515777587890625,1.106033325195312,-0.4263153076171875,-0.0289680026471614,-0.4280032813549042,-0.0390560552477836,10.45301818847656,82.16058349609375,-6.933441162109375
280667,-0.4741058349609375,1.0533447265625,-0.4735107421875,0.1512891203165054,-0.3327651619911194,0.0800221338868141,10.45416259765625,81.90277099609375,-6.663314819335938
280668,-0.3678741455078125,1.011947631835938,-0.5661163330078125,0.528252363204956,-0.1394124925136566,0.3293374180793762,10.64747619628906,82.00437927246094,-6.530075073242188
280669,-0.3349609375,1.011199951171875,-0.5615234375,0.6573088765144348,0.0562124066054821,0.3842339515686035,10.83233642578125,82.16740417480469,-6.463760375976562
280670,-0.3349609375,1.011199951171875,-0.5615234375,0.6573088765144348,0.0562124066054821,0.3842339515686035,10.83233642578125,82.16740417480469,-6.463760375976562
280671,-0.2691650390625,1.01031494140625,-0.5519256591796875,0.6465291976928711,0.249068409204483,0.3517710864543915,11.26350402832031,82.33882141113281,-6.97509765625
280672,-0.2528076171875,1.034561157226562,-0.5362701416015625,0.5612441301345825,0.2039968073368073,0.3342394828796387,11.41401672363281,82.52439880371094,-7.199371337890625
280673,-0.2582855224609375,1.061752319335938,-0.5137176513671875,0.5012015700340271,0.1335442066192627,0.3523391485214233,11.50682067871094,82.77557373046875,-7.358169555664062
280674,-0.2582855224609375,1.061752319335938,-0.5137176513671875,0.5012015700340271,0.1335442066192627,0.3523391485214233,11.50682067871094,82.77557373046875,-7.358169555664062
280675,-0.265777587890625,1.099212646484375,-0.4722442626953125,0.4739779531955719,0.0718861743807792,0.3664776086807251,11.58358764648438,83.07804870605469,-7.657302856445312
280676,-0.315948486328125,1.189590454101562,-0.3410491943359375,0.4427585303783417,0.1029596701264381,0.337610274553299,11.96870422363281,83.42973327636719,-8.151443481445312
280677,-0.3753509521484375,1.263885498046875,-0.250518798828125,0.4167476892471313,0.1614008694887161,0.3204901218414307,12.10868835449219,83.58657836914062,-8.303466796875
280678,-0.521575927734375,1.374160766601562,-0.0806121826171875,0.3750958442687988,0.1795625686645508,0.1891494244337082,12.13655090332031,83.94973754882812,-8.70880126953125
280679,-0.521575927734375,1.374160766601562,-0.0806121826171875,0.3750958442687988,0.1795625686645508,0.1891494244337082,12.13655090332031,83.94973754882812,-8.70880126953125
280680,-0.6090240478515625,1.38873291015625,-0.0095672607421875,0.3967044651508331,0.1758908629417419,0.0630287677049636,12.26499938964844,84.08367919921875,-8.931869506835938
280681,-0.6927337646484375,1.353073120117188,0.038543701171875,0.4812358617782593,0.1865264624357224,-0.0425983257591724,12.3642578125,84.27204895019531,-9.188430786132812
280682,-0.6927337646484375,1.353073120117188,0.038543701171875,0.4812358617782593,0.1865264624357224,-0.0425983257591724,12.3642578125,84.27204895019531,-9.188430786132812
280683,-0.7655487060546875,1.2796630859375,0.04327392578125,0.6142282485961914,0.1893547475337982,-0.1131960600614548,12.45829772949219,84.41976928710938,-9.394149780273438
280684,-0.784912109375,1.157119750976562,-0.0069122314453125,0.7662764191627502,0.1469348520040512,-0.1505903005599976,12.51713562011719,84.46894836425781,-9.637557983398438
280685,-0.6867523193359375,0.8092498779296875,-0.1484832763671875,0.908048152923584,-0.0298034362494945,-0.2419883906841278,12.58953857421875,84.59091186523438,-10.33628845214844
280686,-0.6867523193359375,0.8092498779296875,-0.1484832763671875,0.908048152923584,-0.0298034362494945,-0.2419883906841278,12.58953857421875,84.59091186523438,-10.33628845214844
