time_idx,accelerometerAccelerationX(G),accelerometerAccelerationY(G),accelerometerAccelerationZ(G),gyroRotationX(rad/s),gyroRotationY(rad/s),gyroRotationZ(rad/s),magnetometerX(µT),magnetometerY(µT),magnetometerZ(µT)
90000,0.0021820068359375,1.387176513671875,0.4523162841796875,-0.4391768276691437,-0.7727878093719482,-2.271549701690674,17.66978454589844,104.5070037841797,-16.44245910644531
90001,0.1046600341796875,1.911041259765625,0.505401611328125,-1.072859764099121,0.4267630279064178,-2.887026071548462,16.15672302246094,104.3353881835938,-17.04415893554688
90002,0.0243072509765625,3.357620239257812,0.5225067138671875,-2.858616828918457,0.575553834438324,-3.015317440032959,12.8328857421875,102.5272674560547,-20.84341430664062
90003,0.0243072509765625,3.357620239257812,0.5225067138671875,-2.858616828918457,0.575553834438324,-3.015317440032959,12.8328857421875,102.5272674560547,-20.84341430664062
90004,-0.43475341796875,4.161163330078125,0.482757568359375,-3.324589014053345,-0.4664630591869354,-2.782384395599365,11.62773132324219,101.0393676757812,-24.08213806152344
90005,-1.134368896484375,4.16455078125,0.9095916748046876,-2.524156093597412,-1.667292237281799,-1.774137496948242,11.12373352050781,99.99234008789062,-28.17442321777344
90006,-1.232528686523438,3.539810180664062,1.7166748046875,-1.347642302513123,-1.117835283279419,-0.4658577144145966,11.11323547363281,99.88250732421876,-32.13630676269531
90007,-0.5993194580078125,2.90234375,1.527679443359375,-0.4749766290187836,0.1508273333311081,0.1269992291927338,11.57110595703125,100.6838989257812,-34.70167541503906
90008,-0.259918212890625,2.555084228515625,0.65533447265625,0.1837719678878784,-0.1361943185329437,0.2564685344696045,12.43655395507812,101.8323059082031,-35.21391296386719
90009,-0.1024017333984375,2.270187377929688,0.306304931640625,0.5746659636497498,-0.4643650054931641,0.1224604025483131,13.61787414550781,102.2577667236328,-34.27838134765625
90010,-0.044647216796875,2.146194458007812,0.033294677734375,0.8042868971824646,-0.2376972436904907,0.0818623751401901,13.83645629882812,102.4786529541016,-33.27766418457031
90011,-0.0634002685546875,2.083709716796875,-0.2350616455078125,0.9214577078819276,0.1650304943323135,0.1216124519705772,12.48008728027344,102.7275543212891,-32.93495178222656
90012,-0.064361572265625,1.911834716796875,-0.461456298828125,0.9123278856277466,0.3925960063934326,0.2351227700710297,10.32649230957031,103.2199554443359,-32.92094421386719
90013,-0.0404510498046875,1.603225708007812,-0.5753936767578125,0.8009704351425171,0.277876615524292,0.3950077593326569,8.559432983398438,103.6233062744141,-33.14305114746094
90014,-0.0268402099609375,1.282470703125,-0.5234832763671875,0.6303337216377258,0.0044906223192811,0.570758044719696,7.490219116210938,103.9236450195312,-33.55525207519531
90015,-0.0266571044921875,0.99444580078125,-0.3927001953125,0.5097628235816956,-0.1527687758207321,0.7007463574409485,6.582809448242188,104.7547149658203,-33.53253173828125
90016,-0.0446319580078125,0.7229766845703125,-0.2975921630859375,0.4787990748882294,-0.1517786085605621,0.8304292559623718,6.582809448242188,104.7547149658203,-33.53253173828125
90017,-0.0897979736328125,0.5276031494140625,-0.2308197021484375,0.4937247633934021,-0.1118064224720001,0.9047626256942748,6.443466186523438,105.3768615722656,-33.23933410644531
90018,-0.122344970703125,0.3895416259765625,-0.12725830078125,0.4784411489963531,-0.0185739509761333,0.9073389768600464,6.542007446289062,106.3190460205078,-32.74185180664062
90019,-0.1430816650390625,0.264434814453125,-0.0542144775390625,0.371199369430542,0.1653636544942856,0.8514280319213867,6.717269897460938,106.66845703125,-32.69110107421875
90020,-0.1336212158203125,0.1424713134765625,-0.0758514404296875,0.2579862773418427,0.2863771617412567,0.7575779557228088,7.023406982421875,106.8578948974609,-32.70925903320312
90021,-0.0981597900390625,0.0297698974609375,-0.1272430419921875,0.204781100153923,0.3153339922428131,0.7174805998802185,7.544235229492188,106.9669799804688,-32.58308410644531
90022,-0.07830810546875,-0.0354766845703125,-0.2178955078125,0.2691867351531982,0.2445498257875443,0.7264493703842163,8.087753295898438,106.758544921875,-32.58317565917969
90023,-0.0811767578125,-0.083343505859375,-0.3118133544921875,0.4693576395511627,0.1150043532252312,0.7633274793624878,8.536575317382812,106.5240631103516,-32.61903381347656
90024,-0.085174560546875,-0.124359130859375,-0.3681793212890625,0.821894645690918,0.0274204388260841,0.8287794589996338,8.56134033203125,106.0576629638672,-32.18412780761719
90025,-0.0897979736328125,-0.129119873046875,-0.373321533203125,1.223525762557983,0.0829827636480331,0.8867615461349487,8.469146728515625,105.7196960449219,-31.526123046875
90026,-0.084747314453125,-0.1058349609375,-0.365875244140625,1.545224905014038,0.3114321827888489,0.8787970542907715,8.300460815429688,105.1540985107422,-30.57054138183594
90027,-0.0295867919921875,-0.07281494140625,-0.471435546875,1.644698739051819,0.482745349407196,0.7965211272239685,8.351593017578125,104.7031707763672,-29.82611083984375
90028,0.07464599609375,-0.05560302734375,-0.724334716796875,1.434307456016541,0.10215113312006,0.684553861618042,8.649749755859375,104.2475280761719,-29.22380065917969
90029,0.12628173828125,0.010345458984375,-0.6137542724609375,0.9553203582763672,-0.4483010768890381,0.5388251543045044,9.09796142578125,104.0084228515625,-28.72761535644531
90030,0.10888671875,0.1035003662109375,-0.2521209716796875,0.4780632555484772,-0.506508469581604,0.3833194375038147,9.7890625,103.8536224365234,-28.195068359375
90031,0.0980682373046875,0.15576171875,-0.0229339599609375,0.1744927167892456,-0.1849216520786285,0.3015281558036804,10.39849853515625,103.7936401367188,-27.64483642578125
90032,0.1057281494140625,0.1929779052734375,0.0462188720703125,0.0550885535776615,0.2108067721128464,0.2774244248867035,11.14712524414062,103.6245422363281,-27.14791870117188
90033,0.097137451171875,0.2610931396484375,0.0601806640625,0.082170769572258,0.5636159777641296,0.2476896941661835,11.89486694335938,103.4221038818359,-26.77204895019531
90034,0.0808258056640625,0.3607940673828125,0.11114501953125,0.1565118432044983,0.9529767632484436,0.1894538104534149,12.86698913574219,103.0826721191406,-26.58941650390625
90035,0.0625152587890625,0.5097503662109375,0.1881103515625,0.1595547795295715,1.465153455734253,0.0862491354346275,13.65702819824219,102.5747375488281,-26.74891662597656
90036,0.0569000244140625,0.6801300048828125,0.231719970703125,0.0628508701920509,2.03581714630127,-0.022946061566472,14.26028442382812,102.0457305908203,-27.42070007324219
90037,0.0428009033203125,0.8583831787109375,0.2613372802734375,-0.1520446538925171,2.560734272003174,-0.0581903345882892,15.01040649414062,101.3783416748047,-28.58441162109375
90038,-0.160736083984375,1.269119262695312,0.4411773681640625,-0.610512375831604,3.257341861724854,-0.1354158818721771,17.72813415527344,99.33460998535156,-32.33673095703125
90039,-0.160736083984375,1.269119262695312,0.4411773681640625,-0.610512375831604,3.257341861724854,-0.1354158818721771,17.72813415527344,99.33460998535156,-32.33673095703125
90040,-0.3690032958984375,1.46630859375,0.4266510009765625,-0.4749992787837982,2.816701173782349,-0.1436397284269333,20.24411010742188,98.07473754882812,-34.11558532714844
90041,-0.54730224609375,1.622650146484375,0.45831298828125,-0.0384744219481945,1.643096566200256,-0.0551892183721065,23.42472839355469,97.0103759765625,-35.705078125
90042,-0.6470794677734375,2.209945678710938,1.04888916015625,0.7433686852455139,-0.6905515193939209,0.1587912440299988,26.97119140625,97.1809539794922,-37.78724670410156
90043,-0.6470794677734375,2.209945678710938,1.04888916015625,0.7433686852455139,-0.6905515193939209,0.1587912440299988,26.97119140625,97.1809539794922,-37.78724670410156
90044,-0.63726806640625,2.517547607421875,1.400924682617188,0.838931143283844,-0.8907650709152222,0.203601598739624,26.48538208007812,98.26181030273438,-38.63031005859375
90045,-0.6629180908203125,2.609893798828125,1.603561401367188,0.6439515352249146,-0.6269909143447876,0.1468280553817749,25.50495910644531,99.3056182861328,-39.37284851074219
90046,-0.676116943359375,2.323455810546875,1.607437133789062,-0.0448977015912532,-0.0312788262963295,-0.0765150114893913,25.0030517578125,99.76846313476562,-39.74090576171875
90047,-0.5648040771484375,1.784942626953125,1.305877685546875,-1.003360867500305,0.4488433003425598,-0.3069072067737579,25.48368835449219,99.60475158691406,-40.01138305664062
90048,-0.42718505859375,1.368072509765625,0.9140472412109376,-1.64605724811554,0.5095242261886597,-0.3627435863018036,26.36244201660156,99.105712890625,-39.99922180175781
90049,-0.319580078125,1.187026977539062,0.661346435546875,-1.842637419700623,0.4318438172340393,-0.2751902937889099,26.77470397949219,98.77146911621094,-39.67535400390625
90050,-0.2490997314453125,1.106689453125,0.5042572021484375,-1.806378483772278,0.4040633141994476,-0.174410417675972,26.46711730957031,98.7061767578125,-39.2166748046875
90051,-0.218963623046875,1.025543212890625,0.3804931640625,-1.712038397789001,0.4523155391216278,-0.1612144559621811,25.46762084960938,99.071044921875,-38.93498229980469
90052,-0.1893463134765625,0.9129791259765624,0.2611236572265625,-1.663195490837097,0.5334218144416809,-0.2226330786943436,24.42793273925781,99.62957763671876,-38.4002685546875
90053,-0.1682586669921875,0.778045654296875,0.1504364013671875,-1.66911518573761,0.6072494387626648,-0.3284636437892914,23.524658203125,100.0138244628906,-37.6864013671875
90054,-0.111663818359375,0.5252685546875,-0.0343475341796875,-1.675045967102051,0.6839266419410706,-0.5856203436851501,22.33154296875,100.3101806640625,-36.34086608886719
90055,-0.111663818359375,0.5252685546875,-0.0343475341796875,-1.675045967102051,0.6839266419410706,-0.5856203436851501,22.33154296875,100.3101806640625,-36.34086608886719
90056,-0.048095703125,0.4059295654296875,-0.727813720703125,-1.579397797584534,0.2749351561069489,-0.7060503363609314,21.52532958984375,100.2665405273438,-35.74993896484375
90057,0.16046142578125,0.2042236328125,-1.881942749023438,-1.14258074760437,-2.897160768508911,-0.6249895691871643,20.53901672363281,99.96043395996094,-34.87126159667969
90058,0.09771728515625,0.214508056640625,-0.92291259765625,-0.4640970826148987,-4.389904975891113,-0.4523970186710358,18.72891235351562,99.79635620117188,-34.04942321777344
90059,0.0845489501953125,0.1988372802734375,-0.017974853515625,0.8140532374382019,0.2313551902770996,0.2210021615028381,11.85688781738281,101.2375946044922,-31.03109741210938
90060,0.0845489501953125,0.1988372802734375,-0.017974853515625,0.8140532374382019,0.2313551902770996,0.2210021615028381,11.85688781738281,101.2375946044922,-31.03109741210938
90061,0.19146728515625,0.240997314453125,-0.3134307861328125,0.9856404662132264,1.249537587165833,0.4484717845916748,9.925018310546877,101.5901031494141,-28.99957275390625
90062,0.2118988037109375,0.2704315185546875,-0.3715667724609375,0.8898699879646301,1.206932306289673,0.5401782989501953,9.988983154296877,101.28662109375,-27.44837951660156
90063,0.2038116455078125,0.2769775390625,-0.275238037109375,0.6254593729972839,0.8540437817573547,0.5622894167900085,11.06260681152344,101.104248046875,-26.4127197265625
90064,0.1819305419921875,0.2709503173828125,-0.162017822265625,0.3307869732379913,0.5715444684028625,0.5421820282936096,12.42735290527344,101.0617523193359,-25.29486083984375
90065,0.15899658203125,0.2503662109375,-0.0808258056640625,0.1142011433839798,0.4616461992263794,0.5045846104621887,13.5179443359375,101.1961669921875,-24.18377685546875
90066,0.15435791015625,0.2264404296875,-0.0419769287109375,-0.0099674127995967,0.4719597995281219,0.4784528613090515,14.36294555664062,101.3793487548828,-22.74940490722656
90067,0.17913818359375,0.227569580078125,-0.05084228515625,-0.0384222231805324,0.4771047830581665,0.4827578663825989,15.23153686523438,101.6440582275391,-21.23091125488281
90068,0.2251129150390625,0.2569427490234375,-0.1073150634765625,-0.0089287804439663,0.2638798356056213,0.5066307187080383,16.29922485351562,101.6453094482422,-19.88771057128906
90069,0.2854461669921875,0.3368072509765625,-0.14556884765625,0.0148247526958584,-0.2079460024833679,0.5788335204124451,17.58717346191406,101.388671875,-18.46427917480469
90070,0.306610107421875,0.4752655029296875,-0.133331298828125,0.0369319170713424,-0.7653453350067139,0.6145142912864685,18.978515625,100.9951934814453,-17.48118591308594
90071,0.2435760498046875,0.618255615234375,-0.0715789794921875,0.1233935728669167,-1.133122801780701,0.4264250695705414,20.141845703125,100.6723327636719,-16.35861206054688
90072,0.167816162109375,0.6737518310546875,-0.0420684814453125,0.2745783030986786,-1.229979634284973,-0.0213574860244989,20.99781799316406,100.6528015136719,-15.32949829101562
90073,0.122467041015625,0.68841552734375,-0.0747528076171875,0.4370500445365906,-1.208925724029541,-0.4960007071495056,21.43145751953125,100.7809906005859,-14.6080322265625
90074,0.0914154052734375,0.7785797119140625,-0.1426849365234375,0.586161732673645,-1.278058409690857,-0.9206801056861876,21.45303344726562,101.0021820068359,-14.15695190429688
90075,0.0865936279296875,0.95330810546875,-0.140380859375,0.6730854511260986,-1.454842567443848,-1.412784576416016,20.94998168945312,101.1702423095703,-14.2366943359375
90076,0.0770111083984375,1.195693969726562,0.0471343994140625,0.6106194257736206,-1.461514353752136,-2.016761541366577,20.00523376464844,101.4468231201172,-14.75424194335938
90077,0.062652587890625,1.558212280273438,0.4170684814453125,0.2508716285228729,-0.890186607837677,-2.741321802139282,18.52011108398438,101.6043853759766,-15.61735534667969
90078,-0.0246124267578125,2.66497802734375,0.9104156494140624,-1.507444262504578,1.164294123649597,-3.687831401824951,13.96354675292969,101.4103851318359,-19.91171264648438
90079,-0.0246124267578125,2.66497802734375,0.9104156494140624,-1.507444262504578,1.164294123649597,-3.687831401824951,13.96354675292969,101.4103851318359,-19.91171264648438
90080,-0.32763671875,3.361648559570312,0.87237548828125,-2.644386529922485,1.587969183921814,-3.602785348892212,11.93748474121094,100.4601135253906,-23.72749328613281
90081,-1.13690185546875,3.723876953125,0.6752471923828125,-2.944779872894287,0.5138031244277954,-2.237421989440918,10.78904724121094,99.4576416015625,-28.62571716308594
90082,-1.497100830078125,3.448501586914062,0.84808349609375,-1.956801772117615,-0.2084301710128784,-0.6647806763648987,10.65446472167969,99.27980041503906,-33.14077758789062
90083,-0.882537841796875,2.774978637695312,1.063095092773438,-0.9998326897621156,-0.4484270513057709,-0.3727405369281769,10.66705322265625,100.4407501220703,-35.25723266601562
90084,-0.4832916259765625,2.305862426757812,1.181854248046875,-0.4267012476921082,-0.6558780074119568,-0.1572668552398682,10.6463623046875,102.0166778564453,-34.3792724609375
90085,-0.2747802734375,2.231430053710938,0.9739990234375,-0.0438758432865142,-0.7678415179252625,-0.1388726681470871,11.25386047363281,102.45751953125,-32.34310913085938
90086,-0.119659423828125,2.358200073242188,0.173187255859375,0.7904072999954224,-0.7893683910369873,-0.0155691057443618,11.37277221679688,101.7072448730469,-29.79206848144531
90087,-0.119659423828125,2.358200073242188,0.173187255859375,0.7904072999954224,-0.7893683910369873,-0.0155691057443618,11.37277221679688,101.7072448730469,-29.79206848144531
90088,-0.1511688232421875,2.280441284179688,-0.05682373046875,1.165148377418518,-0.3944903314113617,0.2422235608100891,9.773818969726562,102.0062255859375,-29.52085876464844
90089,-0.19268798828125,2.00616455078125,-0.2079010009765625,1.344509363174438,0.2015999555587769,0.531239926815033,7.920501708984375,102.6284790039062,-29.82191467285156
90090,-0.1951904296875,1.5743408203125,-0.3702850341796875,1.252995491027832,0.552981972694397,0.7650215029716492,6.42694091796875,103.2272796630859,-30.30894470214844
90091,-0.1680145263671875,1.168716430664062,-0.44488525390625,0.9645122289657592,0.455030620098114,0.9321383237838744,5.37554931640625,103.7199401855469,-30.82978820800781
90092,-0.1468963623046875,0.870635986328125,-0.4133758544921875,0.667531430721283,0.2516807019710541,1.03373920917511,4.980667114257812,104.1290588378906,-31.52946472167969
90093,-0.15087890625,0.6381072998046875,-0.3838348388671875,0.4418849945068359,0.1580186635255814,1.099900722503662,4.978164672851562,104.7241668701172,-32.0616455078125
90094,-0.221832275390625,0.313629150390625,-0.28814697265625,0.1660648733377457,0.0430691726505756,1.086673021316528,5.539886474609375,105.7795562744141,-32.52822875976562
90095,-0.221832275390625,0.313629150390625,-0.28814697265625,0.1660648733377457,0.0430691726505756,1.086673021316528,5.539886474609375,105.7795562744141,-32.52822875976562
90096,-0.2326507568359375,0.245086669921875,-0.1717376708984375,0.0590215064585208,0.0928678885102272,0.9701743721961976,6.152801513671875,106.0351409912109,-32.52711486816406
90097,-0.1878814697265625,0.1821746826171875,-0.1194305419921875,0.0059279301203787,0.1041969731450081,0.7603939771652222,6.98883056640625,106.12158203125,-32.51788330078125
90098,-0.0169830322265625,0.006927490234375,-0.1714324951171875,0.1466948986053467,-0.2152681052684784,0.4529339373111725,8.886001586914062,105.8209686279297,-32.113525390625
90099,-0.0169830322265625,0.006927490234375,-0.1714324951171875,0.1466948986053467,-0.2152681052684784,0.4529339373111725,8.886001586914062,105.8209686279297,-32.113525390625
90100,0.052215576171875,-0.0575103759765625,-0.228271484375,0.3670403063297272,-0.4626802802085876,0.4642875194549561,9.566848754882812,105.4004058837891,-31.70388793945312
90101,0.11834716796875,-0.0834808349609375,-0.30816650390625,0.6458176374435425,-0.680453360080719,0.5677739381790161,9.834808349609377,105.2753295898438,-31.21812438964844
90102,0.2009124755859375,-0.0173187255859375,-0.460113525390625,1.213901042938232,-0.7368543148040771,0.7276003956794739,9.42510986328125,105.4048919677734,-29.03607177734375
90103,0.2009124755859375,-0.0173187255859375,-0.460113525390625,1.213901042938232,-0.7368543148040771,0.7276003956794739,9.42510986328125,105.4048919677734,-29.03607177734375
90104,0.2399749755859375,0.0592041015625,-0.472412109375,1.268565058708191,-0.1067245826125145,0.6185052990913391,9.000320434570312,105.8186798095703,-27.6270751953125
90105,0.278106689453125,0.15008544921875,-0.547088623046875,1.233094215393066,0.1436612904071808,0.4536726772785187,8.97332763671875,106.2554168701172,-26.22039794921875
90106,0.2071685791015625,0.24884033203125,-0.2998046875,1.166887760162354,-0.2949645221233368,0.3491950035095215,9.887969970703123,106.2310638427734,-24.98347473144531
90107,0.2071685791015625,0.24884033203125,-0.2998046875,1.166887760162354,-0.2949645221233368,0.3491950035095215,9.887969970703123,106.2310638427734,-24.98347473144531
90108,0.1463165283203125,0.2149200439453125,-0.1684112548828125,1.166552186012268,-0.3061205148696899,0.4091329276561737,10.33059692382812,106.0355834960938,-25.28385925292969
90109,0.1084442138671875,0.19158935546875,-0.1043243408203125,1.135074973106384,-0.2187821418046951,0.5138742327690125,10.72238159179688,105.8832092285156,-25.69181823730469
90110,0.064788818359375,0.2619476318359375,0.0575103759765625,0.8992067575454712,0.1931332349777222,0.6113004088401794,11.5465087890625,105.8350372314453,-26.40036010742188
90111,0.064788818359375,0.2619476318359375,0.0575103759765625,0.8992067575454712,0.1931332349777222,0.6113004088401794,11.5465087890625,105.8350372314453,-26.40036010742188
90112,0.0471343994140625,0.335113525390625,0.1707611083984375,0.6930687427520752,0.5075124502182007,0.5113530158996582,12.14283752441406,105.8346099853516,-26.66513061523438
90113,0.0154876708984375,0.39556884765625,0.2519989013671875,0.4564351737499237,0.8766809105873108,0.3274559080600739,12.99072265625,105.9280090332031,-27.11781311035156
90114,-0.069091796875,0.6298370361328125,0.5248260498046875,-0.1852090060710907,1.717357516288757,-0.1546324491500854,14.65225219726562,105.5093536376953,-27.93501281738281
90115,-0.069091796875,0.6298370361328125,0.5248260498046875,-0.1852090060710907,1.717357516288757,-0.1546324491500854,14.65225219726562,105.5093536376953,-27.93501281738281
90116,-0.0823516845703125,0.9225311279296876,0.7380828857421875,-0.5659307837486267,2.372693538665771,-0.3580300509929657,15.52871704101562,105.1957397460938,-28.60881042480469
90117,-0.14404296875,1.35931396484375,0.7764129638671875,-0.8387926816940308,2.61548924446106,-0.4107049703598022,16.51174926757812,104.3646850585938,-29.75675964355469
90118,-0.2816009521484375,1.827346801757812,0.7565765380859375,-0.7803189754486084,1.819460153579712,-0.2751831114292145,18.03160095214844,103.2428283691406,-31.2462158203125
90119,-0.4499053955078125,2.289779663085938,0.8903045654296875,-0.4203442931175232,0.226673886179924,-0.0172831155359745,20.12113952636719,101.7190704345703,-32.8511962890625
90120,-0.6891632080078125,2.7554931640625,1.30078125,0.0388110466301441,-1.164525508880615,0.1910418570041656,22.47105407714844,100.4557952880859,-34.21734619140625
90121,-0.9903717041015624,3.112289428710938,1.843643188476562,0.2638215124607086,-1.074729084968567,0.0988354980945587,24.22564697265625,99.75209045410156,-34.99368286132812
90122,-1.027847290039062,2.334930419921875,1.56201171875,-0.4941138625144958,1.232898473739624,-0.4424495995044708,25.55949401855469,99.67239379882812,-36.19334411621094
90123,-1.027847290039062,2.334930419921875,1.56201171875,-0.4941138625144958,1.232898473739624,-0.4424495995044708,25.55949401855469,99.67239379882812,-36.19334411621094
90124,-0.684722900390625,1.646820068359375,0.9380645751953124,-1.017862558364868,1.353376626968384,-0.3836512565612793,25.904052734375,99.65676879882812,-36.97395324707031
90125,-0.405609130859375,1.25006103515625,0.514190673828125,-1.287034392356873,0.9578610062599182,-0.1583014875650406,25.86790466308594,99.75007629394533,-37.38587951660156
90126,-0.1927947998046875,0.93121337890625,0.1925811767578125,-1.351641535758972,0.2564400434494019,0.1666137427091599,23.65953063964844,100.8743591308594,-37.89971923828125
90127,-0.1927947998046875,0.93121337890625,0.1925811767578125,-1.351641535758972,0.2564400434494019,0.1666137427091599,23.65953063964844,100.8743591308594,-37.89971923828125
90128,-0.17071533203125,0.8208160400390625,0.110748291015625,-1.332275032997131,0.0586422756314277,0.1177998706698418,22.18595886230469,101.8421325683594,-37.93186950683594
90129,-0.1483154296875,0.6941375732421875,0.04248046875,-1.338136911392212,-0.1205541118979454,-0.0166346374899148,21.12353515625,102.5112609863281,-37.41697692871094
90130,-0.133514404296875,0.546356201171875,-0.067352294921875,-1.378446578979492,-0.3549964427947998,-0.1803010702133179,20.59934997558594,102.8435974121094,-36.65556335449219
90131,-0.105377197265625,0.3526153564453125,-0.3246917724609375,-1.43471622467041,-0.9371600151062012,-0.3525815010070801,20.60824584960938,102.8178253173828,-35.53829956054688
90132,-0.0800323486328125,0.205535888671875,-0.33831787109375,-1.468856930732727,-1.603793978691101,-0.5005203485488892,20.89263916015625,102.4159545898438,-34.28173828125
90133,-0.0628204345703125,0.118927001953125,-0.145477294921875,-1.450104475021362,-1.626866817474365,-0.6087442636489868,20.88203430175781,102.0611267089844,-33.17613220214844
90134,0.04241943359375,0.094512939453125,-0.2718048095703125,-1.107761263847351,-0.1937971711158752,-0.4655426740646362,19.58447265625,101.3335418701172,-30.10200500488281
90135,0.04241943359375,0.094512939453125,-0.2718048095703125,-1.107761263847351,-0.1937971711158752,-0.4655426740646362,19.58447265625,101.3335418701172,-30.10200500488281
90136,0.1267242431640625,0.2072906494140625,-0.407989501953125,-0.7117833495140076,0.2057036310434341,-0.2126432955265045,18.83631896972656,100.913330078125,-28.72430419921875
90137,0.17236328125,0.3220672607421875,-0.3541412353515625,-0.2583519220352173,0.3803678452968597,0.0038293593097478,18.19387817382812,100.2183227539062,-27.51319885253906
90138,0.2088165283203125,0.5213165283203125,-0.0794830322265625,0.1347088068723679,0.6520379781723022,0.2736384570598602,17.841064453125,99.09625244140624,-24.74542236328125
90139,0.2088165283203125,0.5213165283203125,-0.0794830322265625,0.1347088068723679,0.6520379781723022,0.2736384570598602,17.841064453125,99.09625244140624,-24.74542236328125
90140,0.212005615234375,0.55810546875,-0.0584869384765625,0.2400722503662109,0.8081487417221069,0.2020670771598816,17.83723449707031,99.04721069335938,-23.71867370605469
90141,0.2452545166015625,0.5233001708984375,-0.0900115966796875,0.34885573387146,0.7751801609992981,0.1218366920948029,17.67324829101562,99.27777099609376,-22.70161437988281
90142,0.2823028564453125,0.5227508544921875,-0.0744781494140625,0.3431317806243896,0.0652748793363571,0.1322786808013916,17.51498413085938,99.89596557617188,-21.49885559082031
90143,0.2823028564453125,0.5227508544921875,-0.0744781494140625,0.3431317806243896,0.0652748793363571,0.1322786808013916,17.51498413085938,99.89596557617188,-21.49885559082031
90144,0.2827911376953125,0.6060028076171875,-0.0545806884765625,0.1869294047355652,-0.4726383984088898,0.1496246457099915,17.46763610839844,100.0017700195312,-21.14779663085938
90145,0.2362060546875,0.661102294921875,0.0069122314453125,0.0682991594076156,-0.829960286617279,0.0689130201935768,17.56852722167969,99.99481201171876,-20.84136962890625
90146,0.0538482666015625,0.437774658203125,-0.076904296875,0.3498895764350891,-0.6924013495445251,-0.3821452260017395,17.62596130371094,99.86276245117188,-20.24909973144531
90147,0.0538482666015625,0.437774658203125,-0.076904296875,0.3498895764350891,-0.6924013495445251,-0.3821452260017395,17.62596130371094,99.86276245117188,-20.24909973144531
90148,-0.0024566650390625,0.3283233642578125,-0.1491241455078125,0.5993406772613525,-0.6909592747688293,-0.5731245279312134,17.12234497070312,100.2054595947266,-20.24514770507812
90149,-0.05401611328125,0.2894134521484375,-0.1595916748046875,0.79252690076828,-0.7379579544067383,-0.7538929581642151,16.54908752441406,100.4933013916016,-20.27677917480469
90150,-0.1822662353515625,0.4146270751953125,-0.1500091552734375,0.8888577222824097,-0.5942862629890442,-1.008765459060669,14.40963745117188,101.4674682617188,-21.87443542480469
90151,-0.1822662353515625,0.4146270751953125,-0.1500091552734375,0.8888577222824097,-0.5942862629890442,-1.008765459060669,14.40963745117188,101.4674682617188,-21.87443542480469
90152,-0.25518798828125,0.6154327392578125,-0.180419921875,0.7575015425682068,-0.4748623967170715,-0.9780163168907166,12.96444702148438,102.0183715820312,-23.21318054199219
90153,-0.2826995849609375,0.9164276123046876,-0.113677978515625,0.4755390882492065,-0.3865360021591187,-0.843558132648468,11.42672729492188,102.4909973144531,-24.80354309082031
90154,-0.334930419921875,1.720016479492188,0.3535614013671875,-0.8256060481071472,0.0316593907773494,-0.9665187001228333,9.149368286132812,102.7805023193359,-27.51455688476562
90155,-0.334930419921875,1.720016479492188,0.3535614013671875,-0.8256060481071472,0.0316593907773494,-0.9665187001228333,9.149368286132812,102.7805023193359,-27.51455688476562
90156,-0.2554779052734375,2.265716552734375,0.63970947265625,-1.803993344306946,0.2489123493432999,-1.114752292633057,9.063873291015623,102.4190063476562,-27.99557495117188
90157,-0.2303924560546875,2.817718505859375,0.931671142578125,-2.668910264968872,-0.0964996442198753,-0.9116026759147644,10.14639282226562,101.7076110839844,-28.10281372070312
90158,-0.434722900390625,3.115280151367188,1.50640869140625,-1.952771067619324,-0.1673626303672791,-0.4960819184780121,13.85691833496094,100.4204711914062,-26.63238525390625
90159,-0.434722900390625,3.115280151367188,1.50640869140625,-1.952771067619324,-0.1673626303672791,-0.4960819184780121,13.85691833496094,100.4204711914062,-26.63238525390625
90160,-0.48065185546875,2.812728881835938,1.623825073242188,-1.135404348373413,0.0264478530734777,-0.529965341091156,14.90965270996094,101.1351928710938,-24.91841125488281
90161,-0.6529083251953125,2.449188232421875,1.5950927734375,-0.5747173428535461,0.3140133321285248,-0.6434953212738037,15.33067321777344,102.3398132324219,-23.00352478027344
90162,-0.7086639404296875,2.362472534179688,0.8549652099609375,0.3482602536678314,-0.6527178883552551,-0.7132025361061096,16.26914978027344,103.8804931640625,-20.71511840820312
90163,-0.7086639404296875,2.362472534179688,0.8549652099609375,0.3482602536678314,-0.6527178883552551,-0.7132025361061096,16.26914978027344,103.8804931640625,-20.71511840820312
90164,-0.5645294189453125,2.2891845703125,0.4959259033203125,0.4029935300350189,-1.679021000862122,-0.732528030872345,17.15093994140625,103.5313720703125,-20.78636169433594
90165,-0.2891845703125,2.236770629882812,0.1871795654296875,0.3634453117847443,-1.957125663757324,-0.4477508664131165,17.94261169433594,102.7435607910156,-21.03370666503906
90166,0.1108856201171875,2.469024658203125,-0.4079437255859375,1.636813163757324,-0.2701958119869232,0.7093079090118408,16.92630004882812,102.3840484619141,-21.79487609863281
90167,0.1108856201171875,2.469024658203125,-0.4079437255859375,1.636813163757324,-0.2701958119869232,0.7093079090118408,16.92630004882812,102.3840484619141,-21.79487609863281
90168,0.243621826171875,2.16290283203125,-0.572998046875,1.757611513137817,0.4476392865180969,0.9915356040000916,15.264404296875,103.0066986083984,-22.46507263183594
90169,0.30303955078125,1.69244384765625,-0.6096343994140625,1.276636004447937,0.3129677772521973,1.003119349479675,13.54240417480469,103.8627624511719,-22.94100952148438
90170,0.1595916748046875,0.8794097900390625,-0.39080810546875,0.3629121482372284,-0.5474870800971985,0.6504004001617432,12.27757263183594,105.1314239501953,-22.83413696289062
90171,0.1595916748046875,0.8794097900390625,-0.39080810546875,0.3629121482372284,-0.5474870800971985,0.6504004001617432,12.27757263183594,105.1314239501953,-22.83413696289062
90172,0.040008544921875,0.6218719482421875,-0.2802276611328125,0.2890744209289551,-0.8057945370674133,0.6321481466293335,12.75775146484375,105.5012969970703,-22.50369262695312
90173,-0.073394775390625,0.4871978759765625,-0.135894775390625,0.3856475651264191,-0.888547420501709,0.6066228151321411,13.73066711425781,106.244140625,-21.86090087890625
90174,-0.1166534423828125,0.1878204345703125,0.086761474609375,0.5068179368972778,-0.3482575714588165,0.3487089872360229,14.46516418457031,106.6084289550781,-21.63609313964844
90175,-0.1166534423828125,0.1878204345703125,0.086761474609375,0.5068179368972778,-0.3482575714588165,0.3487089872360229,14.46516418457031,106.6084289550781,-21.63609313964844
90176,-0.096038818359375,0.035186767578125,0.051055908203125,0.4949186444282532,-0.0122635904699564,0.2772976458072662,15.0352783203125,106.2486877441406,-21.49278259277344
90177,-0.0633392333984375,-0.0908966064453125,-0.0835418701171875,0.5112659335136414,0.0952173322439193,0.2832189202308655,15.79714965820312,105.6692352294922,-21.01318359375
90178,-0.04412841796875,-0.247100830078125,-0.4732818603515625,0.9510425329208374,-0.5839143395423889,0.4650872647762299,16.85775756835938,105.1300354003906,-20.77386474609375
90179,-0.04412841796875,-0.247100830078125,-0.4732818603515625,0.9510425329208374,-0.5839143395423889,0.4650872647762299,16.85775756835938,105.1300354003906,-20.77386474609375
90180,-0.0498809814453125,-0.2453155517578125,-0.341766357421875,1.220153570175171,-0.5851207375526428,0.5296127200126648,16.89822387695312,105.1529388427734,-20.28524780273438
90181,-0.027252197265625,-0.2231903076171875,-0.3030242919921875,1.345723748207092,-0.1914186924695969,0.5338913798332214,16.83241271972656,105.4076538085938,-19.5345458984375
90182,0.156768798828125,-0.0397186279296875,-0.4398193359375,1.230148673057556,-0.0623651072382926,0.4574719369411469,17.07978820800781,106.1269836425781,-19.16291809082031
90183,0.156768798828125,-0.0397186279296875,-0.4398193359375,1.230148673057556,-0.0623651072382926,0.4574719369411469,17.07978820800781,106.1269836425781,-19.16291809082031
90184,0.2029571533203125,0.094451904296875,-0.3915252685546875,1.117094039916992,-0.2411529570817947,0.4170230627059937,17.33279418945312,106.2543487548828,-19.30349731445312
90185,0.1960906982421875,0.1696929931640625,-0.2688140869140625,1.057596445083618,-0.2474739700555801,0.3793864548206329,17.53388977050781,106.3714904785156,-19.30073547363281
90186,0.1637725830078125,0.2390289306640625,-0.1016693115234375,1.07382333278656,0.0995508283376693,0.3265812993049622,17.81059265136719,106.3567352294922,-19.85000610351562
90187,0.1637725830078125,0.2390289306640625,-0.1016693115234375,1.07382333278656,0.0995508283376693,0.3265812993049622,17.81059265136719,106.3567352294922,-19.85000610351562
90188,0.1259765625,0.275482177734375,-0.0152130126953125,1.079673409461975,0.2230804860591888,0.2643472254276276,17.90493774414062,106.1695861816406,-20.18829345703125
90189,0.104217529296875,0.2860107421875,0.0932159423828125,1.066436767578125,0.4257859289646149,0.1997679769992828,17.90370178222656,106.1562652587891,-20.70489501953125
90190,0.0760498046875,0.4117584228515625,0.2803192138671875,0.8457549810409546,1.095168828964233,0.1014600470662117,17.77694702148438,105.9947662353516,-22.24848937988281
90191,0.0760498046875,0.4117584228515625,0.2803192138671875,0.8457549810409546,1.095168828964233,0.1014600470662117,17.77694702148438,105.9947662353516,-22.24848937988281
90192,0.0420074462890625,0.582611083984375,0.395416259765625,0.6109176874160767,1.629152059555054,0.0988139286637306,17.70463562011719,105.8855590820312,-23.33705139160156
90193,-0.0213470458984375,0.8047332763671875,0.5526123046875,0.2906416952610016,2.25145411491394,0.0751482769846916,17.68417358398438,105.6832885742188,-24.69436645507812
90194,-0.28277587890625,1.428115844726562,0.826171875,-0.3966884911060333,3.270045518875122,-0.1664398461580276,19.44635009765625,104.3048858642578,-28.01249694824219
90195,-0.28277587890625,1.428115844726562,0.826171875,-0.3966884911060333,3.270045518875122,-0.1664398461580276,19.44635009765625,104.3048858642578,-28.01249694824219
90196,-0.592742919921875,1.819686889648438,0.8219451904296875,-0.3857309222221375,2.575821161270142,-0.2590342164039612,21.32658386230469,103.1560974121094,-29.87129211425781
90197,-0.9321746826171876,2.173370361328125,0.937713623046875,-0.0916345790028572,1.259384632110596,-0.2262115627527237,23.45582580566406,101.9563751220703,-31.6082763671875
90198,-1.3795166015625,2.731521606445312,1.532928466796875,0.2044495493173599,-0.0711551383137702,-0.0334599539637565,26.04296875,101.2065277099609,-34.42807006835938
90199,-1.3795166015625,2.731521606445312,1.532928466796875,0.2044495493173599,-0.0711551383137702,-0.0334599539637565,26.04296875,101.2065277099609,-34.42807006835938
90200,-1.374191284179688,2.707504272460938,1.54327392578125,-0.1494667232036591,0.6393696069717407,-0.1661823093891144,25.91262817382812,101.5732116699219,-35.50875854492188
90201,-0.9413909912109376,2.22979736328125,1.024917602539062,-0.6421616077423096,0.9406431317329408,-0.0973507910966873,25.34292602539062,102.0741119384766,-36.16444396972656
90202,-0.4969329833984375,1.803436279296875,0.5572662353515625,-0.9682305455207824,0.6133230924606323,0.0059833237901329,24.78974914550781,102.2641448974609,-36.32716369628906
90203,-0.4969329833984375,1.803436279296875,0.5572662353515625,-0.9682305455207824,0.6133230924606323,0.0059833237901329,24.78974914550781,102.2641448974609,-36.32716369628906
90204,-0.1256256103515625,1.4110107421875,0.2613372802734375,-1.156911492347717,-0.0932191610336303,0.2825283706188202,23.29925537109375,103.0751647949219,-35.61341857910156
90205,-0.07818603515625,1.219436645507812,0.217529296875,-1.151330351829529,-0.1424045413732529,0.296630859375,22.45249938964844,103.570556640625,-34.73480224609375
90206,-0.028472900390625,0.75927734375,-0.1366729736328125,-1.153014302253723,-0.4654630422592163,0.0811830013990402,21.42189025878906,104.1963806152344,-32.36473083496094
90207,-0.028472900390625,0.75927734375,-0.1366729736328125,-1.153014302253723,-0.4654630422592163,0.0811830013990402,21.42189025878906,104.1963806152344,-32.36473083496094
90208,-0.04754638671875,0.6062469482421875,-0.1202239990234375,-1.113511323928833,-0.7940158843994141,-0.0503611750900745,21.4276123046875,104.2217559814453,-31.43814086914062
90209,-0.0828704833984375,0.496826171875,-0.005859375,-1.029585480690002,-0.6854023337364197,-0.2019003629684448,21.32350158691406,104.2366027832031,-30.46450805664062
90210,-0.0708160400390625,0.3042449951171875,-0.17108154296875,-0.7595950365066528,-0.0678943619132041,-0.3485744893550873,20.85728454589844,104.2003936767578,-29.0352783203125
90211,-0.0708160400390625,0.3042449951171875,-0.17108154296875,-0.7595950365066528,-0.0678943619132041,-0.3485744893550873,20.85728454589844,104.2003936767578,-29.0352783203125
90212,-0.040191650390625,0.2795257568359375,-0.283477783203125,-0.5679915547370911,-0.0595916919410228,-0.3785683512687683,20.81877136230469,103.8476409912109,-28.50277709960938
90213,0.016937255859375,0.2713623046875,-0.329803466796875,-0.3362097144126892,-0.1652113348245621,-0.3687889575958252,20.65324401855469,103.6799621582031,-28.15763854980469
90214,0.1319732666015625,0.2578125,-0.2413177490234375,0.1862380504608154,-0.2332950383424759,-0.0960756689310073,19.80819702148438,103.6049499511719,-27.31111145019531
90215,0.1319732666015625,0.2578125,-0.2413177490234375,0.1862380504608154,-0.2332950383424759,-0.0960756689310073,19.80819702148438,103.6049499511719,-27.31111145019531
90216,0.1634521484375,0.2760162353515625,-0.17730712890625,0.3912114500999451,-0.1964296996593475,0.0790474116802215,19.12892150878906,103.7568969726562,-26.60128784179688
90217,0.1978302001953125,0.2730255126953125,-0.123046875,0.5126428008079529,-0.1796195656061172,0.2286635339260101,18.51206970214844,104.0852203369141,-25.80258178710938
90218,0.2614593505859375,0.2434234619140625,-0.0617523193359375,0.4802457094192505,-0.3058656454086304,0.5231292843818665,18.15719604492188,104.4181213378906,-23.79443359375
90219,0.2614593505859375,0.2434234619140625,-0.0617523193359375,0.4802457094192505,-0.3058656454086304,0.5231292843818665,18.15719604492188,104.4181213378906,-23.79443359375
90220,0.287139892578125,0.2496795654296875,-0.058319091796875,0.4025559723377228,-0.4279484152793884,0.6781840920448303,18.34602355957031,104.5983734130859,-22.50569152832031
90221,0.29534912109375,0.2702484130859375,-0.0627288818359375,0.3560068309307098,-0.5398973226547241,0.8091327548027039,18.67288208007812,104.5617828369141,-21.04852294921875
90222,0.2232208251953125,0.294769287109375,-0.0922088623046875,0.4190182983875275,-0.5813717842102051,0.8124555945396423,19.90461730957031,104.5884857177734,-18.19529724121094
90223,0.2232208251953125,0.294769287109375,-0.0922088623046875,0.4190182983875275,-0.5813717842102051,0.8124555945396423,19.90461730957031,104.5884857177734,-18.19529724121094
90224,0.1671600341796875,0.24774169921875,-0.1190032958984375,0.4699318110942841,-0.5580105185508728,0.6573302149772644,20.72993469238281,104.6114654541016,-16.8681640625
90225,0.117950439453125,0.1907501220703125,-0.1652069091796875,0.4765830636024475,-0.5810868144035339,0.4485580921173096,21.51229858398438,104.5819702148438,-15.53778076171875
90226,0.074920654296875,0.1483154296875,-0.3252410888671875,0.391408234834671,-0.9415688514709472,-0.0575581006705761,22.78421020507812,104.6120452880859,-13.54722595214844
90227,0.074920654296875,0.1483154296875,-0.3252410888671875,0.391408234834671,-0.9415688514709472,-0.0575581006705761,22.78421020507812,104.6120452880859,-13.54722595214844
90228,0.0593109130859375,0.293792724609375,-0.4113922119140625,0.2939083278179169,-1.239961981773376,-0.4049815833568573,23.07728576660156,104.7147216796875,-13.08920288085938
90229,0.0312042236328125,0.4986114501953125,-0.5137176513671875,0.1662936359643936,-1.742817401885986,-0.6548007130622864,23.16505432128906,104.975341796875,-13.036376953125
90230,0.006011962890625,1.047256469726562,-0.097381591796875,-0.1668182760477066,-2.455473184585571,-1.410846590995789,22.50335693359375,105.2234497070312,-12.93392944335938
90231,0.006011962890625,1.047256469726562,-0.097381591796875,-0.1668182760477066,-2.455473184585571,-1.410846590995789,22.50335693359375,105.2234497070312,-12.93392944335938
90232,-0.0023193359375,1.456253051757812,0.4107666015625,-0.5694813132286072,-1.549113154411316,-2.060697317123413,21.73994445800781,105.4910278320312,-13.19776916503906
90233,0.0761260986328125,2.050872802734375,0.61602783203125,-1.13206160068512,-0.164379358291626,-2.676385879516602,20.72671508789062,105.4603576660156,-13.71395874023438
90234,0.02203369140625,3.621627807617188,0.4149627685546875,-2.454723596572876,0.5828948616981506,-2.884361028671265,18.43716430664062,104.1751251220703,-16.77937316894531
90235,0.02203369140625,3.621627807617188,0.4149627685546875,-2.454723596572876,0.5828948616981506,-2.884361028671265,18.43716430664062,104.1751251220703,-16.77937316894531
90236,-0.401519775390625,4.196807861328125,0.4127655029296875,-2.224431753158569,-1.035620808601379,-2.494445085525513,18.30734252929688,103.2586364746094,-18.98809814453125
90237,-0.939300537109375,4.01275634765625,1.085494995117188,-1.312499284744263,-2.020006418228149,-1.493886828422546,18.95741271972656,102.7365417480469,-20.801513671875
90238,-0.7727203369140625,2.840576171875,1.397689819335938,0.1274234652519226,0.1749952435493469,-0.1372257620096207,20.46330261230469,103.1573333740234,-21.21061706542969
90239,-0.7727203369140625,2.840576171875,1.397689819335938,0.1274234652519226,0.1749952435493469,-0.1372257620096207,20.46330261230469,103.1573333740234,-21.21061706542969
90240,-0.6452178955078125,2.626556396484375,0.5990142822265625,0.4578591585159302,0.1607374846935272,-0.0009542105835862,20.95439147949219,103.2617492675781,-20.46681213378906
90241,-0.5771026611328125,2.337448120117188,0.133819580078125,0.5744129419326782,-0.1950049102306366,-0.0836482942104339,21.19038391113281,103.0311889648438,-20.12811279296875
90242,-0.3724212646484375,1.94793701171875,-0.250396728515625,0.7621071934700012,0.276637464761734,0.3773454129695892,19.99223327636719,103.5538024902344,-20.82640075683594
90243,-0.3724212646484375,1.94793701171875,-0.250396728515625,0.7621071934700012,0.276637464761734,0.3773454129695892,19.99223327636719,103.5538024902344,-20.82640075683594
90244,-0.2443389892578125,1.766616821289062,-0.446380615234375,0.7675004005432129,0.3871367871761322,0.5592095255851746,19.0765380859375,104.033447265625,-21.23678588867188
90245,-0.1637420654296875,1.538925170898438,-0.3711700439453125,0.6839988231658936,0.2399974167346954,0.6350888013839722,18.77474975585938,104.3470001220703,-21.59043884277344
90246,-0.115386962890625,0.9813232421875,-0.031951904296875,0.6629214882850647,0.2135069519281387,0.6570780277252197,19.30230712890625,104.6281890869141,-21.95558166503906
90247,-0.115386962890625,0.9813232421875,-0.031951904296875,0.6629214882850647,0.2135069519281387,0.6570780277252197,19.30230712890625,104.6281890869141,-21.95558166503906
90248,-0.1201324462890625,0.78106689453125,0.0419921875,0.8007891178131104,0.2202404886484146,0.6314074993133545,19.96064758300781,104.7032012939453,-22.01943969726562
90249,-0.1267852783203125,0.633026123046875,0.1105194091796875,0.919330894947052,0.2400626689195633,0.5765101909637451,20.587158203125,104.7414398193359,-22.0220947265625
90250,-0.1053466796875,0.2901458740234375,0.18695068359375,0.7399206757545471,0.5202146768569946,0.4748722314834595,21.31437683105469,105.0011749267578,-22.47972106933594
90251,-0.1053466796875,0.2901458740234375,0.18695068359375,0.7399206757545471,0.5202146768569946,0.4748722314834595,21.31437683105469,105.0011749267578,-22.47972106933594
90252,-0.0752410888671875,0.11407470703125,0.1407012939453125,0.532960057258606,0.6634698510169983,0.4629333019256592,21.65074157714844,105.2012481689453,-22.75785827636719
90253,-0.039825439453125,-0.0196380615234375,0.0256500244140625,0.3860909640789032,0.669917643070221,0.4617979824542999,22.01126098632812,105.1800994873047,-22.98587036132812
90254,-0.0029754638671875,-0.1151885986328125,-0.1063995361328125,0.4357394874095917,0.4895710349082947,0.4764294028282166,22.48606872558594,105.1757965087891,-22.94877624511719
90255,0.02459716796875,-0.156829833984375,-0.182220458984375,0.6362667083740234,0.2624214887619019,0.5183576941490173,22.83755493164062,105.2259063720703,-22.65890502929688
90256,0.0442962646484375,-0.187164306640625,-0.2772216796875,0.9035354256629944,0.0664450675249099,0.6182277798652649,22.9903564453125,105.2549133300781,-22.04873657226562
90257,0.0645294189453125,-0.239715576171875,-0.4868927001953125,1.238642334938049,-0.2874099314212799,0.8044445514678955,22.86204528808594,105.4455261230469,-21.1881103515625
90258,0.0834503173828125,-0.2672882080078125,-0.6453094482421875,1.583292365074158,-0.8909866213798523,1.050265550613403,22.5826416015625,105.7903900146484,-19.69464111328125
90259,0.0978851318359375,-0.249237060546875,-0.5000457763671875,1.772047638893127,-1.172983646392822,1.217940211296082,22.44271850585938,106.1030578613281,-18.11541748046875
90260,0.1288604736328125,-0.2899932861328125,-0.332794189453125,1.563685894012451,0.011845207773149,1.150093555450439,22.68325805664062,106.4401550292969,-16.18753051757812
90261,0.2027740478515625,-0.269500732421875,-0.6109619140625,1.191400766372681,0.7502843737602234,1.030470728874207,23.33419799804688,106.6097564697266,-14.47877502441406
90262,0.224029541015625,0.0269317626953125,-0.1183929443359375,0.8319746851921082,0.1663176119327545,0.7526625990867615,25.79879760742188,105.9691162109375,-12.60238647460938
90263,0.224029541015625,0.0269317626953125,-0.1183929443359375,0.8319746851921082,0.1663176119327545,0.7526625990867615,25.79879760742188,105.9691162109375,-12.60238647460938
90264,0.2064056396484375,0.1350860595703125,0.0820465087890625,0.7092469334602356,0.3268460333347321,0.559853732585907,26.94656372070312,105.5999755859375,-12.3839111328125
90265,0.17034912109375,0.1881103515625,0.141204833984375,0.6077134013175964,0.627914547920227,0.3987218141555786,27.60478210449219,105.2919311523438,-12.26766967773438
90266,0.0756072998046875,0.2297821044921875,0.141387939453125,0.4686580300331116,1.152401208877563,0.1057674437761307,28.12303161621094,105.1873016357422,-12.73918151855469
90267,0.0756072998046875,0.2297821044921875,0.141387939453125,0.4686580300331116,1.152401208877563,0.1057674437761307,28.12303161621094,105.1873016357422,-12.73918151855469
90268,0.0312042236328125,0.2540130615234375,0.1448974609375,0.3570271134376526,1.378060460090637,-0.0442628040909767,28.10786437988281,105.2113189697266,-13.25971984863281
90269,-0.0029144287109375,0.2917022705078125,0.153961181640625,0.1697842478752136,1.553280472755432,-0.1977096199989319,27.87403869628906,105.2855834960938,-13.9930419921875
90270,-0.03936767578125,0.50421142578125,0.5425872802734375,-0.604324221611023,2.256031274795532,-0.5854349732398987,26.534912109375,105.7099761962891,-16.293701171875
90271,-0.03936767578125,0.50421142578125,0.5425872802734375,-0.604324221611023,2.256031274795532,-0.5854349732398987,26.534912109375,105.7099761962891,-16.293701171875
90272,-0.077056884765625,1.53741455078125,0.8826904296875,-1.208301186561584,3.320708036422729,-1.15418553352356,25.33209228515625,105.7978668212891,-18.32460021972656
90273,-0.16943359375,2.633438110351562,0.959259033203125,-1.67257833480835,4.083313465118408,-1.347670078277588,23.990234375,105.5418548583984,-21.24568176269531
90274,-1.18896484375,3.44024658203125,0.7718658447265625,-0.6242337822914124,0.6347098350524902,-0.3485231101512909,23.98011779785156,103.2104187011719,-28.46189880371094
90275,-1.18896484375,3.44024658203125,0.7718658447265625,-0.6242337822914124,0.6347098350524902,-0.3485231101512909,23.98011779785156,103.2104187011719,-28.46189880371094
90276,-1.450668334960938,3.377761840820312,1.077423095703125,0.4255981743335724,-1.063122749328613,0.0375662855803966,26.16357421875,101.8178558349609,-30.65875244140625
90277,-1.244476318359375,2.8702392578125,1.348907470703125,0.7270629405975342,-1.082595229148865,-0.0372903794050216,28.29067993164062,101.1701202392578,-31.39689636230469
90278,-0.54937744140625,1.604827880859375,0.858489990234375,-0.7225025296211243,0.0449727997183799,-0.1119337230920792,28.673583984375,102.3202056884766,-30.18824768066406
90279,-0.54937744140625,1.604827880859375,0.858489990234375,-0.7225025296211243,0.0449727997183799,-0.1119337230920792,28.673583984375,102.3202056884766,-30.18824768066406
90280,-0.37579345703125,1.37054443359375,0.571014404296875,-1.286856174468994,0.4361504018306732,0.0337547659873962,27.87464904785156,103.0559539794922,-29.78562927246094
90281,-0.2586517333984375,1.215484619140625,0.36822509765625,-1.44170355796814,0.4581899344921112,0.0636735185980796,27.19377136230469,103.6257629394531,-29.57618713378906
90282,-0.2238616943359375,0.894775390625,0.186126708984375,-1.146628022193909,0.2237249761819839,-0.0616878643631935,26.39352416992188,104.2274169921875,-28.32969665527344
90283,-0.2238616943359375,0.894775390625,0.186126708984375,-1.146628022193909,0.2237249761819839,-0.0616878643631935,26.39352416992188,104.2274169921875,-28.32969665527344
90284,-0.2306365966796875,0.727020263671875,0.1181182861328125,-1.009870171546936,0.1607433408498764,-0.1508310586214066,26.29661560058594,104.4788970947266,-27.48246765136719
90285,-0.2044830322265625,0.56207275390625,0.0417327880859375,-0.9660755395889282,0.103804424405098,-0.2123154550790787,26.38851928710938,104.4283447265625,-26.6656494140625
90286,-0.1480255126953125,0.28125,-0.2694549560546875,-0.9537485241889954,-0.1157577559351921,-0.2871524095535278,26.42243957519531,104.2062530517578,-25.50697326660156
90287,-0.1480255126953125,0.28125,-0.2694549560546875,-0.9537485241889954,-0.1157577559351921,-0.2871524095535278,26.42243957519531,104.2062530517578,-25.50697326660156
90288,-0.0745697021484375,0.110260009765625,-0.8919219970703125,-0.780423641204834,-1.257303595542908,-0.2561739981174469,26.45079040527344,104.0845336914062,-24.85368347167969
90289,-0.001007080078125,0.090423583984375,-0.88482666015625,-0.4605287313461304,-2.655300378799438,-0.1786536276340485,26.29226684570312,103.9657745361328,-24.35107421875
90290,0.0417327880859375,0.308685302734375,-0.2801666259765625,-0.2640627920627594,-0.6421411037445068,0.2321102023124695,24.8570556640625,104.7178039550781,-23.23207092285156
90291,0.0417327880859375,0.308685302734375,-0.2801666259765625,-0.2640627920627594,-0.6421411037445068,0.2321102023124695,24.8570556640625,104.7178039550781,-23.23207092285156
90292,0.1748504638671875,0.4595489501953125,-0.31915283203125,0.209707960486412,-0.2363462299108505,0.4623338282108307,23.69947814941406,105.291259765625,-22.46949768066406
90293,0.1878662109375,0.5312042236328125,-0.1291656494140625,0.5887979865074158,-0.0337989777326583,0.4751593470573425,22.9764404296875,105.5356292724609,-21.43290710449219
90294,0.295806884765625,0.451904296875,-0.0617523193359375,0.640101969242096,-0.0295805297791957,0.5020503401756287,22.77806091308594,105.2117309570312,-18.9461669921875
90295,0.295806884765625,0.451904296875,-0.0617523193359375,0.640101969242096,-0.0295805297791957,0.5020503401756287,22.77806091308594,105.2117309570312,-18.9461669921875
90296,0.349822998046875,0.433746337890625,-0.10479736328125,0.4832132756710052,-0.3001166880130768,0.6367051005363464,22.9403076171875,105.0699768066406,-17.93684387207031
90297,0.3806610107421875,0.454620361328125,-0.152130126953125,0.3814443051815033,-0.6737834811210632,0.7880229949951172,23.24790954589844,104.7347564697266,-16.89613342285156
90298,0.32073974609375,0.4336700439453125,-0.087860107421875,0.5241468548774719,-0.9408910870552064,0.8222043514251709,24.31076049804688,104.345703125,-14.38682556152344
90299,0.32073974609375,0.4336700439453125,-0.087860107421875,0.5241468548774719,-0.9408910870552064,0.8222043514251709,24.31076049804688,104.345703125,-14.38682556152344
90300,0.234405517578125,0.26385498046875,-0.097137451171875,0.7152997851371765,-0.6899725794792175,0.7388516664505005,24.91627502441406,104.3141479492188,-13.1483154296875
90301,0.1483612060546875,0.113739013671875,-0.127960205078125,0.8866171836853027,-0.3291749656200409,0.6106910705566406,25.48590087890625,104.2978820800781,-12.26766967773438
90302,0.0818939208984375,-0.0310211181640625,-0.315277099609375,0.984255313873291,0.2416704148054123,0.3020224273204803,26.55744934082031,104.4133148193359,-10.67878723144531
90303,0.0818939208984375,-0.0310211181640625,-0.315277099609375,0.984255313873291,0.2416704148054123,0.3020224273204803,26.55744934082031,104.4133148193359,-10.67878723144531
90304,0.0827484130859375,-0.0023956298828125,-0.47869873046875,0.938584804534912,-0.0971414595842361,0.1455800980329514,27.04296875,104.5230255126953,-10.33828735351562
90305,0.1003875732421875,0.1729278564453125,-0.581939697265625,0.8599424362182617,-0.8567826151847839,-0.0902625173330307,27.55386352539062,104.6223602294922,-10.18016052246094
90306,0.11431884765625,0.3896484375,-0.5663909912109375,0.7280818819999695,-1.722141146659851,-0.2670471370220184,27.91265869140625,104.5384674072266,-9.962265014648438
90307,0.0898590087890625,0.6590728759765625,-0.2958221435546875,0.4896317422389984,-2.264058351516724,-0.481778085231781,28.05743408203125,104.6465759277344,-9.781936645507812
90308,0.052886962890625,1.108627319335938,0.1619720458984375,0.06814656406641,-1.97827136516571,-0.9536566734313964,27.81181335449219,104.9644927978516,-10.02046203613281
90309,0.0595703125,1.731643676757812,0.5302734375,-0.5019307732582092,-0.9449454545974731,-1.757866621017456,27.29830932617188,105.2966156005859,-10.53350830078125
90310,0.1854248046875,3.207061767578125,0.7782135009765625,-2.129226207733154,1.241084694862366,-3.05605411529541,25.19076538085938,105.8033599853516,-12.02386474609375
90311,0.1854248046875,3.207061767578125,0.7782135009765625,-2.129226207733154,1.241084694862366,-3.05605411529541,25.19076538085938,105.8033599853516,-12.02386474609375
90312,-0.002349853515625,3.922607421875,0.7425994873046875,-3.186176061630249,1.499157547950745,-3.240560054779053,23.65164184570312,105.5405883789062,-13.25112915039062
90313,-0.449615478515625,4.196334838867188,0.5826568603515625,-3.604287147521973,0.3140191733837128,-3.341144561767578,22.57106018066406,104.8495788574219,-14.90946960449219
90314,-1.453689575195312,2.535842895507812,1.590194702148438,-1.440377593040466,-0.9440077543258668,-1.207419157028198,23.78286743164062,103.0007476806641,-16.85662841796875
90315,-1.453689575195312,2.535842895507812,1.590194702148438,-1.440377593040466,-0.9440077543258668,-1.207419157028198,23.78286743164062,103.0007476806641,-16.85662841796875
90316,-0.981964111328125,1.961593627929688,1.369552612304688,-0.288666695356369,-0.4553174376487732,-0.2962822616100311,25.55027770996094,102.0693664550781,-15.72943115234375
90317,-0.640350341796875,2.061477661132812,0.8177337646484375,0.3502690494060516,-1.013771176338196,0.2133000195026398,27.1771240234375,100.9799346923828,-13.77297973632812
90318,-0.2499847412109375,2.12109375,0.085662841796875,0.5766079425811768,-1.90056324005127,0.1026661917567253,28.07209777832031,99.98951721191406,-11.27183532714844
90319,-0.2499847412109375,2.12109375,0.085662841796875,0.5766079425811768,-1.90056324005127,0.1026661917567253,28.07209777832031,99.98951721191406,-11.27183532714844
90320,-0.147552490234375,1.97735595703125,-0.177490234375,0.8362435102462769,-1.429028034210205,0.2728269994258881,27.471435546875,100.3805389404297,-11.34310913085938
90321,-0.142974853515625,1.712188720703125,-0.327850341796875,1.163209915161133,-0.2204596698284149,0.5420398116111755,26.55152893066406,101.0158081054688,-11.38412475585938
90322,-0.1597442626953125,1.421188354492188,-0.5374908447265625,1.265727758407593,0.8841630816459656,0.8247466087341309,25.13836669921875,102.1092681884766,-11.32940673828125
90323,-0.11212158203125,1.184661865234375,-0.6769256591796875,1.009559631347656,1.052933692932129,0.9972842931747437,25.13836669921875,102.1092681884766,-11.32940673828125
90324,-0.07391357421875,0.9749908447265624,-0.602142333984375,0.5787360668182373,0.6739217042922974,1.046196937561035,25.01789855957031,102.5301055908203,-11.57070922851562
90325,-0.0522918701171875,0.7698822021484375,-0.4268646240234375,0.2780723571777344,0.3452048003673553,1.021211981773376,25.13548278808594,102.8995819091797,-11.93026733398438
90326,-0.065582275390625,0.4994659423828125,-0.15057373046875,0.2909985482692719,0.2934766113758087,0.9312456250190736,26.20841979980469,103.1025848388672,-11.91844177246094
90327,-0.065582275390625,0.4994659423828125,-0.15057373046875,0.2909985482692719,0.2934766113758087,0.9312456250190736,26.20841979980469,103.1025848388672,-11.91844177246094
90328,-0.1052398681640625,0.4130096435546875,-0.079803466796875,0.3894042074680328,0.4641990959644318,0.8194301724433899,27.20655822753906,103.2394561767578,-11.62525939941406
90329,-0.1075897216796875,0.30535888671875,-0.0579681396484375,0.4612517654895782,0.5817997455596924,0.6750767230987549,27.8336181640625,103.225830078125,-11.49298095703125
90330,-0.0735931396484375,0.0746307373046875,-0.0911102294921875,0.4833014309406281,0.5686807632446289,0.4895974099636078,28.87860107421875,103.1920013427734,-11.77183532714844
90331,-0.0735931396484375,0.0746307373046875,-0.0911102294921875,0.4833014309406281,0.5686807632446289,0.4895974099636078,28.87860107421875,103.1920013427734,-11.77183532714844
90332,-0.0499114990234375,-0.037261962890625,-0.16937255859375,0.532884955406189,0.4263606369495392,0.4654169678688049,29.21206665039062,103.1748352050781,-12.13134765625
90333,-0.0464630126953125,-0.1138458251953125,-0.2288665771484375,0.6513077020645142,0.2426155656576157,0.4953554272651672,29.49148559570312,103.0779113769531,-12.19332885742188
90334,-0.0319061279296875,-0.1805877685546875,-0.25592041015625,1.068998694419861,0.3775776624679565,0.6735659241676331,29.5657958984375,103.2872772216797,-12.08003234863281
90335,-0.0319061279296875,-0.1805877685546875,-0.25592041015625,1.068998694419861,0.3775776624679565,0.6735659241676331,29.5657958984375,103.2872772216797,-12.08003234863281
90336,-0.0135498046875,-0.1893310546875,-0.3497467041015625,1.307713031768799,0.4650204181671143,0.7890474796295166,29.49192810058594,103.4593353271484,-11.90586853027344
90337,0.0206756591796875,-0.193634033203125,-0.478851318359375,1.474649310112,0.3946434557437897,0.8809017539024353,29.49525451660156,103.6306610107422,-11.57101440429688
90338,0.1385650634765625,-0.0892486572265625,-0.46917724609375,1.12834358215332,0.0691716149449348,0.8008804321289062,29.95487976074219,104.1053466796875,-12.05865478515625
90339,0.1385650634765625,-0.0892486572265625,-0.46917724609375,1.12834358215332,0.0691716149449348,0.8008804321289062,29.95487976074219,104.1053466796875,-12.05865478515625
90340,0.1544952392578125,0.044647216796875,-0.2738800048828125,0.7892941236495972,-0.0323209203779697,0.6631806492805481,30.37467956542969,104.1795196533203,-12.03799438476562
90341,0.1429443359375,0.13421630859375,-0.073974609375,0.5329582095146179,0.0155107825994491,0.5802924036979675,30.73536682128906,104.0764617919922,-12.03294372558594
90342,0.1217498779296875,0.185150146484375,0.1923065185546875,0.4452906548976898,0.5976194739341736,0.4467630982398987,31.21578979492188,104.1665191650391,-12.23323059082031
90343,0.1217498779296875,0.185150146484375,0.1923065185546875,0.4452906548976898,0.5976194739341736,0.4467630982398987,31.21578979492188,104.1665191650391,-12.23323059082031
90344,0.138153076171875,0.2366180419921875,0.2711334228515625,0.5099157094955444,1.134087681770325,0.3569669127464294,31.17974853515625,104.3117065429688,-12.5198974609375
90345,0.2027740478515625,0.4679718017578125,0.320526123046875,0.475464254617691,1.755320072174072,0.267824798822403,31.06892395019531,104.2996520996094,-12.91781616210938
90346,0.27874755859375,1.355178833007812,0.53228759765625,-0.2982996106147766,3.056518793106079,0.0390842854976654,30.63594055175781,104.1651916503906,-14.48406982421875
90347,0.27874755859375,1.355178833007812,0.53228759765625,-0.2982996106147766,3.056518793106079,0.0390842854976654,30.63594055175781,104.1651916503906,-14.48406982421875
90348,0.199188232421875,1.825637817382812,0.627227783203125,-1.014428377151489,3.315302133560181,-0.1802190393209457,30.72259521484375,103.7658996582031,-15.303466796875
90349,0.006378173828125,2.267227172851562,0.685394287109375,-1.525759816169739,2.784518241882324,-0.4504076540470123,31.20938110351562,102.9299621582031,-16.12467956542969
90350,-0.5095672607421875,2.7587890625,1.006942749023438,-0.8164394497871399,-0.1401805430650711,-0.595713198184967,32.95582580566406,100.9939270019531,-16.49334716796875
90351,-0.5095672607421875,2.7587890625,1.006942749023438,-0.8164394497871399,-0.1401805430650711,-0.595713198184967,32.95582580566406,100.9939270019531,-16.49334716796875
90352,-0.7058258056640625,2.860549926757812,1.353424072265625,0.073230005800724,-1.135371923446655,-0.3330735564231873,33.78776550292969,100.4489440917969,-16.11018371582031
90353,-0.8300933837890625,2.799652099609375,1.607757568359375,0.6028581857681274,-0.9362707734107972,-0.306297093629837,34.36186218261719,99.95887756347656,-15.4281005859375
90354,-0.6393585205078125,1.93707275390625,1.119964599609375,-0.3116971850395203,0.4722048342227936,-0.73805832862854,34.82870483398438,99.7366180419922,-15.22286987304688
90355,-0.6393585205078125,1.93707275390625,1.119964599609375,-0.3116971850395203,0.4722048342227936,-0.73805832862854,34.82870483398438,99.7366180419922,-15.22286987304688
90356,-0.5019683837890625,1.544342041015625,0.6988372802734375,-0.9327895045280457,0.7404120564460754,-0.7427526712417603,34.43429565429688,99.95216369628906,-15.58030700683594
90357,-0.4000244140625,1.268234252929688,0.3588409423828125,-1.24571430683136,0.6917890906333923,-0.6429232954978943,33.82162475585938,100.2820129394531,-15.78253173828125
90358,-0.275665283203125,0.9178466796875,-0.0679168701171875,-1.14679229259491,-0.166747972369194,-0.3383892476558685,32.49560546875,100.8286895751953,-15.64085388183594
90359,-0.275665283203125,0.9178466796875,-0.0679168701171875,-1.14679229259491,-0.166747972369194,-0.3383892476558685,32.49560546875,100.8286895751953,-15.64085388183594
90360,-0.233551025390625,0.7680816650390625,-0.2047882080078125,-0.9053226709365844,-0.7983222007751465,-0.2750225067138672,32.09254455566406,101.0475311279297,-15.09223937988281
90361,-0.1822662353515625,0.6142425537109375,-0.3076629638671875,-0.6455643773078918,-1.442317128181458,-0.3002831339836121,31.89242553710938,101.1046142578125,-14.49391174316406
90362,-0.0848388671875,0.3189697265625,-0.45330810546875,-0.1892261207103729,-2.786144733428955,-0.4346164464950562,31.83503723144531,100.895751953125,-13.372802734375
90363,-0.0848388671875,0.3189697265625,-0.45330810546875,-0.1892261207103729,-2.786144733428955,-0.4346164464950562,31.83503723144531,100.895751953125,-13.372802734375
90364,-0.189361572265625,0.1583709716796875,-0.28790283203125,-0.062389075756073,-2.415330648422241,-0.4146416485309601,31.71669006347656,100.888671875,-12.97175598144531
90365,-0.2834625244140625,0.0467681884765625,-0.44464111328125,-0.2538461089134216,-0.6054238677024841,-0.0295491032302379,31.67616271972656,101.0087738037109,-12.68499755859375
90366,-0.00408935546875,0.5373687744140625,-0.5820159912109375,0.3246140480041504,-0.3185601234436035,0.1827916502952576,31.18205261230469,101.0749359130859,-11.71702575683594
90367,-0.00408935546875,0.5373687744140625,-0.5820159912109375,0.3246140480041504,-0.3185601234436035,0.1827916502952576,31.18205261230469,101.0749359130859,-11.71702575683594
90368,0.024017333984375,0.5186614990234375,-0.0733184814453125,0.4354438781738281,0.1859549582004547,0.029606893658638,30.95327758789062,100.906494140625,-11.22428894042969
90369,0.0981292724609375,0.4388580322265625,0.0366058349609375,0.284002959728241,0.672076404094696,-0.0265623684972524,30.67845153808594,101.0059356689453,-10.83808898925781
90370,0.17230224609375,0.3638153076171875,0.0185699462890625,-0.1176302284002304,0.693453848361969,-0.0007352987886406,30.44674682617188,100.8882446289062,-10.40802001953125
90371,0.17230224609375,0.3638153076171875,0.0185699462890625,-0.1176302284002304,0.693453848361969,-0.0007352987886406,30.44674682617188,100.8882446289062,-10.40802001953125
90372,0.217071533203125,0.3833770751953125,-0.0298004150390625,-0.2132366448640823,0.3432697355747223,0.0421932600438594,30.53656005859375,100.8573760986328,-10.51535034179688
90373,0.2577667236328125,0.4382476806640625,-0.0739593505859375,-0.1554194241762161,-0.1562306135892868,0.092850312590599,30.5970458984375,100.6670684814453,-10.31575012207031
90374,0.2317962646484375,0.42724609375,0.0119781494140625,0.4440411031246185,-0.5923991203308105,0.0966751426458358,30.86320495605469,100.2742767333984,-9.779220581054688
90375,0.2317962646484375,0.42724609375,0.0119781494140625,0.4440411031246185,-0.5923991203308105,0.0966751426458358,30.86320495605469,100.2742767333984,-9.779220581054688
90376,0.1599578857421875,0.2374267578125,-0.0134124755859375,0.7226431369781494,-0.3889533281326294,0.0828429535031318,30.8978271484375,100.4700775146484,-9.62451171875
90377,0.093231201171875,0.1142578125,-0.089141845703125,0.8864099979400635,-0.2189800143241882,0.0654000416398048,30.919921875,100.6329650878906,-9.6031494140625
90378,0.0200653076171875,-0.009552001953125,-0.1907501220703125,0.9729076027870178,0.1623798608779907,-0.0345486551523208,30.787109375,101.0082855224609,-9.755233764648438
90379,0.0200653076171875,-0.009552001953125,-0.1907501220703125,0.9729076027870178,0.1623798608779907,-0.0345486551523208,30.787109375,101.0082855224609,-9.755233764648438
90380,0.0108795166015625,-0.02093505859375,-0.303009033203125,0.9071925282478333,0.1741949617862701,-0.1161058321595192,30.71800231933594,101.2014465332031,-10.03474426269531
90381,0.0028076171875,0.0377044677734375,-0.4239654541015625,0.8048533201217651,-0.1437747478485107,-0.2276853621006012,30.77168273925781,101.4001312255859,-10.33187866210938
90382,-0.0738525390625,0.45025634765625,-0.387969970703125,0.518534243106842,-1.264760732650757,-0.4614642858505249,30.54132080078125,101.8850708007812,-11.00506591796875
90383,-0.0738525390625,0.45025634765625,-0.387969970703125,0.518534243106842,-1.264760732650757,-0.4614642858505249,30.54132080078125,101.8850708007812,-11.00506591796875
90384,-0.08856201171875,0.7200469970703125,-0.2982635498046875,0.3454039990901947,-1.608906626701355,-0.6876457929611206,30.3828125,102.0998382568359,-11.24082946777344
90385,-0.0866546630859375,1.146072387695312,-0.1355438232421875,0.0865561962127685,-1.655659794807434,-1.001653790473938,30.0777587890625,102.2449798583984,-11.40684509277344
90386,-0.16278076171875,2.086563110351562,0.22283935546875,-0.8985617160797119,-1.077423095703125,-1.332338690757751,29.32826232910156,102.5211334228516,-11.87815856933594
90387,-0.16278076171875,2.086563110351562,0.22283935546875,-0.8985617160797119,-1.077423095703125,-1.332338690757751,29.32826232910156,102.5211334228516,-11.87815856933594
90388,-0.1875762939453125,2.574783325195312,0.447662353515625,-1.553378224372864,-0.640628457069397,-1.248296618461609,29.09266662597656,102.2350769042969,-11.74459838867188
90389,-0.11566162109375,3.229141235351562,0.6572265625,-2.158628702163696,-0.1240417882800102,-1.123104810714722,28.94020080566406,101.7419891357422,-11.12469482421875
90390,-0.279296875,4.171478271484375,0.735137939453125,-1.702242255210876,-0.6640996932983398,-1.138588666915894,29.38665771484375,99.89810180664062,-7.662017822265625
90391,-0.279296875,4.171478271484375,0.735137939453125,-1.702242255210876,-0.6640996932983398,-1.138588666915894,29.38665771484375,99.89810180664062,-7.662017822265625
90392,-0.457611083984375,3.60247802734375,1.136642456054688,-0.9212532043457032,-0.6851351857185364,-1.274277329444885,29.7044677734375,98.70042419433594,-5.26165771484375
90393,-0.420013427734375,2.87298583984375,1.153732299804688,-0.3562611639499664,-0.0543524548411369,-1.264742374420166,30.13768005371094,97.42845153808594,-2.92095947265625
90394,-0.6461639404296875,2.517135620117188,0.1739959716796875,0.4042542576789856,-0.7312020063400269,-0.4557978808879852,30.18687438964844,95.50314331054688,-0.1366119384765625
90395,-0.6461639404296875,2.517135620117188,0.1739959716796875,0.4042542576789856,-0.7312020063400269,-0.4557978808879852,30.18687438964844,95.50314331054688,-0.1366119384765625
90396,-0.493377685546875,2.230743408203125,0.05340576171875,0.5940622687339783,-1.097903847694397,-0.1133949980139732,30.19627380371094,94.96725463867188,-0.0497894287109375
90397,-0.3114776611328125,1.88665771484375,-0.0982208251953125,0.7295899987220764,-0.8129139542579651,0.1943995654582977,30.25627136230469,94.5937042236328,-0.0224761962890625
90398,-0.1128387451171875,1.358840942382812,-0.4224090576171875,0.8466945290565491,0.0822402760386467,0.5475541949272156,30.5025634765625,94.57810974121094,-0.4461669921875
90399,-0.1128387451171875,1.358840942382812,-0.4224090576171875,0.8466945290565491,0.0822402760386467,0.5475541949272156,30.5025634765625,94.57810974121094,-0.4461669921875
90400,-0.0547637939453125,1.157562255859375,-0.492889404296875,0.7189049124717712,0.1223637312650681,0.6527029871940613,30.82054138183594,94.660400390625,-0.628173828125
90401,-0.0381622314453125,0.98565673828125,-0.4318389892578125,0.523105263710022,0.0644410401582717,0.73679119348526,31.1827392578125,94.712646484375,-0.806396484375
90402,-0.037689208984375,0.7347869873046875,-0.17962646484375,0.3409426808357239,0.1790736168622971,0.765621542930603,31.90008544921875,94.92991638183594,-1.193038940429688
90403,-0.037689208984375,0.7347869873046875,-0.17962646484375,0.3409426808357239,0.1790736168622971,0.765621542930603,31.90008544921875,94.92991638183594,-1.193038940429688
90404,-0.07452392578125,0.622528076171875,-0.09222412109375,0.3328179121017456,0.2588866949081421,0.7003123164176941,32.30722045898438,94.98483276367188,-1.242095947265625
90405,-0.0997467041015625,0.496002197265625,-0.045257568359375,0.3647630512714386,0.2582531273365021,0.6325771808624268,32.63494873046875,95.097900390625,-1.29559326171875
90406,-0.0838165283203125,0.2178497314453125,0.04296875,0.3564292192459106,0.2740176916122437,0.4940701723098755,33.22776794433594,95.24122619628906,-1.730941772460938
90407,-0.0838165283203125,0.2178497314453125,0.04296875,0.3564292192459106,0.2740176916122437,0.4940701723098755,33.22776794433594,95.24122619628906,-1.730941772460938
90408,-0.0631561279296875,0.0817718505859375,0.013702392578125,0.3107030093669891,0.2752819061279297,0.4633024036884308,33.49237060546875,95.506591796875,-2.091171264648438
90409,-0.06610107421875,-0.0404205322265625,-0.018218994140625,0.3147201240062714,0.2692186832427979,0.4566501080989838,33.74778747558594,95.6799774169922,-2.269668579101562
90410,-0.0692291259765625,-0.1265106201171875,-0.0370941162109375,0.3881778419017792,0.4464171826839447,0.4572125673294067,34.19082641601562,95.58538818359376,-2.409881591796875
90411,-0.0692291259765625,-0.1265106201171875,-0.0370941162109375,0.3881778419017792,0.4464171826839447,0.4572125673294067,34.19082641601562,95.58538818359376,-2.409881591796875
90412,-0.0643463134765625,-0.145294189453125,-0.064208984375,0.4095662236213684,0.6786046028137207,0.4718591570854187,34.40483093261719,95.5740203857422,-2.62884521484375
90413,-0.05926513671875,-0.166534423828125,-0.1365203857421875,0.4406668841838837,0.8837540149688721,0.5046192407608032,34.58502197265625,95.71693420410156,-2.864212036132812
90414,-0.057037353515625,-0.2606964111328125,-0.4753570556640625,0.595788300037384,0.7826979756355286,0.7002145648002625,34.88137817382812,95.7990264892578,-2.674118041992188
90415,-0.057037353515625,-0.2606964111328125,-0.4753570556640625,0.595788300037384,0.7826979756355286,0.7002145648002625,34.88137817382812,95.7990264892578,-2.674118041992188
90416,-0.0575408935546875,-0.2811126708984375,-0.623291015625,0.7174478769302368,0.1700513511896133,0.8496053814888,34.95527648925781,95.86872863769533,-2.588714599609375
90417,-0.0861663818359375,-0.2263946533203125,-0.3841094970703125,0.7474923133850098,-0.3006842136383057,0.9319774508476256,35.18263244628906,95.90733337402344,-2.691177368164062
90418,-0.10296630859375,-0.0389556884765625,0.1636962890625,0.4968031048774719,0.2910768389701843,0.6819971799850464,35.96250915527344,96.19148254394533,-2.86962890625
90419,-0.10296630859375,-0.0389556884765625,0.1636962890625,0.4968031048774719,0.2910768389701843,0.6819971799850464,35.96250915527344,96.19148254394533,-2.86962890625
90420,-0.1029205322265625,0.046875,0.2517242431640625,0.2449061572551727,0.8952807188034058,0.4105539619922638,36.35043334960938,96.44964599609376,-3.020416259765625
90421,-0.089141845703125,0.0915679931640625,0.2513427734375,-0.0061135524883866,1.528074383735657,0.257064014673233,36.63919067382812,96.53839111328124,-3.043807983398438
90422,-0.04522705078125,0.1168975830078125,0.1714019775390625,-0.3426750600337982,2.266756534576416,0.1218345612287521,36.8028564453125,96.71295166015624,-3.279891967773438
90423,-0.04522705078125,0.1168975830078125,0.1714019775390625,-0.3426750600337982,2.266756534576416,0.1218345612287521,36.8028564453125,96.71295166015624,-3.279891967773438
90424,-0.03594970703125,0.1405029296875,0.1841583251953125,-0.4513584077358246,2.429358959197998,0.0274135153740644,36.70803833007812,96.71238708496094,-3.514846801757812
90425,-0.0337677001953125,0.1836700439453125,0.2518157958984375,-0.5661749839782715,2.564771890640259,-0.0776034519076347,36.54563903808594,96.77749633789062,-3.779129028320312
90426,-0.09326171875,1.504638671875,0.5022125244140625,-0.6435747146606445,2.643357515335083,-0.29595947265625,35.75770568847656,96.83453369140624,-4.96417236328125
90427,-0.09326171875,1.504638671875,0.5022125244140625,-0.6435747146606445,2.643357515335083,-0.29595947265625,35.75770568847656,96.83453369140624,-4.96417236328125
90428,-0.2064361572265625,2.756607055664062,0.7457427978515625,-0.3334149718284607,1.764240026473999,0.2274629771709442,35.28285217285156,96.84576416015624,-5.765594482421875
90429,-0.46197509765625,3.500228881835938,1.042877197265625,0.0339017733931541,0.3182123303413391,0.8218134045600891,35.07902526855469,96.70175170898438,-6.511428833007812
90430,-0.57177734375,4.063873291015625,1.707077026367188,0.3242070972919464,-2.325158596038818,0.0075769596733152,35.59902954101562,96.20693969726562,-7.198760986328125
90431,-0.57177734375,4.063873291015625,1.707077026367188,0.3242070972919464,-2.325158596038818,0.0075769596733152,35.59902954101562,96.20693969726562,-7.198760986328125
90432,-0.462188720703125,3.035659790039062,1.91473388671875,-0.4696939885616302,-1.576560139656067,-0.4891262948513031,36.08294677734375,96.09928894042967,-6.795745849609375
90433,-0.376953125,2.183731079101562,1.556808471679688,-1.367853045463562,-0.2839158773422241,-0.4763598740100861,36.35238647460938,95.8986358642578,-6.350006103515625
90434,-0.202972412109375,1.195709228515625,0.630615234375,-1.826874971389771,1.008669018745422,-0.6122258305549622,36.32850646972656,95.4872589111328,-5.252227783203125
90435,-0.202972412109375,1.195709228515625,0.630615234375,-1.826874971389771,1.008669018745422,-0.6122258305549622,36.32850646972656,95.4872589111328,-5.252227783203125
90436,-0.153839111328125,1.040206909179688,0.3767242431640625,-1.762176871299744,1.032424211502075,-0.4765194058418274,35.93714904785156,95.1929168701172,-4.53656005859375
90437,-0.1212005615234375,0.99285888671875,0.154052734375,-1.599167823791504,0.8433035612106323,-0.2796756029129028,35.68580627441406,94.83837890625,-3.83404541015625
90438,-0.0376434326171875,0.9076385498046876,-0.2266845703125,-1.184379577636719,0.0227178297936916,-0.0600377693772316,35.27081298828125,94.14303588867188,-2.196914672851562
90439,-0.0376434326171875,0.9076385498046876,-0.2266845703125,-1.184379577636719,0.0227178297936916,-0.0600377693772316,35.27081298828125,94.14303588867188,-2.196914672851562
90440,0.027099609375,0.785614013671875,-0.6239013671875,-0.8782503604888916,-0.5530442595481873,-0.061011154204607,35.17520141601562,93.95050048828124,-1.581329345703125
90441,0.1812896728515625,0.567352294921875,-1.399749755859375,-0.3195026218891144,-2.757469892501831,0.0158695112913847,35.000732421875,93.98947143554688,-1.136444091796875
90442,0.0267181396484375,0.440032958984375,-0.0053863525390625,0.5024974942207336,-3.189491987228394,-0.0557745806872844,34.90830993652344,94.0302734375,0.337677001953125
90443,0.0267181396484375,0.440032958984375,-0.0053863525390625,0.5024974942207336,-3.189491987228394,-0.0557745806872844,34.90830993652344,94.0302734375,0.337677001953125
90444,0.020904541015625,0.345672607421875,0.1154937744140625,0.4876972436904907,-1.632825016975403,-0.0239671189337968,35.19075012207031,94.08181762695312,0.700836181640625
90445,0.1131591796875,0.2795562744140625,-0.1264495849609375,0.3746463060379028,-0.1329569816589355,0.2301607728004456,35.42478942871094,94.36575317382812,1.0567626953125
90446,0.144256591796875,0.401641845703125,-0.439208984375,0.2710815668106079,0.4111316204071045,0.3021119236946106,35.51914978027344,94.94831848144533,1.157760620117188
90447,0.144256591796875,0.401641845703125,-0.439208984375,0.2710815668106079,0.4111316204071045,0.3021119236946106,35.51914978027344,94.94831848144533,1.157760620117188
90448,0.1575775146484375,0.354827880859375,-0.2209014892578125,0.1350387781858444,0.3929859101772308,0.2347368746995926,35.49729919433594,95.17987060546876,1.171783447265625
90449,0.1484527587890625,0.3178253173828125,-0.1140899658203125,-0.0579373352229595,0.3242507874965668,0.2193555235862732,35.59248352050781,95.25155639648438,1.115524291992188
90450,0.1104278564453125,0.28857421875,-0.126617431640625,-0.4035565257072449,-0.282914787530899,0.2088219225406647,35.78178405761719,95.29429626464844,1.137100219726562
90451,0.1104278564453125,0.28857421875,-0.126617431640625,-0.4035565257072449,-0.282914787530899,0.2088219225406647,35.78178405761719,95.29429626464844,1.137100219726562
90452,0.0815582275390625,0.2953643798828125,-0.080413818359375,-0.4007330238819122,-0.5606278777122498,0.1223509460687637,35.86874389648438,95.20008850097656,1.498611450195312
90453,0.0564117431640625,0.2579193115234375,0.0211334228515625,-0.1700649410486221,-0.5078924894332886,0.0032370723783969,36.12213134765625,94.996337890625,1.79669189453125
90454,0.003631591796875,0.1846466064453125,-0.0549163818359375,0.4588757157325745,-0.26819708943367,-0.2638987600803375,36.37635803222656,94.80314636230467,2.435470581054688
90455,0.003631591796875,0.1846466064453125,-0.0549163818359375,0.4588757157325745,-0.26819708943367,-0.2638987600803375,36.37635803222656,94.80314636230467,2.435470581054688
90456,-0.01031494140625,0.16351318359375,-0.136505126953125,0.6679178476333618,-0.4082290232181549,-0.3948429226875305,36.52981567382812,94.87434387207033,2.545974731445312
90457,-0.0148468017578125,0.150604248046875,-0.183441162109375,0.8458729386329651,-0.6362712383270264,-0.483601301908493,36.51960754394531,94.87156677246094,2.478057861328125
90458,-0.0069732666015625,0.2004241943359375,-0.2155914306640625,1.18709123134613,-1.031270027160645,-0.4553011953830719,36.39695739746094,95.1132354736328,2.081710815429688
90459,-0.0069732666015625,0.2004241943359375,-0.2155914306640625,1.18709123134613,-1.031270027160645,-0.4553011953830719,36.39695739746094,95.1132354736328,2.081710815429688
90460,-0.0011138916015625,0.2982635498046875,-0.257598876953125,1.3018798828125,-1.173503041267395,-0.331514298915863,36.34393310546875,95.23509216308594,1.719512939453125
90461,-0.0106658935546875,0.4882965087890625,-0.30291748046875,1.353370785713196,-1.360104322433472,-0.2463676929473877,36.19944763183594,95.5402374267578,1.307144165039062
90462,-0.0729827880859375,1.026351928710938,-0.052520751953125,0.9873374104499816,-1.484263300895691,-0.3822490870952606,36.01060485839844,96.40226745605467,0.413330078125
90463,-0.0729827880859375,1.026351928710938,-0.052520751953125,0.9873374104499816,-1.484263300895691,-0.3822490870952606,36.01060485839844,96.40226745605467,0.413330078125
90464,-0.126190185546875,1.350723266601562,0.1856536865234375,0.4001830816268921,-1.143234014511108,-0.5553202033042908,35.86723327636719,96.88858032226562,0.00299072265625
90465,-0.1440277099609375,1.746932983398438,0.3997650146484375,-0.4434099197387695,-0.5780202150344849,-0.7550637125968933,35.8358154296875,97.25765991210938,-0.46624755859375
90466,-0.17999267578125,2.899368286132812,0.710784912109375,-2.533060312271118,0.8464122414588928,-1.411535501480103,35.39205932617188,97.75611877441406,-0.52490234375
90467,-0.17999267578125,2.899368286132812,0.710784912109375,-2.533060312271118,0.8464122414588928,-1.411535501480103,35.39205932617188,97.75611877441406,-0.52490234375
90468,-0.3700408935546875,3.458267211914062,0.7174224853515625,-3.255617618560791,0.5929895639419556,-1.821372628211975,35.04513549804688,97.6101531982422,-0.1557769775390625
90469,-0.7039947509765625,3.500808715820312,0.755462646484375,-2.863908052444458,-0.5926904678344727,-1.711212277412415,34.52601623535156,97.21026611328124,0.5283050537109375
90470,-0.53936767578125,2.79443359375,1.619827270507812,-0.8853253126144409,-2.165236234664917,-0.8828842043876648,33.61540222167969,95.36424255371094,2.8743896484375
90471,-0.53936767578125,2.79443359375,1.619827270507812,-0.8853253126144409,-2.165236234664917,-0.8828842043876648,33.61540222167969,95.36424255371094,2.8743896484375
90472,-0.3252716064453125,2.506149291992188,1.456253051757812,-0.2189722955226898,-1.475652456283569,-0.5553250312805176,33.38272094726562,94.44039916992188,4.099868774414062
90473,-0.1247406005859375,2.599899291992188,0.6939849853515625,0.3292865455150604,-1.080955982208252,-0.3655278980731964,33.41299438476562,93.81443786621094,5.154281616210938
90474,0.00823974609375,2.661697387695312,0.06884765625,1.020850300788879,-1.245914101600647,-0.3580633401870728,33.44473266601562,93.30361938476562,6.070541381835938
90475,-0.0087738037109375,2.47296142578125,-0.062713623046875,1.561434745788574,-0.8089058995246887,-0.3496410846710205,33.40419006347656,93.17446899414062,6.386749267578125
90476,-0.1612396240234375,2.050155639648438,-0.2447357177734375,1.785292863845825,0.2342883944511414,-0.1531200408935547,33.29530334472656,93.33830261230467,6.420394897460938
90477,-0.2631988525390625,1.599075317382812,-0.5421905517578125,1.687863230705261,1.153974533081055,0.237242117524147,33.19154357910156,93.6230010986328,6.023086547851562
90478,-0.0676727294921875,1.132415771484375,-0.854949951171875,0.9098841547966005,1.018848180770874,0.7664207220077515,33.04995727539062,94.05645751953124,4.486007690429688
90479,-0.0676727294921875,1.132415771484375,-0.854949951171875,0.9098841547966005,1.018848180770874,0.7664207220077515,33.04995727539062,94.05645751953124,4.486007690429688
90480,-0.017333984375,0.942596435546875,-0.725494384765625,0.3905017077922821,0.5043709874153137,0.8385345935821533,33.07130432128906,94.29508972167967,3.525314331054688
90481,-0.0003662109375,0.8260650634765625,-0.4952239990234375,0.0118257664144039,0.1886316984891891,0.8305331468582153,33.64523315429688,94.55487060546876,2.444290161132812
90482,-0.029754638671875,0.689727783203125,-0.1431732177734375,-0.0894846096634864,0.2944537401199341,0.6632418632507324,34.40106201171875,94.60873413085938,2.217605590820312
90483,-0.029754638671875,0.689727783203125,-0.1431732177734375,-0.0894846096634864,0.2944537401199341,0.6632418632507324,34.40106201171875,94.60873413085938,2.217605590820312
90484,-0.0529327392578125,0.5579376220703125,-0.0460968017578125,-0.0143768088892102,0.3517282009124756,0.5882052183151245,34.81922912597656,94.49148559570312,2.177902221679688
90485,-0.0933990478515625,0.415985107421875,0.0403900146484375,0.0343755520880222,0.3925472795963287,0.4965381324291229,35.08627319335938,94.59202575683594,2.075225830078125
90486,-0.1235198974609375,0.093841552734375,0.0343017578125,0.1462458968162537,0.6396521329879761,0.3594279289245605,35.59857177734375,94.46945190429688,1.833297729492188
90487,-0.1235198974609375,0.093841552734375,0.0343017578125,0.1462458968162537,0.6396521329879761,0.3594279289245605,35.59857177734375,94.46945190429688,1.833297729492188
90488,-0.12225341796875,-0.0407257080078125,-0.062835693359375,0.3508424460887909,0.6897944211959839,0.3965952694416046,35.78034973144531,94.44538879394533,1.7685546875
90489,-0.124664306640625,-0.125579833984375,-0.1190185546875,0.6177199482917786,0.8072291612625122,0.4646148085594177,35.91583251953125,94.37759399414062,1.656814575195312
90490,-0.1199188232421875,-0.1722259521484375,-0.1861419677734375,0.9792190194129944,1.348250031471252,0.5608230829238892,36.1397705078125,94.53219604492188,1.056060791015625
90491,-0.1199188232421875,-0.1722259521484375,-0.1861419677734375,0.9792190194129944,1.348250031471252,0.5608230829238892,36.1397705078125,94.53219604492188,1.056060791015625
90492,-0.101531982421875,-0.1707000732421875,-0.255645751953125,1.008036613464355,1.480715990066528,0.5784934163093567,36.03730773925781,94.81874084472656,0.4440460205078125
90493,-0.0748291015625,-0.17999267578125,-0.423736572265625,0.99343603849411,1.251911520957947,0.5913853049278259,36.10153198242188,95.09425354003906,-0.1932525634765625
90494,-0.028900146484375,-0.1995849609375,-0.609588623046875,0.8475409150123596,-0.5561172962188721,0.6958293914794922,36.11524963378906,95.41188049316406,-1.092880249023438
90495,-0.028900146484375,-0.1995849609375,-0.609588623046875,0.8475409150123596,-0.5561172962188721,0.6958293914794922,36.11524963378906,95.41188049316406,-1.092880249023438
90496,-0.03179931640625,-0.1189422607421875,-0.225738525390625,0.6342546939849854,-0.823911726474762,0.6725717186927795,36.30070495605469,95.63983154296876,-1.311325073242188
90497,-0.029693603515625,-0.0423126220703125,0.0868988037109375,0.3870984613895416,-0.4185498356819153,0.565241813659668,36.63096618652344,95.93576049804688,-1.48248291015625
90498,0.017974853515625,0.072296142578125,0.2927703857421875,0.0665971338748931,1.059969782829285,0.3197332620620728,37.26058959960938,96.16014099121094,-1.348434448242188
90499,0.017974853515625,0.072296142578125,0.2927703857421875,0.0665971338748931,1.059969782829285,0.3197332620620728,37.26058959960938,96.16014099121094,-1.348434448242188
90500,0.03125,0.0887298583984375,0.287017822265625,0.0031422637403011,1.716141223907471,0.2614289522171021,37.36900329589844,96.3073272705078,-1.347564697265625
90501,0.035491943359375,0.097625732421875,0.2714080810546875,-0.0548219680786132,2.237619638442993,0.2045025378465652,37.49003601074219,96.39556884765624,-1.487579345703125
90502,0.047088623046875,0.1968536376953125,0.3031005859375,-0.3311102688312531,2.747067928314209,0.099388375878334,37.21287536621094,96.11296081542967,-2.003936767578125
90503,0.047088623046875,0.1968536376953125,0.3031005859375,-0.3311102688312531,2.747067928314209,0.099388375878334,37.21287536621094,96.11296081542967,-2.003936767578125
90504,0.0383148193359375,0.76519775390625,0.4098663330078125,-0.4787586033344269,2.804106712341309,-0.0329193323850631,37.02508544921875,96.00961303710938,-2.294662475585938
90505,-0.0300140380859375,1.567855834960938,0.540496826171875,-0.5206817984580994,2.236373424530029,-0.0237913485616445,36.78196716308594,95.88583374023438,-2.731155395507812
90506,-0.2683563232421875,2.15283203125,0.8937835693359375,-0.3595368564128876,1.238824725151062,0.1937713325023651,36.66517639160156,95.66716003417967,-2.940155029296875
90507,-0.562713623046875,2.678359985351562,1.257339477539062,0.146467998623848,0.2350660413503647,0.1762895435094833,36.53463745117188,95.53843688964844,-3.408309936523438
90508,-0.7598876953125,2.962539672851562,1.570159912109375,0.5636455416679382,-0.4505357444286346,-0.024312263354659,36.62135314941406,95.441650390625,-3.890045166015625
90509,-0.7900848388671875,3.051986694335938,1.909347534179688,0.3332858085632324,-0.1797503232955933,-0.1420064121484756,36.68162536621094,95.447998046875,-4.1063232421875
90510,-0.8834075927734375,2.989578247070312,2.079299926757812,-0.3892604112625122,1.00805389881134,-0.2871553301811218,36.71697998046875,95.5178680419922,-4.364517211914062
90511,-0.9066009521484376,2.63531494140625,1.641616821289062,-1.045785784721375,2.337481021881104,-0.6276232004165649,36.62594604492188,95.6251220703125,-4.571365356445312
90512,-0.6058349609375,1.998428344726562,0.7383575439453125,-1.344103813171387,2.392331123352051,-0.6748460531234741,36.35630798339844,95.69700622558594,-4.692306518554688
90513,-0.3232879638671875,1.648025512695312,0.1900177001953125,-1.371138572692871,1.543134093284607,-0.6667061448097229,35.98744201660156,95.5561065673828,-4.454818725585938
90514,-0.054443359375,1.41668701171875,-0.0971832275390625,-1.325934410095215,-0.331855446100235,-0.4974752962589264,35.06513977050781,95.1738739013672,-3.80987548828125
90515,-0.054443359375,1.41668701171875,-0.0971832275390625,-1.325934410095215,-0.331855446100235,-0.4974752962589264,35.06513977050781,95.1738739013672,-3.80987548828125
90516,0.003082275390625,1.2967529296875,-0.1419830322265625,-1.255026340484619,-1.031441450119019,-0.4048231244087219,34.72856140136719,95.03092956542967,-3.420455932617188
90517,0.0483856201171875,1.116592407226562,-0.1859283447265625,-1.191824793815613,-1.61593770980835,-0.3344213962554932,34.59477233886719,94.8704833984375,-2.890426635742188
90518,0.1668853759765625,0.7027435302734375,-0.56207275390625,-1.257804870605469,-2.964253425598145,-0.2663352787494659,34.46147155761719,94.49259948730467,-1.239151000976562
90519,0.1668853759765625,0.7027435302734375,-0.56207275390625,-1.257804870605469,-2.964253425598145,-0.2663352787494659,34.46147155761719,94.49259948730467,-1.239151000976562
90520,0.26190185546875,0.4757080078125,-0.833740234375,-1.249741911888123,-4.360181331634521,-0.2663941383361816,34.56321716308594,94.07943725585938,-0.355682373046875
90521,0.2720947265625,0.3184356689453125,-0.5410003662109375,-1.069118857383728,-5.087273597717285,-0.2111535221338272,34.92500305175781,93.72799682617188,0.6927032470703125
90522,0.18316650390625,0.30316162109375,-0.167755126953125,-0.7366825342178345,-4.622512817382812,-0.2109473943710327,35.16194152832031,93.59097290039062,1.973739624023438
90523,0.13897705078125,0.3081817626953125,0.010101318359375,-0.2720704078674316,-3.09291672706604,-0.3001627624034882,35.59327697753906,93.63714599609376,3.037872314453125
90524,0.1690826416015625,0.2100982666015625,-0.1507568359375,0.2350119799375534,-1.289306879043579,-0.2683353126049042,35.97952270507812,93.57614135742188,3.952957153320312
90525,0.08935546875,0.208892822265625,-0.4133148193359375,0.6388723850250244,-0.1948528438806534,-0.2466728985309601,36.243896484375,93.7404327392578,4.655975341796875
90526,-0.02362060546875,0.250823974609375,-0.334808349609375,0.92985600233078,0.5581929683685303,-0.4338640868663788,36.13174438476562,94.0569305419922,4.8199462890625
90527,-0.02362060546875,0.250823974609375,-0.334808349609375,0.92985600233078,0.5581929683685303,-0.4338640868663788,36.13174438476562,94.0569305419922,4.8199462890625
90528,0.0025634765625,0.197418212890625,-0.2733917236328125,0.8552443385124207,0.510469913482666,-0.3313180208206177,35.96394348144531,94.31930541992188,4.381912231445312
90529,0.0402069091796875,0.1412200927734375,-0.2022857666015625,0.6814978718757629,0.3156996369361877,-0.1670965850353241,35.70574951171875,94.43788146972656,4.02008056640625
90530,0.0640411376953125,0.0809173583984375,-0.074432373046875,0.289344996213913,-0.0768782719969749,0.1413475424051285,35.69061279296875,94.37649536132812,3.415695190429688
90531,0.0640411376953125,0.0809173583984375,-0.074432373046875,0.289344996213913,-0.0768782719969749,0.1413475424051285,35.69061279296875,94.37649536132812,3.415695190429688
90532,0.053436279296875,0.0715789794921875,-0.0531158447265625,0.2139128148555756,-0.1510545015335083,0.2080725133419037,35.72636413574219,94.4860382080078,3.236663818359375
90533,0.0398406982421875,0.0645599365234375,-0.058258056640625,0.216399148106575,-0.2035256922245026,0.2321637272834778,35.79185485839844,94.52444458007812,3.183761596679688
90534,0.0214385986328125,0.0745086669921875,-0.0611572265625,0.261997252702713,-0.2382383942604065,0.2010055482387543,36.0294189453125,94.66773986816406,2.99078369140625
90535,0.0214385986328125,0.0745086669921875,-0.0611572265625,0.261997252702713,-0.2382383942604065,0.2010055482387543,36.0294189453125,94.66773986816406,2.99078369140625
90536,-0.021697998046875,0.1789703369140625,-0.0537109375,0.3645880818367004,-0.2103383243083954,-0.1126224175095558,36.2310791015625,94.75930786132812,3.163070678710938
90537,-0.050567626953125,0.252716064453125,-0.046630859375,0.3704571425914764,-0.1484067738056183,-0.3266004920005798,36.33659362792969,94.7799835205078,3.195968627929688
90538,-0.1066436767578125,0.5479736328125,-0.054901123046875,0.2309466600418091,-0.0119384182617068,-0.9242665767669678,36.32890319824219,94.98641967773438,3.44482421875
90539,-0.1066436767578125,0.5479736328125,-0.054901123046875,0.2309466600418091,-0.0119384182617068,-0.9242665767669678,36.32890319824219,94.98641967773438,3.44482421875
90540,-0.1546478271484375,0.798797607421875,-0.0890655517578125,0.0994634702801704,-0.0764473676681518,-1.287033319473267,36.05955505371094,95.16847229003906,3.222518920898438
90541,-0.24737548828125,1.1158447265625,-0.046875,-0.1340645998716354,-0.2189158350229263,-1.621384382247925,35.74324035644531,95.2982177734375,2.960296630859375
90542,-0.505889892578125,1.957626342773438,0.3061676025390625,-1.319905996322632,-0.1497045457363129,-1.890189528465271,34.62783813476562,95.32453918457033,2.79180908203125
90543,-0.505889892578125,1.957626342773438,0.3061676025390625,-1.319905996322632,-0.1497045457363129,-1.890189528465271,34.62783813476562,95.32453918457033,2.79180908203125
90544,-0.8267974853515625,2.374588012695312,0.6494903564453125,-1.545799851417542,-0.084764152765274,-1.258275151252747,33.90682983398438,95.01332092285156,2.92510986328125
90545,-0.9550018310546876,3.0155029296875,0.8716888427734375,-1.342083811759949,-0.0724680721759796,-0.3207069039344788,33.20343017578125,94.74278259277344,3.2235107421875
90546,-0.9705810546875,3.665725708007812,1.088363647460938,-1.220010042190552,-0.4948848485946655,0.1251206398010254,32.76702880859375,94.47941589355467,3.646453857421875
90547,-0.9705810546875,3.665725708007812,1.088363647460938,-1.220010042190552,-0.4948848485946655,0.1251206398010254,32.76702880859375,94.47941589355467,3.646453857421875
90548,-0.49493408203125,3.320938110351562,1.60772705078125,-0.6695389151573181,-0.7403872609138489,-0.3180006146430969,32.38148498535156,93.9391632080078,4.630523681640625
90549,-0.2532806396484375,2.475875854492188,1.494720458984375,-0.3528797626495361,-0.1557714939117432,-0.2987938821315765,32.299560546875,93.84681701660156,5.207290649414062
90550,-0.11285400390625,2.076690673828125,1.100265502929688,-0.2170809209346771,0.3527961373329163,-0.1642563194036484,32.26284790039062,93.52320861816406,5.618759155273438
90551,-0.003509521484375,2.001571655273438,0.5606536865234375,-0.218494787812233,0.1990036517381668,-0.1466504335403442,32.20291137695312,93.24049377441406,5.911361694335938
90552,-0.052886962890625,2.177154541015625,0.0563201904296875,-0.2435029298067093,-0.6177790760993958,-0.238779291510582,32.16012573242188,92.8779296875,6.201690673828125
90553,-0.0405731201171875,2.255844116210938,-0.4123687744140625,0.1443023234605789,-1.343394875526428,-0.182143971323967,32.12434387207031,92.57241821289062,6.491470336914062
90554,0.03558349609375,2.131759643554688,-0.59197998046875,0.771990180015564,-1.546812653541565,0.0924143493175506,32.07450866699219,92.3910675048828,6.665634155273438
90555,-0.044281005859375,1.79168701171875,-0.4658203125,1.148797392845154,-0.642794668674469,0.4175149500370026,32.10319519042969,92.17990112304688,6.965011596679688
90556,-0.163421630859375,1.35723876953125,-0.500823974609375,1.146696209907532,0.4686122238636017,0.6421903967857361,32.33477783203125,92.22010803222656,6.932113647460938
90557,-0.1606903076171875,1.062088012695312,-0.531097412109375,0.9100285172462464,0.769748866558075,0.7050047516822815,32.7025146484375,92.25016784667967,6.709381103515625
90558,-0.15545654296875,0.693389892578125,-0.2101593017578125,0.5654221177101135,0.3625310659408569,0.6256252527236938,33.36163330078125,92.51374816894533,5.750350952148438
90559,-0.15545654296875,0.693389892578125,-0.2101593017578125,0.5654221177101135,0.3625310659408569,0.6256252527236938,33.36163330078125,92.51374816894533,5.750350952148438
90560,-0.157928466796875,0.554351806640625,-0.05059814453125,0.5765831470489502,0.3381093442440033,0.6013718843460083,33.67547607421875,92.6191864013672,5.36328125
90561,-0.1682281494140625,0.42596435546875,0.0506744384765625,0.5837973952293396,0.4102301299571991,0.5430318713188171,34.01414489746094,92.72122192382812,5.035629272460938
90562,-0.1766204833984375,0.2922210693359375,0.1245880126953125,0.4915976822376251,0.6110665798187256,0.421333909034729,34.32415771484375,92.7133331298828,4.736007690429688
90563,-0.171417236328125,0.11712646484375,0.0574188232421875,0.4205543994903564,0.7492561340332031,0.3993827998638153,34.63215637207031,92.86666870117188,4.387725830078125
90564,-0.164398193359375,-0.00653076171875,-0.0499267578125,0.4558290541172028,0.7734389901161194,0.4500049650669098,34.7540283203125,92.91409301757812,3.958419799804688
90565,-0.132049560546875,-0.097381591796875,-0.181121826171875,0.5830274820327759,0.6899358034133911,0.5359169840812683,34.9500732421875,92.86170959472656,3.74566650390625
90566,-0.1007232666015625,-0.1585235595703125,-0.2863616943359375,0.7447530031204224,0.5837275981903076,0.6142474412918091,34.996826171875,93.06919860839844,3.43951416015625
90567,-0.076568603515625,-0.201934814453125,-0.393524169921875,0.9193431735038756,0.4398250579833984,0.7091161608695984,35.1773681640625,93.15232849121094,3.075119018554688
90568,-0.06097412109375,-0.21209716796875,-0.4367523193359375,1.057645082473755,0.2537137567996979,0.8187598586082458,35.36061096191406,93.24143981933594,2.65789794921875
90569,-0.0521087646484375,-0.2069854736328125,-0.41632080078125,1.122894167900085,0.095935583114624,0.916099727153778,35.48402404785156,93.48210144042967,2.441940307617188
90570,-0.0201568603515625,-0.197174072265625,-0.421783447265625,1.111312389373779,-0.135239839553833,1.00586473941803,35.68954467773438,93.72389221191406,2.201766967773438
90571,0.024932861328125,-0.1772918701171875,-0.4455413818359375,1.087156414985657,-0.4742780923843384,1.088459491729736,36.07548522949219,94.0766143798828,1.97015380859375
90572,0.058074951171875,-0.12506103515625,-0.4181671142578125,1.110097408294678,-0.8216184973716736,1.122026205062866,36.48561096191406,94.50016784667967,1.522567749023438
90573,0.079345703125,-0.0470733642578125,-0.296112060546875,1.169943928718567,-0.9055330753326416,1.049239635467529,36.89350891113281,94.92166137695312,1.0447998046875
90574,0.1076202392578125,0.01904296875,-0.1255340576171875,1.140884876251221,-0.4109097719192505,0.8795278668403625,37.32647705078125,95.23934936523438,0.861236572265625
90575,0.1076202392578125,0.01904296875,-0.1255340576171875,1.140884876251221,-0.4109097719192505,0.8795278668403625,37.32647705078125,95.23934936523438,0.861236572265625
90576,0.15228271484375,0.173431396484375,0.0039520263671875,0.6605297327041626,0.9121214747428894,0.5812569856643677,38.23127746582031,95.9499053955078,0.1780242919921875
90577,0.090972900390625,0.219451904296875,0.203155517578125,0.3347899615764618,1.148774266242981,0.4667780995368958,38.45083618164062,96.29103088378906,-0.202178955078125
90578,0.066253662109375,0.2236480712890625,0.418304443359375,0.020884508267045,1.627105355262756,0.322063535451889,38.62347412109375,96.32632446289062,-0.572662353515625
90579,0.066253662109375,0.2236480712890625,0.418304443359375,0.020884508267045,1.627105355262756,0.322063535451889,38.62347412109375,96.32632446289062,-0.572662353515625
90580,0.1544342041015625,1.23944091796875,0.69671630859375,-0.4308808147907257,3.577913284301758,-0.3751387298107147,38.559814453125,96.569580078125,-1.289443969726562
90581,0.2300872802734375,1.931869506835938,0.73834228515625,-0.6670651435852051,4.112627029418945,-0.4452461898326874,38.23377990722656,96.60415649414062,-1.5645751953125
90582,-0.0066375732421875,2.540359497070312,0.7516021728515625,-0.6885781288146973,3.514569520950317,-0.2480052709579468,37.83331298828125,96.64425659179688,-2.051589965820312
90583,-0.3447418212890625,2.957977294921875,0.7837371826171875,-0.3276998400688171,2.220845460891724,-0.2514167726039886,37.22381591796875,96.51675415039062,-2.675872802734375
90584,-0.548797607421875,3.161697387695312,0.961395263671875,0.3669154047966003,0.4820542633533478,-0.2185834795236588,36.89183044433594,96.17510986328124,-2.945510864257812
90585,-0.6567840576171875,3.13189697265625,1.31317138671875,0.8833582997322083,-0.6264165043830872,0.0238153170794248,36.7713623046875,95.90594482421876,-3.187210083007812
90586,-0.7536773681640625,2.317169189453125,1.566513061523438,0.0252877790480852,0.2064069658517838,-0.2380644977092743,36.89030456542969,95.84690856933594,-3.799392700195312
90587,-0.7536773681640625,2.317169189453125,1.566513061523438,0.0252877790480852,0.2064069658517838,-0.2380644977092743,36.89030456542969,95.84690856933594,-3.799392700195312
90588,-0.6120147705078125,1.7125244140625,1.105072021484375,-0.7446962594985962,0.9146999716758728,-0.6583038568496704,36.90730285644531,96.01106262207033,-4.030914306640625
90589,-0.4609832763671875,1.290390014648438,0.6509552001953125,-1.196840524673462,1.054298281669617,-0.7056772112846375,36.85594177246094,96.0454559326172,-4.037750244140625
90590,-0.259857177734375,1.09161376953125,0.16058349609375,-1.279976487159729,0.6316088438034058,-0.2473096549510956,36.38658142089844,95.61929321289062,-3.797409057617188
90591,-0.259857177734375,1.09161376953125,0.16058349609375,-1.279976487159729,0.6316088438034058,-0.2473096549510956,36.38658142089844,95.61929321289062,-3.797409057617188
90592,-0.14404296875,1.064483642578125,-0.0031890869140625,-1.166780948638916,0.1884277015924454,-0.1149662658572197,36.02438354492188,95.52236938476562,-3.250991821289062
90593,-0.05352783203125,0.951812744140625,-0.08544921875,-1.062777519226074,-0.2649222016334534,-0.061413824558258,35.7384033203125,95.48684692382812,-2.936508178710938
90594,-0.0011749267578125,0.78936767578125,-0.1178741455078125,-0.9887859225273132,-0.6042312979698181,-0.0356690473854541,35.57536315917969,95.37596130371094,-2.581863403320312
90595,0.0680694580078125,0.61456298828125,-0.3763580322265625,-0.9432642459869384,-1.083162426948547,-0.0368650741875171,35.46058654785156,95.28260803222656,-2.083251953125
90596,0.1741180419921875,0.42828369140625,-0.789154052734375,-0.8500434756278992,-2.347966432571411,-0.018330005928874,35.4129638671875,95.1926727294922,-1.551345825195312
90597,0.2167205810546875,0.3190765380859375,-0.741363525390625,-0.5247942805290222,-3.565855979919434,0.0583000592887401,35.34757995605469,94.90690612792967,-0.8394317626953125
90598,0.2079315185546875,0.3299560546875,-0.476165771484375,-0.0647041648626327,-4.052946090698242,0.1061400175094604,35.51908874511719,94.91769409179688,-0.213897705078125
90599,0.2396087646484375,0.4183502197265625,-0.2120819091796875,0.4343101680278778,-3.600849628448486,0.1765723675489426,35.81904602050781,94.80552673339844,0.54913330078125
90600,0.2648468017578125,0.52459716796875,-0.0479888916015625,0.8911331295967102,-2.070593595504761,0.287248283624649,36.26765441894531,94.78746032714844,1.1690673828125
90601,0.276397705078125,0.5410919189453125,-0.04229736328125,1.011579632759094,0.3255186975002289,0.2615906000137329,36.60699462890625,94.98521423339844,1.64501953125
90602,0.29742431640625,0.4987945556640625,-0.392974853515625,0.8977827429771423,1.831147789955139,0.1470182090997696,36.74624633789062,95.49578857421876,1.870132446289062
90603,0.263031005859375,0.433837890625,-0.4002227783203125,0.7947690486907959,1.794170022010803,0.0918324515223503,36.79158020019531,95.87692260742188,1.950149536132812
90604,0.199859619140625,0.387542724609375,-0.1831207275390625,0.524881899356842,1.272067189216614,0.0891610383987426,36.71360778808594,96.049072265625,1.569412231445312
90605,0.1383514404296875,0.3903961181640625,-0.0576629638671875,0.1043509095907211,0.716545045375824,0.036653883755207,36.52870178222656,96.04411315917967,1.037002563476562
90606,0.05706787109375,0.430999755859375,0.030303955078125,-0.461120218038559,-0.1546319127082825,-0.2236732989549637,36.4661865234375,95.93472290039062,0.585418701171875
90607,0.05706787109375,0.430999755859375,0.030303955078125,-0.461120218038559,-0.1546319127082825,-0.2236732989549637,36.4661865234375,95.93472290039062,0.585418701171875
90608,0.0547027587890625,0.301788330078125,0.0069732666015625,-0.2648785412311554,-0.3473699390888214,-0.3020922243595123,36.515625,95.8409423828125,0.4045562744140625
90609,0.0506134033203125,0.15765380859375,-0.023681640625,0.159206435084343,-0.3951531946659088,-0.3037779927253723,36.44357299804688,95.69467163085938,0.363555908203125
90610,0.0399017333984375,0.054931640625,-0.0670623779296875,0.6286396980285645,-0.3560912609100342,-0.2714983522891998,36.39781188964844,95.67636108398438,0.6277008056640625
90611,0.0231781005859375,-0.010986328125,-0.11126708984375,0.9990739822387696,-0.3004703521728516,-0.2144664973020554,36.33078002929688,95.67086791992188,0.6703643798828125
90612,-0.005035400390625,-0.0502166748046875,-0.1237030029296875,1.24491810798645,-0.2136054933071136,-0.1605404019355774,36.27090454101562,95.73338317871094,0.605133056640625
90613,-0.0216064453125,-0.0821380615234375,-0.1824188232421875,1.404405236244202,-0.168750137090683,-0.1000086218118668,36.2578125,96.08328247070312,0.200103759765625
90614,-0.0018768310546875,-0.081634521484375,-0.3204498291015625,1.447522044181824,-0.3443496525287628,-0.0200506728142499,36.1533203125,96.4843292236328,-0.1520538330078125
90615,0.0224151611328125,0.0774993896484375,-0.461029052734375,1.356762290000916,-0.8038626313209534,-0.0066826702095568,36.09242248535156,96.73448181152344,-0.590301513671875
90616,0.0060272216796875,0.3633575439453125,-0.48541259765625,1.105854988098145,-1.420407652854919,-0.0912593379616737,35.98153686523438,97.05181884765624,-1.142898559570312
90617,-0.0755157470703125,0.7477874755859375,-0.2808380126953125,0.6130359768867493,-1.807260751724243,-0.390546977519989,35.99388122558594,97.3544921875,-1.718399047851562
90618,-0.16351318359375,1.243820190429688,0.0055999755859375,-0.0899445340037345,-1.783635139465332,-1.034708857536316,35.99276733398438,97.69017028808594,-2.025741577148438
90619,-0.2032012939453125,1.743972778320312,0.2502288818359375,-0.9044052362442015,-1.433138847351074,-1.821510076522827,35.90730285644531,97.93495178222656,-2.27972412109375
90620,-0.2544708251953125,2.217636108398438,0.44976806640625,-1.777992963790894,-1.011393427848816,-2.105237245559692,35.59111022949219,98.22750854492188,-2.365921020507812
90621,-0.3626556396484375,2.843597412109375,0.727691650390625,-2.699251413345337,-0.16998291015625,-2.068171501159668,35.0997314453125,98.04937744140624,-2.097991943359375
90622,-0.5732879638671875,3.984390258789062,0.2378082275390625,-2.39565634727478,-0.7688319683074951,-1.913499116897583,33.60214233398438,97.06011962890624,-0.56011962890625
90623,-0.5732879638671875,3.984390258789062,0.2378082275390625,-2.39565634727478,-0.7688319683074951,-1.913499116897583,33.60214233398438,97.06011962890624,-0.56011962890625
90624,-1.083175659179688,3.599990844726562,1.011886596679688,-1.180613398551941,-1.386160373687744,-0.6931347846984863,32.92123413085938,96.37319946289062,0.6301727294921875
90625,-0.8978271484375,2.957977294921875,1.2796630859375,-0.2654732167720795,-0.5809470415115356,-0.0784071907401084,32.41868591308594,95.4433135986328,2.080368041992188
90626,-0.531982421875,2.531082153320312,0.713836669921875,0.1160973086953163,-0.2257843911647797,0.0282838363200426,32.18180847167969,94.67526245117188,3.200637817382812
90627,-0.297637939453125,2.335693359375,0.14019775390625,0.3337769210338593,-0.4939274191856384,0.0576859340071678,32.33038330078125,94.38400268554688,3.766876220703125
90628,-0.1950836181640625,2.287887573242188,-0.1170654296875,0.5178865790367126,-0.566064715385437,0.134749561548233,32.43663024902344,94.1137237548828,3.945022583007812
90629,-0.1554718017578125,2.211166381835938,-0.3069610595703125,0.572555661201477,-0.137268915772438,0.2610182762145996,32.5445556640625,94.15728759765624,3.917694091796875
90630,-0.1383056640625,1.982254028320312,-0.5520782470703125,0.5034785866737366,0.3582846522331238,0.440866082906723,32.44677734375,94.14167785644533,3.900970458984375
90631,-0.11669921875,1.672622680664062,-0.7232513427734375,0.3807073831558228,0.5077122449874878,0.60857754945755,32.486572265625,94.1925811767578,3.596588134765625
90632,-0.103240966796875,1.404861450195312,-0.690216064453125,0.2019432485103607,0.4089033603668213,0.672527015209198,32.61491394042969,94.22247314453124,3.343246459960938
90633,-0.10211181640625,1.186431884765625,-0.551727294921875,0.0388326160609722,0.3228787183761597,0.6705349683761597,32.78440856933594,94.34666442871094,3.006668090820312
90634,-0.165283203125,0.9271240234375,-0.278839111328125,0.0630745738744735,0.5395910739898682,0.6611936688423157,33.68626403808594,94.4473876953125,2.697769165039062
90635,-0.165283203125,0.9271240234375,-0.278839111328125,0.0630745738744735,0.5395910739898682,0.6611936688423157,33.68626403808594,94.4473876953125,2.697769165039062
90636,-0.2143707275390625,0.868743896484375,-0.157196044921875,0.2494897246360779,0.6387280225753784,0.7737420201301575,34.06498718261719,94.33900451660156,2.429092407226562
90637,-0.19134521484375,0.79400634765625,-0.0577392578125,0.449839323759079,0.7284184694290161,0.8185052275657654,34.34564208984375,94.37686157226562,2.259262084960938
90638,-0.1438140869140625,0.6545867919921875,-0.0080413818359375,0.5778923630714417,0.715199887752533,0.7768169045448303,34.67597961425781,94.56822204589844,1.671600341796875
90639,-0.115325927734375,0.4902801513671875,0.0382537841796875,0.5751378536224365,0.6497045159339905,0.6868612170219421,35.08480834960938,94.57102966308594,1.286361694335938
90640,-0.0885467529296875,0.313720703125,0.068267822265625,0.4436083436012268,0.6543887257575989,0.5955339670181274,35.28364562988281,94.54458618164062,1.103561401367188
90641,-0.0593414306640625,0.154571533203125,0.016326904296875,0.3074789941310883,0.6706004738807678,0.5381745100021362,35.56886291503906,94.66714477539062,0.756622314453125
90642,-0.0238800048828125,-0.1040496826171875,-0.1649322509765625,0.4316131770610809,0.5257450342178345,0.5671930909156799,35.87339782714844,94.87530517578124,0.0809326171875
90643,-0.0238800048828125,-0.1040496826171875,-0.1649322509765625,0.4316131770610809,0.5257450342178345,0.5671930909156799,35.87339782714844,94.87530517578124,0.0809326171875
90644,-0.0204315185546875,-0.154937744140625,-0.2649993896484375,0.6395072937011719,0.4700817465782166,0.6236409544944763,35.98165893554688,95.1165771484375,-0.1095733642578125
90645,-0.0025787353515625,-0.203826904296875,-0.4580841064453125,0.8549772500991821,0.2155250906944275,0.7254037857055664,36.04817199707031,95.33753967285156,-0.396270751953125
90646,0.0137481689453125,-0.2293701171875,-0.5742645263671875,1.002817511558533,-0.3560792803764343,0.865009069442749,36.18003845214844,95.61399841308594,-0.5236968994140625
90647,0.004547119140625,-0.2056121826171875,-0.4386138916015625,1.040926337242126,-0.7335024476051331,0.964439570903778,36.46150207519531,95.9407958984375,-0.7023468017578125
90648,0.01226806640625,-0.2061004638671875,-0.252960205078125,0.9482927918434144,-0.4704183638095856,0.9692894220352172,36.89471435546875,96.11447143554688,-0.752899169921875
90649,0.0461883544921875,-0.2154541015625,-0.1922149658203125,0.7720913887023926,0.2256240695714951,0.8751810193061829,37.34645080566406,96.43577575683594,-0.8233642578125
90650,0.0728302001953125,-0.1955413818359375,-0.1968994140625,0.6054843068122864,0.6536875367164612,0.7546277046203613,37.869384765625,96.67658996582033,-0.9810333251953124
90651,0.090789794921875,-0.1268157958984375,-0.07696533203125,0.4840505719184875,0.8642359972000122,0.6104937195777893,38.29295349121094,96.82443237304688,-0.9974365234375
90652,0.1013946533203125,-0.0133819580078125,0.0827484130859375,0.3887136578559875,1.17280638217926,0.3925773799419403,38.66539001464844,96.82389831542967,-1.042617797851562
90653,0.0825347900390625,0.0576171875,0.1746978759765625,0.3011148273944855,1.559067964553833,0.1918730288743973,38.89360046386719,96.79959106445312,-1.1553955078125
90654,0.044189453125,0.0593414306640625,0.2137298583984375,0.0538086369633674,2.314907789230347,0.0082014705985784,39.07954406738281,96.6625518798828,-1.680145263671875
90655,0.044189453125,0.0593414306640625,0.2137298583984375,0.0538086369633674,2.314907789230347,0.0082014705985784,39.07954406738281,96.6625518798828,-1.680145263671875
90656,0.0435333251953125,0.093231201171875,0.2432861328125,-0.0953664630651474,2.493927001953125,-0.0198160484433174,39.00640869140625,96.60260009765624,-2.040481567382812
90657,0.0402679443359375,0.1704864501953125,0.3302459716796875,-0.2945895493030548,2.556493043899536,-0.0509353540837764,38.72216796875,96.46286010742188,-2.330307006835938
90658,0.01654052734375,0.296875,0.4206390380859375,-0.4593310952186584,2.273872137069702,-0.0634892284870147,38.33157348632812,96.5088348388672,-2.8863525390625
90659,-0.061981201171875,1.078231811523438,0.67974853515625,-0.4767401814460754,1.790968060493469,-0.1820923089981079,38.05618286132812,96.44935607910156,-3.363128662109375
90660,-0.168975830078125,2.307907104492188,1.0498046875,-0.2340633571147919,1.282660126686096,-0.1143326982855797,37.78614807128906,96.61392211914062,-3.92633056640625
90661,-0.4436798095703125,3.022369384765625,1.601699829101562,-0.0167960245162248,0.5488618016242981,0.581007182598114,37.63175964355469,96.55543518066406,-4.42303466796875
90662,-0.9708099365234376,3.925582885742188,2.067977905273438,0.0676810443401336,0.5689896941184998,0.1046726182103157,37.9405517578125,96.67210388183594,-5.19427490234375
90663,-0.9708099365234376,3.925582885742188,2.067977905273438,0.0676810443401336,0.5689896941184998,0.1046726182103157,37.9405517578125,96.67210388183594,-5.19427490234375
90664,-1.0242919921875,3.263671875,1.952850341796875,-0.5399508476257324,1.440071821212769,-0.4418266713619232,38.10450744628906,96.72052001953124,-5.22589111328125
90665,-0.747406005859375,2.23687744140625,1.234024047851562,-1.299808979034424,1.951688528060913,-0.9081048965454102,38.15419006347656,96.720703125,-5.240158081054688
90666,-0.4929351806640625,1.55230712890625,0.5315704345703125,-1.685117244720459,1.681152701377869,-1.04098916053772,38.08184814453125,96.4097900390625,-4.893081665039062
90667,-0.35198974609375,1.244979858398438,0.2237548828125,-1.844344019889832,1.187153100967407,-0.9331005215644836,37.58717346191406,96.11065673828124,-4.4495849609375
90668,-0.2599945068359375,1.197418212890625,0.0622100830078125,-1.914642095565796,0.6970986723899841,-0.6738753318786621,37.0380859375,95.86575317382812,-4.07550048828125
90669,-0.1916046142578125,1.243392944335938,-0.0732574462890625,-1.877246022224426,0.1900018900632858,-0.4138885140419006,36.52503967285156,95.54367065429688,-3.372039794921875
90670,-0.1314849853515625,1.24029541015625,-0.156646728515625,-1.730705857276917,-0.2845494449138641,-0.2937266826629639,36.24443054199219,95.31114196777344,-2.630035400390625
90671,-0.0500946044921875,1.131362915039062,-0.380615234375,-1.587167620658875,-0.7816782593727112,-0.2700474560260773,35.992431640625,94.96231079101562,-1.589706420898438
90672,0.0970611572265625,0.9075927734375,-1.051727294921875,-1.514668345451355,-2.422244548797607,-0.326406329870224,35.90463256835938,94.8354034423828,-0.911376953125
90673,0.1269989013671875,0.6622772216796875,-0.7847137451171875,-1.368465065956116,-3.892380952835083,-0.420618861913681,35.86520385742188,94.58433532714844,-0.3050384521484375
90674,0.0446929931640625,0.347381591796875,-0.00604248046875,-1.051087379455566,-2.797632932662964,-0.46440789103508,35.95240783691406,94.31947326660156,1.7879638671875
90675,0.0446929931640625,0.347381591796875,-0.00604248046875,-1.051087379455566,-2.797632932662964,-0.46440789103508,35.95240783691406,94.31947326660156,1.7879638671875
90676,0.06878662109375,0.223388671875,-0.1014404296875,-0.9028888344764708,-1.456079363822937,-0.3397296071052551,36.07083129882812,94.2821807861328,2.774932861328125
90677,0.152069091796875,0.1782684326171875,-0.378875732421875,-0.5931597352027893,-0.5704908967018127,-0.1404777467250824,35.97113037109375,94.27262878417967,3.637435913085938
90678,0.221710205078125,0.277252197265625,-0.4151458740234375,-0.1457923501729965,-0.1442178934812546,0.1025428846478462,35.96682739257812,94.10887145996094,4.317840576171875
90679,0.189727783203125,0.4403839111328125,-0.22021484375,0.2364351749420166,0.2622047066688538,0.2175475060939789,36.00648498535156,94.06901550292967,4.617950439453125
90680,0.168121337890625,0.499542236328125,-0.1057586669921875,0.4345208406448364,0.637485146522522,0.1987690180540085,35.90745544433594,94.06069946289062,4.862960815429688
90681,0.172393798828125,0.454498291015625,-0.10986328125,0.4632390141487122,0.7555944323539734,0.1356228142976761,35.90170288085938,94.076904296875,4.919097900390625
90682,0.1810302734375,0.37322998046875,-0.150299072265625,0.4165317118167877,0.5597525238990784,0.0857870727777481,35.81735229492188,94.2351531982422,4.838180541992188
90683,0.1960906982421875,0.3038330078125,-0.1858062744140625,0.3381828367710114,0.1269504874944687,0.0722640752792358,35.81083679199219,94.2563018798828,4.489898681640625
90684,0.2178497314453125,0.2616119384765625,-0.1906280517578125,0.2504119873046875,-0.4447961151599884,0.106750413775444,35.79255676269531,94.2034149169922,4.356597900390625
90685,0.2232818603515625,0.2649383544921875,-0.15386962890625,0.1934743970632553,-0.9555200934410096,0.1514648944139481,35.76768493652344,94.114013671875,4.532394409179688
90686,0.1952667236328125,0.274444580078125,-0.11981201171875,0.2632196545600891,-1.165184378623962,0.1495721787214279,36.01509094238281,94.10787963867188,4.497406005859375
90687,0.1219024658203125,0.2077789306640625,-0.16082763671875,0.4645258784294128,-1.149798274040222,0.0993915647268295,36.14866638183594,94.211181640625,4.55853271484375
90688,0.0511016845703125,0.1555633544921875,-0.1843414306640625,0.6926690340042114,-1.037522315979004,0.0039159120060503,36.40504455566406,94.28521728515624,4.728591918945312
90689,-0.001190185546875,0.1490020751953125,-0.161712646484375,0.8610063791275024,-0.7816939949989319,-0.1269877701997757,36.60050964355469,94.38987731933594,4.880935668945312
90690,-0.044403076171875,0.1786651611328125,-0.1473541259765625,0.9152562618255616,-0.4658435881137848,-0.2915016114711761,36.80953979492188,94.55876159667967,4.62347412109375
90691,-0.0794525146484375,0.2542572021484375,-0.15203857421875,0.859698474407196,-0.2518785893917084,-0.456333726644516,36.81106567382812,94.87423706054688,4.374038696289062
90692,-0.0955657958984375,0.3780059814453125,-0.16162109375,0.748374342918396,-0.219908133149147,-0.6968318223953247,36.76792907714844,95.08595275878906,3.904129028320312
90693,-0.0945281982421875,0.5596466064453125,-0.1642303466796875,0.617538571357727,-0.3758750855922699,-1.007810711860657,36.532470703125,95.32872009277344,3.474029541015625
