time_idx,accelerometerAccelerationX(G),accelerometerAccelerationY(G),accelerometerAccelerationZ(G),gyroRotationX(rad/s),gyroRotationY(rad/s),gyroRotationZ(rad/s),magnetometerX(µT),magnetometerY(µT),magnetometerZ(µT)
165000,-0.4745025634765625,1.171615600585938,-0.568267822265625,0.6812539100646973,0.7016385197639465,0.4971245527267456,23.03489685058594,87.31838989257812,-40.48178100585938
165001,-0.48614501953125,1.117843627929688,-0.5575103759765625,0.7279567122459412,0.7300273180007935,0.5064756870269775,23.30758666992188,87.57667541503906,-40.88468933105469
165002,-0.48614501953125,1.117843627929688,-0.5575103759765625,0.7279567122459412,0.7300273180007935,0.5064756870269775,23.30758666992188,87.57667541503906,-40.88468933105469
165003,-0.523406982421875,1.012863159179688,-0.5077667236328125,0.5620047450065613,0.3388353288173676,0.4390037357807159,23.93881225585938,87.54347229003906,-41.82484436035156
165004,-0.523406982421875,1.012863159179688,-0.5077667236328125,0.5620047450065613,0.3388353288173676,0.4390037357807159,23.93881225585938,87.54347229003906,-41.82484436035156
165005,-0.527587890625,0.942352294921875,-0.3368377685546875,0.5567295551300049,0.0101282680407166,0.3464141488075256,24.36262512207031,87.56913757324219,-42.59259033203125
165006,-0.527587890625,0.942352294921875,-0.3368377685546875,0.5567295551300049,0.0101282680407166,0.3464141488075256,24.36262512207031,87.56913757324219,-42.59259033203125
165007,-0.5200958251953125,0.8802947998046875,-0.1158905029296875,0.6227471828460693,0.0520307086408138,0.3344746530056,24.66520690917969,87.64054870605469,-43.33413696289062
165008,-0.52239990234375,0.8648529052734375,-0.0216522216796875,0.6338800191879272,0.0509430766105651,0.3520557880401611,24.720947265625,87.70533752441406,-43.53553771972656
165009,-0.529205322265625,0.8601837158203125,0.0514373779296875,0.6523991227149963,-0.0303123649209737,0.3860086798667908,24.94682312011719,87.70103454589844,-43.83601379394531
165010,-0.529205322265625,0.8601837158203125,0.0514373779296875,0.6523991227149963,-0.0303123649209737,0.3860086798667908,24.94682312011719,87.70103454589844,-43.83601379394531
165011,-0.5350799560546875,0.8858489990234375,0.1676177978515625,0.6970909237861633,-0.3567141890525818,0.5495083928108215,25.32135009765625,87.5706787109375,-44.47602844238281
165012,-0.523406982421875,0.8766632080078125,0.193267822265625,0.7280768156051636,-0.5696213841438293,0.6654688119888306,25.48135375976562,87.50909423828125,-44.74232482910156
165013,-0.4577789306640625,0.8450927734375,0.1763153076171875,0.7493578791618347,-0.7738754749298096,0.7082058787345886,25.807373046875,87.27845764160156,-44.83189392089844
165014,-0.4577789306640625,0.8450927734375,0.1763153076171875,0.7493578791618347,-0.7738754749298096,0.7082058787345886,25.807373046875,87.27845764160156,-44.83189392089844
165015,-0.321746826171875,0.7124786376953125,0.0910186767578125,0.6794893145561218,-1.001017212867737,0.6762064099311829,26.14195251464844,87.04576110839844,-45.10818481445312
165016,-0.267791748046875,0.649444580078125,0.0894622802734375,0.5828322768211365,-0.9097573757171632,0.7031490802764893,26.21246337890625,86.87158203125,-45.11866760253906
165017,-0.248199462890625,0.629608154296875,0.097412109375,0.4905438721179962,-0.5857020616531372,0.7312438488006592,26.245849609375,86.8668212890625,-45.20936584472656
165018,-0.2837677001953125,0.660888671875,0.0557708740234375,0.4566476941108704,-0.1776144653558731,0.7474510669708252,26.26577758789062,86.79443359375,-45.19898986816406
165019,-0.3755645751953125,0.704345703125,-0.0125579833984375,0.4476046860218048,0.0698752179741859,0.6889057159423828,26.3675537109375,86.86605834960938,-45.10874938964844
165020,-0.4076690673828125,0.6970977783203125,-0.025146484375,0.3395498394966125,0.0644924417138099,0.5915600061416626,26.54458618164062,86.91911315917969,-45.24751281738281
165021,-0.399078369140625,0.6707611083984375,0.0152435302734375,0.1289164423942566,-0.0108036454766988,0.4932363331317902,26.80508422851562,86.84443664550781,-45.36695861816406
165022,-0.404754638671875,0.64959716796875,0.0493011474609375,-0.0521936975419521,-0.0738907381892204,0.4056217968463898,27.19828796386719,86.80680847167969,-45.57267761230469
165023,-0.4682769775390625,0.6571807861328125,0.0481414794921875,-0.1308107376098633,-0.0978304222226142,0.3248507976531982,27.49790954589844,86.89414978027344,-45.53402709960938
165024,-0.5635528564453125,0.7079315185546875,0.0538482666015625,-0.1478885263204575,-0.0694688260555267,0.2334433794021606,27.74760437011719,86.9107666015625,-45.49034118652344
165025,-0.615325927734375,0.750396728515625,0.080169677734375,-0.1540079414844513,0.0359540060162544,0.141943022608757,27.84461975097656,87.06373596191406,-45.49513244628906
165026,-0.615325927734375,0.750396728515625,0.080169677734375,-0.1540079414844513,0.0359540060162544,0.141943022608757,27.84461975097656,87.06373596191406,-45.49513244628906
165027,-0.6139678955078125,0.8073577880859375,0.0856170654296875,-0.1538652032613754,0.1732956171035767,0.0083295684307813,28.06033325195312,87.22261047363281,-45.3558349609375
165028,-0.589141845703125,0.8260650634765625,0.1045989990234375,-0.176127627491951,0.1630959808826447,-0.0478341020643711,28.1427001953125,87.24659729003906,-45.1298828125
165029,-0.569366455078125,0.8307037353515625,0.115966796875,-0.1907425224781036,0.1647466123104095,-0.0986956804990768,28.23599243164062,87.29383850097656,-45.04510498046875
165030,-0.569366455078125,0.8307037353515625,0.115966796875,-0.1907425224781036,0.1647466123104095,-0.0986956804990768,28.23599243164062,87.29383850097656,-45.04510498046875
165031,-0.5598907470703125,0.75787353515625,0.10968017578125,-0.0906449481844902,0.1992827504873276,-0.2207925617694855,28.19749450683594,87.49319458007812,-45.17768859863281
165032,-0.5598907470703125,0.75787353515625,0.10968017578125,-0.0906449481844902,0.1992827504873276,-0.2207925617694855,28.19749450683594,87.49319458007812,-45.17768859863281
165033,-0.53680419921875,0.6355133056640625,0.071502685546875,-0.1135009974241257,0.1817144006490707,-0.3202033042907715,28.139892578125,87.45094299316406,-45.25514221191406
165034,-0.5287933349609375,0.5989837646484375,0.0688934326171875,-0.2221606373786926,0.1589907109737396,-0.3725975453853607,28.08755493164062,87.64781188964844,-45.30455017089844
165035,-0.5333404541015625,0.5850372314453125,0.0876922607421875,-0.3470402359962463,0.1574929505586624,-0.4265625178813934,28.05186462402344,87.46427917480469,-45.23281860351562
165036,-0.54791259765625,0.5819854736328125,0.106903076171875,-0.4683195352554321,0.1671157479286194,-0.487303614616394,27.99198913574219,87.41668701171875,-45.25350952148438
165037,-0.5668792724609375,0.587921142578125,0.111114501953125,-0.5799168944358826,0.1691669225692749,-0.5408738851547241,27.93328857421875,87.58074951171875,-45.19717407226562
165038,-0.5844268798828125,0.602294921875,0.1051025390625,-0.6749771237373352,0.1408229023218155,-0.5753557085990906,27.79426574707031,87.69252014160156,-45.09329223632812
165039,-0.6005096435546875,0.62152099609375,0.088165283203125,-0.7631604671478271,0.092261217534542,-0.6156296133995056,27.6629638671875,87.63179016113281,-44.90121459960938
165040,-0.6005096435546875,0.62152099609375,0.088165283203125,-0.7631604671478271,0.092261217534542,-0.6156296133995056,27.6629638671875,87.63179016113281,-44.90121459960938
165041,-0.620025634765625,0.6713409423828125,0.030548095703125,-0.8834317922592163,-0.1021343544125557,-0.5860573649406433,27.24598693847656,87.70121765136719,-44.38558959960938
165042,-0.6336517333984375,0.720489501953125,-0.0052490234375,-0.9059219360351562,-0.1934956908226013,-0.5403330326080322,27.02720642089844,87.83334350585938,-44.18942260742188
165043,-0.6224822998046875,0.7659912109375,-0.0691986083984375,-0.8895652890205383,-0.3054885566234589,-0.4930400550365448,26.78376770019531,87.98158264160156,-43.79850769042969
165044,-0.6224822998046875,0.7659912109375,-0.0691986083984375,-0.8895652890205383,-0.3054885566234589,-0.4930400550365448,26.78376770019531,87.98158264160156,-43.79850769042969
165045,-0.50836181640625,0.8524169921875,-0.1949615478515625,-0.7925780415534973,-0.5759594440460205,-0.4563480913639069,26.03684997558594,88.24899291992188,-43.00517272949219
165046,-0.451324462890625,0.9002532958984375,-0.2284088134765625,-0.7337799668312073,-0.7272951602935791,-0.4201844930648804,25.66419982910156,88.37907409667969,-42.55596923828125
165047,-0.4305419921875,0.971649169921875,-0.2465667724609375,-0.6545237898826599,-0.7931019067764282,-0.4187618494033813,25.25616455078125,88.44972229003906,-42.21226501464844
165048,-0.4480133056640625,1.047103881835938,-0.2835540771484375,-0.5670471787452698,-0.7640681266784668,-0.4786456823348999,24.85832214355469,88.54777526855469,-41.66810607910156
165049,-0.4909210205078125,1.111068725585938,-0.3524627685546875,-0.4660294950008392,-0.7005213499069214,-0.5323123931884766,24.33804321289062,88.67332458496094,-41.15740966796875
165050,-0.4909210205078125,1.111068725585938,-0.3524627685546875,-0.4660294950008392,-0.7005213499069214,-0.5323123931884766,24.33804321289062,88.67332458496094,-41.15740966796875
165051,-0.6216583251953125,1.24578857421875,-0.4398956298828125,-0.205659955739975,-0.6390153765678406,-0.4282631874084473,23.44697570800781,88.56570434570312,-40.15522766113281
165052,-0.62744140625,1.2236328125,-0.47467041015625,-0.0431357510387897,-0.6878974437713623,-0.3849732577800751,23.02304077148438,88.46186828613281,-39.82838439941406
165053,-0.55792236328125,1.1376953125,-0.5235748291015625,0.163460835814476,-0.7579215168952942,-0.2962015569210052,22.611572265625,88.39479064941406,-39.48370361328125
165054,-0.55792236328125,1.1376953125,-0.5235748291015625,0.163460835814476,-0.7579215168952942,-0.2962015569210052,22.611572265625,88.39479064941406,-39.48370361328125
165055,-0.388702392578125,0.9813079833984376,-0.59869384765625,0.7670641541481018,-0.6798445582389832,-0.0021236045286059,22.0748291015625,88.23472595214844,-39.05722045898438
165056,-0.3525543212890625,0.9620819091796876,-0.6470947265625,1.058854460716248,-0.5202261209487915,0.1485545933246613,21.98606872558594,87.91957092285156,-38.86219787597656
165057,-0.3453826904296875,0.9962921142578124,-0.6890716552734375,1.308933019638062,-0.1951612383127213,0.3041500449180603,21.81022644042969,87.48753356933594,-38.88746643066406
165058,-0.3453826904296875,0.9962921142578124,-0.6890716552734375,1.308933019638062,-0.1951612383127213,0.3041500449180603,21.81022644042969,87.48753356933594,-38.88746643066406
165059,-0.35357666015625,1.0450439453125,-0.65142822265625,1.239644169807434,-0.0639432966709137,0.3070648610591888,21.87808227539062,87.29078674316406,-38.97645568847656
165060,-0.35357666015625,1.0450439453125,-0.65142822265625,1.239644169807434,-0.0639432966709137,0.3070648610591888,21.87808227539062,87.29078674316406,-38.97645568847656
165061,-0.4272308349609375,1.132156372070312,-0.5568389892578125,1.046427845954895,0.0804479718208313,0.3313648700714111,22.07676696777344,86.8328857421875,-39.45115661621094
165062,-0.44140625,1.180023193359375,-0.500518798828125,1.022569417953491,0.1678297519683838,0.3773025572299957,22.10128784179688,86.62405395507812,-40.1650390625
165063,-0.43377685546875,1.207122802734375,-0.4473876953125,0.9792720079421996,0.2592006623744965,0.4227363467216492,22.27029418945312,86.54840087890625,-40.86123657226562
165064,-0.43377685546875,1.207122802734375,-0.4473876953125,0.9792720079421996,0.2592006623744965,0.4227363467216492,22.27029418945312,86.54840087890625,-40.86123657226562
165065,-0.4152374267578125,1.232742309570312,-0.371856689453125,0.871953010559082,0.2926872670650482,0.4378207623958588,22.45878601074219,86.41548156738281,-41.30259704589844
165066,-0.4215087890625,1.261138916015625,-0.2748260498046875,0.7105311155319214,0.2469099164009094,0.4251236021518707,22.54756164550781,86.42816162109375,-41.75849914550781
165067,-0.4860382080078125,1.343536376953125,-0.082000732421875,0.4817549288272858,-0.0820887461304664,0.3065644502639771,22.98013305664062,86.32319641113281,-42.68882751464844
165068,-0.4860382080078125,1.343536376953125,-0.082000732421875,0.4817549288272858,-0.0820887461304664,0.3065644502639771,22.98013305664062,86.32319641113281,-42.68882751464844
165069,-0.607879638671875,1.3427734375,0.108184814453125,0.6120258569717407,0.017396567389369,0.0314535312354564,23.34359741210938,86.08181762695312,-43.22842407226562
165070,-0.607879638671875,1.3427734375,0.108184814453125,0.6120258569717407,0.017396567389369,0.0314535312354564,23.34359741210938,86.08181762695312,-43.22842407226562
165071,-0.6930084228515625,1.268585205078125,0.1330718994140625,0.7801021933555603,0.2177360504865646,-0.1051559820771217,23.31101989746094,86.12045288085938,-43.57575988769531
165072,-0.82965087890625,0.953704833984375,-0.01544189453125,1.04613995552063,0.0077804252505302,-0.1038861870765686,23.45021057128906,86.04737854003906,-44.06101989746094
165073,-0.85552978515625,0.834228515625,-0.0147552490234375,1.055485248565674,-0.3095743656158447,-0.0327875092625618,23.48533630371094,85.93280029296875,-44.48393249511719
165074,-0.85552978515625,0.834228515625,-0.0147552490234375,1.055485248565674,-0.3095743656158447,-0.0327875092625618,23.48533630371094,85.93280029296875,-44.48393249511719
165075,-0.73980712890625,0.7004547119140625,0.0040435791015625,0.9597291946411132,-0.7839161157608032,0.164791613817215,23.57182312011719,85.40536499023438,-45.31619262695312
165076,-0.73980712890625,0.7004547119140625,0.0040435791015625,0.9597291946411132,-0.7839161157608032,0.164791613817215,23.57182312011719,85.40536499023438,-45.31619262695312
165077,-0.525054931640625,0.606231689453125,0.05743408203125,0.8979097604751587,-0.9735358357429504,0.0910992845892906,23.51936340332031,84.56591796875,-45.89019775390625
165078,-0.4385986328125,0.5244598388671875,0.0526580810546875,0.8534086346626282,-0.8539974689483643,0.0686323270201683,23.52618408203125,84.26325988769531,-45.84365844726562
165079,-0.3743133544921875,0.473052978515625,0.0512847900390625,0.8796570301055908,-0.7516516447067261,0.1299816966056824,23.398681640625,84.06703186035156,-45.74337768554688
165080,-0.4002838134765625,0.4644012451171875,0.0543365478515625,0.9300450682640076,-0.3961161673069,0.0797411650419235,23.36930847167969,83.86589050292969,-45.8031005859375
165081,-0.4076995849609375,0.4251556396484375,0.015899658203125,0.9316243529319764,-0.0995873138308525,-0.0152023890987038,23.424072265625,83.507080078125,-46.01980590820312
165082,-0.441925048828125,0.38360595703125,0.012359619140625,0.8207257986068726,0.1143936887383461,-0.0772037059068679,23.35885620117188,83.29019165039062,-46.23265075683594
165083,-0.4705963134765625,0.3558502197265625,0.029052734375,0.6520664691925049,0.1345444917678833,-0.0935017243027687,23.38421630859375,83.12940979003906,-46.51234436035156
165084,-0.4705963134765625,0.3558502197265625,0.029052734375,0.6520664691925049,0.1345444917678833,-0.0935017243027687,23.38421630859375,83.12940979003906,-46.51234436035156
165085,-0.45599365234375,0.3896636962890625,0.1892242431640625,0.1799780279397964,-0.0649624913930892,0.0005299690528772,23.36624145507812,82.701171875,-47.00831604003906
165086,-0.45599365234375,0.3896636962890625,0.1892242431640625,0.1799780279397964,-0.0649624913930892,0.0005299690528772,23.36624145507812,82.701171875,-47.00831604003906
165087,-0.5063323974609375,0.5191650390625,0.2404022216796875,-0.203699603676796,-0.2450225353240967,0.2083111256361008,23.50392150878906,82.60116577148438,-46.94413757324219
165088,-0.5588531494140625,0.6038818359375,0.2323760986328125,-0.3115957081317902,-0.3102883696556091,0.2605644762516022,23.50514221191406,82.61433410644531,-46.95829772949219
165089,-0.5858612060546875,0.64471435546875,0.2332305908203125,-0.3883432149887085,-0.2206937670707703,0.3011273443698883,23.40083312988281,82.69923400878906,-46.88688659667969
165090,-0.5858612060546875,0.64471435546875,0.2332305908203125,-0.3883432149887085,-0.2206937670707703,0.3011273443698883,23.40083312988281,82.69923400878906,-46.88688659667969
165091,-0.5876617431640625,0.6925811767578125,0.1947174072265625,-0.4134437739849091,-0.0295293964445591,0.3311020135879517,23.38526916503906,82.84112548828125,-46.69721984863281
165092,-0.5442352294921875,0.815399169921875,0.1106719970703125,-0.4366675913333893,0.2246339023113251,0.3102425634860992,23.51693725585938,83.05462646484375,-46.182861328125
165093,-0.511077880859375,0.8601226806640625,0.1142120361328125,-0.5124305486679077,0.2039784342050552,0.2707316279411316,23.63836669921875,83.23179626464844,-46.12574768066406
165094,-0.511077880859375,0.8601226806640625,0.1142120361328125,-0.5124305486679077,0.2039784342050552,0.2707316279411316,23.63836669921875,83.23179626464844,-46.12574768066406
165095,-0.4553070068359375,0.8934326171875,0.168975830078125,-0.7066658139228821,0.0290425699204206,0.1427433043718338,23.85359191894531,83.726806640625,-45.96003723144531
165096,-0.4489288330078125,0.91290283203125,0.184417724609375,-0.7831839919090271,-0.0531588271260261,0.0660615712404251,23.95596313476562,83.97712707519531,-45.77420043945312
165097,-0.45928955078125,0.9254302978515624,0.1793670654296875,-0.8361183404922485,-0.1568529903888702,-0.0129789151251316,24.04830932617188,84.16819763183594,-45.53775024414062
165098,-0.45928955078125,0.9254302978515624,0.1793670654296875,-0.8361183404922485,-0.1568529903888702,-0.0129789151251316,24.04830932617188,84.16819763183594,-45.53775024414062
165099,-0.534759521484375,0.925994873046875,0.1601715087890625,-0.9022275805473328,-0.3010770082473755,-0.1654075980186462,23.94642639160156,84.60606384277344,-44.8399658203125
165100,-0.597869873046875,0.927886962890625,0.1388397216796875,-0.8840096592903137,-0.292141854763031,-0.2900762856006622,23.77413940429688,84.9385986328125,-44.59178161621094
165101,-0.6183013916015625,0.856048583984375,0.092071533203125,-0.8490564823150635,-0.2734469771385193,-0.3555532991886139,23.62399291992188,85.14305114746094,-44.31295776367188
165102,-0.6183013916015625,0.856048583984375,0.092071533203125,-0.8490564823150635,-0.2734469771385193,-0.3555532991886139,23.62399291992188,85.14305114746094,-44.31295776367188
165103,-0.6202392578125,0.73040771484375,-0.0751495361328125,-0.7531678080558777,-0.1894210577011108,-0.3894129991531372,23.22872924804688,85.19908142089844,-43.54127502441406
165104,-0.6202392578125,0.73040771484375,-0.0751495361328125,-0.7531678080558777,-0.1894210577011108,-0.3894129991531372,23.22872924804688,85.19908142089844,-43.54127502441406
165105,-0.6023712158203125,0.702972412109375,-0.1910247802734375,-0.702111005783081,-0.2072091102600098,-0.3938975036144257,23.03366088867188,85.34158325195312,-43.20960998535156
165106,-0.583740234375,0.7205047607421875,-0.2824249267578125,-0.660274088382721,-0.2451927065849304,-0.3892569541931152,22.75572204589844,85.431884765625,-42.94113159179688
165107,-0.5396881103515625,0.8931884765625,-0.3732757568359375,-0.5355219841003418,-0.164157509803772,-0.4384665787220001,22.26446533203125,85.66728210449219,-42.26396179199219
165108,-0.5279388427734375,0.9986724853515624,-0.4220733642578125,-0.4613476395606995,-0.0879186689853668,-0.4628217220306396,21.96647644042969,85.6973876953125,-42.00288391113281
165109,-0.5321197509765625,1.053802490234375,-0.4596405029296875,-0.3873999118804932,-0.0525787882506847,-0.4710634052753448,21.71208190917969,85.600341796875,-41.56181335449219
165110,-0.5321197509765625,1.053802490234375,-0.4596405029296875,-0.3873999118804932,-0.0525787882506847,-0.4710634052753448,21.71208190917969,85.600341796875,-41.56181335449219
165111,-0.551849365234375,1.010360717773438,-0.4935150146484375,-0.264537900686264,-0.1346680670976639,-0.3880156576633453,21.17605590820312,85.46852111816406,-41.24514770507812
165112,-0.551849365234375,1.010360717773438,-0.4935150146484375,-0.264537900686264,-0.1346680670976639,-0.3880156576633453,21.17605590820312,85.46852111816406,-41.24514770507812
165113,-0.5485076904296875,0.9292755126953124,-0.5612945556640625,-0.0322468839585781,-0.2052546143531799,-0.178556427359581,20.76948547363281,85.46798706054688,-40.97891235351562
165114,-0.5485076904296875,0.9292755126953124,-0.5612945556640625,-0.0322468839585781,-0.2052546143531799,-0.178556427359581,20.76948547363281,85.46798706054688,-40.97891235351562
165115,-0.496429443359375,0.9233856201171876,-0.65753173828125,0.3208483159542084,-0.1094415411353111,0.0742744952440261,20.55300903320312,85.35977172851562,-40.76484680175781
165116,-0.4589385986328125,0.9698028564453124,-0.67724609375,0.4516561329364777,0.0203958190977573,0.19820336997509,20.56463623046875,85.24652099609375,-40.68020629882812
165117,-0.4589385986328125,0.9698028564453124,-0.67724609375,0.4516561329364777,0.0203958190977573,0.19820336997509,20.56463623046875,85.24652099609375,-40.68020629882812
165118,-0.4440765380859375,1.029373168945312,-0.684539794921875,0.5230690836906433,0.172165110707283,0.2772963345050812,20.50054931640625,85.24859619140625,-40.71543884277344
165119,-0.521514892578125,1.089340209960938,-0.62799072265625,0.547528088092804,0.4835024774074554,0.3205236792564392,20.59703063964844,85.31666564941406,-41.06216430664062
165120,-0.580780029296875,1.07098388671875,-0.5966339111328125,0.5637238025665283,0.6317194104194641,0.3408891558647156,20.80952453613281,85.37928771972656,-41.32852172851562
165121,-0.623077392578125,1.05535888671875,-0.5697479248046875,0.5876778960227966,0.7377134561538696,0.3484125733375549,21.02565002441406,85.24456787109375,-41.70277404785156
165122,-0.623077392578125,1.05535888671875,-0.5697479248046875,0.5876778960227966,0.7377134561538696,0.3484125733375549,21.02565002441406,85.24456787109375,-41.70277404785156
165123,-0.6543121337890625,1.005126953125,-0.5212860107421875,0.3671295344829559,0.5574800372123718,0.3076675534248352,21.59262084960938,85.25039672851562,-42.45944213867188
165124,-0.6543121337890625,1.005126953125,-0.5212860107421875,0.3671295344829559,0.5574800372123718,0.3076675534248352,21.59262084960938,85.25039672851562,-42.45944213867188
165125,-0.64068603515625,0.9626922607421876,-0.3653717041015625,0.1330989301204681,0.2199158519506454,0.2702669203281403,22.20700073242188,85.08668518066406,-42.88044738769531
165126,-0.64068603515625,0.9626922607421876,-0.3653717041015625,0.1330989301204681,0.2199158519506454,0.2702669203281403,22.20700073242188,85.08668518066406,-42.88044738769531
165127,-0.61480712890625,0.912384033203125,-0.0887451171875,0.0606668107211589,0.3180956840515137,0.3562361299991608,22.50263977050781,85.42097473144531,-43.63113403320312
165128,-0.5981597900390625,0.919158935546875,-0.020782470703125,0.0906295031309127,0.3758170306682587,0.4152139723300934,22.73245239257812,85.5458984375,-43.760009765625
165129,-0.594482421875,0.915618896484375,0.0350494384765625,0.1595004498958588,0.3246691524982452,0.4899675846099854,22.96682739257812,85.67764282226562,-43.88552856445312
165130,-0.594482421875,0.915618896484375,0.0350494384765625,0.1595004498958588,0.3246691524982452,0.4899675846099854,22.96682739257812,85.67764282226562,-43.88552856445312
165131,-0.5365447998046875,0.9094390869140624,0.0986480712890625,0.2810569703578949,0.0216459073126316,0.6427451372146606,23.66482543945312,85.70513916015625,-44.2005615234375
165132,-0.5365447998046875,0.9094390869140624,0.0986480712890625,0.2810569703578949,0.0216459073126316,0.6427451372146606,23.66482543945312,85.70513916015625,-44.2005615234375
165133,-0.3971099853515625,0.8232269287109375,0.1128082275390625,0.3600063920021057,-0.5411570072174072,0.6614186763763428,24.29806518554688,85.75740051269531,-44.33741760253906
165134,-0.339691162109375,0.7916412353515625,0.2122344970703125,0.3402699530124664,-0.5608230829238892,0.6417091488838196,24.49385070800781,85.75341796875,-44.46684265136719
165135,-0.2835235595703125,0.7672576904296875,0.2690887451171875,0.3040299415588379,-0.4029642343521118,0.6140205264091492,24.61419677734375,85.82057189941406,-44.47622680664062
165136,-0.2835235595703125,0.7672576904296875,0.2690887451171875,0.3040299415588379,-0.4029642343521118,0.6140205264091492,24.61419677734375,85.82057189941406,-44.47622680664062
165137,-0.196319580078125,0.7006072998046875,0.2252044677734375,0.2290483564138412,-0.0318170525133609,0.5787773132324219,24.97360229492188,85.81181335449219,-44.38726806640625
165138,-0.182464599609375,0.6909027099609375,0.1766357421875,0.1926520019769669,0.0885687470436096,0.6093341708183289,25.12290954589844,85.84092712402344,-44.31639099121094
165139,-0.2005767822265625,0.7248077392578125,0.126922607421875,0.1433712691068649,0.1550444364547729,0.6210148334503174,25.39884948730469,85.85398864746094,-44.311767578125
165140,-0.2005767822265625,0.7248077392578125,0.126922607421875,0.1433712691068649,0.1550444364547729,0.6210148334503174,25.39884948730469,85.85398864746094,-44.311767578125
165141,-0.333343505859375,0.8209075927734375,0.0329742431640625,0.0460758805274963,0.2067973911762238,0.483495831489563,25.7625732421875,86.11264038085938,-44.74528503417969
165142,-0.37860107421875,0.8377685546875,-0.022125244140625,0.0394704453647136,0.1585020273923874,0.3697133362293243,26.05194091796875,86.1231689453125,-44.87277221679688
165143,-0.4115753173828125,0.841552734375,-0.025909423828125,0.0191939342767,0.1601273566484451,0.2420496493577957,26.2593994140625,86.19924926757812,-44.8643798828125
165144,-0.4589080810546875,0.8322906494140625,-0.005462646484375,-0.0160769708454608,0.2203400880098343,0.1076180711388588,26.42062377929688,86.13551330566406,-44.88816833496094
165145,-0.50823974609375,0.808013916015625,0.007415771484375,-0.0383327417075634,0.2335325926542282,-0.0154937384650111,26.52658081054688,86.26420593261719,-45.01657104492188
165146,-0.5371246337890625,0.776275634765625,0.017913818359375,-0.0679572150111198,0.1639905273914337,-0.1188257187604904,26.59199523925781,86.36968994140625,-45.08955383300781
165147,-0.5582275390625,0.749267578125,0.0213470458984375,-0.1146253794431686,0.0645182728767395,-0.200077161192894,26.69984436035156,86.38893127441406,-45.04435729980469
165148,-0.5624847412109375,0.7363128662109375,0.02178955078125,-0.1940858513116837,-0.0376557670533657,-0.2573774755001068,26.70030212402344,86.51060485839844,-45.21269226074219
165149,-0.5466156005859375,0.7304840087890625,0.03173828125,-0.2837744653224945,-0.0900180414319038,-0.2939469218254089,26.62222290039062,86.53955078125,-45.20880126953125
165150,-0.5466156005859375,0.7304840087890625,0.03173828125,-0.2837744653224945,-0.0900180414319038,-0.2939469218254089,26.62222290039062,86.53955078125,-45.20880126953125
165151,-0.524017333984375,0.7050933837890625,0.0447845458984375,-0.4004182517528534,-0.0255125500261783,-0.2887891829013824,26.40072631835938,86.60922241210938,-44.87715148925781
165152,-0.524017333984375,0.7050933837890625,0.0447845458984375,-0.4004182517528534,-0.0255125500261783,-0.2887891829013824,26.40072631835938,86.60922241210938,-44.87715148925781
165153,-0.55291748046875,0.67730712890625,0.03070068359375,-0.4501256048679352,0.0121080614626407,-0.3223399519920349,26.22331237792969,86.55033874511719,-44.56675720214844
165154,-0.5608673095703125,0.6545562744140625,0.02496337890625,-0.4791173338890076,0.0578366667032241,-0.3605115711688995,26.15399169921875,86.63739013671875,-44.48765563964844
165155,-0.5562896728515625,0.636505126953125,0.021820068359375,-0.5271005630493164,0.1205418631434441,-0.4096157550811768,25.98211669921875,86.66905212402344,-44.24452209472656
165156,-0.5562896728515625,0.636505126953125,0.021820068359375,-0.5271005630493164,0.1205418631434441,-0.4096157550811768,25.98211669921875,86.66905212402344,-44.24452209472656
165157,-0.5485382080078125,0.6207427978515625,0.0256500244140625,-0.5842509269714355,0.1970321089029312,-0.4508630633354187,25.8748779296875,86.75279235839844,-44.14091491699219
165158,-0.5354156494140625,0.6049652099609375,0.0281219482421875,-0.6479998230934143,0.2714690566062927,-0.4860649704933167,25.73384094238281,86.77485656738281,-43.93609619140625
165159,-0.52105712890625,0.6201019287109375,0.00970458984375,-0.7889643907546997,0.3147395551204681,-0.5325174331665039,25.49128723144531,86.84835815429688,-43.47494506835938
165160,-0.5399017333984375,0.654571533203125,-0.030792236328125,-0.84356689453125,0.2380011081695557,-0.5576358437538147,25.40077209472656,86.94065856933594,-43.29396057128906
165161,-0.5554046630859375,0.6884918212890625,-0.0653533935546875,-0.8659856915473938,0.140222355723381,-0.5760036706924438,25.25762939453125,87.06491088867188,-43.21990966796875
165162,-0.5554046630859375,0.6884918212890625,-0.0653533935546875,-0.8659856915473938,0.140222355723381,-0.5760036706924438,25.25762939453125,87.06491088867188,-43.21990966796875
165163,-0.5725860595703125,0.777740478515625,-0.1987457275390625,-0.8556517958641052,-0.1148171275854111,-0.5471983551979065,24.93885803222656,87.24922180175781,-42.82192993164062
165164,-0.5725860595703125,0.777740478515625,-0.1987457275390625,-0.8556517958641052,-0.1148171275854111,-0.5471983551979065,24.93885803222656,87.24922180175781,-42.82192993164062
165165,-0.555023193359375,0.8208160400390625,-0.255462646484375,-0.828172504901886,-0.2926920652389526,-0.4960803389549255,24.70024108886719,87.35520935058594,-42.63623046875
165166,-0.52325439453125,0.8871917724609375,-0.2581787109375,-0.778488039970398,-0.394099622964859,-0.4422213435173035,24.33442687988281,87.42298889160156,-42.17636108398438
165167,-0.4969635009765625,1.016281127929688,-0.2764739990234375,-0.6057831048965454,-0.3101368248462677,-0.3653116524219513,23.72543334960938,87.66836547851562,-41.23124694824219
165168,-0.510986328125,1.074798583984375,-0.3316192626953125,-0.4817906022071838,-0.2429194450378418,-0.3585725426673889,23.40260314941406,87.81492614746094,-40.98495483398438
165169,-0.5086669921875,1.110931396484375,-0.375213623046875,-0.3555727601051331,-0.2144166976213455,-0.3335055410861969,23.14984130859375,87.90647888183594,-40.66444396972656
165170,-0.5086669921875,1.110931396484375,-0.375213623046875,-0.3555727601051331,-0.2144166976213455,-0.3335055410861969,23.14984130859375,87.90647888183594,-40.66444396972656
165171,-0.5364227294921875,1.150299072265625,-0.3967437744140625,-0.1420844346284866,-0.2221587598323822,-0.3022471964359283,22.70585632324219,87.76416015625,-40.09300231933594
165172,-0.546630859375,1.134521484375,-0.406951904296875,-0.0094733964651823,-0.2946670651435852,-0.271559864282608,22.4901123046875,87.69500732421875,-39.83233642578125
165173,-0.4938201904296875,1.094253540039062,-0.417022705078125,0.1755039095878601,-0.368658721446991,-0.2153746336698532,22.26217651367188,87.69252014160156,-39.51913452148438
165174,-0.4938201904296875,1.094253540039062,-0.417022705078125,0.1755039095878601,-0.368658721446991,-0.2153746336698532,22.26217651367188,87.69252014160156,-39.51913452148438
165175,-0.3397979736328125,0.9884185791015624,-0.466278076171875,0.6960499286651611,-0.3268622756004333,0.0065260762348771,21.89149475097656,87.5853271484375,-39.23573303222656
165176,-0.305084228515625,0.9549407958984376,-0.5071258544921875,0.9336014986038208,-0.2666572630405426,0.0819369405508041,21.72711181640625,87.58219909667969,-39.27767944335938
165177,-0.2985076904296875,0.9467315673828124,-0.5512237548828125,1.084655404090881,-0.2098355144262314,0.1180390194058418,21.7109375,87.3433837890625,-39.35130310058594
165178,-0.2985076904296875,0.9467315673828124,-0.5512237548828125,1.084655404090881,-0.2098355144262314,0.1180390194058418,21.7109375,87.3433837890625,-39.35130310058594
165179,-0.319000244140625,1.008590698242188,-0.56622314453125,1.143171787261963,-0.2250869125127792,0.1130178943276405,21.68722534179688,86.99188232421875,-39.81033325195312
165180,-0.3542938232421875,1.066146850585938,-0.523681640625,1.098381638526917,-0.2011474967002869,0.0988157913088798,21.6873779296875,86.87677001953125,-40.29415893554688
165181,-0.4076080322265625,1.133941650390625,-0.46954345703125,1.063438534736633,-0.1432455778121948,0.098308727145195,21.62733459472656,86.61936950683594,-40.58726501464844
165182,-0.4076080322265625,1.133941650390625,-0.46954345703125,1.063438534736633,-0.1432455778121948,0.098308727145195,21.62733459472656,86.61936950683594,-40.58726501464844
165183,-0.5131988525390625,1.215972900390625,-0.282562255859375,0.9800230264663696,-0.0984219089150428,0.0910928919911384,21.68482971191406,86.17593383789062,-41.4482421875
165184,-0.5131988525390625,1.215972900390625,-0.282562255859375,0.9800230264663696,-0.0984219089150428,0.0910928919911384,21.68482971191406,86.17593383789062,-41.4482421875
165185,-0.6770782470703125,1.201934814453125,-0.1380157470703125,0.803948163986206,-0.0023901870008558,0.053028330206871,21.73262023925781,85.75717163085938,-42.07318115234375
165186,-0.7485809326171875,1.181793212890625,-0.0757904052734375,0.6814454197883606,0.0276856906712055,-0.0048304414376616,21.72492980957031,85.71791076660156,-42.53297424316406
165187,-0.81805419921875,1.138626098632812,-0.0318603515625,0.5683372020721436,0.0632679164409637,-0.0675100684165954,21.72615051269531,85.62040710449219,-42.77069091796875
165188,-0.872894287109375,1.082717895507812,-0.0449371337890625,0.4898426830768585,0.0739615783095359,-0.1228675991296768,21.77218627929688,85.43226623535156,-43.15919494628906
165189,-0.89031982421875,1.0306396484375,-0.0472869873046875,0.4673453569412231,0.0500029809772968,-0.1735630035400391,21.71861267089844,85.39802551269531,-43.47502136230469
165190,-0.89031982421875,1.0306396484375,-0.0472869873046875,0.4673453569412231,0.0500029809772968,-0.1735630035400391,21.71861267089844,85.39802551269531,-43.47502136230469
165191,-0.825714111328125,0.883544921875,0.0004730224609375,0.4821149706840515,0.174984335899353,-0.1695932894945145,21.73701477050781,85.19485473632812,-43.91537475585938
165192,-0.7638397216796875,0.827545166015625,-0.0229339599609375,0.5348418354988098,0.1272514313459396,-0.1354305297136307,21.72903442382812,85.06002807617188,-44.10508728027344
165193,-0.7100372314453125,0.777618408203125,-0.058380126953125,0.5885252952575684,-0.0106332032009959,-0.091602623462677,21.90084838867188,84.8203125,-44.40892028808594
165194,-0.6714324951171875,0.7349700927734375,-0.0774383544921875,0.6345255374908447,-0.20183165371418,-0.0412358529865741,22.00859069824219,84.58242797851562,-44.75535583496094
165195,-0.63482666015625,0.7021942138671875,-0.0429229736328125,0.6948938369750977,-0.3584436476230621,0.0197204407304525,22.15835571289062,84.31288146972656,-44.84732055664062
165196,-0.63482666015625,0.7021942138671875,-0.0429229736328125,0.6948938369750977,-0.3584436476230621,0.0197204407304525,22.15835571289062,84.31288146972656,-44.84732055664062
165197,-0.526611328125,0.6496124267578125,0.0146331787109375,0.816428005695343,-0.3020368218421936,0.0851124972105026,22.24397277832031,83.74259948730469,-45.2501220703125
165198,-0.4983673095703125,0.6172637939453125,-0.0072784423828125,0.8530235290527344,-0.1315172761678696,0.0575112290680408,22.27420043945312,83.72886657714844,-45.36320495605469
165199,-0.464019775390625,0.57220458984375,-0.049407958984375,0.8488003015518188,0.0005928196478635,0.0237945448607206,22.33509826660156,83.54501342773438,-45.398681640625
165200,-0.4508514404296875,0.52850341796875,-0.0813140869140625,0.8382978439331055,0.0990490838885307,0.0159760378301143,22.38117980957031,83.32200622558594,-45.46453857421875
165201,-0.4492645263671875,0.507415771484375,-0.10955810546875,0.8273916840553284,0.1508979052305222,0.0208240561187267,22.39463806152344,83.0526123046875,-45.75985717773438
165202,-0.4492645263671875,0.507415771484375,-0.10955810546875,0.8273916840553284,0.1508979052305222,0.0208240561187267,22.39463806152344,83.0526123046875,-45.75985717773438
165203,-0.4240570068359375,0.4560546875,-0.148773193359375,0.7281524538993835,0.1916155070066452,0.0592244416475296,22.61753845214844,82.66157531738281,-46.346435546875
165204,-0.398834228515625,0.4437713623046875,-0.1623992919921875,0.6304727792739868,0.1904437094926834,0.0990586727857589,22.76759338378906,82.23771667480469,-46.57289123535156
165205,-0.3716278076171875,0.457000732421875,-0.1370697021484375,0.4889385402202606,0.1961039900779724,0.136173278093338,22.85246276855469,81.9437255859375,-46.88134765625
165206,-0.3716278076171875,0.457000732421875,-0.1370697021484375,0.4889385402202606,0.1961039900779724,0.136173278093338,22.85246276855469,81.9437255859375,-46.88134765625
165207,-0.3087158203125,0.517242431640625,-0.0212860107421875,0.1670515686273575,0.1599119007587433,0.2558413743972778,23.11337280273438,81.76101684570312,-47.37681579589844
165208,-0.3087158203125,0.517242431640625,-0.0212860107421875,0.1670515686273575,0.1599119007587433,0.2558413743972778,23.11337280273438,81.76101684570312,-47.37681579589844
165209,-0.305267333984375,0.5375823974609375,0.0182952880859375,0.0530791953206062,0.1340731084346771,0.300701230764389,23.24114990234375,81.70298767089844,-47.56768798828125
165210,-0.3835296630859375,0.6092071533203125,0.046966552734375,-0.1324667036533356,0.0812903270125389,0.3123690783977509,23.48661804199219,81.662841796875,-47.79774475097656
165211,-0.447296142578125,0.679046630859375,0.0296783447265625,-0.2346183657646179,0.0440505482256412,0.2940782308578491,23.59927368164062,81.70018005371094,-47.73124694824219
165212,-0.447296142578125,0.679046630859375,0.0296783447265625,-0.2346183657646179,0.0440505482256412,0.2940782308578491,23.59927368164062,81.70018005371094,-47.73124694824219
165213,-0.518524169921875,0.8084716796875,0.0432586669921875,-0.4784419536590576,-0.0053564156405627,0.2395172566175461,23.67265319824219,82.02874755859375,-47.79170227050781
165214,-0.5299072265625,0.8568878173828125,0.0789642333984375,-0.5943698883056641,0.0226619020104408,0.1970150619745255,23.76821899414062,82.24223327636719,-47.82830810546875
165215,-0.5356903076171875,0.8809356689453125,0.11505126953125,-0.6881712079048157,0.0565588846802711,0.1570556610822678,23.82328796386719,82.43492126464844,-47.66159057617188
165216,-0.5356903076171875,0.8809356689453125,0.11505126953125,-0.6881712079048157,0.0565588846802711,0.1570556610822678,23.82328796386719,82.43492126464844,-47.66159057617188
165217,-0.5554962158203125,0.882171630859375,0.1756134033203125,-0.8867005705833435,0.0936521887779235,0.0681023523211479,23.95166015625,82.76316833496094,-47.34487915039062
165218,-0.5554962158203125,0.882171630859375,0.1756134033203125,-0.8867005705833435,0.0936521887779235,0.0681023523211479,23.95166015625,82.76316833496094,-47.34487915039062
165219,-0.623443603515625,0.8408050537109375,0.2105712890625,-1.045188188552856,0.0060067595914006,-0.1015729606151581,24.0299072265625,83.35423278808594,-46.92892456054688
165220,-0.6636810302734375,0.807342529296875,0.2230377197265625,-1.0940181016922,-0.0268851444125175,-0.2038748264312744,24.05070495605469,83.52622985839844,-46.73695373535156
165221,-0.7135009765625,0.802001953125,0.227142333984375,-1.129480957984924,-0.0118563929572701,-0.2858788967132568,24.00643920898438,83.8995361328125,-46.45634460449219
165222,-0.7135009765625,0.802001953125,0.227142333984375,-1.129480957984924,-0.0118563929572701,-0.2858788967132568,24.00643920898438,83.8995361328125,-46.45634460449219
165223,-0.772918701171875,0.83233642578125,0.16644287109375,-1.151062369346619,0.168427363038063,-0.4193240404129028,23.7301025390625,84.512451171875,-45.606689453125
165224,-0.787322998046875,0.8570556640625,0.09161376953125,-1.146117687225342,0.2768265306949615,-0.4338870048522949,23.55030822753906,84.8831787109375,-45.12327575683594
165225,-0.787322998046875,0.8570556640625,0.09161376953125,-1.146117687225342,0.2768265306949615,-0.4338870048522949,23.55030822753906,84.8831787109375,-45.12327575683594
165226,-0.7808990478515625,0.87603759765625,-0.0193328857421875,-1.101643443107605,0.3683242201805115,-0.4298640191555023,23.33660888671875,85.05575561523438,-44.80633544921875
165227,-0.677642822265625,0.877227783203125,-0.2273101806640625,-0.956009030342102,0.4656835496425629,-0.4094341099262238,23.06814575195312,85.51667785644531,-44.29743957519531
165228,-0.5955810546875,0.8845367431640625,-0.306793212890625,-0.8833553194999695,0.4514747858047485,-0.3913299441337585,22.93254089355469,85.58152770996094,-43.86245727539062
165229,-0.5955810546875,0.8845367431640625,-0.306793212890625,-0.8833553194999695,0.4514747858047485,-0.3913299441337585,22.93254089355469,85.58152770996094,-43.86245727539062
165230,-0.5260009765625,0.929718017578125,-0.3775177001953125,-0.7869856953620911,0.3821066319942474,-0.3695149421691895,22.73756408691406,85.77885437011719,-43.72676086425781
165231,-0.4383392333984375,1.017135620117188,-0.50335693359375,-0.574052631855011,0.190082848072052,-0.3666285872459412,22.57708740234375,85.90696716308594,-43.25306701660156
165232,-0.4383392333984375,1.017135620117188,-0.50335693359375,-0.574052631855011,0.190082848072052,-0.3666285872459412,22.57708740234375,85.90696716308594,-43.25306701660156
165233,-0.4174652099609375,1.021636962890625,-0.54559326171875,-0.4321921467781067,0.1334174424409866,-0.3405810296535492,22.45962524414062,85.86424255371094,-42.99981689453125
165234,-0.413848876953125,1.033584594726562,-0.6125640869140625,-0.2407787889242172,0.1189996227622032,-0.2705731689929962,22.31459045410156,85.82830810546875,-42.82426452636719
165235,-0.4617767333984375,1.11236572265625,-0.807769775390625,0.1431382447481155,0.1563017219305038,-0.0561926998198032,21.95944213867188,85.90957641601562,-42.51126098632812
165236,-0.4617767333984375,1.11236572265625,-0.807769775390625,0.1431382447481155,0.1563017219305038,-0.0561926998198032,21.95944213867188,85.90957641601562,-42.51126098632812
165237,-0.531646728515625,1.288360595703125,-0.8427734375,0.3283848166465759,0.354831337928772,0.0971486568450927,21.86967468261719,85.7694091796875,-42.24911499023438
165238,-0.531646728515625,1.288360595703125,-0.8427734375,0.3283848166465759,0.354831337928772,0.0971486568450927,21.86967468261719,85.7694091796875,-42.24911499023438
165239,-0.61663818359375,1.335784912109375,-0.7821197509765625,0.5439211130142212,0.4702638983726501,0.1930086016654968,22.11456298828125,85.58726501464844,-42.51083374023438
165240,-0.66259765625,1.229080200195312,-0.7510223388671875,0.6877200603485107,0.6055383682250977,0.243452861905098,22.27294921875,85.51948547363281,-42.79991149902344
165241,-0.66259765625,1.229080200195312,-0.7510223388671875,0.6877200603485107,0.6055383682250977,0.243452861905098,22.27294921875,85.51948547363281,-42.79991149902344
165242,-0.682342529296875,1.115753173828125,-0.7579803466796875,0.7187008857727051,0.6940498948097229,0.2467035204172134,22.39895629882812,85.50248718261719,-43.20703125
165243,-0.6790008544921875,0.888702392578125,-0.6899871826171875,0.4394671022891998,0.3361460566520691,0.1385485529899597,22.96737670898438,85.45281982421875,-44.06735229492188
165244,-0.6317596435546875,0.751312255859375,-0.5942230224609375,0.3260244429111481,0.1310546845197678,0.0975084453821182,23.06590270996094,85.3951416015625,-44.44406127929688
165245,-0.5966644287109375,0.67669677734375,-0.5039825439453125,0.3499260544776917,0.158643439412117,0.06815055757761,23.11947631835938,85.27694702148438,-44.82003784179688
165246,-0.5966644287109375,0.67669677734375,-0.5039825439453125,0.3499260544776917,0.158643439412117,0.06815055757761,23.11947631835938,85.27694702148438,-44.82003784179688
165247,-0.566680908203125,0.6270904541015625,-0.3198699951171875,0.2830066680908203,0.3072784543037415,0.0872797742486,23.26026916503906,85.383544921875,-45.13697814941406
165248,-0.566680908203125,0.6270904541015625,-0.3198699951171875,0.2830066680908203,0.3072784543037415,0.0872797742486,23.26026916503906,85.383544921875,-45.13697814941406
165249,-0.5554656982421875,0.6215362548828125,-0.151397705078125,0.1183868274092674,0.2729330062866211,0.123514749109745,23.42138671875,85.22744750976562,-45.37249755859375
165250,-0.5320892333984375,0.623779296875,-0.0441131591796875,-0.0341451875865459,0.2178966403007507,0.1577382385730743,23.71282958984375,85.30735778808594,-45.76133728027344
165251,-0.5137481689453125,0.7064208984375,0.0498046875,-0.0488125458359718,-0.1136147156357765,0.3611890971660614,24.28466796875,85.31297302246094,-45.75370788574219
165252,-0.5137481689453125,0.7064208984375,0.0498046875,-0.0488125458359718,-0.1136147156357765,0.3611890971660614,24.28466796875,85.31297302246094,-45.75370788574219
165253,-0.5072784423828125,0.7991790771484375,0.1402587890625,0.2338934540748596,-0.2136534303426743,0.5925083160400391,24.64584350585938,85.36100769042969,-45.79751586914062
165254,-0.5072784423828125,0.7991790771484375,0.1402587890625,0.2338934540748596,-0.2136534303426743,0.5925083160400391,24.64584350585938,85.36100769042969,-45.79751586914062
165255,-0.37371826171875,0.733245849609375,0.1449737548828125,0.3445592522621155,-0.1361588984727859,0.573302149772644,25.03244018554688,85.6048583984375,-45.74256896972656
165256,-0.37371826171875,0.733245849609375,0.1449737548828125,0.3445592522621155,-0.1361588984727859,0.573302149772644,25.03244018554688,85.6048583984375,-45.74256896972656
165257,-0.156890869140625,0.6685333251953125,0.073272705078125,0.1187703236937523,0.166658490896225,0.6056132316589355,25.42848205566406,85.53807067871094,-45.73503112792969
165258,-0.156890869140625,0.6685333251953125,0.073272705078125,0.1187703236937523,0.166658490896225,0.6056132316589355,25.42848205566406,85.53807067871094,-45.73503112792969
165259,-0.0556488037109375,0.6695098876953125,-0.0439453125,0.1198899149894714,0.2807499170303345,0.7380157113075256,25.99375915527344,85.55497741699219,-45.48851013183594
165260,-0.0556488037109375,0.6695098876953125,-0.0439453125,0.1198899149894714,0.2807499170303345,0.7380157113075256,25.99375915527344,85.55497741699219,-45.48851013183594
165261,-0.07354736328125,0.7197418212890625,-0.0685577392578125,0.1007585674524307,0.1915127038955688,0.702934980392456,26.3829345703125,85.66192626953125,-45.67988586425781
165262,-0.125396728515625,0.7373199462890625,-0.0512542724609375,-0.0164106655865907,0.0616974532604217,0.6022735834121704,26.69644165039062,85.85594177246094,-45.99993896484375
165263,-0.31402587890625,0.78814697265625,-0.00994873046875,-0.2346196919679642,-0.1089469864964485,0.3703666031360626,27.25016784667969,86.17842102050781,-46.18745422363281
165264,-0.4092559814453125,0.82318115234375,0.028961181640625,-0.251613050699234,-0.2001536041498184,0.1802283674478531,27.44180297851562,86.35374450683594,-46.02496337890625
165265,-0.4092559814453125,0.82318115234375,0.028961181640625,-0.251613050699234,-0.2001536041498184,0.1802283674478531,27.44180297851562,86.35374450683594,-46.02496337890625
165266,-0.4872283935546875,0.824737548828125,0.080596923828125,-0.2713614702224731,-0.201029509305954,0.0241165217012167,27.56634521484375,86.36431884765625,-45.94691467285156
165267,-0.5558624267578125,0.80303955078125,0.1031036376953125,-0.2959451079368591,-0.1466235220432281,-0.0747914165258407,27.48345947265625,86.52275085449219,-45.86839294433594
165268,-0.6060333251953125,0.78900146484375,0.1021728515625,-0.3363631069660187,-0.0977851524949073,-0.138006865978241,27.45823669433594,86.59782409667969,-45.68794250488281
165269,-0.6602020263671875,0.77099609375,0.1526947021484375,-0.4285287261009216,-0.0833036750555038,-0.2377316057682037,27.19467163085938,86.88800048828125,-45.64472961425781
165270,-0.681121826171875,0.751129150390625,0.1966094970703125,-0.4486939013004303,-0.0183827355504035,-0.2873473465442657,27.0560302734375,86.93486022949219,-45.43405151367188
165271,-0.681121826171875,0.751129150390625,0.1966094970703125,-0.4486939013004303,-0.0183827355504035,-0.2873473465442657,27.0560302734375,86.93486022949219,-45.43405151367188
165272,-0.7015533447265625,0.7249603271484375,0.2252197265625,-0.456595778465271,0.0780537873506546,-0.3374518156051636,27.01335144042969,87.06486511230469,-45.18873596191406
165273,-0.717803955078125,0.6269989013671875,0.2135467529296875,-0.4836305975914001,0.2745340764522552,-0.4072151780128479,26.76356506347656,87.24156188964844,-44.97807312011719
165274,-0.717803955078125,0.6269989013671875,0.2135467529296875,-0.4836305975914001,0.2745340764522552,-0.4072151780128479,26.76356506347656,87.24156188964844,-44.97807312011719
165275,-0.6880035400390625,0.5185089111328125,0.1777801513671875,-0.5925765037536621,0.401756227016449,-0.4446237981319427,26.54641723632812,87.2657470703125,-44.7408447265625
165276,-0.6880035400390625,0.5185089111328125,0.1777801513671875,-0.5925765037536621,0.401756227016449,-0.4446237981319427,26.54641723632812,87.2657470703125,-44.7408447265625
165277,-0.6619415283203125,0.486236572265625,0.1639251708984375,-0.6644269824028015,0.4585332274436951,-0.4753787815570831,26.48513793945312,87.34092712402344,-44.68988037109375
165278,-0.6331787109375,0.4698638916015625,0.14764404296875,-0.7442299723625183,0.5027965307235718,-0.5219646692276001,26.33003234863281,87.46633911132812,-44.56146240234375
165279,-0.579437255859375,0.4866180419921875,0.0721282958984375,-0.909902274608612,0.42790687084198,-0.6203165054321289,26.08718872070312,87.66841125488281,-44.24986267089844
165280,-0.579437255859375,0.4866180419921875,0.0721282958984375,-0.909902274608612,0.42790687084198,-0.6203165054321289,26.08718872070312,87.66841125488281,-44.24986267089844
165281,-0.558837890625,0.528228759765625,0.0111541748046875,-0.9995146989822388,0.2882717251777649,-0.6332904100418091,26.07049560546875,87.68083190917969,-44.01585388183594
165282,-0.5148773193359375,0.6355438232421875,-0.1504364013671875,-1.096198320388794,-0.041004691272974,-0.5970112085342407,25.86460876464844,87.76460266113281,-43.59107971191406
165283,-0.4947357177734375,0.7053070068359375,-0.2573394775390625,-1.072678446769714,-0.2249271273612976,-0.5505395531654358,25.506591796875,87.88133239746094,-43.20466613769531
165284,-0.4947357177734375,0.7053070068359375,-0.2573394775390625,-1.072678446769714,-0.2249271273612976,-0.5505395531654358,25.506591796875,87.88133239746094,-43.20466613769531
165285,-0.4680023193359375,0.8069610595703125,-0.296173095703125,-1.008273363113403,-0.3661319017410278,-0.4597878456115723,25.22386169433594,88.04837036132812,-42.88725280761719
165286,-0.4444580078125,0.934539794921875,-0.29571533203125,-0.9452943205833436,-0.3346490859985352,-0.3620665967464447,24.79042053222656,88.20082092285156,-42.24540710449219
165287,-0.4803619384765625,1.173370361328125,-0.383392333984375,-0.8152021169662476,-0.1597925871610641,-0.3840741515159607,24.11778259277344,88.45112609863281,-41.28579711914062
165288,-0.4803619384765625,1.173370361328125,-0.383392333984375,-0.8152021169662476,-0.1597925871610641,-0.3840741515159607,24.11778259277344,88.45112609863281,-41.28579711914062
165289,-0.542877197265625,1.255172729492188,-0.4125213623046875,-0.7692186832427979,-0.2071481198072433,-0.4277785122394562,23.73233032226562,88.44461059570312,-40.77778625488281
165290,-0.621856689453125,1.31341552734375,-0.41748046875,-0.6933507919311523,-0.3169057667255402,-0.3959779739379883,23.40574645996094,88.45718383789062,-40.29951477050781
165291,-0.629913330078125,1.239669799804688,-0.445526123046875,-0.2521622180938721,-0.3872475922107697,-0.2468859553337097,22.84326171875,88.42340087890625,-39.56752014160156
165292,-0.629913330078125,1.239669799804688,-0.445526123046875,-0.2521622180938721,-0.3872475922107697,-0.2468859553337097,22.84326171875,88.42340087890625,-39.56752014160156
165293,-0.566619873046875,1.161544799804688,-0.5256500244140625,0.0747575908899307,-0.2788798213005066,-0.1120045632123947,22.63424682617188,88.33560180664062,-39.18580627441406
165294,-0.5233154296875,1.090423583984375,-0.6451568603515625,0.4176523685455322,-0.1754668951034546,0.0464817471802234,22.52197265625,88.395263671875,-39.00726318359375
165295,-0.4791717529296875,1.050247192382812,-0.7339324951171875,0.834443986415863,0.0743631795048713,0.2758622169494629,22.47129821777344,88.31370544433594,-38.93022155761719
165296,-0.4791717529296875,1.050247192382812,-0.7339324951171875,0.834443986415863,0.0743631795048713,0.2758622169494629,22.47129821777344,88.31370544433594,-38.93022155761719
165297,-0.4635772705078125,1.093429565429688,-0.7523040771484375,0.6194387674331665,0.1421139985322952,0.198074996471405,22.56988525390625,88.07377624511719,-39.45318603515625
165298,-0.430633544921875,1.13800048828125,-0.701263427734375,0.397646963596344,0.0902159139513969,0.1631939858198166,22.67811584472656,87.98399353027344,-39.87091064453125
165299,-0.3828582763671875,1.168212890625,-0.599853515625,0.220342755317688,0.069911703467369,0.2184868007898331,22.86451721191406,87.89456176757812,-40.07148742675781
165300,-0.3828582763671875,1.168212890625,-0.599853515625,0.220342755317688,0.069911703467369,0.2184868007898331,22.86451721191406,87.89456176757812,-40.07148742675781
165301,-0.329925537109375,1.2640380859375,-0.332611083984375,0.012239621952176,-0.0100758038461208,0.3857319951057434,23.19844055175781,87.78672790527344,-40.39250183105469
165302,-0.329925537109375,1.2640380859375,-0.332611083984375,0.012239621952176,-0.0100758038461208,0.3857319951057434,23.19844055175781,87.78672790527344,-40.39250183105469
165303,-0.391387939453125,1.372283935546875,-0.130340576171875,0.0356333628296852,-0.1080202087759972,0.282244473695755,23.45881652832031,87.94985961914062,-40.46110534667969
165304,-0.391387939453125,1.372283935546875,-0.130340576171875,0.0356333628296852,-0.1080202087759972,0.282244473695755,23.45881652832031,87.94985961914062,-40.46110534667969
165305,-0.456298828125,1.446273803710938,-0.051727294921875,0.2541883289813995,-0.1277598291635513,0.1478661596775055,23.6595458984375,88.16212463378906,-40.48611450195312
165306,-0.5498199462890625,1.512313842773438,0.03936767578125,0.5506690144538879,-0.0503273531794548,0.0210504233837127,23.82470703125,88.3316650390625,-40.67420959472656
165307,-0.77349853515625,1.441909790039062,0.1006317138671875,1.102899670600891,0.2725303173065186,-0.1206609010696411,23.83778381347656,88.3231201171875,-41.05160522460938
165308,-0.77349853515625,1.441909790039062,0.1006317138671875,1.102899670600891,0.2725303173065186,-0.1206609010696411,23.83778381347656,88.3231201171875,-41.05160522460938
165309,-0.840789794921875,1.304534912109375,0.04986572265625,1.302114248275757,0.3695277273654938,-0.1310038268566132,23.98367309570312,88.18251037597656,-41.42060852050781
165310,-0.8134765625,0.9405364990234376,-0.0678863525390625,1.413729190826416,0.3069229125976562,-0.180460587143898,23.87718200683594,87.9683837890625,-42.68760681152344
165311,-0.753753662109375,0.76336669921875,-0.136749267578125,1.282774329185486,0.1052020564675331,-0.2340018451213837,23.84346008300781,87.65115356445312,-43.24314880371094
165312,-0.753753662109375,0.76336669921875,-0.136749267578125,1.282774329185486,0.1052020564675331,-0.2340018451213837,23.84346008300781,87.65115356445312,-43.24314880371094
165313,-0.7124786376953125,0.5836181640625,-0.1631622314453125,1.103670954704285,-0.1652797758579254,-0.2599301040172577,23.88700866699219,87.35450744628906,-43.87936401367188
165314,-0.68218994140625,0.45745849609375,-0.1371002197265625,0.946821391582489,-0.3823785185813904,-0.231641486287117,23.923583984375,86.94944763183594,-44.36558532714844
165315,-0.634765625,0.411529541015625,-0.1177978515625,0.6877959966659546,-0.4650499820709229,-0.0707407519221305,23.78887939453125,86.406982421875,-45.02288818359375
165316,-0.634765625,0.411529541015625,-0.1177978515625,0.6877959966659546,-0.4650499820709229,-0.0707407519221305,23.78887939453125,86.406982421875,-45.02288818359375
165317,-0.650726318359375,0.4278564453125,-0.119476318359375,0.6197167634963989,-0.5472148656845093,0.0176516976207494,23.71299743652344,86.03242492675781,-45.10369873046875
165318,-0.682373046875,0.461212158203125,-0.0662384033203125,0.6237743496894836,-0.6619595885276794,0.078016772866249,23.73316955566406,85.72811889648438,-45.26844787597656
165319,-0.6683197021484375,0.4454803466796875,0.2093353271484375,0.6172288656234741,-0.4527072906494141,0.0873860344290733,23.77824401855469,85.37461853027344,-45.31990051269531
165320,-0.6683197021484375,0.4454803466796875,0.2093353271484375,0.6172288656234741,-0.4527072906494141,0.0873860344290733,23.77824401855469,85.37461853027344,-45.31990051269531
165321,-0.5919952392578125,0.388458251953125,0.210418701171875,0.5968247652053833,-0.1473489701747894,0.075490765273571,23.8768310546875,85.13641357421875,-45.34037780761719
165322,-0.5098419189453125,0.3226470947265625,0.13299560546875,0.6149649024009705,0.0132412370294332,0.0603775903582572,23.98262023925781,84.92056274414062,-45.32894897460938
165323,-0.391632080078125,0.23321533203125,0.1397552490234375,0.5376368165016174,0.3288431465625763,0.0465754903852939,24.16653442382812,84.51620483398438,-45.83552551269531
165324,-0.391632080078125,0.23321533203125,0.1397552490234375,0.5376368165016174,0.3288431465625763,0.0465754903852939,24.16653442382812,84.51620483398438,-45.83552551269531
165325,-0.396087646484375,0.362884521484375,0.1882171630859375,0.147359624505043,0.4797338545322418,0.1413736343383789,24.38525390625,84.02461242675781,-46.20817565917969
165326,-0.4302825927734375,0.4333953857421875,0.2304229736328125,-0.1152837127447128,0.46074178814888,0.173292949795723,24.47145080566406,83.98980712890625,-46.45904541015625
165327,-0.456878662109375,0.4889678955078125,0.2309112548828125,-0.3708752691745758,0.3965292274951935,0.1695472151041031,24.70681762695312,84.03807067871094,-46.579833984375
165328,-0.456878662109375,0.4889678955078125,0.2309112548828125,-0.3708752691745758,0.3965292274951935,0.1695472151041031,24.70681762695312,84.03807067871094,-46.579833984375
165329,-0.4759368896484375,0.548614501953125,0.18670654296875,-0.5707934498786926,0.2287724614143372,0.1601108461618423,24.87701416015625,84.07301330566406,-46.79466247558594
165330,-0.460113525390625,0.704498291015625,0.1344757080078125,-0.6937505006790161,-0.0162058677524328,0.1613990068435669,25.08804321289062,84.268310546875,-46.73028564453125
165331,-0.464263916015625,0.829925537109375,0.1505126953125,-0.6523101329803467,0.0514522716403007,0.1554564386606216,25.12338256835938,84.436279296875,-46.49632263183594
165332,-0.464263916015625,0.829925537109375,0.1505126953125,-0.6523101329803467,0.0514522716403007,0.1554564386606216,25.12338256835938,84.436279296875,-46.49632263183594
165333,-0.509765625,0.9966583251953124,0.1635284423828125,-0.7547464966773987,0.3905616402626038,0.0631771013140678,24.95278930664062,85.09698486328125,-46.20333862304688
165334,-0.509765625,0.9966583251953124,0.1635284423828125,-0.7547464966773987,0.3905616402626038,0.0631771013140678,24.95278930664062,85.09698486328125,-46.20333862304688
165335,-0.5280914306640625,0.9239654541015624,0.2188873291015625,-0.9187066555023192,0.3043436408042908,-0.0712499469518661,25.09358215332031,85.47286987304688,-45.98225402832031
165336,-0.530242919921875,0.8705596923828125,0.2370452880859375,-0.9678968787193298,0.1720998585224152,-0.1470986306667328,25.13604736328125,85.74752807617188,-45.73403930664062
165337,-0.530242919921875,0.8705596923828125,0.2370452880859375,-0.9678968787193298,0.1720998585224152,-0.1470986306667328,25.13604736328125,85.74752807617188,-45.73403930664062
165338,-0.5849761962890625,0.774383544921875,0.2165069580078125,-0.9889736771583556,-0.1592892557382584,-0.3397879302501678,25.20458984375,86.30625915527344,-45.19587707519531
165339,-0.619171142578125,0.7414093017578125,0.1948699951171875,-0.9857384562492372,-0.2226272225379944,-0.431677907705307,25.109619140625,86.49676513671875,-44.84625244140625
165340,-0.619171142578125,0.7414093017578125,0.1948699951171875,-0.9857384562492372,-0.2226272225379944,-0.431677907705307,25.109619140625,86.49676513671875,-44.84625244140625
165341,-0.643646240234375,0.7080841064453125,0.145477294921875,-0.98206889629364,-0.1943505704402924,-0.4932898581027985,24.96382141113281,86.70707702636719,-44.37173461914062
165342,-0.6707305908203125,0.6832733154296875,-0.001617431640625,-0.9208108186721802,0.0262869969010353,-0.5313637256622314,24.41673278808594,87.03965759277344,-43.6558837890625
165343,-0.66851806640625,0.68353271484375,-0.0854949951171875,-0.8428910374641418,0.1755409240722656,-0.5757163166999817,24.11541748046875,87.19305419921875,-43.20167541503906
165344,-0.66851806640625,0.68353271484375,-0.0854949951171875,-0.8428910374641418,0.1755409240722656,-0.5757163166999817,24.11541748046875,87.19305419921875,-43.20167541503906
165345,-0.6116485595703125,0.723358154296875,-0.2264404296875,-0.8240858912467957,0.3175697028636932,-0.5769394636154175,23.59564208984375,87.34800720214844,-42.67530822753906
165346,-0.6077880859375,0.8160552978515625,-0.313934326171875,-0.8524754643440247,0.2549462616443634,-0.5708123445510864,23.36341857910156,87.32588195800781,-42.36395263671875
165347,-0.623443603515625,0.957275390625,-0.36865234375,-0.8567194938659668,0.1680177599191666,-0.5653246641159058,23.21405029296875,87.28181457519531,-42.04238891601562
165348,-0.623443603515625,0.957275390625,-0.36865234375,-0.8567194938659668,0.1680177599191666,-0.5653246641159058,23.21405029296875,87.28181457519531,-42.04238891601562
165349,-0.6408233642578125,1.122390747070312,-0.411102294921875,-0.7196007966995239,0.2267244905233383,-0.4434666633605957,22.63493347167969,87.3787841796875,-41.61512756347656
165350,-0.6347808837890625,1.152297973632812,-0.4402923583984375,-0.5914036631584167,0.2547209560871124,-0.3302705883979797,22.34930419921875,87.347412109375,-41.30111694335938
165351,-0.6250762939453125,1.166702270507812,-0.4800872802734375,-0.4592474699020386,0.2620111107826233,-0.1834718286991119,22.21942138671875,87.32725524902344,-40.87213134765625
165352,-0.6250762939453125,1.166702270507812,-0.4800872802734375,-0.4592474699020386,0.2620111107826233,-0.1834718286991119,22.21942138671875,87.32725524902344,-40.87213134765625
165353,-0.606170654296875,1.175567626953125,-0.5382232666015625,-0.3221841752529144,0.2480124682188034,-0.0373223386704921,22.15049743652344,87.34916687011719,-40.63194274902344
165354,-0.574798583984375,1.188644409179688,-0.595550537109375,-0.1772762387990952,0.2548503875732422,0.1261368989944458,22.09881591796875,87.36077880859375,-40.40693664550781
165355,-0.516082763671875,1.29254150390625,-0.705322265625,0.0994946286082267,0.4352201819419861,0.3553714156150818,22.27140808105469,87.50422668457031,-40.2308349609375
165356,-0.516082763671875,1.29254150390625,-0.705322265625,0.0994946286082267,0.4352201819419861,0.3553714156150818,22.27140808105469,87.50422668457031,-40.2308349609375
165357,-0.514739990234375,1.33160400390625,-0.7209625244140625,0.1875555217266083,0.5654751062393188,0.396336704492569,22.380859375,87.469482421875,-40.17430114746094
165358,-0.62811279296875,1.332870483398438,-0.67413330078125,0.3422050178050995,0.717737078666687,0.4197661280632019,22.78048706054688,87.37617492675781,-40.20602416992188
165359,-0.710113525390625,1.271591186523438,-0.670562744140625,0.4298451244831085,0.8525322079658508,0.4191733002662659,23.0489501953125,87.46878051757812,-40.28616333007812
165360,-0.710113525390625,1.271591186523438,-0.670562744140625,0.4298451244831085,0.8525322079658508,0.4191733002662659,23.0489501953125,87.46878051757812,-40.28616333007812
165361,-0.709014892578125,1.095489501953125,-0.653533935546875,0.5371063351631165,1.122857093811035,0.3616820275783539,23.60847473144531,87.72737121582031,-40.96687316894531
165362,-0.702606201171875,1.02069091796875,-0.6263275146484375,0.4546873569488525,0.9991735816001892,0.2917013466358185,23.99734497070312,87.82827758789062,-41.64897155761719
165363,-0.6721954345703125,0.8908538818359375,-0.574859619140625,0.270736962556839,0.6893488764762878,0.2436214536428452,24.39495849609375,87.90003967285156,-42.11634826660156
165364,-0.6721954345703125,0.8908538818359375,-0.574859619140625,0.270736962556839,0.6893488764762878,0.2436214536428452,24.39495849609375,87.90003967285156,-42.11634826660156
165365,-0.59478759765625,0.724212646484375,-0.3950042724609375,0.292706698179245,0.4937143623828888,0.2313565313816071,25.06539916992188,87.86825561523438,-43.08937072753906
165366,-0.5909881591796875,0.7126007080078125,-0.33233642578125,0.4167673885822296,0.5766028761863708,0.248401015996933,25.28636169433594,87.98902893066406,-43.39199829101562
165367,-0.58319091796875,0.7078399658203125,-0.2682037353515625,0.4245113432407379,0.5812879204750061,0.2939770221710205,25.48847961425781,88.07508850097656,-43.62989807128906
165368,-0.58319091796875,0.7078399658203125,-0.2682037353515625,0.4245113432407379,0.5812879204750061,0.2939770221710205,25.48847961425781,88.07508850097656,-43.62989807128906
165369,-0.5843048095703125,0.698822021484375,-0.170989990234375,0.3116865158081055,0.5755982995033264,0.3496783673763275,25.75325012207031,88.03227233886719,-43.82319641113281
165370,-0.5779876708984375,0.685211181640625,-0.113372802734375,0.1834779530763626,0.5031233429908752,0.3944492936134338,26.04983520507812,88.18006896972656,-44.2769775390625
165371,-0.573333740234375,0.7162017822265625,0.005584716796875,0.2366362363100052,0.118187889456749,0.5640929341316223,26.80218505859375,88.13017272949219,-44.801025390625
165372,-0.573333740234375,0.7162017822265625,0.005584716796875,0.2366362363100052,0.118187889456749,0.5640929341316223,26.80218505859375,88.13017272949219,-44.801025390625
165373,-0.505096435546875,0.74310302734375,0.0669708251953125,0.4713619351387024,-0.1073847785592079,0.6410287022590637,27.57315063476562,87.99884033203125,-45.10411071777344
165374,-0.440460205078125,0.7221832275390625,0.091796875,0.4831541478633881,-0.0934484601020813,0.5671166777610779,27.92822265625,87.94947814941406,-45.31605529785156
165375,-0.350494384765625,0.6476287841796875,0.07623291015625,0.4514385461807251,-0.0678940936923027,0.4840068817138672,28.22781372070312,87.90830993652344,-45.32066345214844
165376,-0.350494384765625,0.6476287841796875,0.07623291015625,0.4514385461807251,-0.0678940936923027,0.4840068817138672,28.22781372070312,87.90830993652344,-45.32066345214844
165377,-0.1864776611328125,0.5160064697265625,0.20623779296875,0.2387151122093201,0.155296117067337,0.3753403425216675,28.7828369140625,87.92706298828125,-45.5963134765625
165378,-0.1864776611328125,0.5160064697265625,0.20623779296875,0.2387151122093201,0.155296117067337,0.3753403425216675,28.7828369140625,87.92706298828125,-45.5963134765625
165379,-0.1162567138671875,0.4549713134765625,0.23431396484375,-0.1931199282407761,0.587721049785614,0.4985999464988708,29.25349426269531,87.89637756347656,-45.86936950683594
165380,-0.1162567138671875,0.4549713134765625,0.23431396484375,-0.1931199282407761,0.587721049785614,0.4985999464988708,29.25349426269531,87.89637756347656,-45.86936950683594
165381,-0.15997314453125,0.5255126953125,0.168609619140625,-0.34874227643013,0.6246595978736877,0.5399510860443115,29.52534484863281,87.79701232910156,-45.95419311523438
165382,-0.221282958984375,0.6145477294921875,0.14666748046875,-0.4232106506824493,0.4991501569747925,0.5210629105567932,29.90522766113281,87.9713134765625,-45.97817993164062
165383,-0.3714447021484375,0.7380523681640625,0.1986846923828125,-0.4545118510723114,0.2293421030044556,0.3645438849925995,30.5675048828125,88.30271911621094,-45.98577880859375
165384,-0.3714447021484375,0.7380523681640625,0.1986846923828125,-0.4545118510723114,0.2293421030044556,0.3645438849925995,30.5675048828125,88.30271911621094,-45.98577880859375
165385,-0.4555206298828125,0.7787628173828125,0.155975341796875,-0.4728533029556274,0.0484620742499828,0.265209287405014,30.87966918945312,88.42587280273438,-45.87934875488281
165386,-0.54150390625,0.825408935546875,0.0601806640625,-0.535797655582428,-0.2289599478244781,-0.0194029919803142,31.26411437988281,88.80764770507812,-45.69633483886719
165387,-0.553253173828125,0.8141632080078125,0.071197509765625,-0.5334575176239014,-0.2059901803731918,-0.1484105139970779,31.31437683105469,89.06793212890625,-45.42472839355469
165388,-0.553253173828125,0.8141632080078125,0.071197509765625,-0.5334575176239014,-0.2059901803731918,-0.1484105139970779,31.31437683105469,89.06793212890625,-45.42472839355469
165389,-0.5538177490234375,0.7963409423828125,0.1072235107421875,-0.5323046445846558,-0.0527945049107074,-0.2404727935791016,31.18536376953125,89.28492736816406,-45.25146484375
165390,-0.5485382080078125,0.771728515625,0.1220550537109375,-0.5775389671325684,0.0809486433863639,-0.3137091994285583,31.05870056152344,89.44465637207031,-45.07412719726562
165391,-0.5493621826171875,0.6823272705078125,0.1492462158203125,-0.6704140305519104,0.0983785018324852,-0.418531745672226,30.85418701171875,89.62469482421875,-44.52389526367188
165392,-0.5493621826171875,0.6823272705078125,0.1492462158203125,-0.6704140305519104,0.0983785018324852,-0.418531745672226,30.85418701171875,89.62469482421875,-44.52389526367188
165393,-0.528167724609375,0.57440185546875,0.1792755126953125,-0.7234666347503662,0.1460525393486023,-0.4707483351230621,30.58078002929688,89.8221435546875,-43.96638488769531
165394,-0.528167724609375,0.57440185546875,0.1792755126953125,-0.7234666347503662,0.1460525393486023,-0.4707483351230621,30.58078002929688,89.8221435546875,-43.96638488769531
165395,-0.53173828125,0.50244140625,0.152099609375,-0.8043071627616882,0.3002200126647949,-0.5333864092826843,30.27177429199219,90.11949157714844,-43.38096618652344
165396,-0.53173828125,0.50244140625,0.152099609375,-0.8043071627616882,0.3002200126647949,-0.5333864092826843,30.27177429199219,90.11949157714844,-43.38096618652344
165397,-0.5465087890625,0.4855804443359375,0.1104583740234375,-0.8479699492454529,0.3402129709720612,-0.5759567618370056,30.1407470703125,90.19740295410156,-43.12815856933594
165398,-0.562408447265625,0.4726409912109375,0.0531768798828125,-0.8998547196388245,0.3455272912979126,-0.60811448097229,29.88059997558594,90.43748474121094,-42.90426635742188
165399,-0.5921630859375,0.53466796875,-0.1112213134765625,-0.9806041121482848,0.1590240001678467,-0.6170527935028076,29.52655029296875,90.6767120361328,-42.41859436035156
165400,-0.5921630859375,0.53466796875,-0.1112213134765625,-0.9806041121482848,0.1590240001678467,-0.6170527935028076,29.52655029296875,90.6767120361328,-42.41859436035156
165401,-0.5333251953125,0.660400390625,-0.1768798828125,-1.000759482383728,-0.1076433733105659,-0.5298683643341064,28.83259582519531,91.14973449707033,-41.49334716796875
165402,-0.4800262451171875,0.7363128662109375,-0.1456451416015625,-1.000932335853577,-0.1608975380659103,-0.4666076600551605,28.50648498535156,91.1151123046875,-40.9388427734375
165403,-0.453338623046875,0.818939208984375,-0.1199493408203125,-0.9937157034873962,-0.1502611339092255,-0.4495724737644196,28.11654663085938,91.16236877441406,-40.49270629882812
165404,-0.453338623046875,0.818939208984375,-0.1199493408203125,-0.9937157034873962,-0.1502611339092255,-0.4495724737644196,28.11654663085938,91.16236877441406,-40.49270629882812
165405,-0.4898681640625,1.038192749023438,-0.1498260498046875,-0.980661153793335,-0.1918780952692032,-0.4893571734428406,27.48313903808594,91.359619140625,-39.69447326660156
165406,-0.4898681640625,1.038192749023438,-0.1498260498046875,-0.980661153793335,-0.1918780952692032,-0.4893571734428406,27.48313903808594,91.359619140625,-39.69447326660156
165407,-0.6094207763671875,1.259536743164062,-0.1778106689453125,-0.8632961511611938,-0.5696970224380493,-0.4869110584259033,26.86383056640625,91.42352294921876,-38.87937927246094
165408,-0.6094207763671875,1.259536743164062,-0.1778106689453125,-0.8632961511611938,-0.5696970224380493,-0.4869110584259033,26.86383056640625,91.42352294921876,-38.87937927246094
165409,-0.738677978515625,1.334930419921875,-0.2393951416015625,-0.4232175648212433,-0.4589100480079651,-0.3771464824676514,26.15859985351562,91.59228515625,-37.87648010253906
165410,-0.730743408203125,1.251907348632812,-0.372833251953125,-0.1465598791837692,-0.3473683595657349,-0.2982359528541565,25.79635620117188,91.4955596923828,-37.28961181640625
165411,-0.6640625,1.14849853515625,-0.528961181640625,0.1343873739242554,-0.3217594027519226,-0.1795511245727539,25.47807312011719,91.38844299316406,-36.95849609375
165412,-0.6640625,1.14849853515625,-0.528961181640625,0.1343873739242554,-0.3217594027519226,-0.1795511245727539,25.47807312011719,91.38844299316406,-36.95849609375
165413,-0.5393218994140625,1.121231079101562,-0.728271484375,0.6918300986289978,-0.3520784080028534,0.1474240720272064,25.28964233398438,91.20660400390624,-36.8203125
165414,-0.5393218994140625,1.121231079101562,-0.728271484375,0.6918300986289978,-0.3520784080028534,0.1474240720272064,25.28964233398438,91.20660400390624,-36.8203125
165415,-0.4111328125,1.202651977539062,-0.7511749267578125,0.9679836630821228,-0.0986251085996627,0.3592846691608429,25.32093811035156,90.90274047851562,-36.91046142578125
165416,-0.4111328125,1.202651977539062,-0.7511749267578125,0.9679836630821228,-0.0986251085996627,0.3592846691608429,25.32093811035156,90.90274047851562,-36.91046142578125
165417,-0.3663787841796875,1.234176635742188,-0.7225494384765625,0.8893746137619019,0.056073922663927,0.3698962926864624,25.41107177734375,90.82156372070312,-37.128173828125
165418,-0.36956787109375,1.245849609375,-0.65838623046875,0.7443151473999023,0.1515114903450012,0.3435118198394775,25.64164733886719,90.54718017578124,-37.39190673828125
165419,-0.4237213134765625,1.23876953125,-0.57391357421875,0.6200991868972778,0.2213912457227707,0.3939989805221558,25.76425170898438,90.45681762695312,-37.80683898925781
165420,-0.4502105712890625,1.248382568359375,-0.494842529296875,0.5280675292015076,0.2737029194831848,0.4867931008338928,25.98085021972656,90.4310302734375,-38.19386291503906
165421,-0.469879150390625,1.282989501953125,-0.27801513671875,0.3175625205039978,0.4084426164627075,0.5943959951400757,26.55435180664062,90.5679168701172,-38.72795104980469
165422,-0.5152130126953125,1.296279907226562,-0.1772918701171875,0.2797496318817139,0.4840148687362671,0.5566363334655762,26.88101196289062,90.6942901611328,-39.07331848144531
165423,-0.582489013671875,1.312164306640625,-0.098419189453125,0.3095525205135345,0.5266276001930237,0.4636949598789215,27.26362609863281,90.78765869140624,-39.39834594726562
165424,-0.653045654296875,1.324478149414062,-0.04437255859375,0.3872089684009552,0.5331041216850281,0.3431986272335052,27.62527465820312,90.82998657226562,-39.7550048828125
165425,-0.653045654296875,1.324478149414062,-0.04437255859375,0.3872089684009552,0.5331041216850281,0.3431986272335052,27.62527465820312,90.82998657226562,-39.7550048828125
165426,-0.7105712890625,1.314178466796875,-0.027191162109375,0.501650333404541,0.5302103161811829,0.2107582986354828,27.89979553222656,90.95452880859376,-40.07742309570312
165427,-0.77099609375,1.219070434570312,-0.0330963134765625,0.8346682190895081,0.4998337924480438,-0.0647009685635566,28.37895202636719,91.08131408691406,-40.886962890625
165428,-0.77099609375,1.219070434570312,-0.0330963134765625,0.8346682190895081,0.4998337924480438,-0.0647009685635566,28.37895202636719,91.08131408691406,-40.886962890625
165429,-0.766571044921875,1.129241943359375,-0.0233917236328125,0.9028385281562804,0.5643443465232849,-0.1505005657672882,28.52400207519531,90.8647918701172,-41.14767456054688
165430,-0.734130859375,1.037322998046875,-0.0862579345703125,0.8513553142547607,0.5279394388198853,-0.2168798446655273,28.73881530761719,90.7069854736328,-41.70704650878906
165431,-0.67413330078125,0.8318023681640625,-0.1126708984375,0.7034518718719482,-0.1441947221755981,-0.225909560918808,29.15142822265625,90.1970672607422,-42.50895690917969
165432,-0.67413330078125,0.8318023681640625,-0.1126708984375,0.7034518718719482,-0.1441947221755981,-0.225909560918808,29.15142822265625,90.1970672607422,-42.50895690917969
165433,-0.6407012939453125,0.7089996337890625,-0.0628814697265625,0.5927549600601196,-0.4576644897460938,-0.1594096273183823,29.18894958496094,90.09495544433594,-42.91046142578125
165434,-0.60943603515625,0.6133270263671875,-0.03021240234375,0.4894075095653534,-0.6679372787475586,-0.0396720468997955,29.19303894042969,89.90153503417969,-43.08078002929688
165435,-0.5931854248046875,0.515594482421875,0.110137939453125,0.5002465844154358,-0.5077870488166809,0.1455952823162079,29.04853820800781,89.66156005859375,-43.24653625488281
165436,-0.5931854248046875,0.515594482421875,0.110137939453125,0.5002465844154358,-0.5077870488166809,0.1455952823162079,29.04853820800781,89.66156005859375,-43.24653625488281
165437,-0.59991455078125,0.4548492431640625,0.1724853515625,0.6616677045822144,0.0439738482236862,0.1343652606010437,29.13471984863281,89.39933776855469,-43.25971984863281
165438,-0.58892822265625,0.432861328125,0.1570587158203125,0.7672774791717529,0.3027681112289429,0.0690230131149292,29.33372497558594,89.3489990234375,-43.35446166992188
165439,-0.551483154296875,0.3973236083984375,0.1417999267578125,0.8293038010597229,0.5184061527252197,0.0079247681424021,29.51808166503906,89.17774963378906,-43.46041870117188
165440,-0.4935302734375,0.3587646484375,0.1202392578125,0.8402856588363647,0.6913409233093262,-0.041915226727724,29.67283630371094,88.88961791992188,-43.78826904296875
165441,-0.4935302734375,0.3587646484375,0.1202392578125,0.8402856588363647,0.6913409233093262,-0.041915226727724,29.67283630371094,88.88961791992188,-43.78826904296875
165442,-0.3852996826171875,0.3021240234375,0.0301666259765625,0.7199456691741943,0.7390128374099731,-0.0579890012741088,30.08503723144531,88.46794128417969,-44.80870056152344
165443,-0.3338623046875,0.3183441162109375,0.0023193359375,0.608270525932312,0.5552456378936768,-0.0350796915590763,30.30436706542969,88.28288269042969,-45.13800048828125
165444,-0.3338623046875,0.3183441162109375,0.0023193359375,0.608270525932312,0.5552456378936768,-0.0350796915590763,30.30436706542969,88.28288269042969,-45.13800048828125
165445,-0.2610931396484375,0.3510894775390625,0.0088348388671875,0.4600408375263214,0.3248422741889954,-0.0156439412385225,30.43588256835938,88.08598327636719,-45.61724853515625
165446,-0.2010345458984375,0.412506103515625,0.0319061279296875,0.2552988827228546,0.1088471189141273,-0.0053215282969176,30.57475280761719,87.97425842285156,-45.97097778320312
165447,-0.2024383544921875,0.58453369140625,0.1074066162109375,-0.2248437702655792,-0.0905770361423492,0.0416073650121688,30.59547424316406,87.78562927246094,-46.31153869628906
165448,-0.2024383544921875,0.58453369140625,0.1074066162109375,-0.2248437702655792,-0.0905770361423492,0.0416073650121688,30.59547424316406,87.78562927246094,-46.31153869628906
165449,-0.28265380859375,0.68548583984375,0.1561126708984375,-0.4016073644161224,-0.0383156985044479,0.0408646091818809,30.56463623046875,87.82685852050781,-46.443115234375
165450,-0.5887908935546875,0.8165283203125,0.2933807373046875,-0.67036372423172,0.258113294839859,-0.0777430012822151,30.47016906738281,87.990478515625,-46.37179565429688
165451,-0.5887908935546875,0.8165283203125,0.2933807373046875,-0.67036372423172,0.258113294839859,-0.0777430012822151,30.47016906738281,87.990478515625,-46.37179565429688
165452,-0.6732177734375,0.812042236328125,0.340728759765625,-0.9097307324409484,0.3191305994987488,-0.1593244075775146,30.48460388183594,88.23609924316406,-46.14956665039062
165453,-0.6732177734375,0.812042236328125,0.340728759765625,-0.9097307324409484,0.3191305994987488,-0.1593244075775146,30.48460388183594,88.23609924316406,-46.14956665039062
165454,-0.6394195556640625,0.796417236328125,0.37109375,-1.018099904060364,0.2321464121341705,-0.1901110857725143,30.55563354492188,88.43678283691406,-45.825927734375
165455,-0.5979766845703125,0.754302978515625,0.379852294921875,-1.160759806632996,-0.0287357736378908,-0.2409170120954514,30.44757080078125,88.89216613769531,-45.15257263183594
165456,-0.5979766845703125,0.754302978515625,0.379852294921875,-1.160759806632996,-0.0287357736378908,-0.2409170120954514,30.44757080078125,88.89216613769531,-45.15257263183594
165457,-0.58416748046875,0.777618408203125,0.347564697265625,-1.179567575454712,-0.164097860455513,-0.3000490367412567,30.27935791015625,89.2694091796875,-44.77577209472656
165458,-0.595123291015625,0.7987518310546875,0.282806396484375,-1.182616353034973,-0.2762201428413391,-0.388154923915863,30.10342407226562,89.4337158203125,-44.23297119140625
165459,-0.61602783203125,0.8292236328125,0.1863250732421875,-1.17501699924469,-0.4040470719337463,-0.476245105266571,29.88362121582031,89.64828491210938,-43.628173828125
165460,-0.6218109130859375,0.838531494140625,-0.003265380859375,-1.166582584381104,-0.4373789429664612,-0.5708379149436951,29.17926025390625,90.02151489257812,-42.50775146484375
165461,-0.6218109130859375,0.838531494140625,-0.003265380859375,-1.166582584381104,-0.4373789429664612,-0.5708379149436951,29.17926025390625,90.02151489257812,-42.50775146484375
165462,-0.62957763671875,0.856597900390625,-0.07476806640625,-1.109719514846802,-0.2366160005331039,-0.6129017472267151,28.76026916503906,90.2600555419922,-42.27928161621094
165463,-0.62451171875,0.9042816162109376,-0.25872802734375,-0.870386004447937,0.095211736857891,-0.7329357266426086,27.9522705078125,90.63259887695312,-41.20016479492188
165464,-0.62451171875,0.9042816162109376,-0.25872802734375,-0.870386004447937,0.095211736857891,-0.7329357266426086,27.9522705078125,90.63259887695312,-41.20016479492188
165465,-0.622650146484375,0.9521026611328124,-0.317047119140625,-0.7763303518295288,0.1303002089262009,-0.7336569428443909,27.54331970214844,90.58091735839844,-40.84744262695312
165466,-0.6148529052734375,1.012619018554688,-0.3739166259765625,-0.7361571192741394,0.0516200512647628,-0.6946626901626587,27.11335754394531,90.55224609375,-40.46539306640625
165467,-0.571533203125,1.105331420898438,-0.4224853515625,-0.5972977876663208,-0.1606109887361526,-0.5360730290412903,26.48963928222656,90.4535675048828,-39.74148559570312
165468,-0.571533203125,1.105331420898438,-0.4224853515625,-0.5972977876663208,-0.1606109887361526,-0.5360730290412903,26.48963928222656,90.4535675048828,-39.74148559570312
165469,-0.5291595458984375,1.109954833984375,-0.40966796875,-0.4368420243263245,-0.1999946087598801,-0.3894548118114471,26.22810363769531,90.44392395019533,-39.38546752929688
165470,-0.49945068359375,1.099227905273438,-0.3882598876953125,-0.0977888777852058,-0.0349459983408451,-0.0661065801978111,25.78509521484375,90.35287475585938,-38.7489013671875
165471,-0.5012664794921875,1.079635620117188,-0.412078857421875,0.0326583459973335,0.094207189977169,0.0847271382808685,25.58186340332031,90.3753662109375,-38.52256774902344
165472,-0.5012664794921875,1.079635620117188,-0.412078857421875,0.0326583459973335,0.094207189977169,0.0847271382808685,25.58186340332031,90.3753662109375,-38.52256774902344
165473,-0.56280517578125,1.073318481445312,-0.5238037109375,0.2188878655433655,0.3000562191009521,0.357974648475647,25.57246398925781,90.40406799316406,-38.49339294433594
165474,-0.586456298828125,1.101531982421875,-0.585845947265625,0.258192390203476,0.3675268888473511,0.4478392899036407,25.60087585449219,90.39340209960938,-38.45591735839844
165475,-0.6005096435546875,1.133529663085938,-0.5984344482421875,0.2743191719055176,0.4791974723339081,0.4944638013839722,25.88365173339844,90.39356994628906,-38.62326049804688
165476,-0.6005096435546875,1.133529663085938,-0.5984344482421875,0.2743191719055176,0.4791974723339081,0.4944638013839722,25.88365173339844,90.39356994628906,-38.62326049804688
165477,-0.62738037109375,1.165069580078125,-0.5787506103515625,0.2575404644012451,0.6284559369087219,0.5029523372650146,26.05984497070312,90.4693603515625,-38.85198974609375
165478,-0.6842041015625,1.165618896484375,-0.5776214599609375,0.2499752193689346,0.7861414551734924,0.4773305952548981,26.34535217285156,90.47853088378906,-38.987548828125
165479,-0.775146484375,1.121963500976562,-0.5811309814453125,0.2835049331188202,0.9948807954788208,0.3981713354587555,26.93994140625,90.63336181640624,-39.46302795410156
165480,-0.775146484375,1.121963500976562,-0.5811309814453125,0.2835049331188202,0.9948807954788208,0.3981713354587555,26.93994140625,90.63336181640624,-39.46302795410156
165481,-0.7451171875,1.02337646484375,-0.536895751953125,0.3670608401298523,1.195347905158997,0.3355724215507507,27.66661071777344,90.76283264160156,-40.03932189941406
165482,-0.7372894287109375,1.005996704101562,-0.4983978271484375,0.3845072090625763,1.25197172164917,0.3193225860595703,28.071533203125,90.79078674316406,-40.5205078125
165483,-0.7134246826171875,0.9892730712890624,-0.4615020751953125,0.2992884516716003,1.116599202156067,0.3060517907142639,28.42060852050781,90.90835571289062,-40.98779296875
165484,-0.7134246826171875,0.9892730712890624,-0.4615020751953125,0.2992884516716003,1.116599202156067,0.3060517907142639,28.42060852050781,90.90835571289062,-40.98779296875
165485,-0.6846771240234375,0.935943603515625,-0.30523681640625,0.0559871010482311,0.6371428966522217,0.3402851521968842,29.14915466308594,91.10069274902344,-41.87153625488281
165486,-0.6380462646484375,0.9028778076171876,-0.14410400390625,-0.0262180212885141,0.5506506562232971,0.4259571731090546,29.49777221679688,91.13412475585938,-42.09693908691406
165487,-0.587493896484375,0.8853912353515625,-0.011260986328125,-0.0611030347645282,0.6150807738304138,0.5196530222892761,29.91525268554688,91.28045654296876,-42.23417663574219
165488,-0.587493896484375,0.8853912353515625,-0.011260986328125,-0.0611030347645282,0.6150807738304138,0.5196530222892761,29.91525268554688,91.28045654296876,-42.23417663574219
165489,-0.55413818359375,0.8766937255859375,0.045745849609375,0.0168599393218755,0.6220436096191406,0.6451992392539978,30.25202941894531,91.25080871582033,-42.32740783691406
165490,-0.527618408203125,0.878143310546875,0.08782958984375,0.3044874668121338,0.4485631287097931,0.854545533657074,31.26478576660156,91.54519653320312,-42.75006103515625
165491,-0.4690399169921875,0.85784912109375,0.090545654296875,0.3893133997917175,0.2545499801635742,0.8532789349555969,31.78659057617188,91.54811096191406,-42.88198852539062
165492,-0.4690399169921875,0.85784912109375,0.090545654296875,0.3893133997917175,0.2545499801635742,0.8532789349555969,31.78659057617188,91.54811096191406,-42.88198852539062
165493,-0.2848968505859375,0.7227630615234375,0.1568145751953125,0.4796566069126129,-0.1263555437326431,0.696961522102356,32.91633605957031,91.58293151855467,-43.28524780273438
165494,-0.1666717529296875,0.6485595703125,0.21820068359375,0.4685429632663727,-0.1919926106929779,0.6105046272277832,33.37457275390625,91.58610534667967,-43.44100952148438
165495,-0.0588226318359375,0.5754547119140625,0.267913818359375,0.3934682011604309,-0.0967126935720443,0.599380373954773,33.77812194824219,91.42814636230467,-43.53480529785156
165496,0.0057373046875,0.5136260986328125,0.2644195556640625,0.2887931764125824,0.153582900762558,0.6227930188179016,34.05284118652344,91.39031982421876,-43.50248718261719
165497,0.0057373046875,0.5136260986328125,0.2644195556640625,0.2887931764125824,0.153582900762558,0.6227930188179016,34.05284118652344,91.39031982421876,-43.50248718261719
165498,0.0251922607421875,0.513214111328125,0.16436767578125,0.119480587542057,0.5225740075111389,0.6071184277534485,34.64569091796875,91.36558532714844,-43.6466064453125
165499,-0.0304718017578125,0.5558013916015625,0.1589813232421875,0.0159747060388326,0.4229241013526917,0.5233180522918701,35.05587768554688,91.30674743652344,-43.64889526367188
165500,-0.0304718017578125,0.5558013916015625,0.1589813232421875,0.0159747060388326,0.4229241013526917,0.5233180522918701,35.05587768554688,91.30674743652344,-43.64889526367188
165501,-0.132781982421875,0.57110595703125,0.1822509765625,-0.0948588699102401,0.2763852477073669,0.414047509431839,35.53073120117188,91.42372131347656,-43.79098510742188
165502,-0.2507171630859375,0.580352783203125,0.1503143310546875,-0.1676545143127441,0.1571070551872253,0.3353742659091949,35.9051513671875,91.45761108398438,-43.85044860839844
165503,-0.3581695556640625,0.67578125,-0.0018768310546875,-0.2542288303375244,0.0155043909326195,0.1662584841251373,36.35887145996094,91.51461791992188,-43.876708984375
165504,-0.3581695556640625,0.67578125,-0.0018768310546875,-0.2542288303375244,0.0155043909326195,0.1662584841251373,36.35887145996094,91.51461791992188,-43.876708984375
165505,-0.4747467041015625,0.712371826171875,-0.0236663818359375,-0.2801980972290039,0.1287563741207123,-0.0527822561562061,36.62069702148438,91.77203369140624,-43.64328002929688
165506,-0.5198974609375,0.71112060546875,-0.0217132568359375,-0.3007305264472961,0.1764618456363678,-0.1565038561820984,36.55424499511719,91.87873840332033,-43.53468322753906
165507,-0.545013427734375,0.7101287841796875,-0.0059814453125,-0.3393005728721619,0.1573914885520935,-0.261625736951828,36.54345703125,91.93350219726562,-43.43292236328125
165508,-0.545013427734375,0.7101287841796875,-0.0059814453125,-0.3393005728721619,0.1573914885520935,-0.261625736951828,36.54345703125,91.93350219726562,-43.43292236328125
165509,-0.5358428955078125,0.702239990234375,0.0530853271484375,-0.4347077906131744,0.0472119860351085,-0.4510555863380432,36.42532348632812,92.19215393066406,-43.42665100097656
165510,-0.5304412841796875,0.6839141845703125,0.09246826171875,-0.4894727468490601,0.0175542254000902,-0.5120837688446045,36.32305908203125,92.22679138183594,-43.16641235351562
165511,-0.533660888671875,0.6604766845703125,0.1245269775390625,-0.5573133230209351,0.0197510682046413,-0.5425767302513123,36.17280578613281,92.29620361328124,-43.10006713867188
165512,-0.533660888671875,0.6604766845703125,0.1245269775390625,-0.5573133230209351,0.0197510682046413,-0.5425767302513123,36.17280578613281,92.29620361328124,-43.10006713867188
165513,-0.518646240234375,0.6109771728515625,0.108001708984375,-0.677089273929596,0.0231314189732074,-0.5679467916488647,35.70559692382812,92.50369262695312,-42.91944885253906
165514,-0.518646240234375,0.6109771728515625,0.108001708984375,-0.677089273929596,0.0231314189732074,-0.5679467916488647,35.70559692382812,92.50369262695312,-42.91944885253906
165515,-0.5010528564453125,0.587493896484375,0.1027069091796875,-0.8000497817993164,0.0573980435729026,-0.6260319352149963,35.17335510253906,92.52189636230467,-42.30963134765625
165516,-0.5010528564453125,0.587493896484375,0.1027069091796875,-0.8000497817993164,0.0573980435729026,-0.6260319352149963,35.17335510253906,92.52189636230467,-42.30963134765625
165517,-0.524017333984375,0.601043701171875,0.096832275390625,-0.8394656777381897,0.1251259595155716,-0.6810246109962463,34.87309265136719,92.68800354003906,-41.92820739746094
165518,-0.566619873046875,0.62835693359375,0.0467376708984375,-0.8916255235671997,0.2133330553770065,-0.7673400640487671,34.25453186035156,92.98680114746094,-41.33851623535156
165519,-0.59228515625,0.649627685546875,-0.006011962890625,-0.9664872288703918,0.2733793556690216,-0.7725699543952942,33.9432373046875,92.98480224609376,-41.04960632324219
165520,-0.59228515625,0.649627685546875,-0.006011962890625,-0.9664872288703918,0.2733793556690216,-0.7725699543952942,33.9432373046875,92.98480224609376,-41.04960632324219
165521,-0.60687255859375,0.6725921630859375,-0.084197998046875,-1.05293345451355,0.2845414578914642,-0.7513840198516846,33.5596923828125,93.2479248046875,-40.75631713867188
165522,-0.609619140625,0.789764404296875,-0.24365234375,-1.107899785041809,0.0788569971919059,-0.6332155466079712,32.88890075683594,93.31246948242188,-39.9754638671875
165523,-0.61260986328125,0.8779449462890625,-0.29071044921875,-1.135459184646606,-0.027036678045988,-0.5662074685096741,32.6129150390625,93.40704345703124,-39.48994445800781
165524,-0.61260986328125,0.8779449462890625,-0.29071044921875,-1.135459184646606,-0.027036678045988,-0.5662074685096741,32.6129150390625,93.40704345703124,-39.48994445800781
165525,-0.691162109375,1.10394287109375,-0.3016357421875,-1.041339159011841,-0.029388515278697,-0.464069128036499,31.83767700195312,93.61279296875,-38.49118041992188
165526,-0.7235107421875,1.142257690429688,-0.3155517578125,-0.9230444431304932,-0.0513468123972415,-0.4012638032436371,31.48609924316406,93.7669677734375,-38.00860595703125
165527,-0.741851806640625,1.155364990234375,-0.3018951416015625,-0.8024250864982605,-0.1173780262470245,-0.309924840927124,31.24948120117188,93.92294311523438,-37.62112426757812
165528,-0.741851806640625,1.155364990234375,-0.3018951416015625,-0.8024250864982605,-0.1173780262470245,-0.309924840927124,31.24948120117188,93.92294311523438,-37.62112426757812
165529,-0.677001953125,1.132980346679688,-0.308319091796875,-0.4612778723239899,-0.1735262423753738,-0.1201735436916351,30.61277770996094,93.96435546875,-36.73162841796875
165530,-0.587310791015625,1.11676025390625,-0.3931884765625,-0.2277774959802628,-0.1849834322929382,-0.0130217922851443,30.4559326171875,94.00396728515624,-36.24336242675781
165531,-0.5074615478515625,1.122528076171875,-0.496917724609375,0.0322138629853725,-0.1739251911640167,0.1010160967707634,30.38087463378906,93.83255004882812,-35.82011413574219
165532,-0.4375,1.149993896484375,-0.6030731201171875,0.2941410839557648,-0.1555389910936356,0.226314902305603,30.36007690429688,93.8025360107422,-35.6370849609375
165533,-0.4375,1.149993896484375,-0.6030731201171875,0.2941410839557648,-0.1555389910936356,0.226314902305603,30.36007690429688,93.8025360107422,-35.6370849609375
165534,-0.3758697509765625,1.211700439453125,-0.6729888916015625,0.529675304889679,-0.1353181451559067,0.3289227485656738,30.39958190917969,93.93679809570312,-35.65145874023438
165535,-0.2798919677734375,1.381988525390625,-0.6563720703125,0.6742492914199829,0.0242771096527576,0.3440628349781036,30.49369812011719,93.73464965820312,-35.6136474609375
165536,-0.2798919677734375,1.381988525390625,-0.6563720703125,0.6742492914199829,0.0242771096527576,0.3440628349781036,30.49369812011719,93.73464965820312,-35.6136474609375
165537,-0.2634735107421875,1.488861083984375,-0.51580810546875,0.5045396089553833,0.0436763726174831,0.2240125983953476,30.81707763671875,93.59225463867188,-36.14865112304688
165538,-0.3326568603515625,1.46392822265625,-0.4556427001953125,0.5508804321289062,-0.0188479889184236,0.2485419064760208,30.88673400878906,93.6170654296875,-36.51155090332031
165539,-0.4049530029296875,1.444381713867188,-0.3750457763671875,0.5992993712425232,-0.0498477183282375,0.2952713370323181,31.10728454589844,93.46592712402344,-36.73353576660156
165540,-0.45843505859375,1.400131225585938,-0.293792724609375,0.6126881837844849,0.0016713999211788,0.298007994890213,31.28114318847656,93.41441345214844,-36.83489990234375
165541,-0.45843505859375,1.400131225585938,-0.293792724609375,0.6126881837844849,0.0016713999211788,0.298007994890213,31.28114318847656,93.41441345214844,-36.83489990234375
165542,-0.5699920654296875,1.280166625976562,-0.15106201171875,0.7127415537834167,0.1355258673429489,0.1903433054685593,31.55412292480469,93.39112854003906,-37.45143127441406
165543,-0.6334075927734375,1.252273559570312,-0.1194610595703125,0.82757967710495,0.1697016805410385,0.1280863285064697,31.75518798828125,93.51126098632812,-37.86534118652344
165544,-0.6334075927734375,1.252273559570312,-0.1194610595703125,0.82757967710495,0.1697016805410385,0.1280863285064697,31.75518798828125,93.51126098632812,-37.86534118652344
165545,-0.6986846923828125,1.243881225585938,-0.0980377197265625,0.9505754113197328,0.1748631596565247,0.0821736976504325,31.91244506835938,93.44363403320312,-38.25836181640625
165546,-0.7330169677734375,1.21929931640625,-0.10101318359375,1.011028647422791,0.186571478843689,0.0451440438628196,32.04319763183594,93.47488403320312,-38.67906188964844
165547,-0.726409912109375,1.139785766601562,-0.1141815185546875,1.111636400222778,0.1765518635511398,-0.0852837413549423,32.20359802246094,93.22396850585938,-39.52969360351562
165548,-0.715789794921875,1.052474975585938,-0.0735626220703125,1.122775077819824,0.2656010389328003,-0.1523394733667374,32.23585510253906,92.9847412109375,-39.96540832519531
165549,-0.715789794921875,1.052474975585938,-0.0735626220703125,1.122775077819824,0.2656010389328003,-0.1523394733667374,32.23585510253906,92.9847412109375,-39.96540832519531
165550,-0.6797943115234375,0.871978759765625,-0.097625732421875,1.054025411605835,0.1024502068758011,-0.1483354121446609,32.43939208984375,92.60848999023438,-40.99322509765625
165551,-0.6715087890625,0.80035400390625,-0.0989227294921875,0.9937857389450072,-0.1536934226751328,-0.114596351981163,32.48484802246094,92.47584533691406,-41.73231506347656
165552,-0.6715087890625,0.80035400390625,-0.0989227294921875,0.9937857389450072,-0.1536934226751328,-0.114596351981163,32.48484802246094,92.47584533691406,-41.73231506347656
165553,-0.6081390380859375,0.676300048828125,-0.07305908203125,0.8992514610290527,-0.7870075106620789,0.0104973819106817,32.65406799316406,91.8676300048828,-42.55747985839844
165554,-0.5694580078125,0.626983642578125,0.019012451171875,0.9140522480010986,-0.9064859747886658,0.0527897104620933,32.66445922851562,91.78280639648438,-43.01197814941406
165555,-0.5279998779296875,0.5686492919921875,0.11077880859375,0.9295111298561096,-0.8274475932121277,0.0571104250848293,32.59251403808594,91.45602416992188,-43.13441467285156
165556,-0.5279998779296875,0.5686492919921875,0.11077880859375,0.9295111298561096,-0.8274475932121277,0.0571104250848293,32.59251403808594,91.45602416992188,-43.13441467285156
165557,-0.4772491455078125,0.5027008056640625,0.158416748046875,0.937411904335022,-0.6773430705070496,0.0576379969716072,32.46675109863281,91.28483581542967,-43.31440734863281
165558,-0.3956298828125,0.3746337890625,0.18048095703125,0.8864107728004456,-0.2799048721790314,0.0261695515364408,32.51715087890625,90.5596160888672,-43.401123046875
165559,-0.380767822265625,0.315399169921875,0.1616668701171875,0.8262326717376709,-0.0996328517794609,0.0089966906234622,32.4869384765625,90.28289794921876,-43.59368896484375
165560,-0.380767822265625,0.315399169921875,0.1616668701171875,0.8262326717376709,-0.0996328517794609,0.0089966906234622,32.4869384765625,90.28289794921876,-43.59368896484375
165561,-0.3960418701171875,0.27825927734375,0.1174774169921875,0.7737566828727722,0.0859945341944694,-0.0143163548782467,32.51390075683594,89.98143005371094,-43.78936767578125
165562,-0.392913818359375,0.2645111083984375,0.0723114013671875,0.7316175103187561,0.1816768497228622,-0.0247716587036848,32.53392028808594,89.82243347167969,-44.25570678710938
165563,-0.342742919921875,0.3351593017578125,0.0751190185546875,0.566204309463501,0.1227384358644485,-0.0479904301464557,32.62565612792969,89.57057189941406,-45.08468627929688
165564,-0.342742919921875,0.3351593017578125,0.0751190185546875,0.566204309463501,0.1227384358644485,-0.0479904301464557,32.62565612792969,89.57057189941406,-45.08468627929688
165565,-0.28155517578125,0.402191162109375,0.1446533203125,0.0895639732480049,-0.0304164960980415,-0.0423186942934989,32.83314514160156,88.99076843261719,-45.77229309082031
165566,-0.31781005859375,0.4655914306640625,0.1718902587890625,-0.1604663729667664,-0.0366064794361591,0.0335502363741397,32.78543090820312,88.94425964355469,-45.9468994140625
165567,-0.4155731201171875,0.5464324951171875,0.177642822265625,-0.3235964477062225,0.037330862134695,0.0703455358743667,32.64840698242188,89.01910400390625,-45.98855590820312
165568,-0.4155731201171875,0.5464324951171875,0.177642822265625,-0.3235964477062225,0.037330862134695,0.0703455358743667,32.64840698242188,89.01910400390625,-45.98855590820312
165569,-0.552703857421875,0.6354217529296875,0.17388916015625,-0.5587636828422546,0.1030699238181114,0.0671838298439979,32.62884521484375,89.23356628417969,-45.91157531738281
165570,-0.5792999267578125,0.6599273681640625,0.185272216796875,-0.7067025303840637,0.1050198897719383,0.0586665086448192,32.62797546386719,89.39254760742188,-45.783203125
165571,-0.574432373046875,0.6910552978515625,0.2023162841796875,-0.8621512651443481,0.1046185567975044,0.0454857274889946,32.60946655273438,89.58303833007812,-45.55386352539062
165572,-0.5464019775390625,0.7467803955078125,0.23150634765625,-0.9988752603530884,0.1144599989056587,0.0005147890187799,32.67546081542969,89.82144165039062,-45.26841735839844
165573,-0.5464019775390625,0.7467803955078125,0.23150634765625,-0.9988752603530884,0.1144599989056587,0.0005147890187799,32.67546081542969,89.82144165039062,-45.26841735839844
165574,-0.5195770263671875,0.807586669921875,0.2880096435546875,-1.172177076339722,0.1026299744844437,-0.1261789798736572,32.61968994140625,90.2357940673828,-44.43336486816406
165575,-0.5347137451171875,0.8160858154296875,0.301971435546875,-1.241233825683594,0.05868461728096,-0.2093644142150879,32.50979614257812,90.5229034423828,-44.0703125
165576,-0.5347137451171875,0.8160858154296875,0.301971435546875,-1.241233825683594,0.05868461728096,-0.2093644142150879,32.50979614257812,90.5229034423828,-44.0703125
165577,-0.567291259765625,0.846832275390625,0.3144073486328125,-1.283273458480835,-0.0018865832826122,-0.3142748475074768,32.44151306152344,90.67001342773438,-43.65992736816406
165578,-0.6124267578125,0.880279541015625,0.3167572021484375,-1.317084908485413,-0.0340839326381683,-0.4359341561794281,32.29466247558594,90.93844604492188,-43.1728515625
165579,-0.710693359375,0.9398193359375,0.208160400390625,-1.373608946800232,-0.007301322184503,-0.6508922576904297,31.74642944335938,91.58732604980467,-42.17832946777344
165580,-0.710693359375,0.9398193359375,0.208160400390625,-1.373608946800232,-0.007301322184503,-0.6508922576904297,31.74642944335938,91.58732604980467,-42.17832946777344
165581,-0.7391815185546875,0.9397125244140624,0.010101318359375,-1.223219990730286,0.0790162533521652,-0.7202641367912292,30.99613952636719,92.12734985351562,-41.23419189453125
165582,-0.6963958740234375,0.9041900634765624,-0.067626953125,-1.087344169616699,0.1470578908920288,-0.7115271091461182,30.66452026367188,92.2854461669922,-40.60945129394531
165583,-0.638153076171875,0.88677978515625,-0.13934326171875,-0.9367666244506836,0.1881957352161407,-0.708914041519165,30.34947204589844,92.38571166992188,-40.03182983398438
165584,-0.638153076171875,0.88677978515625,-0.13934326171875,-0.9367666244506836,0.1881957352161407,-0.708914041519165,30.34947204589844,92.38571166992188,-40.03182983398438
165585,-0.5774383544921875,0.944183349609375,-0.3084259033203125,-0.7348878383636475,0.2586185038089752,-0.7391217350959778,29.63044738769531,92.47395324707033,-39.26832580566406
165586,-0.56390380859375,1.005828857421875,-0.3978271484375,-0.6695194840431213,0.1995932757854462,-0.7132406234741211,29.36088562011719,92.49505615234376,-38.96710205078125
165587,-0.565673828125,1.060012817382812,-0.450836181640625,-0.6297529339790344,0.1523437350988388,-0.657293438911438,29.05738830566406,92.36819458007812,-38.52670288085938
165588,-0.565673828125,1.060012817382812,-0.450836181640625,-0.6297529339790344,0.1523437350988388,-0.657293438911438,29.05738830566406,92.36819458007812,-38.52670288085938
165589,-0.5919189453125,1.098159790039062,-0.4496002197265625,-0.5104736685752869,0.2497890591621399,-0.426257848739624,28.44596862792969,92.23828125,-37.85426330566406
165590,-0.646240234375,1.085952758789062,-0.501373291015625,-0.4114525318145752,0.3358325958251953,-0.2605389058589935,28.19606018066406,92.19317626953124,-37.60551452636719
165591,-0.700408935546875,1.063705444335938,-0.603973388671875,-0.2734776139259338,0.3621640801429749,-0.061256967484951,28.15478515625,92.20750427246094,-37.45436096191406
165592,-0.700408935546875,1.063705444335938,-0.603973388671875,-0.2734776139259338,0.3621640801429749,-0.061256967484951,28.15478515625,92.20750427246094,-37.45436096191406
165593,-0.7290191650390625,1.058547973632812,-0.726165771484375,-0.1194385141134262,0.3659867644309998,0.1259757727384567,28.17222595214844,92.1041259765625,-37.34333801269531
165594,-0.7217864990234375,1.082107543945312,-0.8061676025390625,0.0260451827198267,0.4332403838634491,0.299394965171814,28.193115234375,92.10455322265624,-37.23431396484375
165595,-0.640655517578125,1.213394165039062,-0.8096466064453125,0.2044596672058105,0.7253755927085876,0.5024442076683044,28.49916076660156,92.13963317871094,-37.31063842773438
165596,-0.640655517578125,1.213394165039062,-0.8096466064453125,0.2044596672058105,0.7253755927085876,0.5024442076683044,28.49916076660156,92.13963317871094,-37.31063842773438
165597,-0.609344482421875,1.258941650390625,-0.741058349609375,0.2216940373182297,0.8882790207862854,0.5089542865753174,28.8770751953125,92.1674346923828,-37.3975830078125
165598,-0.617462158203125,1.264556884765625,-0.663360595703125,0.2600305080413818,1.006229639053345,0.4922714829444885,29.48663330078125,92.32582092285156,-38.024658203125
165599,-0.6205596923828125,1.233306884765625,-0.61865234375,0.2744672298431396,1.025127172470093,0.4657847285270691,29.86674499511719,92.5119171142578,-38.26744079589844
165600,-0.6205596923828125,1.233306884765625,-0.61865234375,0.2744672298431396,1.025127172470093,0.4657847285270691,29.86674499511719,92.5119171142578,-38.26744079589844
165601,-0.622833251953125,1.140106201171875,-0.525726318359375,0.3623150885105133,1.002580285072327,0.426337718963623,30.65599060058594,92.80702209472656,-38.77204895019531
165602,-0.622833251953125,1.140106201171875,-0.525726318359375,0.3623150885105133,1.002580285072327,0.426337718963623,30.65599060058594,92.80702209472656,-38.77204895019531
165603,-0.6631011962890625,1.107025146484375,-0.4276123046875,0.3102555871009827,0.6471782326698303,0.3075777888298035,31.38383483886719,92.992431640625,-39.3751220703125
165604,-0.6631011962890625,1.107025146484375,-0.4276123046875,0.3102555871009827,0.6471782326698303,0.3075777888298035,31.38383483886719,92.992431640625,-39.3751220703125
165605,-0.6651153564453125,0.888916015625,-0.217529296875,0.1902197450399399,0.1875270158052444,0.2758728563785553,31.97967529296875,93.13517761230467,-40.249267578125
165606,-0.65570068359375,0.8103485107421875,-0.0953216552734375,0.300699919462204,0.1740247905254364,0.3685103952884674,32.22357177734375,93.22872924804688,-40.46891784667969
165607,-0.6380462646484375,0.75274658203125,-0.0062103271484375,0.4349517226219177,0.2644891738891602,0.4748357534408569,32.47172546386719,93.31036376953124,-40.61398315429688
165608,-0.619476318359375,0.7017822265625,0.0075225830078125,0.5677664875984192,0.2455857992172241,0.5726438164710999,32.76322937011719,93.42219543457033,-40.80368041992188
165609,-0.619476318359375,0.7017822265625,0.0075225830078125,0.5677664875984192,0.2455857992172241,0.5726438164710999,32.76322937011719,93.42219543457033,-40.80368041992188
165610,-0.6073150634765625,0.6807861328125,0.027984619140625,0.6583150625228882,0.082091137766838,0.6707541346549988,33.06332397460938,93.3098602294922,-40.97915649414062
165611,-0.5557403564453125,0.6924285888671875,0.07012939453125,0.7149983048439026,-0.121175691485405,0.7348239421844482,33.57279968261719,93.24209594726562,-41.39944458007812
165612,-0.488067626953125,0.69671630859375,0.1461639404296875,0.7354564070701599,-0.1969088017940521,0.7228684425354004,33.98381042480469,93.01423645019533,-41.56472778320312
165613,-0.4271240234375,0.701812744140625,0.2256317138671875,0.6930676698684692,-0.1118375882506371,0.6980084180831909,34.37641906738281,92.87762451171876,-41.81239318847656
165614,-0.3513946533203125,0.69512939453125,0.2823638916015625,0.595049262046814,0.0862438082695007,0.6425837278366089,34.78109741210938,92.79403686523438,-42.14291381835938
165615,-0.279937744140625,0.6569976806640625,0.2982635498046875,0.4711243808269501,0.3577008843421936,0.5732014775276184,35.27601623535156,92.61726379394533,-42.361572265625
165616,-0.1722259521484375,0.509521484375,0.2672576904296875,0.3043561577796936,0.6518440842628479,0.5203465223312378,36.208251953125,92.41883850097656,-42.75497436523438
165617,-0.1722259521484375,0.509521484375,0.2672576904296875,0.3043561577796936,0.6518440842628479,0.5203465223312378,36.208251953125,92.41883850097656,-42.75497436523438
165618,-0.1522369384765625,0.46533203125,0.294647216796875,0.2541640996932983,0.7350449562072754,0.4916815757751465,36.61872863769531,92.36558532714844,-43.02279663085938
165619,-0.1568450927734375,0.4243621826171875,0.332916259765625,0.0179406516253948,0.8070245981216431,0.3905395269393921,37.52793884277344,92.18153381347656,-43.3026123046875
165620,-0.1568450927734375,0.4243621826171875,0.332916259765625,0.0179406516253948,0.8070245981216431,0.3905395269393921,37.52793884277344,92.18153381347656,-43.3026123046875
165621,-0.1998748779296875,0.4385223388671875,0.322296142578125,-0.1681000590324402,0.6806296706199646,0.3046666979789734,38.02000427246094,92.20298767089844,-43.51968383789062
165622,-0.2956695556640625,0.478240966796875,0.264404296875,-0.3469073474407196,0.3612841665744781,0.1890301108360291,38.46870422363281,92.28749084472656,-43.59616088867188
165623,-0.44659423828125,0.535919189453125,0.0867919921875,-0.6760255694389343,-0.3319934010505676,0.0047055394388735,39.0023193359375,92.30519104003906,-43.36224365234375
165624,-0.4677886962890625,0.5971221923828125,-0.0125732421875,-0.7814921140670776,-0.592801034450531,-0.1004166156053543,38.9793701171875,92.50042724609376,-43.21461486816406
165625,-0.4677886962890625,0.5971221923828125,-0.0125732421875,-0.7814921140670776,-0.592801034450531,-0.1004166156053543,38.9793701171875,92.50042724609376,-43.21461486816406
165626,-0.485321044921875,0.663818359375,-0.03668212890625,-0.8132830262184143,-0.6989186406135559,-0.2021515071392059,38.80104064941406,92.6919403076172,-42.89361572265625
165627,-0.4925994873046875,0.7517242431640625,0.0260467529296875,-0.7110605239868164,-0.2139178812503815,-0.349713534116745,38.22590637207031,93.14572143554688,-42.19731140136719
165628,-0.4925994873046875,0.7517242431640625,0.0260467529296875,-0.7110605239868164,-0.2139178812503815,-0.349713534116745,38.22590637207031,93.14572143554688,-42.19731140136719
165629,-0.4836273193359375,0.764251708984375,0.0590667724609375,-0.6629196405410767,0.1136288270354271,-0.3488765060901642,37.98359680175781,93.29890441894533,-41.79270935058594
165630,-0.4865875244140625,0.7656402587890625,0.08978271484375,-0.6767070889472961,0.3279405832290649,-0.3323494493961334,37.7279052734375,93.43196105957033,-41.44319152832031
165631,-0.497100830078125,0.721435546875,0.1067047119140625,-0.8124949932098389,0.2618100345134735,-0.3556545078754425,37.33444213867188,93.70774841308594,-40.88900756835938
165632,-0.497100830078125,0.721435546875,0.1067047119140625,-0.8124949932098389,0.2618100345134735,-0.3556545078754425,37.33444213867188,93.70774841308594,-40.88900756835938
165633,-0.497802734375,0.677520751953125,0.1009674072265625,-0.8522528409957886,0.1525517255067825,-0.3810517489910126,37.27626037597656,93.82786560058594,-40.56852722167969
165634,-0.4909515380859375,0.6443939208984375,0.072296142578125,-0.8227026462554932,0.0785949453711509,-0.4157300889492035,37.15975952148438,94.0976104736328,-40.32197570800781
165635,-0.489959716796875,0.6189117431640625,0.0606689453125,-0.7057507038116455,0.1076777279376984,-0.5268608927726746,36.70016479492188,94.33755493164062,-39.53369140625
165636,-0.489959716796875,0.6189117431640625,0.0606689453125,-0.7057507038116455,0.1076777279376984,-0.5268608927726746,36.70016479492188,94.33755493164062,-39.53369140625
165637,-0.493621826171875,0.609893798828125,0.06878662109375,-0.7134701609611511,0.1890434175729752,-0.5805635452270508,36.54469299316406,94.49104309082033,-39.13951110839844
165638,-0.499114990234375,0.6120758056640625,0.0605010986328125,-0.7672380805015564,0.2627344131469727,-0.6303728818893433,36.280029296875,94.62165832519533,-38.90798950195312
165639,-0.5644683837890625,0.7070465087890625,-0.0141143798828125,-0.8706459403038025,0.2640060782432556,-0.6910173296928406,35.69297790527344,94.80886840820312,-38.30699157714844
165640,-0.6037139892578125,0.7766876220703125,-0.058380126953125,-0.8298889398574829,0.2689984440803528,-0.7273843884468079,35.40567016601562,94.849609375,-37.94503784179688
165641,-0.6037139892578125,0.7766876220703125,-0.058380126953125,-0.8298889398574829,0.2689984440803528,-0.7273843884468079,35.40567016601562,94.849609375,-37.94503784179688
165642,-0.6140289306640625,0.82989501953125,-0.1139678955078125,-0.7622390389442444,0.2784510552883148,-0.7436482906341553,35.05654907226562,94.90538024902344,-37.48155212402344
165643,-0.6038665771484375,0.9569854736328124,-0.2258453369140625,-0.614478588104248,0.2475813031196594,-0.6604346632957458,34.3624267578125,95.01380920410156,-36.88613891601562
165644,-0.5955352783203125,1.046615600585938,-0.2447509765625,-0.5264217257499695,0.1808304935693741,-0.555525541305542,34.04289245605469,95.13728332519533,-36.58969116210938
165645,-0.5955352783203125,1.046615600585938,-0.2447509765625,-0.5264217257499695,0.1808304935693741,-0.555525541305542,34.04289245605469,95.13728332519533,-36.58969116210938
165646,-0.6161956787109375,1.155258178710938,-0.27642822265625,-0.291024923324585,0.1019908115267754,-0.4324179887771606,33.39431762695312,95.12931823730467,-36.02714538574219
165647,-0.6436004638671875,1.167800903320312,-0.3030548095703125,-0.1628384441137314,0.143473282456398,-0.4180086851119995,33.11647033691406,94.98942565917967,-35.75587463378906
165648,-0.6441497802734375,1.113296508789062,-0.366607666015625,-0.0356757044792175,0.1775412261486053,-0.3682461977005005,32.95681762695312,94.866455078125,-35.55769348144531
165649,-0.6441497802734375,1.113296508789062,-0.366607666015625,-0.0356757044792175,0.1775412261486053,-0.3682461977005005,32.95681762695312,94.866455078125,-35.55769348144531
165650,-0.5841827392578125,0.9505767822265624,-0.6415557861328125,0.2251500338315964,-0.0716952234506607,-0.1918029934167862,32.57537841796875,94.86691284179688,-35.36595153808594
165651,-0.5541839599609375,0.95098876953125,-0.7751617431640625,0.394056499004364,-0.2440299689769745,-0.0487100146710872,32.37161254882812,94.71852111816406,-35.47511291503906
165652,-0.5541839599609375,0.95098876953125,-0.7751617431640625,0.394056499004364,-0.2440299689769745,-0.0487100146710872,32.37161254882812,94.71852111816406,-35.47511291503906
165653,-0.52374267578125,1.04144287109375,-0.8690948486328125,0.5653752684593201,-0.3319371938705444,0.1141532063484192,32.381103515625,94.58432006835938,-35.57792663574219
165654,-0.492950439453125,1.200698852539062,-0.8826904296875,0.6784090995788574,-0.2518940269947052,0.2443772554397583,32.2803955078125,94.46604919433594,-35.58456420898438
165655,-0.478912353515625,1.471206665039062,-0.6990814208984375,0.5857340693473816,0.2158875614404678,0.2599940299987793,32.19560241699219,94.21133422851562,-35.83389282226562
165656,-0.478912353515625,1.471206665039062,-0.6990814208984375,0.5857340693473816,0.2158875614404678,0.2599940299987793,32.19560241699219,94.21133422851562,-35.83389282226562
165657,-0.5463104248046875,1.40423583984375,-0.5196075439453125,0.5377942323684692,0.2554179131984711,0.2807967662811279,32.38241577148438,94.16134643554688,-36.16804504394531
165658,-0.53570556640625,1.314193725585938,-0.5124053955078125,0.5496455430984497,0.2586065232753754,0.3904881179332733,32.62579345703125,94.14788818359376,-36.39218139648438
165659,-0.5034027099609375,1.24749755859375,-0.4853363037109375,0.4930022358894348,0.3512142300605774,0.4975040555000305,32.90829467773438,93.91195678710938,-36.5902099609375
165660,-0.5034027099609375,1.24749755859375,-0.4853363037109375,0.4930022358894348,0.3512142300605774,0.4975040555000305,32.90829467773438,93.91195678710938,-36.5902099609375
165661,-0.469390869140625,1.206527709960938,-0.4350738525390625,0.4337429106235504,0.434815376996994,0.5500282645225525,33.16229248046875,93.90757751464844,-36.88298034667969
165662,-0.4615936279296875,1.14599609375,-0.3137969970703125,0.453832745552063,0.4869645833969116,0.4473402202129364,33.65184020996094,94.1007080078125,-37.8858642578125
165663,-0.4924468994140625,1.125991821289062,-0.2953948974609375,0.511600136756897,0.4227770864963531,0.3250121772289276,33.95703125,94.21263122558594,-38.10455322265625
165664,-0.4924468994140625,1.125991821289062,-0.2953948974609375,0.511600136756897,0.4227770864963531,0.3250121772289276,33.95703125,94.21263122558594,-38.10455322265625
165665,-0.537200927734375,1.121109008789062,-0.2841339111328125,0.5504934787750244,0.3284684419631958,0.1774775832891464,34.2618408203125,94.13450622558594,-38.32310485839844
165666,-0.6396942138671875,1.09588623046875,-0.207733154296875,0.595644474029541,0.3373324871063232,-0.1448493301868439,34.75019836425781,94.12335205078124,-39.14607238769531
165667,-0.7216033935546875,1.06103515625,-0.1844635009765625,0.6824083924293518,0.3366440534591675,-0.2829238474369049,34.94985961914062,93.95028686523438,-39.29299926757812
165668,-0.7216033935546875,1.06103515625,-0.1844635009765625,0.6824083924293518,0.3366440534591675,-0.2829238474369049,34.94985961914062,93.95028686523438,-39.29299926757812
165669,-0.8094329833984375,1.019638061523438,-0.173919677734375,0.7302553057670593,0.272340714931488,-0.3062451481819153,35.05155944824219,93.84315490722656,-39.61628723144531
165670,-0.8535919189453125,0.8646392822265625,-0.1632232666015625,0.7245640754699707,-0.1526699662208557,-0.1316214054822922,35.19883728027344,93.74888610839844,-40.452880859375
165671,-0.8157501220703125,0.764495849609375,-0.1234893798828125,0.7391944527626038,-0.2851438522338867,0.0033004553988575,35.24986267089844,93.45098876953124,-40.68711853027344
165672,-0.8157501220703125,0.764495849609375,-0.1234893798828125,0.7391944527626038,-0.2851438522338867,0.0033004553988575,35.24986267089844,93.45098876953124,-40.68711853027344
165673,-0.751617431640625,0.6819610595703125,-0.05780029296875,0.818301796913147,-0.2380096316337585,0.1125364005565643,35.30853271484375,93.38807678222656,-40.99151611328125
165674,-0.6171417236328125,0.5224609375,0.052520751953125,0.8416094779968262,-0.026100043207407,0.1773659884929657,35.47267150878906,93.09542846679688,-41.40260314941406
165675,-0.5800933837890625,0.4340667724609375,0.07659912109375,0.7525544762611389,-0.0020551613997668,0.1656696647405624,35.61851501464844,92.90151977539062,-41.64578247070312
165676,-0.5800933837890625,0.4340667724609375,0.07659912109375,0.7525544762611389,-0.0020551613997668,0.1656696647405624,35.61851501464844,92.90151977539062,-41.64578247070312
165677,-0.5501251220703125,0.3570709228515625,0.11065673828125,0.6315265893936157,0.0241902917623519,0.1517407894134521,35.75448608398438,92.6956787109375,-42.04551696777344
165678,-0.5087890625,0.2741241455078125,0.1284942626953125,0.5063872933387756,0.2667139768600464,0.0617230199277401,36.10610961914062,92.28028869628906,-42.59814453125
165679,-0.4841156005859375,0.270263671875,0.0981597900390625,0.5375060439109802,0.4583529233932495,0.0115069868043065,36.22503662109375,92.11534118652344,-42.84181213378906
165680,-0.4841156005859375,0.270263671875,0.0981597900390625,0.5375060439109802,0.4583529233932495,0.0115069868043065,36.22503662109375,92.11534118652344,-42.84181213378906
165681,-0.4509124755859375,0.286346435546875,0.04901123046875,0.5359028577804565,0.5830868482589722,-0.0426196306943893,36.37083435058594,91.91497802734376,-43.09043884277344
165682,-0.3595123291015625,0.31866455078125,0.0269012451171875,0.2909175753593445,0.6251688003540039,-0.1439385265111923,36.67166137695312,91.69441223144533,-43.73333740234375
165683,-0.298095703125,0.3647003173828125,0.0582427978515625,0.10385662317276,0.5694059133529663,-0.1553376615047455,36.88003540039062,91.45466613769533,-44.07000732421875
165684,-0.298095703125,0.3647003173828125,0.0582427978515625,0.10385662317276,0.5694059133529663,-0.1553376615047455,36.88003540039062,91.45466613769533,-44.07000732421875
165685,-0.311492919921875,0.517364501953125,0.201934814453125,-0.2829086780548096,0.3931012153625488,-0.0238086599856615,37.14268493652344,91.23348999023438,-44.45343017578125
