time_idx,accelerometerAccelerationX(G),accelerometerAccelerationY(G),accelerometerAccelerationZ(G),gyroRotationX(rad/s),gyroRotationY(rad/s),gyroRotationZ(rad/s),magnetometerX(µT),magnetometerY(µT),magnetometerZ(µT)
30000,-0.015594482421875,0.99676513671875,-0.0196990966796875,-0.0023401195649057,0.009850500151515,-0.0153685696423053,71.693115234375,102.9617004394531,-3.69818115234375
30001,-0.0209808349609375,1.0003662109375,-0.018707275390625,0.0043223104439675,0.0206173937767744,-0.0185883324593305,71.72105407714844,102.8114166259766,-3.530181884765625
30002,-0.0209808349609375,1.0003662109375,-0.018707275390625,0.0043223104439675,0.0206173937767744,-0.0185883324593305,71.72105407714844,102.8114166259766,-3.530181884765625
30003,-0.021759033203125,1.000045776367188,-0.016815185546875,0.0033225596416741,0.0194501299411058,-0.0184013769030571,71.69903564453125,102.9398345947266,-3.594085693359375
30004,-0.02008056640625,0.9991302490234376,-0.015838623046875,0.0033225596416741,0.0194501299411058,-0.0184013769030571,71.72749328613281,103.0408325195312,-3.644866943359375
30005,-0.01849365234375,0.9955596923828124,-0.0159454345703125,0.0029955236241221,0.019349729642272,-0.0156167764216661,71.74871826171875,103.0054016113281,-3.668014526367188
30006,-0.0171051025390625,0.99420166015625,-0.0191802978515625,0.0086134616285562,0.0145424576476216,-0.014430871233344,71.73600769042969,102.9527435302734,-3.599258422851562
30007,-0.0153350830078125,0.9949798583984376,-0.021514892578125,0.009377522394061,0.0121109914034605,-0.0149959940463304,71.73777770996094,102.9785766601562,-3.719451904296875
30008,-0.013336181640625,0.993560791015625,-0.023406982421875,0.009377522394061,0.0121109914034605,-0.0149959940463304,71.67929077148438,102.9705352783203,-3.665771484375
30009,-0.012939453125,0.9930572509765624,-0.0254669189453125,0.0105261439457535,0.0095628788694739,-0.0128255169838666,71.66697692871094,102.9737854003906,-3.569854736328125
30010,-0.012603759765625,0.9944305419921876,-0.0244598388671875,0.0115290908142924,0.0048472196795046,-0.0131067475304007,71.6988525390625,102.8747406005859,-3.594482421875
30011,-0.01220703125,0.994476318359375,-0.0210418701171875,0.0090598072856664,0.000323840387864,-0.0135493641719222,71.69073486328125,102.9640655517578,-3.719192504882812
30012,-0.0105743408203125,0.9947357177734376,-0.0189971923828125,0.0090598072856664,0.000323840387864,-0.0135493641719222,71.67376708984375,102.8508911132812,-3.605331420898438
30013,-0.008514404296875,0.99530029296875,-0.0188140869140625,0.0061564296483993,0.0007400924805551,-0.0087080039083957,71.6822509765625,102.9080200195312,-3.543563842773438
30014,-0.009735107421875,0.9983367919921876,-0.0191802978515625,0.0061167483218014,-4.127899592276663e-05,-0.0091170659288764,71.75537109375,102.9483184814453,-3.719985961914062
30015,-0.011505126953125,1.000640869140625,-0.017486572265625,0.0099072251468896,0.0026021746452897,-0.0096105495467782,71.73541259765625,102.9678039550781,-3.662460327148438
30016,-0.0107269287109375,1.0006103515625,-0.0160675048828125,0.0081016020849347,0.0064698834903538,-0.0104086985811591,71.73956298828125,103.0472717285156,-3.683441162109375
30017,-0.0113677978515625,1.002334594726562,-0.0165557861328125,0.009287241846323,0.0033039175905287,-0.0082632564008235,71.7149658203125,103.0242462158203,-3.49737548828125
30018,-0.0106353759765625,1.00177001953125,-0.016387939453125,0.01133734267205,0.0013472931459546,-0.0083327647298574,71.74380493164062,103.0054626464844,-3.5345458984375
30019,-0.009033203125,0.99871826171875,-0.0180206298828125,0.01133734267205,0.0013472931459546,-0.0083327647298574,71.72137451171875,102.9152374267578,-3.604751586914062
30020,-0.0072479248046875,0.994720458984375,-0.0194854736328125,0.0116025935858488,-0.0080946777015924,-0.0103732785210013,71.77864074707031,102.8895568847656,-3.624969482421875
30021,-0.0057220458984375,0.9948577880859376,-0.019866943359375,0.0101809985935688,-0.0107304081320762,-0.0101873902603983,71.77610778808594,102.8929443359375,-3.491409301757812
30022,-0.006683349609375,0.993804931640625,-0.0195465087890625,0.0085468832403421,-0.011648666113615,-0.0060064936988055,71.76329040527344,102.8677978515625,-3.386138916015625
30023,-0.006683349609375,0.993804931640625,-0.0195465087890625,0.0085468832403421,-0.011648666113615,-0.0060064936988055,71.76329040527344,102.8677978515625,-3.386138916015625
30024,-0.0080413818359375,0.9928741455078124,-0.018585205078125,0.0085468832403421,-0.011648666113615,-0.0060064936988055,71.75340270996094,102.9580688476562,-3.517181396484375
30025,-0.011199951171875,0.996063232421875,-0.0144500732421875,0.0067740166559815,-0.0119924806058406,-0.0061329938471317,71.71806335449219,102.9666748046875,-3.716140747070312
30026,-0.011383056640625,0.996673583984375,-0.013275146484375,0.0042314967140555,-0.0140718771144747,-0.0028844696935266,71.74140930175781,102.93310546875,-3.53594970703125
30027,-0.011383056640625,0.996673583984375,-0.013275146484375,0.0042314967140555,-0.0140718771144747,-0.0028844696935266,71.74140930175781,102.93310546875,-3.53594970703125
30028,-0.0106048583984375,0.9974822998046876,-0.013916015625,0.0049542784690856,-0.0132705317810177,-0.0024296017363667,71.82627868652344,102.9514312744141,-3.438491821289062
30029,-0.0103607177734375,0.9970245361328124,-0.01324462890625,0.0049542784690856,-0.0132705317810177,-0.0024296017363667,71.77790832519531,102.9155120849609,-3.358261108398438
30030,-0.00921630859375,0.995513916015625,-0.01318359375,0.0080398172140121,-0.0062661515548825,9.480853623244911e-05,71.73521423339844,102.9652862548828,-3.314834594726562
30031,-0.0087890625,0.9933013916015624,-0.014068603515625,0.004546548705548,-0.0059843892231583,0.0006820355774834,71.73738098144531,102.9375,-3.429702758789062
30032,-0.007781982421875,0.9932861328125,-0.0147857666015625,0.004546548705548,-0.0059843892231583,0.0006820355774834,71.70112609863281,102.9424896240234,-3.437652587890625
30033,-0.008453369140625,0.99310302734375,-0.0159759521484375,0.0041497377678751,-0.0052938316948711,-0.0005568669876083,71.59628295898438,103.0159454345703,-3.436492919921875
30034,-0.00994873046875,0.995391845703125,-0.0174560546875,0.0052701295353472,-0.0027079021092504,0.0015691345324739,71.6416015625,102.9754638671875,-3.444671630859375
30035,-0.01129150390625,0.99658203125,-0.0173187255859375,0.0048634647391736,-0.0034237599465996,0.0020202740561217,71.67803955078125,103.0320281982422,-3.449630737304688
30036,-0.011993408203125,0.9978179931640624,-0.0167999267578125,0.0048634647391736,-0.0034237599465996,0.0020202740561217,71.681884765625,103.0929565429688,-3.371078491210938
30037,-0.01171875,0.998016357421875,-0.0158538818359375,0.0077647124417126,0.0001459412305848,0.0048975530080497,71.72848510742188,103.1196594238281,-3.279251098632812
30038,-0.01263427734375,0.9972381591796876,-0.013671875,0.0061122211627662,-0.0001645833544898,0.005143629387021,71.75151062011719,103.1047973632812,-3.305572509765625
30039,-0.0114288330078125,0.9983673095703124,-0.012847900390625,0.0061122211627662,-0.0001645833544898,0.005143629387021,71.69441223144531,103.1999816894531,-3.421600341796875
30040,-0.01092529296875,0.99822998046875,-0.010650634765625,0.0080073261633515,0.0014218616997823,0.0046645267866551,71.69139099121094,103.1938171386719,-3.427474975585938
30041,-0.0112457275390625,0.99755859375,-0.0103607177734375,0.0051007522270083,-0.0002809634897857,0.0030205573420971,71.74057006835938,103.169677734375,-3.464324951171875
30042,-0.01068115234375,0.9967498779296876,-0.01116943359375,0.0051007522270083,-0.0002809634897857,0.0030205573420971,71.76509094238281,103.1573333740234,-3.437911987304688
30043,-0.0103302001953125,0.9962615966796876,-0.0116119384765625,0.0033081786241382,0.0023150858469307,0.0023206786718219,71.77816772460938,103.1773071289062,-3.427947998046875
30044,-0.0102996826171875,0.9958648681640624,-0.01348876953125,0.0033081786241382,0.0023150858469307,0.0023206786718219,71.73265075683594,103.1092376708984,-3.300704956054688
30045,-0.01007080078125,0.995819091796875,-0.0142669677734375,-0.0015725966077297,0.0040125846862792,0.0018064221367239,71.68577575683594,103.1243591308594,-3.224716186523438
30046,-0.0105438232421875,0.9959564208984376,-0.0143280029296875,0.0017044231062754,0.0069114356301724,0.0031390679068863,71.7257080078125,103.035888671875,-3.014083862304688
30047,-0.0115203857421875,0.997772216796875,-0.013946533203125,0.0017044231062754,0.0069114356301724,0.0031390679068863,71.723876953125,102.8912963867188,-2.765838623046875
30048,-0.0137481689453125,0.9983062744140624,-0.013946533203125,0.002846652874723,0.0107027115300297,0.0021835258230566,71.75239562988281,102.9153289794922,-2.81890869140625
30049,-0.0153656005859375,0.9985809326171876,-0.0128021240234375,0.0028178908396512,0.0111924670636653,-0.000998685369268,71.69169616699219,103.1201171875,-3.1536865234375
30050,-0.01678466796875,0.9987640380859376,-0.0106201171875,0.0069180936552584,0.0135184722021222,-0.0009456885163672,71.74668884277344,103.0780181884766,-3.2862548828125
30051,-0.0171661376953125,0.997955322265625,-0.01153564453125,0.0051414989866316,0.0138564268127083,-0.0036674391012638,71.79576110839844,103.0084533691406,-3.416397094726562
30052,-0.0180816650390625,0.997833251953125,-0.01239013671875,0.0051414989866316,0.0138564268127083,-0.0036674391012638,71.71275329589844,102.9229125976562,-3.517578125
30053,-0.018951416015625,0.99951171875,-0.0139923095703125,0.0017694041598588,0.0151725616306066,-0.003738012863323,71.819580078125,102.7422943115234,-3.305984497070312
30054,-0.01666259765625,0.9967193603515624,-0.0183258056640625,0.0048876996152102,0.0151773551478982,-0.0080504696816205,71.69929504394531,102.9619750976562,-3.318679809570312
30055,-0.01666259765625,0.9967193603515624,-0.0183258056640625,0.0048876996152102,0.0151773551478982,-0.0080504696816205,71.69929504394531,102.9619750976562,-3.318679809570312
30056,-0.015716552734375,0.9961395263671876,-0.0161285400390625,0.0045121936127543,0.0203374959528446,-0.0094904405996203,71.70118713378906,103.0214996337891,-3.261383056640625
30057,-0.016143798828125,0.9970245361328124,-0.015167236328125,0.0043444144539535,0.0214565563946962,-0.0092289187014102,71.70448303222656,103.0179748535156,-3.2967529296875
30058,-0.0151214599609375,0.9971466064453124,-0.0134124755859375,0.0088249165564775,0.0251791235059499,-0.0084486119449138,71.74514770507812,102.9598693847656,-3.249237060546875
30059,-0.0128631591796875,0.997161865234375,-0.014739990234375,0.0049295113421976,0.0282228495925664,-0.010413758456707,71.78335571289062,102.8988494873047,-3.319580078125
30060,-0.013275146484375,0.9983673095703124,-0.01593017578125,0.0082480758428573,0.0292694717645645,-0.0115413414314389,71.75740051269531,102.8457183837891,-3.227432250976562
30061,-0.011138916015625,0.9970855712890624,-0.0161285400390625,0.0082480758428573,0.0292694717645645,-0.0115413414314389,71.80856323242188,102.8121948242188,-3.242111206054688
30062,-0.0113677978515625,0.99658203125,-0.0177154541015625,0.0072861425578594,0.0235500670969486,-0.0114566525444388,71.82563781738281,102.8558197021484,-3.237747192382812
30063,-0.011444091796875,0.997100830078125,-0.01837158203125,0.0077362167648971,0.0224294085055589,-0.0109373359009623,71.79161071777344,102.8190612792969,-3.297592163085938
30064,-0.0105743408203125,0.9980621337890624,-0.0201416015625,0.0076315542683005,0.0190956629812717,-0.0127469543367624,71.80558776855469,102.9117584228516,-3.298248291015625
30065,-0.010345458984375,0.99676513671875,-0.0204315185546875,0.0058235344476997,0.0172932371497154,-0.010605240240693,71.75762939453125,102.9926910400391,-3.224288940429688
30066,-0.0107421875,0.99493408203125,-0.020538330078125,0.0099386507645249,0.011755459010601,-0.0166799109429121,71.81263732910156,103.0481414794922,-3.208160400390625
30067,-0.0113983154296875,0.9949188232421876,-0.0187530517578125,0.0137877175584435,0.0167470220476388,-0.012076636776328,71.78140258789062,103.0267333984375,-3.25946044921875
30068,-0.01153564453125,0.99603271484375,-0.0177001953125,0.0103759421035647,0.0183614306151866,-0.0130007537081837,71.78102111816406,102.8938140869141,-3.264175415039062
30069,-0.011444091796875,0.99737548828125,-0.0146942138671875,0.0054384414106607,0.0164391603320837,-0.0141680166125297,71.77520751953125,102.8123931884766,-3.315109252929688
30070,-0.011444091796875,0.99737548828125,-0.0146942138671875,0.0054384414106607,0.0164391603320837,-0.0141680166125297,71.77520751953125,102.8123931884766,-3.315109252929688
30071,-0.010894775390625,0.9972076416015624,-0.012725830078125,0.0080715082585811,0.0143531067296862,-0.0157539285719394,71.78401184082031,102.8230438232422,-3.324111938476562
30072,-0.010772705078125,0.99493408203125,-0.013397216796875,0.0081274351105093,0.0177552942186594,-0.0134447021409869,71.78254699707031,102.9011077880859,-3.307525634765625
30073,-0.010894775390625,0.993988037109375,-0.0153045654296875,0.0091847097501158,0.0150090428069233,-0.0118657145649194,71.71592712402344,102.9373168945312,-3.274459838867188
30074,-0.01080322265625,0.99481201171875,-0.0161285400390625,0.0112348115071654,0.0127986194565892,-0.0127291111275553,71.73483276367188,102.8564453125,-3.31463623046875
30075,-0.01019287109375,0.997283935546875,-0.0173187255859375,0.0089231878519058,0.0087093356996774,-0.0159273017197847,71.7725830078125,102.9352416992188,-3.230209350585938
30076,-0.00860595703125,0.9966888427734376,-0.019073486328125,0.0061548314988613,0.0104185519739985,-0.0124044716358184,71.77926635742188,102.9480743408203,-3.230926513671875
30077,-0.0076751708984375,0.9966278076171876,-0.019927978515625,0.0053289853967726,0.0086025428026914,-0.0107913948595523,71.72528076171875,103.0282592773438,-3.227371215820312
30078,-0.007354736328125,0.99542236328125,-0.020904541015625,0.0061569618992507,0.0060155480168759,-0.0112036522477865,71.72779846191406,103.1441040039062,-3.269515991210938
30079,-0.0070953369140625,0.9945068359375,-0.0179443359375,0.0029792783316224,0.0029451898299157,-0.0104755442589521,71.72959899902344,103.0205078125,-3.129180908203125
30080,-0.0068359375,0.9938812255859376,-0.0159149169921875,0.0003273024922236,0.0004988100845366,-0.008070177398622,71.79685974121094,102.9173126220703,-3.070053100585938
30081,-0.0075225830078125,0.99530029296875,-0.012176513671875,-0.0009608684922568,-0.0038040592335164,-0.0078350203111767,71.75914001464844,102.9490051269531,-3.150924682617188
30082,-0.0069732666015625,0.9956207275390624,-0.0100250244140625,-0.0025960493367165,-0.0050727892667055,-0.0070411316119134,71.71461486816406,103.0587768554688,-3.187713623046875
30083,-0.00640869140625,0.9952392578125,-0.0111236572265625,-0.0059455069713294,-0.0019595539197325,-0.0092648714780807,71.77215576171875,102.8999786376953,-3.11480712890625
30084,-0.0066680908203125,0.9978485107421876,-0.0124053955078125,-0.003589142113924,-0.0111466608941555,-0.0057969028130173,71.708251953125,102.9391479492188,-3.103530883789062
30085,-0.0078887939453125,0.9972381591796876,-0.0140533447265625,-0.0058184741064906,-0.0154902767390012,-0.0050629354082047,71.73928833007812,102.8146820068359,-2.847564697265625
30086,-0.0078887939453125,0.9972381591796876,-0.0140533447265625,-0.0058184741064906,-0.0154902767390012,-0.0050629354082047,71.73928833007812,102.8146820068359,-2.847564697265625
30087,-0.0073089599609375,0.995635986328125,-0.0147552490234375,-0.006959372665733,-0.0175544917583465,-0.0057702711783349,71.78166198730469,102.8515014648438,-3.010543823242188
30088,-0.0075531005859375,0.995513916015625,-0.0165863037109375,-0.0036152412649244,-0.0165712535381317,-0.005707686766982,71.71090698242188,102.8603973388672,-3.1634521484375
30089,-0.0089111328125,0.9949798583984376,-0.0110626220703125,-0.008607336319983,-0.0199595931917429,-0.0054962318390607,71.74763488769531,102.9524078369141,-3.111907958984375
30090,-0.0089111328125,0.9949798583984376,-0.0110626220703125,-0.008607336319983,-0.0199595931917429,-0.0054962318390607,71.74763488769531,102.9524078369141,-3.111907958984375
30091,-0.0097808837890625,0.99560546875,-0.009979248046875,-0.0073220948688685,-0.0182027053087949,-0.0057537592947483,71.71028137207031,102.8753967285156,-3.1064453125
30092,-0.01171875,0.9959259033203124,-0.0081329345703125,-0.0083285039290785,-0.0166721865534782,-0.0042328280396759,71.70899963378906,102.9343719482422,-3.134918212890625
30093,-0.011474609375,0.996551513671875,-0.0077667236328125,-0.0084475465118885,-0.0173318516463041,-0.0042940811254084,71.72639465332031,102.9553070068359,-3.08856201171875
30094,-0.0127716064453125,0.996429443359375,-0.008148193359375,-0.0084475465118885,-0.0173318516463041,-0.0042940811254084,71.74128723144531,102.9455413818359,-3.090713500976562
30095,-0.0130157470703125,0.9966583251953124,-0.0092620849609375,-0.0109599726274609,-0.0146793434396386,-0.004644020460546,71.75314331054688,102.9860992431641,-3.115142822265625
30096,-0.01239013671875,0.9966888427734376,-0.0111083984375,-0.0069311428815126,-0.0120026003569364,-0.0089532807469367,71.74543762207031,103.0343017578125,-3.147628784179688
30097,-0.012969970703125,0.995574951171875,-0.0113677978515625,-0.0079431440681219,-0.0118768997490406,-0.0029931266326457,71.80108642578125,102.9898681640625,-3.141754150390625
30098,-0.0135650634765625,0.9962921142578124,-0.0099334716796875,-0.0079431440681219,-0.0118768997490406,-0.0029931266326457,71.71295166015625,102.9600219726562,-3.16558837890625
30099,-0.0138092041015625,0.9972381591796876,-0.0109100341796875,-0.0102747417986393,-0.0110739562660455,-0.0052315136417746,71.68983459472656,102.8733978271484,-3.055007934570312
30100,-0.014739990234375,0.998443603515625,-0.0120391845703125,-0.0102747417986393,-0.0110739562660455,-0.0052315136417746,71.71321105957031,102.8968811035156,-2.973953247070312
30101,-0.0161895751953125,1.00103759765625,-0.012847900390625,-0.0028951223939657,-0.0023465112317353,-0.0081479409709572,71.71644592285156,102.9346923828125,-2.917343139648438
30102,-0.0169525146484375,0.9986572265625,-0.0133209228515625,-0.0028951223939657,-0.0023465112317353,-0.0081479409709572,71.76248168945312,102.9783630371094,-2.943878173828125
30103,-0.01629638671875,0.9969940185546876,-0.01287841796875,-0.0045681199990212,-0.0002300971100339,-0.0066818711347877,71.77301025390625,102.8341827392578,-2.984024047851562
30104,-0.01519775390625,0.9971466064453124,-0.01141357421875,-0.001948102377355,0.0021387846209108,-0.0060331248678267,71.76365661621094,102.9226226806641,-3.061050415039062
30105,-0.0135498046875,0.99652099609375,-0.01129150390625,-0.0042171156965196,0.0003653856983873,-0.0067495154216885,71.76771545410156,102.9039459228516,-3.020095825195312
30106,-0.011505126953125,0.99542236328125,-0.009918212890625,-0.0042645200155675,0.0038266961928457,-0.0056182043626904,71.77813720703125,102.9587554931641,-3.036544799804688
30107,-0.011505126953125,0.99542236328125,-0.009918212890625,-0.0042645200155675,0.0038266961928457,-0.0056182043626904,71.77813720703125,102.9587554931641,-3.036544799804688
30108,-0.0102691650390625,0.9971160888671876,-0.0099945068359375,-0.0042645200155675,0.0038266961928457,-0.0056182043626904,71.71299743652344,102.9125823974609,-3.037750244140625
30109,-0.00860595703125,0.996185302734375,-0.0122833251953125,-0.0067409933544695,0.0018602180061861,-0.0051918323151767,71.66770935058594,102.966796875,-3.099838256835938
30110,-0.00860595703125,0.996185302734375,-0.0122833251953125,-0.0067409933544695,0.0018602180061861,-0.0051918323151767,71.66770935058594,102.966796875,-3.099838256835938
30111,-0.0093994140625,0.9965362548828124,-0.0126953125,-0.0049835732206702,0.008488293737173,-0.0070661650970578,71.75224304199219,102.9780120849609,-3.024032592773438
30112,-0.0101776123046875,0.99786376953125,-0.0104217529296875,-0.0026961842086166,0.0045433528721332,-0.0089538134634494,71.74002075195312,102.9801177978516,-3.046829223632812
30113,-0.0113677978515625,0.9984893798828124,-0.0086517333984375,-0.0048525459133088,0.0047872983850538,-0.0072235581465065,71.76466369628906,102.8736267089844,-3.08197021484375
30114,-0.011993408203125,0.9971466064453124,-0.0092620849609375,-0.0052701295353472,0.0100630205124616,-0.0110111059620976,71.69764709472656,102.9179229736328,-3.10906982421875
30115,-0.0132598876953125,0.99560546875,-0.0091705322265625,-0.0060538975521922,0.0111637050285935,-0.006384395994246,71.66024780273438,102.9944610595703,-3.154022216796875
30116,-0.014373779296875,0.9950408935546876,-0.0098724365234375,-0.001071389648132,0.0107850031927228,-0.0101812649518251,71.55197143554688,102.8980560302734,-3.092559814453125
30117,-0.0143890380859375,0.99371337890625,-0.0119781494140625,-0.0002213086845586,0.0056477654725313,-0.0106784766539931,71.58255004882812,102.8664855957031,-2.97576904296875
30118,-0.012176513671875,0.9954071044921876,-0.0107879638671875,0.0034735610242933,0.0040996703319251,-0.0092206625267863,71.781494140625,102.7521667480469,-2.927932739257812
30119,-0.0105438232421875,0.9961700439453124,-0.01092529296875,0.0044818338938057,0.0031779501587152,-0.0098046939820051,71.78231811523438,102.7968902587891,-2.826995849609375
30120,-0.0104522705078125,0.9979095458984376,-0.01025390625,0.0060821273364126,0.0002346244873479,-0.0078001325018703,71.75320434570312,102.8075714111328,-2.816162109375
30121,-0.01019287109375,0.996246337890625,-0.010589599609375,0.0057257963344454,-0.0032250881195068,-0.0086944214999675,71.75202941894531,102.8046569824219,-2.817947387695312
30122,-0.0115203857421875,0.9970550537109376,-0.0094757080078125,0.0036847495939582,0.0018767296569421,-0.009507218375802,71.78657531738281,102.7972564697266,-2.914474487304688
30123,-0.0116119384765625,0.9976654052734376,-0.0070037841796875,0.0036847495939582,0.0018767296569421,-0.009507218375802,71.76017761230469,102.8610229492188,-2.944442749023438
30124,-0.012481689453125,1.000274658203125,-0.005126953125,-0.0002130528882844,0.0043787695467472,-0.0107280118390917,71.75057983398438,102.8144989013672,-2.9539794921875
30125,-0.011383056640625,0.9997100830078124,-0.00823974609375,-0.0040799626149237,0.0073732277378439,-0.0084265079349279,71.63734436035156,102.7749633789062,-2.799331665039062
30126,-0.011383056640625,0.9997100830078124,-0.00823974609375,-0.0040799626149237,0.0073732277378439,-0.0084265079349279,71.63734436035156,102.7749633789062,-2.799331665039062
30127,-0.0125732421875,0.999603271484375,-0.0103607177734375,-0.0040799626149237,0.0073732277378439,-0.0084265079349279,71.68962097167969,102.7903594970703,-2.821990966796875
30128,-0.013153076171875,0.9978179931640624,-0.0146484375,-0.0025827335193753,0.0021246699616312,-0.0096920421347022,71.75968933105469,102.8324432373047,-2.825408935546875
30129,-0.0122833251953125,0.9966583251953124,-0.012939453125,-0.0036724992096424,-0.0004956142511218,-0.008020375855267,71.7650146484375,102.7535247802734,-2.632553100585938
30130,-0.0122528076171875,0.9964447021484376,-0.01043701171875,-0.0017414409667253,-0.0065361959859728,-0.0061833271756768,71.64739990234375,102.8758239746094,-2.724563598632812
30131,-0.0115203857421875,0.9951934814453124,-0.01025390625,-0.003345729317516,-0.0079223718494176,-0.0100268013775348,71.62104797363281,102.90380859375,-2.712448120117188
30132,-0.0093536376953125,0.99468994140625,-0.010223388671875,-0.003345729317516,-0.0079223718494176,-0.0100268013775348,71.70437622070312,102.8473358154297,-2.743515014648438
30133,-0.0098419189453125,0.9964447021484376,-0.01007080078125,-0.0071095749735832,-0.0046892939135432,-0.0096845850348472,71.71662902832031,102.8726959228516,-2.684722900390625
30134,-0.0077056884765625,0.999542236328125,-0.0037841796875,0.0006823018775321,0.0026831347495317,-0.0108161624521017,71.68196105957031,102.96240234375,-2.65826416015625
30135,-0.0077056884765625,0.999542236328125,-0.0037841796875,0.0006823018775321,0.0026831347495317,-0.0108161624521017,71.68196105957031,102.96240234375,-2.65826416015625
30136,-0.00927734375,0.998626708984375,0.0041046142578125,-0.000964596925769,0.0082051996141672,-0.0140969101339578,71.66839599609375,102.82421875,-2.588394165039062
30137,-0.00927734375,0.998626708984375,0.0041046142578125,-0.000964596925769,0.0082051996141672,-0.0140969101339578,71.66839599609375,102.82421875,-2.588394165039062
30138,-0.00958251953125,0.9967498779296876,0.0025634765625,-0.0065188854932785,0.011673167347908,-0.012572250328958,71.67509460449219,102.8152160644531,-2.6201171875
30139,-0.0101318359375,0.9956817626953124,-0.00225830078125,-0.0068259481340646,0.0071615064516663,-0.0091753890737891,71.61563110351562,102.8202819824219,-2.678970336914062
30140,-0.00848388671875,0.99658203125,-0.01300048828125,-0.0012381036067381,0.0064477794803678,-0.0090571446344256,71.60096740722656,102.9186859130859,-2.64593505859375
30141,-0.007720947265625,0.9946746826171876,-0.01483154296875,-0.0002492718631401,0.0022575615439563,-0.0077641797251999,71.60595703125,102.8920593261719,-2.667495727539062
30142,-0.0071258544921875,0.994964599609375,-0.0130157470703125,-0.0032168321777135,-0.0032442628871649,-0.0068134311586618,71.61227416992188,102.841552734375,-2.59075927734375
30143,-0.0071258544921875,0.994964599609375,-0.0130157470703125,-0.0032168321777135,-0.0032442628871649,-0.0068134311586618,71.61227416992188,102.841552734375,-2.59075927734375
30144,-0.0069732666015625,0.9944000244140624,-0.0117950439453125,-0.0032168321777135,-0.0032442628871649,-0.0068134311586618,71.65086364746094,102.854248046875,-2.609466552734375
30145,-0.0071563720703125,0.9941864013671876,-0.0103912353515625,-0.0050996872596442,-0.0036013927310705,-0.0033350766170769,71.77609252929688,102.817138671875,-2.573272705078125
30146,-0.0086517333984375,0.9947509765625,-0.0093841552734375,-0.0093948328867554,-0.0120247052982449,-0.004824848845601,71.77386474609375,102.7744598388672,-2.42718505859375
30147,-0.009307861328125,0.99713134765625,-0.005706787109375,-0.0093948328867554,-0.0120247052982449,-0.004824848845601,71.76914978027344,102.7752990722656,-2.478485107421875
30148,-0.008697509765625,0.9966888427734376,-0.0025634765625,-0.0060203419998288,-0.012018047273159,-0.0048874332569539,71.69192504882812,102.8931579589844,-2.675338745117188
30149,-0.0095367431640625,0.995574951171875,-0.002593994140625,-0.004416053649038,-0.0094353137537837,-0.0046019423753023,71.72737121582031,102.8548431396484,-2.593841552734375
30150,-0.0095367431640625,0.995574951171875,-0.002593994140625,-0.004416053649038,-0.0094353137537837,-0.0046019423753023,71.72737121582031,102.8548431396484,-2.593841552734375
30151,-0.0106964111328125,0.9963226318359376,-0.006378173828125,-0.0097234677523374,-0.0174445044249296,-0.0042043323628604,71.74760437011719,102.8678894042969,-2.550735473632812
30152,-0.010406494140625,0.9978485107421876,-0.0088958740234375,-0.0095538236200809,-0.0199316293001174,-0.0036453348584473,71.74723815917969,103.0137176513672,-2.676239013671875
30153,-0.0110015869140625,0.9989166259765624,-0.01220703125,-0.0060626859776675,-0.0219473764300346,-0.0061689461581408,71.71249389648438,102.9782257080078,-2.615737915039062
30154,-0.011932373046875,0.998626708984375,-0.0108184814453125,-0.003451723139733,-0.0189404021948576,-0.0065287393517792,71.77256774902344,102.8671112060547,-2.697219848632812
30155,-0.013824462890625,0.997802734375,-0.0053558349609375,0.0008897621301002,-0.0145965190604329,-0.0067412597127258,71.77587890625,102.8917388916016,-2.838943481445312
30156,-0.015594482421875,0.997314453125,0.00030517578125,0.0008897621301002,-0.0145965190604329,-0.0067412597127258,71.65678405761719,102.8632659912109,-2.903717041015625
30157,-0.015899658203125,0.9964447021484376,0.00244140625,-0.0015206650132313,-0.0143073005601763,-0.0076302229426801,71.77729797363281,102.8985595703125,-2.857284545898438
30158,-0.0157012939453125,0.9962005615234376,0.0048065185546875,-0.005266667343676,-0.0158426128327846,-0.0064789382740855,71.7694091796875,102.8734436035156,-2.673294067382812
30159,-0.0139617919921875,0.997802734375,0.0020294189453125,-0.008503739722073,-0.0134734641760587,-0.0057044909335672,71.74073791503906,102.7713775634766,-2.565292358398438
30160,-0.012725830078125,0.9981231689453124,-0.0012359619140625,-0.0106896618381142,-0.0110220247879624,-0.0058187404647469,71.73481750488281,103.0140838623047,-2.85064697265625
30161,-0.012725830078125,0.9981231689453124,-0.0012359619140625,-0.0106896618381142,-0.0110220247879624,-0.0058187404647469,71.73481750488281,103.0140838623047,-2.85064697265625
30162,-0.012237548828125,0.99993896484375,-0.0028076171875,-0.0098409131169319,-0.0080656493082642,-0.0046946201473474,71.68141174316406,103.0074920654297,-2.749160766601562
30163,-0.0111083984375,0.9984130859375,-0.0016021728515625,-0.0098409131169319,-0.0080656493082642,-0.0046946201473474,71.65390014648438,103.0382080078125,-2.737899780273438
30164,-0.011749267578125,0.9964752197265624,-0.000823974609375,-0.004694087896496,-0.0093245254829525,-0.004850149154663,71.67604064941406,102.9871826171875,-2.71197509765625
30165,-0.010284423828125,0.995574951171875,0.0013580322265625,-0.010400709696114,-0.0152660384774208,-0.0059702745638787,71.75930786132812,102.9697113037109,-2.4464111328125
30166,-0.010284423828125,0.995574951171875,0.0013580322265625,-0.010400709696114,-0.0152660384774208,-0.0059702745638787,71.75930786132812,102.9697113037109,-2.4464111328125
30167,-0.010223388671875,0.995574951171875,0.0027618408203125,-0.010400709696114,-0.0152660384774208,-0.0059702745638787,71.73698425292969,102.9209899902344,-2.528182983398438
30168,-0.0106964111328125,0.9954681396484376,0.00469970703125,-0.0174844507128,-0.0186197571456432,-0.0056368466466665,71.69747924804688,102.9058227539062,-2.550704956054688
30169,-0.0107879638671875,0.9958953857421876,0.004241943359375,-0.0174844507128,-0.0186197571456432,-0.0056368466466665,71.65553283691406,102.909423828125,-2.663848876953125
30170,-0.0098114013671875,0.99713134765625,0.0032806396484375,-0.0168018825352191,-0.0173928383737802,-0.0042120553553104,71.70933532714844,102.9339904785156,-2.711166381835938
30171,-0.0098114013671875,0.99713134765625,0.0032806396484375,-0.0168018825352191,-0.0173928383737802,-0.0042120553553104,71.70933532714844,102.9339904785156,-2.711166381835938
30172,-0.0096435546875,0.9966583251953124,0.0035400390625,-0.0149049134925007,-0.017829330638051,-0.0028527781832963,71.64852905273438,102.9281616210938,-2.803939819335938
30173,-0.008880615234375,0.9967041015625,0.00372314453125,-0.0114902080968022,-0.019326826557517,-0.0034349451307207,71.69287109375,103.0342712402344,-2.6759033203125
30174,-0.0091705322265625,0.997802734375,0.0028076171875,-0.013415141031146,-0.0161504745483398,-0.0054054181091487,71.62007141113281,103.0591278076172,-2.551910400390625
30175,-0.0106353759765625,0.9970855712890624,0.0032501220703125,-0.013415141031146,-0.0161504745483398,-0.0054054181091487,71.62239074707031,103.0909881591797,-2.508575439453125
30176,-0.0108489990234375,0.9969329833984376,0.0041046142578125,-0.0101794004440307,-0.0146838715299964,-0.0065729478374123,71.66584777832031,102.9091644287109,-2.524261474609375
30177,-0.0115509033203125,0.99676513671875,0.0033721923828125,-0.0111349429935216,-0.0166245158761739,-0.0068304752930998,71.70106506347656,102.9084320068359,-2.529678344726562
30178,-0.012786865234375,0.9970245361328124,0.0030059814453125,-0.0095996307209134,-0.0210243258625268,-0.0081210434436798,71.70068359375,102.9450531005859,-2.551437377929688
30179,-0.013427734375,0.9981689453125,0.00213623046875,-0.0047143278643488,-0.0243370309472084,-0.0097775291651487,71.69593811035156,103.0039215087891,-2.619171142578125
30180,-0.0150909423828125,0.9976043701171876,0.001495361328125,-0.0047143278643488,-0.0243370309472084,-0.0097775291651487,71.68269348144531,102.9866638183594,-2.641891479492188
30181,-0.0164337158203125,0.99639892578125,0.0036468505859375,-0.0031041805632412,-0.0235620513558387,-0.0103237442672252,71.67274475097656,102.8843383789062,-2.482498168945312
30182,-0.0164947509765625,0.996673583984375,0.0033721923828125,-0.0004053331213071,-0.0226746853441,-0.0129887694492936,71.69064331054688,102.6776733398438,-2.348541259765625
30183,-0.0161285400390625,0.9976806640625,0.0019073486328125,-0.0004053331213071,-0.0226746853441,-0.0129887694492936,71.58946228027344,102.6137390136719,-2.322174072265625
30184,-0.0157012939453125,0.997894287109375,0.001251220703125,-0.0009313074406236,-0.0232882779091596,-0.0121765052899718,71.60150146484375,102.752197265625,-2.36376953125
30185,-0.0142059326171875,0.996826171875,0.00115966796875,0.0013254552613943,-0.022537799552083,-0.0112774223089218,71.60369873046875,102.75634765625,-2.405166625976562
30186,-0.0138397216796875,0.9957275390625,0.0009918212890625,0.0064829331822693,-0.0178961753845214,-0.0094936368986964,71.62513732910156,102.8380126953125,-2.372360229492188
30187,-0.0127105712890625,0.99639892578125,0.00531005859375,0.0042871567420661,-0.0108121680095791,-0.0124398916959762,71.55082702636719,102.7562255859375,-2.385055541992188
30188,-0.01171875,0.9989776611328124,0.0065460205078125,0.0042871567420661,-0.0108121680095791,-0.0124398916959762,71.64898681640625,102.7553863525391,-2.515670776367188
30189,-0.0113525390625,0.996551513671875,0.006744384765625,0.0049018142744898,-0.0092233261093497,-0.010996458120644,71.59843444824219,102.6928100585938,-2.385498046875
30190,-0.0113525390625,0.996551513671875,0.006744384765625,0.0049018142744898,-0.0092233261093497,-0.010996458120644,71.59843444824219,102.6928100585938,-2.385498046875
30191,-0.011871337890625,0.997711181640625,0.004241943359375,0.0049457564018666,-0.0067108995281159,-0.013065468519926,71.58192443847656,102.7819061279297,-2.558731079101562
30192,-0.0129852294921875,0.9964752197265624,0.0022735595703125,0.0049457564018666,-0.0067108995281159,-0.013065468519926,71.606201171875,102.7725524902344,-2.5615234375
30193,-0.01373291015625,0.997314453125,0.001800537109375,0.0030210898257792,-0.005256547126919,-0.0122888907790184,71.54344177246094,102.9064483642578,-2.573959350585938
30194,-0.012969970703125,0.9985809326171876,-6.103515625e-05,0.0089106708765029,-0.0097887152805924,-0.011795406229794,71.59028625488281,102.9039154052734,-2.601043701171875
30195,-0.0132293701171875,0.9962615966796876,-1.52587890625e-05,0.0089106708765029,-0.0097887152805924,-0.011795406229794,71.53793334960938,102.8449096679688,-2.545761108398438
30196,-0.012481689453125,0.995391845703125,-0.002105712890625,0.0085173221305012,-0.0105541069060564,-0.0119541315361857,71.54002380371094,102.9342498779297,-2.677581787109375
30197,-0.0122833251953125,0.9972686767578124,0.0014801025390625,0.0119778327643871,-0.0086440881714224,-0.0117714386433363,71.614013671875,102.91943359375,-2.674697875976562
30198,-0.0122833251953125,0.9972686767578124,0.0014801025390625,0.0119778327643871,-0.0086440881714224,-0.0117714386433363,71.614013671875,102.91943359375,-2.674697875976562
30199,-0.0123291015625,0.99908447265625,0.002899169921875,0.00858283508569,-0.0018152105621993,-0.0092763230204582,71.62147521972656,102.93359375,-2.784866333007812
30200,-0.01348876953125,1.000289916992188,0.0055084228515625,0.00858283508569,-0.0018152105621993,-0.0092763230204582,71.54452514648438,102.9445190429688,-2.798492431640625
30201,-0.015777587890625,1.000778198242188,0.0040283203125,0.0162298362702131,-0.0003139867039863,-0.0109812784940004,71.55458068847656,102.8721160888672,-2.6396484375
30202,-0.015777587890625,1.000778198242188,0.0040283203125,0.0162298362702131,-0.0003139867039863,-0.0109812784940004,71.55458068847656,102.8721160888672,-2.6396484375
30203,-0.0155181884765625,0.9977264404296876,0.0027923583984375,0.0173654071986675,0.0016924388473853,-0.0149693619459867,71.56126403808594,102.8661804199219,-2.622665405273438
30204,-0.014617919921875,0.994659423828125,0.003204345703125,0.0173654071986675,0.0016924388473853,-0.0149693619459867,71.48432922363281,102.9065551757812,-2.66217041015625
30205,-0.0147705078125,0.9910736083984376,0.0018463134765625,0.0207870379090309,0.0030570426024496,-0.0126715870574116,71.52700805664062,102.8852081298828,-2.636703491210938
30206,-0.014068603515625,0.990203857421875,0.00201416015625,0.019709788262844,0.003948668949306,-0.0115402759984135,71.47166442871094,102.87109375,-2.577667236328125
30207,-0.014190673828125,0.9920806884765624,0.001312255859375,0.0201963484287262,0.0009422263829037,-0.0099543631076812,71.5302734375,102.8513641357422,-2.5814208984375
30208,-0.0125732421875,0.993316650390625,-0.0018310546875,0.0201963484287262,0.0009422263829037,-0.0099543631076812,71.46983337402344,102.8531188964844,-2.617095947265625
30209,-0.010772705078125,0.993896484375,-0.002838134765625,0.0190394707024097,0.0026743463240563,-0.0071029169484972,71.52244567871094,102.872802734375,-2.614837646484375
30210,-0.0097503662109375,0.99493408203125,-0.000213623046875,0.0150399357080459,-0.0003632551815826,-0.0066800070926547,71.47080993652344,102.8646240234375,-2.64825439453125
30211,-0.010009765625,0.9953765869140624,0.003143310546875,0.0148724233731627,0.003214701777324,-0.0080544641241431,71.48849487304688,102.8460998535156,-2.603073120117188
30212,-0.009246826171875,0.9956512451171876,0.00244140625,0.0111858090385794,0.0025824673939496,-0.0095812547951936,71.50335693359375,102.8597106933594,-2.702346801757812
30213,-0.0089569091796875,0.996795654296875,0.005615234375,0.0113248256966471,-0.0003017361450474,-0.009760751388967,71.51564025878906,102.8274536132812,-2.679519653320312
30214,-0.009063720703125,0.9986114501953124,0.0041046142578125,0.0112894056364893,0.0048703891225159,-0.0034906051587313,71.51045227050781,102.6187133789062,-2.45050048828125
30215,-0.01019287109375,0.9980926513671876,0.0025482177734375,0.012288624420762,0.0054443003609776,-0.0078214379027485,71.46127319335938,102.8486633300781,-2.562347412109375
30216,-0.0117950439453125,0.9963531494140624,0.00372314453125,0.0128968898206949,0.0064901234582066,-0.0076587186194956,71.51864624023438,102.9571228027344,-2.5894775390625
30217,-0.0121612548828125,0.994781494140625,0.0024261474609375,0.0169677976518869,0.0035015242174267,-0.0082544675096869,71.47444152832031,102.9743957519531,-2.771163940429688
30218,-0.0115814208984375,0.994140625,0.002349853515625,0.0176415778696537,-0.0010719223646447,-0.0106563726440072,71.47886657714844,102.9191284179688,-2.803665161132812
30219,-0.0128631591796875,0.9946441650390624,0.0019378662109375,0.0158692449331283,-0.0055894423276185,-0.0098552936688065,71.46998596191406,102.8715362548828,-2.722183227539062
30220,-0.0144805908203125,0.9926300048828124,0.0003814697265625,0.0152636412531137,-0.0026152241043746,-0.008781773969531,71.39830017089844,102.861083984375,-2.752792358398438
30221,-0.01654052734375,0.9925689697265624,-0.0004425048828125,0.0179782006889581,-0.0013113404856994,-0.009525061585009,71.39682006835938,102.8200073242188,-2.755767822265625
30222,-0.017822265625,0.99407958984375,-0.0009765625,0.0146814743056893,0.002386991167441,-0.0125264441594481,71.40435791015625,102.8069000244141,-2.848220825195312
30223,-0.0169525146484375,0.9946441650390624,-0.0005035400390625,0.0174074862152338,0.0051556136459112,-0.0098449075594544,71.37741088867188,102.8003082275391,-2.824951171875
30224,-0.0170745849609375,0.9965972900390624,6.103515625e-05,0.0138428453356027,0.0049444246105849,-0.0113232284784317,71.37483215332031,102.8717346191406,-2.8135986328125
30225,-0.0160675048828125,0.9974517822265624,0.0003509521484375,0.0145429903641343,0.0150958625599741,-0.010441455990076,71.43106079101562,102.8965148925781,-2.689590454101562
30226,-0.0160675048828125,0.9974517822265624,0.0003509521484375,0.0145429903641343,0.0150958625599741,-0.010441455990076,71.43106079101562,102.8965148925781,-2.689590454101562
30227,-0.01666259765625,0.9973907470703124,-0.0001220703125,0.0148255517706275,0.0129296472296118,-0.01258210465312,71.38972473144531,102.9419250488281,-2.755889892578125
30228,-0.0161895751953125,0.9968719482421876,-0.0008544921875,0.0225215535610914,0.0158559288829565,-0.0086797745898365,71.44964599609375,102.9359436035156,-2.702850341796875
30229,-0.015228271484375,0.995941162109375,-0.0015869140625,0.0206389650702476,0.0119559951126575,-0.0073359436355531,71.44706726074219,103.0831756591797,-2.709243774414062
30230,-0.015228271484375,0.995941162109375,-0.0015869140625,0.0206389650702476,0.0119559951126575,-0.0073359436355531,71.44706726074219,103.0831756591797,-2.709243774414062
30231,-0.0154571533203125,0.9951324462890624,-0.001495361328125,0.018851451575756,0.015450594946742,-0.0056240637786686,71.41329956054688,103.0567474365234,-2.766311645507812
30232,-0.0135955810546875,0.994232177734375,-0.00225830078125,0.0201159212738275,0.0137480366975069,-0.0047851679846644,71.43955993652344,103.0588684082031,-2.780670166015625
30233,-0.0107574462890625,0.9946136474609376,-0.00201416015625,0.0174804572016,0.0084057357162237,-0.003679423360154,71.46005249023438,103.0735321044922,-2.908889770507812
30234,-0.0107574462890625,0.9946136474609376,-0.00201416015625,0.0174804572016,0.0084057357162237,-0.003679423360154,71.46005249023438,103.0735321044922,-2.908889770507812
30235,-0.00946044921875,0.9969024658203124,-0.00408935546875,0.0174804572016,0.0084057357162237,-0.003679423360154,71.39706420898438,102.9523010253906,-2.959915161132812
30236,-0.0092010498046875,0.998138427734375,-0.002410888671875,0.0160050652921199,0.0129402996972203,-0.004472779110074,71.40042114257812,102.8363037109375,-2.841079711914062
30237,-0.00909423828125,1.000091552734375,-0.00201416015625,0.0174421072006225,0.0133464317768812,-0.0047353669069707,71.47224426269531,102.8268890380859,-2.821624755859375
30238,-0.0097808837890625,0.9995574951171876,6.103515625e-05,0.0167725887149572,0.0136180743575096,-0.0044096619822084,71.46759033203125,102.8614196777344,-2.771209716796875
30239,-0.009735107421875,0.997802734375,0.0016326904296875,0.0182644911110401,0.0165440887212753,-0.0070999874733388,71.47184753417969,102.9605102539062,-2.895492553710938
30240,-0.0090789794921875,0.9953765869140624,0.0003662109375,0.0136867836117744,0.0073481942526996,-0.0058664111420512,71.47354125976562,102.875244140625,-2.926620483398438
30241,-0.0090789794921875,0.9953765869140624,0.0003662109375,0.0136867836117744,0.0073481942526996,-0.0058664111420512,71.47354125976562,102.875244140625,-2.926620483398438
30242,-0.0087432861328125,0.9942779541015624,-0.0012359619140625,0.015498798340559,-0.0005400890368036,-0.0057455035857856,71.43887329101562,103.0133819580078,-2.8260498046875
30243,-0.0094146728515625,0.9959716796875,-0.00054931640625,0.015498798340559,-0.0005400890368036,-0.0057455035857856,71.45277404785156,103.0369567871094,-2.645462036132812
30244,-0.0114593505859375,0.99658203125,-0.0016937255859375,0.013651629909873,-0.004087686073035,-0.0068826735951006,71.52423095703125,102.8581695556641,-2.55670166015625
30245,-0.01531982421875,0.999420166015625,-0.0031585693359375,0.0168301127851009,-0.0036946034524589,-0.0060752029530704,71.63006591796875,102.5178833007812,-1.975921630859375
30246,-0.01531982421875,0.999420166015625,-0.0031585693359375,0.0168301127851009,-0.0036946034524589,-0.0060752029530704,71.63006591796875,102.5178833007812,-1.975921630859375
30247,-0.016998291015625,1.000595092773438,-0.006988525390625,0.0160769708454608,-0.0050458912737667,-0.0083343628793954,71.61376953125,102.5951690673828,-1.926910400390625
30248,-0.018402099609375,1.00048828125,-0.0093231201171875,0.0160769708454608,-0.0050458912737667,-0.0083343628793954,71.60252380371094,102.5962829589844,-2.11883544921875
30249,-0.0194549560546875,0.9975433349609376,-0.0098724365234375,0.0207907650619745,-0.006074936594814,-0.0066674901172518,71.58277893066406,102.7978515625,-2.317047119140625
30250,-0.019287109375,0.9956512451171876,-0.0080108642578125,0.0217977073043584,-0.0020841897930949,-0.0078286286443471,71.52194213867188,102.8451690673828,-2.554351806640625
30251,-0.0183258056640625,0.993438720703125,-0.0047760009765625,0.0217561610043048,-0.0007105313707143,-0.0074776238761842,71.50502014160156,102.8060150146484,-2.790496826171875
30252,-0.018829345703125,0.9924468994140624,-0.0027618408203125,0.0186213552951812,-0.00452950457111,-0.006180930417031,71.53385925292969,102.8462829589844,-2.890304565429688
30253,-0.01898193359375,0.9918365478515624,-0.0013885498046875,0.0183441191911697,0.0018836538074538,-0.0072139706462621,71.44436645507812,102.8466491699219,-2.792449951171875
30254,-0.016937255859375,0.992919921875,-0.0015869140625,0.016063654795289,0.0041819619946181,-0.006548180244863,71.44114685058594,102.7844848632812,-2.822036743164062
30255,-0.017303466796875,0.994232177734375,-0.00433349609375,0.0141989095136523,0.005323392804712,-0.0056142099201679,71.43789672851562,102.8679962158203,-2.774948120117188
30256,-0.017791748046875,0.9947509765625,-0.0050506591796875,0.0145461857318878,0.0091852424666285,-0.0028487835079431,71.46611022949219,102.9778289794922,-2.80865478515625
30257,-0.018402099609375,0.997100830078125,-0.0061187744140625,0.0144721502438187,0.0157027970999479,-0.0034549187403172,71.48403930664062,102.8774719238281,-2.753280639648438
30258,-0.0178985595703125,0.998992919921875,-0.007293701171875,0.0200291015207767,0.0091223921626806,-0.0058120829053223,71.46293640136719,102.8656768798828,-2.75799560546875
30259,-0.0161895751953125,1.001022338867188,-0.006927490234375,0.0200291015207767,0.0091223921626806,-0.0058120829053223,71.48466491699219,102.8175506591797,-2.966293334960938
30260,-0.014862060546875,1.000503540039062,-0.008026123046875,0.0210075471550226,0.0054067494347691,-0.0068395300768315,71.542724609375,102.9122314453125,-2.951736450195312
30261,-0.014373779296875,1.0008544921875,-0.00677490234375,0.0242249127477407,-0.0013158678775653,-0.0080376863479614,71.56951904296875,102.8355102539062,-2.830078125
30262,-0.011566162109375,0.9992828369140624,-0.0057525634765625,0.0242249127477407,-0.0013158678775653,-0.0080376863479614,71.57659912109375,102.8418884277344,-2.940155029296875
30263,-0.0093841552734375,0.9958343505859376,-0.004058837890625,0.0215281955897808,-0.0019558256026357,-0.0070057115517556,71.521484375,102.832275390625,-2.92169189453125
30264,-0.010223388671875,0.993560791015625,-0.0029754638671875,0.0228685643523931,-0.0034892736002802,-0.0055276569910347,71.46189880371094,102.9267120361328,-2.834823608398438
30265,-0.0161895751953125,0.99847412109375,-0.0023193359375,0.019201124086976,0.0054914383217692,-0.0072046495042741,71.45295715332031,102.9941101074219,-2.981704711914062
30266,-0.0161895751953125,0.99847412109375,-0.0023193359375,0.019201124086976,0.0054914383217692,-0.0072046495042741,71.45295715332031,102.9941101074219,-2.981704711914062
30267,-0.0189208984375,0.999542236328125,-0.0034637451171875,0.0195955391973257,0.0125621305778622,-0.0092504899948835,71.45353698730469,102.8780212402344,-2.971160888671875
30268,-0.0199127197265625,0.998565673828125,-0.0043182373046875,0.0195955391973257,0.0125621305778622,-0.0092504899948835,71.48567199707031,103.0030364990234,-2.905990600585938
30269,-0.020294189453125,0.99603271484375,-0.005218505859375,0.0226038452237844,0.0136164762079715,-0.008485097438097,71.595703125,102.8679656982422,-2.847549438476562
30270,-0.02020263671875,0.994049072265625,-0.00592041015625,0.0230909381061792,0.0190461296588182,-0.0121093932539224,71.56535339355469,102.8823852539062,-2.881210327148438
30271,-0.020843505859375,0.993621826171875,-0.00640869140625,0.0243346337229013,0.0165882967412471,-0.0083665866404771,71.49708557128906,102.8896179199219,-2.883590698242188
30272,-0.0209808349609375,0.9934234619140624,-0.00738525390625,0.0250648725777864,0.0173132102936506,-0.0088094705715775,71.50871276855469,102.8748779296875,-2.796096801757812
30273,-0.020965576171875,0.99462890625,-0.0093994140625,0.0232046544551849,0.0175672750920057,-0.0079588564112782,71.48786926269531,102.8645477294922,-2.933242797851562
30274,-0.0197601318359375,0.9947662353515624,-0.0099334716796875,0.0212174039334058,0.0153232961893081,-0.0103461146354675,71.49612426757812,102.8413543701172,-2.845199584960938
30275,-0.0186004638671875,0.99566650390625,-0.0100860595703125,0.0223218165338039,0.0195438731461763,-0.0081604579463601,71.4622802734375,102.9022216796875,-2.910720825195312
30276,-0.0175628662109375,0.9958953857421876,-0.0103759765625,0.0231130421161651,0.0154354153200984,-0.0064222128130495,71.51385498046875,102.8267669677734,-2.874191284179688
30277,-0.015625,0.9962310791015624,-0.01007080078125,0.0237817615270614,0.0166141297668218,-0.0045279064215719,71.5018310546875,102.7288055419922,-2.77545166015625
30278,-0.0136566162109375,0.9966888427734376,-0.0086669921875,0.022859776392579,0.0175600852817297,-0.0037334854714572,71.47975158691406,102.8009948730469,-2.797653198242188
30279,-0.013519287109375,0.9970703125,-0.009613037109375,0.022859776392579,0.0175600852817297,-0.0037334854714572,71.48475646972656,102.7383575439453,-2.952606201171875
30280,-0.012786865234375,0.99658203125,-0.0087738037109375,0.0223364643752574,0.0186285451054573,-0.0033143039327114,71.49311828613281,102.8601379394531,-3.061447143554688
30281,-0.01287841796875,0.9968414306640624,-0.0075836181640625,0.0223364643752574,0.0186285451054573,-0.0033143039327114,71.46119689941406,102.9647979736328,-3.151580810546875
30282,-0.0130157470703125,0.997467041015625,-0.00689697265625,0.0239982772618532,0.0164556726813316,-0.0034650389570742,71.44757080078125,103.0372161865234,-3.043441772460938
30283,-0.013092041015625,0.999542236328125,-0.0065460205078125,0.0180740747600793,0.0123842312023043,-0.0032804817892611,71.48312377929688,103.0980834960938,-3.172744750976562
30284,-0.011627197265625,0.9968414306640624,-0.0080718994140625,0.0180740747600793,0.0123842312023043,-0.0032804817892611,71.44412231445312,102.9816589355469,-3.11944580078125
30285,-0.0062713623046875,0.99212646484375,-0.0078277587890625,0.0142076984047889,-0.0009004147723317,-0.0013677994720637,71.47526550292969,102.9294738769531,-3.105499267578125
30286,-0.0062713623046875,0.99212646484375,-0.0078277587890625,0.0142076984047889,-0.0009004147723317,-0.0013677994720637,71.47526550292969,102.9294738769531,-3.105499267578125
30287,-0.0058441162109375,0.993072509765625,-0.0083160400390625,0.0142076984047889,-0.0009004147723317,-0.0013677994720637,71.48634338378906,102.8263092041016,-3.166763305664062
30288,-0.007568359375,0.993377685546875,-0.0085906982421875,0.0114816864952445,-0.0085785742849111,-0.0002849582233466,71.44309997558594,102.8643646240234,-3.09521484375
30289,-0.007568359375,0.993377685546875,-0.0085906982421875,0.0114816864952445,-0.0085785742849111,-0.0002849582233466,71.44309997558594,102.8643646240234,-3.09521484375
30290,-0.0088958740234375,0.99810791015625,-0.008148193359375,0.006753243971616,-0.013054815120995,-0.0011936287628486,71.51385498046875,102.8220977783203,-3.087921142578125
30291,-0.0105743408203125,0.9969940185546876,-0.0084381103515625,0.006753243971616,-0.013054815120995,-0.0011936287628486,71.39627075195312,102.9237060546875,-3.093460083007812
30292,-0.012237548828125,0.9958343505859376,-0.008880615234375,0.0069260830059647,-0.01205959264189,0.0024272049777209,71.51058959960938,102.8861694335938,-3.015701293945312
30293,-0.01629638671875,0.99713134765625,-0.011932373046875,0.0007060039788484,-0.0127967549487948,0.0023702133912593,71.48568725585938,102.7667083740234,-2.925750732421875
30294,-0.01629638671875,0.99713134765625,-0.011932373046875,0.0007060039788484,-0.0127967549487948,0.0023702133912593,71.48568725585938,102.7667083740234,-2.925750732421875
30295,-0.016876220703125,0.9967498779296876,-0.011505126953125,0.003801129758358,-0.0110957939177751,0.0016817862633615,71.57211303710938,102.8208618164062,-3.070663452148438
30296,-0.01690673828125,0.9966888427734376,-0.010650634765625,0.0064086308702826,-0.014862036332488,0.0043236417695879,71.51734924316406,102.8170471191406,-3.062591552734375
30297,-0.016876220703125,0.9964599609375,-0.012969970703125,0.00670424150303,-0.0087122647091746,0.006924751214683,71.56340026855469,102.9100036621094,-3.120407104492188
30298,-0.016876220703125,0.9964599609375,-0.012969970703125,0.00670424150303,-0.0087122647091746,0.006924751214683,71.56340026855469,102.9100036621094,-3.120407104492188
30299,-0.0161285400390625,0.996185302734375,-0.0115509033203125,0.00670424150303,-0.0087122647091746,0.006924751214683,71.56889343261719,102.9534912109375,-3.176116943359375
30300,-0.01519775390625,0.9960784912109376,-0.0115814208984375,0.0051620053127408,-0.0131176663562655,0.0053204633295536,71.5245361328125,102.9174499511719,-3.029541015625
30301,-0.012969970703125,0.99658203125,-0.0083465576171875,0.0058994344435632,-0.0151651045307517,0.0072307484224438,71.51264953613281,102.9738006591797,-3.184051513671875
30302,-0.012969970703125,0.99658203125,-0.0083465576171875,0.0058994344435632,-0.0151651045307517,0.0072307484224438,71.51264953613281,102.9738006591797,-3.184051513671875
30303,-0.012725830078125,0.9963836669921876,-0.009490966796875,0.0056839846074581,-0.0186091046780347,0.0038794267456978,71.50555419921875,102.9100646972656,-3.138031005859375
30304,-0.012237548828125,0.9962310791015624,-0.009796142578125,0.0028812738601118,-0.0165012124925851,0.0068579060025513,71.56584167480469,102.9603271484375,-3.129989624023438
30305,-0.012298583984375,0.9983673095703124,-0.012664794921875,0.0049769151955842,-0.0184983164072036,0.0060102217830717,71.670654296875,102.8916625976562,-2.910308837890625
30306,-0.012298583984375,0.9983673095703124,-0.012664794921875,0.0049769151955842,-0.0184983164072036,0.0060102217830717,71.670654296875,102.8916625976562,-2.910308837890625
30307,-0.0115509033203125,0.999664306640625,-0.0129241943359375,0.0067596356384456,-0.0207928959280252,0.0016018913593143,71.60203552246094,102.8680267333984,-2.983108520507812
30308,-0.0111083984375,0.999298095703125,-0.0112457275390625,0.0086680566892027,-0.0183569025248289,0.0022772690281271,71.63479614257812,102.9204711914062,-2.87860107421875
30309,-0.01129150390625,0.995941162109375,-0.0101165771484375,0.0086861662566661,-0.0191366765648126,0.0036738307680934,71.71334838867188,103.0525512695312,-2.604705810546875
30310,-0.01129150390625,0.995941162109375,-0.0101165771484375,0.0086861662566661,-0.0191366765648126,0.0036738307680934,71.71334838867188,103.0525512695312,-2.604705810546875
30311,-0.012725830078125,0.9981231689453124,-0.0094451904296875,0.0083775054663419,-0.0239391550421714,0.0046442868188023,71.64512634277344,103.0953216552734,-2.661590576171875
30312,-0.0127410888671875,0.999114990234375,-0.0084991455078125,0.0075873457826673,-0.0238355584442615,0.0024929849896579,71.55227661132812,103.0762634277344,-2.816680908203125
30313,-0.0137939453125,0.999847412109375,-0.00775146484375,0.0065705510787665,-0.0187846068292856,0.0016761935548856,71.73097229003906,103.0032806396484,-3.012008666992188
30314,-0.0135345458984375,0.9993133544921876,-0.0079193115234375,0.0084422202780842,-0.0218001045286655,0.0026690200902521,71.74346923828125,102.8961334228516,-3.03131103515625
30315,-0.0135955810546875,0.998382568359375,-0.0095977783203125,0.0078299595043063,-0.0197196416556835,0.0013819142477586,71.74392700195312,102.8730773925781,-3.20654296875
30316,-0.014129638671875,0.9964752197265624,-0.00872802734375,0.0090302461758255,-0.0235431436449289,-0.0017020262312144,71.71562194824219,102.8866271972656,-3.156387329101562
30317,-0.0148468017578125,0.9963531494140624,-0.008880615234375,0.0080430125817656,-0.0225268807262182,-0.0029172266367822,71.77110290527344,102.8081359863281,-3.013351440429688
30318,-0.0154266357421875,0.99462890625,-0.009796142578125,0.0090563455596566,-0.0224978514015674,-0.0009566074586473,71.73887634277344,102.8808288574219,-3.084518432617188
30319,-0.0160675048828125,0.9946136474609376,-0.0093536376953125,0.0097570233047008,-0.0202189851552248,-0.0009835053933784,71.727294921875,102.9482879638672,-3.051132202148438
30320,-0.0175018310546875,0.9944305419921876,-0.0088653564453125,0.0101120229810476,-0.015718774870038,-0.000300670886645,71.71951293945312,103.0621948242188,-3.040634155273438
30321,-0.0196990966796875,0.99505615234375,-0.0086822509765625,0.0098571581766009,-0.0152029208838939,-0.0034381409641355,71.62643432617188,103.0348510742188,-2.958206176757812
30322,-0.0208282470703125,0.99639892578125,-0.0063934326171875,0.0097415773198008,-0.0059982375241816,-0.0031933963764458,71.61097717285156,103.1189117431641,-3.049560546875
30323,-0.0208282470703125,0.99639892578125,-0.0063934326171875,0.0097415773198008,-0.0059982375241816,-0.0031933963764458,71.61097717285156,103.1189117431641,-3.049560546875
30324,-0.0196380615234375,0.9974822998046876,-0.007568359375,0.0097415773198008,-0.0059982375241816,-0.0031933963764458,71.73309326171875,103.0401306152344,-3.082351684570312
30325,-0.0150604248046875,0.9994659423828124,-0.0106353759765625,0.0083346292376518,-0.0061127534136176,-0.000949683249928,71.65908813476562,102.9535675048828,-3.24359130859375
30326,-0.0150604248046875,0.9994659423828124,-0.0106353759765625,0.0083346292376518,-0.0061127534136176,-0.000949683249928,71.65908813476562,102.9535675048828,-3.24359130859375
30327,-0.012451171875,0.99896240234375,-0.0103912353515625,0.0110129695385694,-0.0063401875086128,-0.0034927357919514,71.70475769042969,102.9210815429688,-3.134750366210938
30328,-0.0106048583984375,0.99896240234375,-0.0088653564453125,0.0081783011555671,-0.0039790291339159,-0.0012474246323108,71.66281127929688,102.8036346435547,-3.029510498046875
30329,-0.0108489990234375,0.996429443359375,-0.008270263671875,0.0081783011555671,-0.0039790291339159,-0.0012474246323108,71.7337646484375,102.8578948974609,-3.08013916015625
30330,-0.0131072998046875,0.9949798583984376,-0.0085906982421875,0.0085546057671308,-0.0037350833881646,-0.0022730079945176,71.63717651367188,102.9993286132812,-3.090377807617188
30331,-0.0153045654296875,0.9940643310546876,-0.009185791015625,0.0085546057671308,-0.0037350833881646,-0.0022730079945176,71.63694763183594,103.0635375976562,-3.036285400390625
30332,-0.017425537109375,0.9965667724609376,-0.0084991455078125,0.0106332032009959,0.000492152175866,-0.0046328348107635,71.63255310058594,103.0177001953125,-2.965805053710938
30333,-0.0179443359375,0.9974822998046876,-0.0072021484375,0.0144164897501468,0.0048107341863214,-0.0037734329234808,71.63671875,103.0826721191406,-2.985153198242188
30334,-0.01898193359375,0.9979095458984376,-0.00640869140625,0.0127048762515187,0.0136084863916039,-0.0064312675967812,71.61964416503906,103.1657257080078,-2.97735595703125
30335,-0.0193939208984375,0.998199462890625,-0.0060882568359375,0.0131360422819852,0.0177257340401411,-0.0055953012779355,71.6180419921875,103.0714111328125,-3.117691040039062
30336,-0.0190887451171875,0.998199462890625,-0.0046234130859375,0.0131360422819852,0.0177257340401411,-0.0055953012779355,71.72801208496094,103.0195922851562,-3.197647094726562
30337,-0.018341064453125,0.9992523193359376,-0.0054931640625,0.0130857080221176,0.0192266907542944,-0.005739910993725,71.72402954101562,102.9965972900391,-3.100936889648438
30338,-0.0166473388671875,1.000381469726562,-0.00726318359375,0.0095911081880331,0.0194181725382804,-0.0032314795535057,71.71112060546875,103.0428314208984,-2.993087768554688
30339,-0.01470947265625,1.000076293945312,-0.0108795166015625,0.0095911081880331,0.0194181725382804,-0.0032314795535057,71.72589111328125,103.0341033935547,-3.05584716796875
30340,-0.012939453125,1.000717163085938,-0.0126953125,0.0088052097707986,0.0124066025018692,-0.003874899353832,71.72215270996094,103.0269470214844,-3.171493530273438
30341,-0.0124664306640625,0.99969482421875,-0.0125885009765625,0.0130524188280105,0.0153422048315405,-0.0049209888093173,71.63975524902344,102.9383697509766,-2.998306274414062
30342,-0.01153564453125,0.9984893798828124,-0.0151519775390625,0.0123520074412226,0.0110427970066666,-0.0033382724504917,71.673828125,102.9208221435547,-2.770553588867188
30343,-0.0123443603515625,0.99700927734375,-0.013763427734375,0.0135821215808391,0.007628624793142,-0.0022748722694814,71.70391845703125,102.921875,-2.762939453125
30344,-0.0143890380859375,0.995819091796875,-0.0128021240234375,0.0151608437299728,0.0044514737091958,-0.0027443873696029,71.64486694335938,102.9101409912109,-2.945816040039062
30345,-0.0147705078125,0.9981536865234376,-0.0081024169921875,0.0183065682649612,0.0154945375397801,-0.0078872181475162,71.62924194335938,102.8653106689453,-2.678192138671875
30346,-0.0147705078125,0.9981536865234376,-0.0081024169921875,0.0183065682649612,0.0154945375397801,-0.0078872181475162,71.62924194335938,102.8653106689453,-2.678192138671875
30347,-0.01495361328125,0.9987335205078124,-0.005218505859375,0.0178306624293327,0.0174088180065155,-0.0092243906110525,71.64422607421875,102.9124450683594,-2.837692260742188
30348,-0.01385498046875,0.9991455078125,-0.00347900390625,0.0178306624293327,0.0174088180065155,-0.0092243906110525,71.623779296875,102.9158020019531,-2.88787841796875
30349,-0.0095672607421875,0.99822998046875,-0.001617431640625,0.0145539091899991,0.0220115594565868,-0.0092832464724779,71.74412536621094,102.9848022460938,-3.005950927734375
30350,-0.0095672607421875,0.99822998046875,-0.001617431640625,0.0145539091899991,0.0220115594565868,-0.0092832464724779,71.74412536621094,102.9848022460938,-3.005950927734375
30351,-0.006683349609375,0.9963836669921876,-0.00335693359375,0.0117168435826897,0.0209572128951549,-0.0091996239498257,71.72561645507812,102.9938354492188,-3.080963134765625
30352,-0.0058441162109375,0.99481201171875,-0.0064239501953125,0.0094624776393175,0.0108957905322313,-0.0083759082481265,71.69279479980469,102.8782806396484,-3.252731323242188
30353,-0.0066680908203125,0.9944305419921876,-0.0079345703125,0.0074123763479292,0.0096518285572528,-0.0057284594513475,71.6451416015625,102.8978424072266,-3.2413330078125
30354,-0.0100555419921875,0.9959716796875,-0.0104217529296875,0.0125213842839002,0.0071849422529339,-0.0066810720600187,71.60231018066406,102.8281860351562,-3.242172241210938
30355,-0.0100555419921875,0.9959716796875,-0.0104217529296875,0.0125213842839002,0.0071849422529339,-0.0066810720600187,71.60231018066406,102.8281860351562,-3.242172241210938
30356,-0.011444091796875,0.9967803955078124,-0.008270263671875,0.0130287166684866,0.0037776939570903,-0.0068941251374781,71.69186401367188,102.8877258300781,-3.283889770507812
30357,-0.0122833251953125,0.99603271484375,-0.004150390625,0.0096057560294866,-0.0013757890556007,-0.0069833411835134,71.73243713378906,102.9213256835938,-3.296310424804688
30358,-0.0122833251953125,0.99603271484375,-0.004150390625,0.0096057560294866,-0.0013757890556007,-0.0069833411835134,71.73243713378906,102.9213256835938,-3.296310424804688
30359,-0.0126495361328125,0.996612548828125,-0.00567626953125,0.0088904304429888,-0.0015792545164003,-0.0079607209190726,71.65426635742188,102.9543914794922,-3.272735595703125
30360,-0.0134735107421875,0.9973297119140624,-0.0069580078125,0.0070656328462064,-0.0038141792174428,-0.0064816013909876,71.62002563476562,103.0201110839844,-3.288604736328125
30361,-0.0139007568359375,0.997467041015625,-0.01007080078125,0.0106395948678255,-0.0034157703630626,-0.0077436733990907,71.69137573242188,103.1461334228516,-3.268585205078125
30362,-0.0113677978515625,0.9970550537109376,-0.0100555419921875,0.0127160614356398,-0.0016165387351065,-0.0092108091339468,71.7020263671875,103.0623779296875,-3.266067504882812
30363,-0.0114288330078125,0.9980621337890624,-0.0085906982421875,0.0114675713703036,-0.0003400856803636,-0.0091844433918595,71.68524169921875,102.9523620605469,-3.307754516601562
30364,-0.0120697021484375,0.99920654296875,-0.0079345703125,0.0117120500653982,0.0018919096328318,-0.0133339148014783,71.67140197753906,103.0003509521484,-3.257293701171875
30365,-0.0119781494140625,0.9976654052734376,-0.006988525390625,0.0122904879972338,-0.0006527407676912,-0.0110289491713047,71.67221069335938,102.9826202392578,-3.161117553710938
30366,-0.01080322265625,0.995849609375,-0.007110595703125,0.010284062474966,-0.0032756880391389,-0.0119570605456829,71.63327026367188,102.87353515625,-3.110214233398438
30367,-0.0101165771484375,0.9947357177734376,-0.0069732666015625,0.0116476016119122,-0.0028322718571871,-0.010938667692244,71.62197875976562,102.9783782958984,-3.207183837890625
30368,-0.010284423828125,0.994354248046875,-0.0075836181640625,0.0119623867794871,-0.00829095300287,-0.0111844772472977,71.68287658691406,102.9794311523438,-3.188018798828125
30369,-0.0100860595703125,0.9931488037109376,-0.0078125,0.0072509888559579,-0.0072600431740283,-0.0113224294036626,71.66580200195312,103.0034484863281,-3.257644653320312
30370,-0.0100860595703125,0.9931488037109376,-0.0078125,0.0072509888559579,-0.0072600431740283,-0.0113224294036626,71.66580200195312,103.0034484863281,-3.257644653320312
30371,-0.010589599609375,0.9940338134765624,-0.0102996826171875,0.0069266157224774,-0.0089905653148889,-0.0090688625350594,71.65690612792969,103.1600189208984,-3.321746826171875
30372,-0.0095672607421875,0.9945526123046876,-0.0093994140625,0.0063417856581509,-0.010554639622569,-0.0110153667628765,71.60978698730469,103.1229553222656,-3.235748291015625
30373,-0.008880615234375,0.996124267578125,-0.0088958740234375,0.0049894321709871,-0.0094318510964512,-0.0103812683373689,71.67147827148438,103.0888977050781,-3.223968505859375
30374,-0.0088958740234375,0.997894287109375,-0.00689697265625,0.0076978672295808,-0.0071002538315951,-0.0074699004180729,71.70066833496094,102.8708648681641,-3.019088745117188
30375,-0.008514404296875,0.998138427734375,-0.0051727294921875,0.0053606769070029,-0.0086832363158464,-0.0071042482741177,71.69059753417969,102.8822174072266,-3.167755126953125
30376,-0.0085296630859375,0.998260498046875,-0.0043487548828125,0.0034514567814767,-0.0032189628109335,-0.0095040230080485,71.56883239746094,102.8791198730469,-3.11419677734375
30377,-0.007568359375,0.9986724853515624,-0.00286865234375,0.0052765212021768,-0.0019576896447688,-0.0080507360398769,71.611328125,102.8949127197266,-3.00286865234375
30378,-0.008514404296875,0.9975128173828124,-0.0036468505859375,0.002493784064427,-0.0016405072528868,-0.0103194825351238,71.54536437988281,102.9277496337891,-3.031723022460938
30379,-0.0094146728515625,0.996551513671875,-0.0061492919921875,0.0014271880500018,-0.0098598208278417,-0.0108819426968693,71.56465148925781,103.0450286865234,-3.055633544921875
30380,-0.0101776123046875,0.99371337890625,-0.0069580078125,0.001513474388048,-0.0091317128390073,-0.0086270440369844,71.49427795410156,103.1261749267578,-3.052474975585938
30381,-0.0126953125,0.9928131103515624,-0.00970458984375,0.000116912771773,-0.0091508878394961,-0.0086531424894928,71.51187133789062,102.958984375,-2.900909423828125
30382,-0.0126953125,0.9928131103515624,-0.00970458984375,0.000116912771773,-0.0091508878394961,-0.0086531424894928,71.51187133789062,102.958984375,-2.900909423828125
30383,-0.01507568359375,0.9936065673828124,-0.0084991455078125,0.0008969526388682,-0.0075772260315716,-0.0071463263593614,71.56315612792969,102.9988403320312,-2.95452880859375
30384,-0.0151519775390625,0.9935302734375,-0.00811767578125,-0.0063540358096361,-0.0061654839664697,-0.0056520267389714,71.53913879394531,103.0057220458984,-3.01812744140625
30385,-0.0140533447265625,0.996246337890625,-0.0086517333984375,-0.0081324949860572,-0.0087143955752253,-0.0064563015475869,71.54464721679688,103.0056915283203,-2.98077392578125
30386,-0.0140533447265625,0.996246337890625,-0.0086517333984375,-0.0081324949860572,-0.0087143955752253,-0.0064563015475869,71.54464721679688,103.0056915283203,-2.98077392578125
30387,-0.0142364501953125,0.9938812255859376,-0.0096282958984375,-0.0082366243004798,-0.0023358585312962,-0.0080017335712909,71.56053161621094,102.9915161132812,-2.985733032226562
30388,-0.0135955810546875,0.9957122802734376,-0.009307861328125,-0.0089058773592114,-0.0058344532735645,-0.0075796227902174,71.54072570800781,103.0431976318359,-3.04473876953125
30389,-0.0110626220703125,0.9971771240234376,-0.0078582763671875,-0.0041966093704104,-0.0064946510829031,-0.0065050371922552,71.58918762207031,102.8986663818359,-3.018722534179688
30390,-0.0110626220703125,0.9971771240234376,-0.0078582763671875,-0.0041966093704104,-0.0064946510829031,-0.0065050371922552,71.58918762207031,102.8986663818359,-3.018722534179688
30391,-0.0106048583984375,0.9967041015625,-0.00634765625,-0.0010386328212916,-0.0050956923514604,-0.0060123526491224,71.58689880371094,102.9259948730469,-3.054718017578125
30392,-0.0112457275390625,1.000152587890625,-0.0063934326171875,-0.0006434197421185,-0.0057199373841285,-0.0082198465242981,71.54812622070312,102.9245758056641,-2.965133666992188
30393,-0.0123138427734375,1.00054931640625,-0.00640869140625,-0.0054243262857198,-0.0041018007323145,-0.0077873491682112,71.52911376953125,103.0545196533203,-2.972396850585938
30394,-0.012908935546875,0.9991607666015624,-0.006561279296875,-0.0042139198631048,-0.0017542241839692,-0.0064645572565495,71.57302856445312,102.938232421875,-2.922683715820312
30395,-0.0134735107421875,0.9969940185546876,-0.0072784423828125,-0.0025710156187415,0.0001962749665835,-0.0095836510881781,71.54660034179688,102.9959106445312,-2.928619384765625
30396,-0.0140380859375,1.000686645507812,-0.0067291259765625,-0.0010117349447682,0.0049241846427321,-0.0085476813837885,71.50726318359375,103.0538635253906,-2.9642333984375
30397,-0.013671875,1.001113891601562,-0.0081939697265625,0.0015020228456705,0.0026740799658,-0.0112585136666894,71.47274780273438,103.0794830322266,-3.031631469726562
30398,-0.0149688720703125,0.9988555908203124,-0.0065155029296875,0.0054474961943924,0.0077442061156034,-0.0113975303247571,71.52241516113281,103.0252685546875,-3.053314208984375
30399,-0.01373291015625,0.9961090087890624,-0.0049896240234375,0.0054224622435867,0.0076355491764843,-0.0115567874163389,71.53907775878906,103.0683441162109,-2.961288452148438
30400,-0.01287841796875,0.9923553466796876,-0.00439453125,0.007007042877376,0.008756473660469,-0.013120861724019,71.51260375976562,102.9498901367188,-2.865081787109375
30401,-0.01422119140625,0.9903717041015624,-0.007781982421875,0.0046711843460798,0.0058805258013308,-0.0116923423483967,71.55386352539062,102.9077453613281,-2.8763427734375
30402,-0.01422119140625,0.9903717041015624,-0.007781982421875,0.0046711843460798,0.0058805258013308,-0.0116923423483967,71.55386352539062,102.9077453613281,-2.8763427734375
30403,-0.0150604248046875,0.993743896484375,-0.0104217529296875,0.0040421457961201,0.002771551720798,-0.0112052503973245,71.57919311523438,102.7984924316406,-2.965087890625
30404,-0.015167236328125,0.9951934814453124,-0.0096282958984375,0.0062051652930676,0.0046402919106185,-0.0109442602843046,71.51893615722656,102.8305511474609,-2.852081298828125
30405,-0.0147247314453125,0.9965667724609376,-0.0106048583984375,0.0102457134053111,0.0032924660481512,-0.0128220552578568,71.53044128417969,102.8601379394531,-2.709625244140625
30406,-0.0134735107421875,0.9970703125,-0.0060272216796875,0.0043649207800626,0.0038890140131115,-0.011903797276318,71.58775329589844,102.896728515625,-2.843856811523438
30407,-0.0134735107421875,0.9970703125,-0.0060272216796875,0.0043649207800626,0.0038890140131115,-0.011903797276318,71.58775329589844,102.896728515625,-2.843856811523438
30408,-0.0126190185546875,0.9967193603515624,-0.006072998046875,0.0039470707997679,0.0033132387325167,-0.0106931244954466,71.55342102050781,102.9211883544922,-2.9266357421875
30409,-0.0118865966796875,0.9966583251953124,-0.006256103515625,0.0039470707997679,0.0033132387325167,-0.0106931244954466,71.55047607421875,102.9462890625,-2.967987060546875
30410,-0.0118255615234375,0.9976806640625,-0.0070648193359375,0.0053380401805043,0.0063015716150403,-0.0091471597552299,71.55975341796875,102.9892883300781,-2.9385986328125
30411,-0.01153564453125,0.997283935546875,-0.00494384765625,0.0066621638834476,0.0009677927591837,-0.0092504899948835,71.55593872070312,103.0298004150391,-3.06353759765625
30412,-0.0111236572265625,0.994781494140625,-0.0031585693359375,0.0073844129219651,0.0043691820465028,-0.0119472071528434,71.55477905273438,103.1445465087891,-3.111785888671875
30413,-0.0121002197265625,0.9967498779296876,-0.001953125,0.0058925100602209,-0.001661279820837,-0.0071878717280924,71.50494384765625,103.041015625,-2.913726806640625
30414,-0.0121002197265625,0.9967498779296876,-0.001953125,0.0058925100602209,-0.001661279820837,-0.0071878717280924,71.50494384765625,103.041015625,-2.913726806640625
30415,-0.0128021240234375,0.9936676025390624,-0.0028533935546875,0.0050006173551082,-0.0039966059848666,-0.0079793632030487,71.50846862792969,103.0736541748047,-2.923919677734375
30416,-0.014068603515625,0.9924163818359376,-0.0047149658203125,0.0047960868105292,-0.0013819142477586,-0.0088936267420649,71.47854614257812,103.0608062744141,-2.905181884765625
30417,-0.0142669677734375,0.99212646484375,-0.003082275390625,0.0049577406607568,-0.003157443832606,-0.0110356071963906,71.495849609375,103.1016693115234,-2.905288696289062
30418,-0.0139007568359375,0.993988037109375,-0.006011962890625,0.003581419121474,-0.0039702407084405,-0.0043316315859556,71.54212951660156,103.14208984375,-3.060409545898438
30419,-0.0139007568359375,0.993988037109375,-0.006011962890625,0.003581419121474,-0.0039702407084405,-0.0043316315859556,71.54212951660156,103.14208984375,-3.060409545898438
30420,-0.0145721435546875,0.9949951171875,-0.0052032470703125,0.0054006241261959,-0.0020240023732185,-0.007055246271193,71.51359558105469,103.1092071533203,-3.001129150390625
30421,-0.0135345458984375,0.9946746826171876,-0.0041961669921875,0.0045654568821191,0.0004178499802947,-0.0086163915693759,71.50259399414062,103.0934753417969,-2.925796508789062
30422,-0.014007568359375,0.9949188232421876,-0.005218505859375,0.0044679851271212,-0.0034466630313545,-0.0091570131480693,71.47488403320312,103.2449798583984,-3.089004516601562
30423,-0.014007568359375,0.9949188232421876,-0.005218505859375,0.0044679851271212,-0.0034466630313545,-0.0091570131480693,71.47488403320312,103.2449798583984,-3.089004516601562
30424,-0.014312744140625,0.9955596923828124,-0.0071868896484375,0.0055689360015094,-0.0041649173945188,-0.008397745899856,71.44525146484375,103.2197265625,-3.053421020507812
30425,-0.016632080078125,0.99591064453125,-0.00732421875,0.0066610984504222,-0.0121453460305929,-0.0075817531906068,71.52888488769531,103.1710815429688,-2.860794067382812
30426,-0.016632080078125,0.99591064453125,-0.00732421875,0.0066610984504222,-0.0121453460305929,-0.0075817531906068,71.52888488769531,103.1710815429688,-2.860794067382812
30427,-0.0177154541015625,0.9953765869140624,-0.0038299560546875,0.007562312297523,-0.0050426954403519,-0.0091090761125087,71.57078552246094,103.0352478027344,-2.967529296875
30428,-0.0167999267578125,0.9960784912109376,-0.0071563720703125,0.0057793259620666,-0.0109280152246356,-0.0070307450369,71.51669311523438,103.0530700683594,-2.985198974609375
30429,-0.0147705078125,0.9954071044921876,-0.0088958740234375,0.0067684240639209,-0.0058461711741983,-0.0068757492117583,71.51434326171875,103.1128387451172,-2.856735229492188
30430,-0.0147705078125,0.9954071044921876,-0.0088958740234375,0.0067684240639209,-0.0058461711741983,-0.0068757492117583,71.51434326171875,103.1128387451172,-2.856735229492188
30431,-0.015594482421875,0.996307373046875,-0.00848388671875,0.008929313160479,-0.0121466778218746,-0.0066749467514455,71.59548950195312,103.0727691650391,-2.930160522460938
30432,-0.0156402587890625,0.9972076416015624,-0.0063323974609375,0.0056315204128623,-0.0041555967181921,-0.0080371536314487,71.66500854492188,103.0852813720703,-2.97406005859375
30433,-0.0163421630859375,0.9942626953125,-0.0068359375,0.0067396615631878,-0.0057055563665926,-0.0077886809594929,71.68344116210938,103.0744781494141,-2.870285034179688
30434,-0.0169219970703125,0.9959259033203124,-0.00714111328125,0.0066776098683476,-0.0011488876771181,-0.0061412495560944,71.63932800292969,102.9866180419922,-2.8843994140625
30435,-0.0169219970703125,0.9959259033203124,-0.00714111328125,0.0066776098683476,-0.0011488876771181,-0.0061412495560944,71.63932800292969,102.9866180419922,-2.8843994140625
30436,-0.0164337158203125,0.996307373046875,-0.006317138671875,0.0099399825558066,0.0017427726415917,-0.0061423145234584,71.60923767089844,102.9805145263672,-2.91650390625
30437,-0.0144500732421875,0.9957275390625,-0.00897216796875,0.0116942068561911,0.0003049319493584,-0.0104228137060999,71.64604187011719,102.8629150390625,-2.81060791015625
30438,-0.0144500732421875,0.9957275390625,-0.00897216796875,0.0116942068561911,0.0003049319493584,-0.0104228137060999,71.64604187011719,102.8629150390625,-2.81060791015625
30439,-0.0120391845703125,0.99664306640625,-0.009429931640625,0.0116942068561911,0.0003049319493584,-0.0104228137060999,71.54115295410156,102.9864501953125,-2.761474609375
30440,-0.0124359130859375,0.9968109130859376,-0.010528564453125,0.0128952926024794,-0.0100869890302419,-0.0068011805415153,71.52882385253906,103.0279693603516,-2.93402099609375
30441,-0.012115478515625,0.9971466064453124,-0.008575439453125,0.0131533527746796,-0.0143773416057229,-0.0080573940649628,71.495361328125,103.0862579345703,-2.901214599609375
30442,-0.012115478515625,0.9971466064453124,-0.008575439453125,0.0131533527746796,-0.0143773416057229,-0.0080573940649628,71.495361328125,103.0862579345703,-2.901214599609375
30443,-0.013336181640625,0.996246337890625,-0.007049560546875,0.0131533527746796,-0.0143773416057229,-0.0080573940649628,71.5023193359375,103.0893859863281,-2.77203369140625
30444,-0.0135040283203125,0.9969329833984376,-0.0064697265625,0.0118531975895166,-0.0156303588300943,-0.0073583140037953,71.45518493652344,103.1389923095703,-2.632476806640625
30445,-0.01422119140625,0.9981842041015624,-0.0050811767578125,0.0062017031013965,-0.0114862136542797,-0.0090717915445566,71.51560974121094,103.0534210205078,-2.385482788085938
30446,-0.01422119140625,0.9981842041015624,-0.0050811767578125,0.0062017031013965,-0.0114862136542797,-0.0090717915445566,71.51560974121094,103.0534210205078,-2.385482788085938
30447,-0.0135498046875,0.9967803955078124,-0.00640869140625,0.0062017031013965,-0.0114862136542797,-0.0090717915445566,71.52879333496094,103.0188751220703,-2.44464111328125
30448,-0.0162200927734375,0.9928741455078124,-0.0083770751953125,0.0063553676009178,-0.0105762118473649,-0.0086467517539858,71.52755737304688,103.1950531005859,-2.662124633789062
30449,-0.0162200927734375,0.9928741455078124,-0.0083770751953125,0.0063553676009178,-0.0105762118473649,-0.0086467517539858,71.52755737304688,103.1950531005859,-2.662124633789062
30450,-0.0166778564453125,0.9981689453125,-0.0110015869140625,0.0063068978488445,-0.014912636950612,-0.0062294001691043,71.47634887695312,103.1079711914062,-2.719497680664062
30451,-0.0166778564453125,0.9981689453125,-0.0110015869140625,0.0063068978488445,-0.014912636950612,-0.0062294001691043,71.47634887695312,103.1079711914062,-2.719497680664062
30452,-0.01715087890625,0.9979705810546876,-0.008819580078125,0.0083577986806631,-0.0187007170170545,-0.0048770466819405,71.41719055175781,103.3008270263672,-2.72906494140625
30453,-0.0163421630859375,0.9952545166015624,-0.008056640625,0.0030112362001091,-0.017856229096651,-0.0066062374971807,71.49241638183594,103.2914276123047,-2.926895141601562
30454,-0.013916015625,0.993316650390625,-0.0079193115234375,-0.0008005462004803,-0.0195300262421369,-0.0040272320620715,71.50344848632812,103.2368774414062,-2.95159912109375
30455,-0.013916015625,0.993316650390625,-0.0079193115234375,-0.0008005462004803,-0.0195300262421369,-0.0040272320620715,71.50344848632812,103.2368774414062,-2.95159912109375
30456,-0.013153076171875,0.9921875,-0.008209228515625,-0.0008005462004803,-0.0195300262421369,-0.0040272320620715,71.52603149414062,103.2955169677734,-2.887054443359375
30457,-0.0182647705078125,0.9965972900390624,-0.006072998046875,0.0045172539539635,-0.0065633603371679,-0.0002918824611697,71.46258544921875,103.279296875,-2.84814453125
30458,-0.0182647705078125,0.9965972900390624,-0.006072998046875,0.0045172539539635,-0.0065633603371679,-0.0002918824611697,71.46258544921875,103.279296875,-2.84814453125
30459,-0.0210723876953125,0.9993438720703124,-0.0084228515625,0.006237655878067,-0.0008708536624908,-0.0032032502349466,71.5333251953125,103.2765197753906,-3.032470703125
30460,-0.023651123046875,1.001296997070312,-0.0069122314453125,0.0084344977512955,0.002951315138489,-0.0026359967887401,71.44505310058594,103.2646331787109,-3.026260375976562
30461,-0.0226287841796875,0.99676513671875,-0.0042572021484375,0.0102867260575294,0.0093114767223596,-0.0038634478114545,71.41752624511719,103.3005065917969,-2.920120239257812
30462,-0.02020263671875,0.99322509765625,-0.0008697509765625,0.0102867260575294,0.0093114767223596,-0.0038634478114545,71.48385620117188,103.2237396240234,-3.059066772460938
30463,-0.02020263671875,0.99322509765625,-0.0008697509765625,0.0102867260575294,0.0093114767223596,-0.0038634478114545,71.48385620117188,103.2237396240234,-3.059066772460938
30464,-0.0175018310546875,0.992767333984375,-0.001800537109375,0.0083335638046264,0.0098672779276967,-0.0028573055751621,71.53692626953125,103.1840057373047,-2.909027099609375
30465,-0.01483154296875,0.9924163818359376,-0.0039825439453125,0.0078800274059176,0.0041822283528745,-0.0035374767612665,71.4822998046875,103.1941375732422,-2.7911376953125
30466,-0.0142974853515625,0.9947967529296876,-0.0082550048828125,0.010291519574821,0.0044682514853775,-0.0040514669381082,71.51530456542969,103.0802764892578,-2.838699340820312
30467,-0.0139007568359375,0.9942474365234376,-0.0096588134765625,0.010291519574821,0.0044682514853775,-0.0040514669381082,71.54786682128906,103.2251739501953,-2.856735229492188
30468,-0.0140228271484375,0.99310302734375,-0.0084686279296875,0.0148015832528471,0.0049124667420983,-0.0073615098372101,71.56147766113281,103.2959442138672,-2.840866088867188
30469,-0.013824462890625,0.996826171875,-0.004302978515625,0.0061899852007627,-0.0029406624380499,-0.0042637209407985,71.59623718261719,103.0923156738281,-2.60565185546875
30470,-0.013824462890625,0.996826171875,-0.004302978515625,0.0061899852007627,-0.0029406624380499,-0.0042637209407985,71.59623718261719,103.0923156738281,-2.60565185546875
30471,-0.0138397216796875,1.001983642578125,-0.0048980712890625,0.0055715991184115,-0.0029728866647928,-0.0036647759843617,71.57539367675781,103.0705413818359,-2.675262451171875
30472,-0.015228271484375,1.003494262695312,-0.0054779052734375,0.0055715991184115,-0.0029728866647928,-0.0036647759843617,71.50527954101562,103.2218475341797,-2.871444702148438
30473,-0.016387939453125,1.002349853515625,-0.0051727294921875,0.0108313420787453,0.0037177728954702,-0.0050110039301216,71.53602600097656,103.1343383789062,-2.8984375
30474,-0.0168304443359375,1.002639770507812,-0.0025482177734375,0.0108313420787453,0.0037177728954702,-0.0050110039301216,71.49774169921875,103.2363891601562,-2.951370239257812
30475,-0.0168304443359375,1.002639770507812,-0.0025482177734375,0.0108313420787453,0.0037177728954702,-0.0050110039301216,71.49774169921875,103.2363891601562,-2.951370239257812
30476,-0.0173187255859375,1.002853393554688,-0.003387451171875,0.0096595510840415,-0.0013289173366501,-0.004105529282242,71.44853210449219,103.1917572021484,-2.804000854492188
30477,-0.0169677734375,0.99688720703125,-0.005767822265625,0.0124028734862804,-0.0001781654718797,-0.0044224453158676,71.45011901855469,103.2156677246094,-2.742965698242188
30478,-0.017913818359375,0.9943695068359376,-0.005462646484375,0.0124028734862804,-0.0001781654718797,-0.0044224453158676,71.49903869628906,103.11328125,-2.819137573242188
30479,-0.017913818359375,0.9943695068359376,-0.005462646484375,0.0124028734862804,-0.0001781654718797,-0.0044224453158676,71.49903869628906,103.11328125,-2.819137573242188
30480,-0.01910400390625,0.9938507080078124,-0.0052032470703125,0.0107373325154185,0.0049771815538406,-0.0031015174463391,71.4996337890625,103.00732421875,-2.740234375
30481,-0.020965576171875,0.9956512451171876,-0.0047760009765625,0.0115232318639755,0.0090318443253636,-0.0065045044757425,71.51443481445312,103.0177917480469,-2.832473754882812
30482,-0.02227783203125,0.9960784912109376,-0.0044708251953125,0.0108305430039763,0.0103959152474999,-0.0038714371621608,71.51460266113281,102.9974975585938,-2.790817260742188
30483,-0.02227783203125,0.9960784912109376,-0.0044708251953125,0.0108305430039763,0.0103959152474999,-0.0038714371621608,71.51460266113281,102.9974975585938,-2.790817260742188
30484,-0.0230560302734375,0.997406005859375,-0.0040740966796875,0.0097104180604219,0.0125522771850228,-0.0066677564755082,71.54902648925781,102.9994354248047,-2.592575073242188
30485,-0.020416259765625,0.99652099609375,-0.00225830078125,0.0073356772772967,0.0171398390084505,-0.0045974147506058,71.49702453613281,103.1088714599609,-2.705856323242188
30486,-0.020416259765625,0.99652099609375,-0.00225830078125,0.0073356772772967,0.0171398390084505,-0.0045974147506058,71.49702453613281,103.1088714599609,-2.705856323242188
30487,-0.0168609619140625,0.9971160888671876,-0.0047607421875,0.007899735122919,0.015681492164731,-0.005372661165893,71.49198913574219,103.0633392333984,-2.652053833007812
30488,-0.013671875,0.9971923828125,-0.0052337646484375,0.0073391394689679,0.0137698743492364,-0.0063471118919551,71.50946044921875,102.9650421142578,-2.67352294921875
30489,-0.0102691650390625,0.9946441650390624,-0.0048828125,0.0098470384255051,0.0125536089763045,-0.0032099080272018,71.489990234375,103.0372009277344,-2.659805297851562
30490,-0.0102691650390625,0.9946441650390624,-0.0048828125,0.0098470384255051,0.0125536089763045,-0.0032099080272018,71.489990234375,103.0372009277344,-2.659805297851562
30491,-0.01080322265625,0.993682861328125,-0.00482177734375,0.0070581757463514,0.0138753354549408,-0.0026607641484588,71.45823669433594,103.0314483642578,-2.67169189453125
30492,-0.0116119384765625,0.993072509765625,-0.0040283203125,0.0097591541707515,0.0104260090738534,-0.0030101709999144,71.47189331054688,103.1472473144531,-2.743362426757812
30493,-0.0147705078125,0.9954681396484376,-0.003570556640625,0.0028248149901628,0.0108254831284284,-0.002462092321366,71.48359680175781,103.1187744140625,-2.698532104492188
30494,-0.0158538818359375,0.9978179931640624,-0.0043792724609375,0.0042320294305682,0.0132827823981642,-0.0025047028902918,71.46104431152344,103.1704864501953,-2.741836547851562
30495,-0.0158538818359375,0.9978179931640624,-0.0043792724609375,0.0042320294305682,0.0132827823981642,-0.0025047028902918,71.46104431152344,103.1704864501953,-2.741836547851562
30496,-0.017333984375,0.9974212646484376,-0.0044708251953125,0.0042320294305682,0.0132827823981642,-0.0025047028902918,71.49629211425781,103.1179809570312,-2.7294921875
30497,-0.0157318115234375,0.998199462890625,-0.0049896240234375,0.0075372783467173,0.0160801671445369,-0.0037483992055058,71.50088500976562,103.1902923583984,-2.79205322265625
30498,-0.01568603515625,0.9986724853515624,-0.0038604736328125,0.0075372783467173,0.0160801671445369,-0.0037483992055058,71.45065307617188,103.2810363769531,-2.766998291015625
30499,-0.01568603515625,0.9986724853515624,-0.0038604736328125,0.0075372783467173,0.0160801671445369,-0.0037483992055058,71.45065307617188,103.2810363769531,-2.766998291015625
30500,-0.0154266357421875,0.9992523193359376,-0.0033721923828125,0.0055966330692172,0.0164586026221513,-0.003549727378413,71.44377136230469,103.1668090820312,-2.612747192382812
30501,-0.0153656005859375,0.999755859375,-0.0054168701171875,0.0077021280303597,0.012583702802658,-0.0039270971901714,71.52406311035156,102.9838562011719,-2.337249755859375
30502,-0.0157012939453125,0.9981689453125,-0.006591796875,0.0077021280303597,0.012583702802658,-0.0039270971901714,71.61576843261719,103.1177673339844,-2.414566040039062
30503,-0.0157012939453125,0.9981689453125,-0.006591796875,0.0077021280303597,0.012583702802658,-0.0039270971901714,71.61576843261719,103.1177673339844,-2.414566040039062
30504,-0.01605224609375,0.9963836669921876,-0.005828857421875,0.0094350473955273,0.0156090529635548,-0.0027004452422261,71.52035522460938,103.1535186767578,-2.481597900390625
30505,-0.0162506103515625,0.992401123046875,-0.0045623779296875,0.008249407634139,0.0201380252838134,-0.0064083645120263,71.63587951660156,103.2271423339844,-2.420013427734375
30506,-0.0162506103515625,0.992401123046875,-0.0045623779296875,0.008249407634139,0.0201380252838134,-0.0064083645120263,71.63587951660156,103.2271423339844,-2.420013427734375
30507,-0.0160064697265625,0.9940948486328124,-0.0051116943359375,0.0062629557214677,0.0162434186786413,-0.0014122743159532,71.73420715332031,103.2457885742188,-2.47314453125
30508,-0.015472412109375,0.9946746826171876,-0.0049285888671875,0.0078936098143458,0.014225541613996,-0.003180346917361,71.65086364746094,103.1513519287109,-2.441970825195312
30509,-0.013336181640625,0.99566650390625,-0.0051422119140625,0.0059894490987062,0.0133813191205263,-0.0039500002749264,71.65408325195312,103.1546173095703,-2.337295532226562
30510,-0.013336181640625,0.99566650390625,-0.0051422119140625,0.0059894490987062,0.0133813191205263,-0.0039500002749264,71.65408325195312,103.1546173095703,-2.337295532226562
30511,-0.0112762451171875,0.9965972900390624,-0.0053253173828125,0.0066629624925553,0.0012471582740545,-0.0044980789534747,71.62103271484375,103.1371459960938,-2.365264892578125
30512,-0.0094146728515625,0.9969024658203124,-0.005615234375,0.0066629624925553,0.0012471582740545,-0.0044980789534747,71.65779113769531,103.0919952392578,-2.408676147460938
30513,-0.0074920654296875,0.99822998046875,-0.005767822265625,0.0054192664101719,-0.0024583640042692,-0.001866076956503,71.66349792480469,103.0740814208984,-2.4803466796875
30514,-0.0074920654296875,0.99822998046875,-0.005767822265625,0.0054192664101719,-0.0024583640042692,-0.001866076956503,71.66349792480469,103.0740814208984,-2.4803466796875
30515,-0.0085601806640625,0.998260498046875,-0.0059356689453125,0.0043068639934062,-0.0072648371569812,-0.0023787354584783,71.661376953125,103.0978088378906,-2.399444580078125
30516,-0.009552001953125,0.9956512451171876,-0.00506591796875,0.0043068639934062,-0.0072648371569812,-0.0023787354584783,71.69972229003906,103.1101989746094,-2.4208984375
30517,-0.0144805908203125,0.99542236328125,-0.0032501220703125,0.0056837182492017,0.0002689792599994,-0.0018879148410633,71.68695068359375,102.9078826904297,-2.32635498046875
30518,-0.0144805908203125,0.99542236328125,-0.0032501220703125,0.0056837182492017,0.0002689792599994,-0.0018879148410633,71.68695068359375,102.9078826904297,-2.32635498046875
30519,-0.015960693359375,0.9969329833984376,-0.00408935546875,0.006868558935821,-9.747169679030776e-05,-0.0031177627388387,71.70811462402344,102.9360504150391,-2.416351318359375
30520,-0.01666259765625,1.000442504882812,-0.0038909912109375,0.006868558935821,-9.747169679030776e-05,-0.0031177627388387,71.58992004394531,102.9220733642578,-2.414321899414062
30521,-0.016204833984375,0.99652099609375,-0.0022735595703125,0.0051569449715316,0.0014753912109881,-0.0048184571787714,71.62908935546875,103.1149597167969,-2.414520263671875
30522,-0.01470947265625,0.9948883056640624,-0.0032501220703125,0.0058062239550054,0.000843156769406,-0.0027425233274698,71.58682250976562,103.1465911865234,-2.494583129882812
30523,-0.01470947265625,0.9948883056640624,-0.0032501220703125,0.0058062239550054,0.000843156769406,-0.0027425233274698,71.58682250976562,103.1465911865234,-2.494583129882812
30524,-0.0133056640625,0.9935150146484376,-0.0034637451171875,0.0058062239550054,0.000843156769406,-0.0027425233274698,71.6602783203125,103.2383422851562,-2.685195922851562
30525,-0.0116729736328125,0.9925689697265624,-0.0051116943359375,0.0026969832833856,-0.0047617321833968,0.003344930242747,71.60931396484375,103.1357879638672,-2.442520141601562
30526,-0.0116729736328125,0.9925689697265624,-0.0051116943359375,0.0026969832833856,-0.0047617321833968,0.003344930242747,71.60931396484375,103.1357879638672,-2.442520141601562
30527,-0.0111846923828125,0.9931640625,-0.004364013671875,0.0026969832833856,-0.0047617321833968,0.003344930242747,71.56912231445312,103.1180114746094,-2.549468994140625
30528,-0.0118408203125,0.9955291748046876,-0.00677490234375,0.0030312100425362,-0.0041332258842885,0.0028176244813948,71.56521606445312,103.0793762207031,-2.559188842773438
30529,-0.014739990234375,0.9966888427734376,-0.007415771484375,0.0013824469642713,-0.0045683863572776,0.002053297124803,71.66935729980469,103.0837707519531,-2.516326904296875
30530,-0.014739990234375,0.9966888427734376,-0.007415771484375,0.0013824469642713,-0.0045683863572776,0.002053297124803,71.66935729980469,103.0837707519531,-2.516326904296875
30531,-0.0145111083984375,0.997589111328125,-0.005615234375,0.0030778152868151,-0.0003763046697713,0.001064199139364,71.62060546875,103.1160583496094,-2.595748901367188
30532,-0.0137939453125,0.995941162109375,-0.0030517578125,0.0048235175199806,-0.0013134710025042,0.0014261227333918,71.57853698730469,103.1104583740234,-2.726470947265625
30533,-0.01409912109375,0.99627685546875,-0.00213623046875,0.0056536244228482,0.0007273092633113,0.0035766253713518,71.74632263183594,103.0069732666016,-2.618087768554688
30534,-0.01409912109375,0.99627685546875,-0.00213623046875,0.0056536244228482,0.0007273092633113,0.0035766253713518,71.74632263183594,103.0069732666016,-2.618087768554688
30535,-0.01470947265625,0.996978759765625,-0.0032501220703125,0.0034152376465499,0.0025142903905361,0.0038940741214901,71.72993469238281,102.9996185302734,-2.62408447265625
30536,-0.0144195556640625,0.99798583984375,-0.002716064453125,0.0033380060922354,-0.0036120454315096,0.0021728731226176,71.65199279785156,102.9738006591797,-2.615875244140625
30537,-0.0131378173828125,1.000076293945312,0.0007476806640625,0.0027363980188965,-0.0017627463676035,0.0027124295011162,71.667236328125,103.0502471923828,-2.552536010742188
30538,-0.0131378173828125,1.000076293945312,0.0007476806640625,0.0027363980188965,-0.0017627463676035,0.0027124295011162,71.667236328125,103.0502471923828,-2.552536010742188
30539,-0.014862060546875,1.001617431640625,-0.0014190673828125,-0.002264752285555,-0.0004881574132014,0.0026173547375947,71.57823181152344,103.2718505859375,-2.529647827148438
30540,-0.01702880859375,1.003036499023438,-0.0054931640625,-0.0023206786718219,0.0020122844725847,0.0046919570304453,71.62344360351562,103.1880950927734,-2.545394897460938
30541,-0.01885986328125,1.000503540039062,-0.013671875,0.0010543455136939,3.488740912871435e-05,0.0002455434587318,71.74241638183594,103.0553741455078,-2.372238159179688
30542,-0.01885986328125,1.000503540039062,-0.013671875,0.0010543455136939,3.488740912871435e-05,0.0002455434587318,71.74241638183594,103.0553741455078,-2.372238159179688
30543,-0.0185394287109375,0.9955291748046876,-0.01177978515625,0.0042890207841992,-0.0022264027502387,-0.0017020262312144,71.69920349121094,103.0375823974609,-2.366317749023438
30544,-0.017242431640625,0.9959564208984376,-0.0067138671875,0.0035393410362303,0.0002367550187045,0.000278832972981,71.70114135742188,103.0581512451172,-2.366287231445312
30545,-0.01568603515625,0.998992919921875,-0.0028228759765625,-0.0021150824613869,-0.0035188347101211,-0.0031784826423972,71.75709533691406,102.9511566162109,-2.140838623046875
30546,-0.01568603515625,0.998992919921875,-0.0028228759765625,-0.0021150824613869,-0.0035188347101211,-0.0031784826423972,71.75709533691406,102.9511566162109,-2.140838623046875
30547,-0.01556396484375,0.999237060546875,-0.0022735595703125,-0.0019885823130607,-0.0027768779546022,-0.0039366846904158,71.76361083984375,103.0067596435547,-2.373428344726562
30548,-0.015350341796875,0.999298095703125,-0.00244140625,-0.0019885823130607,-0.0027768779546022,-0.0039366846904158,71.71437072753906,103.0564727783203,-2.474945068359375
30549,-0.0161590576171875,0.9962310791015624,-0.0005035400390625,0.0042227082885801,0.0111328121274709,-0.0067468523047864,71.63630676269531,103.0985565185547,-2.496200561523438
30550,-0.0161590576171875,0.9962310791015624,-0.0005035400390625,0.0042227082885801,0.0111328121274709,-0.0067468523047864,71.63630676269531,103.0985565185547,-2.496200561523438
30551,-0.0161590576171875,0.9962310791015624,-0.0005035400390625,0.0042227082885801,0.0111328121274709,-0.0067468523047864,71.63630676269531,103.0985565185547,-2.496200561523438
30552,-0.014312744140625,0.9958343505859376,0.0003662109375,0.0042432146146893,0.0088355690240859,-0.0081404848024249,71.64895629882812,103.2541809082031,-2.493255615234375
30553,-0.011810302734375,0.9961090087890624,-0.0002899169921875,0.001006941194646,0.0007771103992126,-0.0066528427414596,71.55697631835938,103.1908874511719,-2.523971557617188
30554,-0.011810302734375,0.9961090087890624,-0.0002899169921875,0.001006941194646,0.0007771103992126,-0.0066528427414596,71.55697631835938,103.1908874511719,-2.523971557617188
30555,-0.01324462890625,0.9962615966796876,-0.00054931640625,0.0015478292480111,0.0020615530665963,-0.0045074000954627,71.62754821777344,103.1207275390625,-2.54034423828125
30556,-0.0139923095703125,0.998077392578125,-0.002105712890625,-0.0015020228456705,-0.0015528892399743,-0.0032213595695793,71.67112731933594,103.1345825195312,-2.427947998046875
30557,-0.0174713134765625,1.000045776367188,-0.00543212890625,0.0053420346230268,0.0015920377336442,-0.0060637514106929,71.63963317871094,103.2621459960938,-2.50244140625
30558,-0.0165252685546875,1.000106811523438,-0.0050506591796875,0.0045739789493381,0.0042101913131773,-0.0094552868977189,71.62928771972656,103.2953491210938,-2.501571655273438
30559,-0.0165252685546875,1.000106811523438,-0.0050506591796875,0.0045739789493381,0.0042101913131773,-0.0094552868977189,71.62928771972656,103.2953491210938,-2.501571655273438
30560,-0.0167083740234375,0.999420166015625,-0.00390625,0.010980213060975,0.0074768248014152,-0.0116886142641305,71.61872863769531,103.3167877197266,-2.510635375976562
30561,-0.0147857666015625,0.9919281005859376,0.0004425048828125,0.013209811411798,0.0144074354320764,-0.010880877263844,71.58818054199219,103.1982116699219,-2.4547119140625
30562,-0.0147857666015625,0.9919281005859376,0.0004425048828125,0.013209811411798,0.0144074354320764,-0.010880877263844,71.58818054199219,103.1982116699219,-2.4547119140625
30563,-0.0147857666015625,0.9919281005859376,0.0004425048828125,0.013209811411798,0.0144074354320764,-0.010880877263844,71.58818054199219,103.1982116699219,-2.4547119140625
30564,-0.015167236328125,0.9908599853515624,0.0031890869140625,0.0087948227301239,0.0133690685033798,-0.0099993711337447,71.53433227539062,103.0753173828125,-2.376708984375
30565,-0.01544189453125,0.9950714111328124,-0.0008697509765625,0.0011646003695204,0.0109181618317961,-0.0118422787636518,71.68438720703125,103.1797943115234,-2.239654541015625
30566,-0.01544189453125,0.9950714111328124,-0.0008697509765625,0.0011646003695204,0.0109181618317961,-0.0118422787636518,71.68438720703125,103.1797943115234,-2.239654541015625
30567,-0.0150909423828125,0.9988555908203124,-0.003570556640625,0.0011646003695204,0.0109181618317961,-0.0118422787636518,71.63865661621094,103.2649688720703,-2.352386474609375
30568,-0.01397705078125,1.001632690429688,-0.005706787109375,0.0045593315735459,0.0106180235743522,-0.0141618913039565,71.66889953613281,103.2059631347656,-2.560760498046875
30569,-0.0125732421875,0.9995880126953124,0.000701904296875,0.008258462883532,0.0172058846801519,-0.0145754804834723,71.6058349609375,103.2822418212891,-2.574539184570312
30570,-0.01068115234375,0.99737548828125,0.0024261474609375,0.0103652896359562,0.0193052552640438,-0.015787485986948,71.60252380371094,103.32080078125,-2.496551513671875
30571,-0.01068115234375,0.99737548828125,0.0024261474609375,0.0103652896359562,0.0193052552640438,-0.015787485986948,71.60252380371094,103.32080078125,-2.496551513671875
30572,-0.008941650390625,0.994354248046875,0.0028228759765625,0.0069758840836584,0.0100995060056448,-0.0158186443150043,71.60267639160156,103.2993927001953,-2.34613037109375
30573,-0.010650634765625,0.996307373046875,0.00079345703125,-5.645901546813548e-05,0.0100156161934137,-0.0157209057360887,71.52362060546875,103.1451263427734,-2.34027099609375
30574,-0.010650634765625,0.996307373046875,0.00079345703125,-5.645901546813548e-05,0.0100156161934137,-0.0157209057360887,71.52362060546875,103.1451263427734,-2.34027099609375
30575,-0.012054443359375,0.9967041015625,-0.0003509521484375,-0.0012700614752247,0.0090401004999876,-0.0139626869931817,71.49424743652344,103.1602172851562,-2.459548950195312
30576,-0.0148468017578125,0.9964599609375,0.000732421875,0.0019773971289396,0.0139275332912802,-0.0152926696464419,71.53765869140625,103.2205963134766,-2.360931396484375
30577,-0.016143798828125,0.9968414306640624,0.0008697509765625,0.0075535238720476,0.0212925057858228,-0.0159440785646438,71.48660278320312,103.2670440673828,-2.304534912109375
30578,-0.016143798828125,0.9968414306640624,0.0008697509765625,0.0075535238720476,0.0212925057858228,-0.0159440785646438,71.48660278320312,103.2670440673828,-2.304534912109375
30579,-0.01641845703125,0.9980926513671876,0.0008697509765625,0.0075535238720476,0.0212925057858228,-0.0159440785646438,71.49404907226562,103.1914978027344,-2.314712524414062
30580,-0.0155029296875,0.9967193603515624,0.0010833740234375,0.0027015106752514,0.0197220388799905,-0.0150330113247036,71.53033447265625,103.1312866210938,-2.245376586914062
30581,-0.0126800537109375,0.9946746826171876,0.00164794921875,0.0036336169578135,0.0214815903455019,-0.0124231139197945,71.59541320800781,103.271240234375,-2.190109252929688
30582,-0.0126800537109375,0.9946746826171876,0.00164794921875,0.0036336169578135,0.0214815903455019,-0.0124231139197945,71.59541320800781,103.271240234375,-2.190109252929688
30583,-0.0115966796875,0.99462890625,-0.0013427734375,0.0036336169578135,0.0214815903455019,-0.0124231139197945,71.5533447265625,103.2960662841797,-2.250198364257812
30584,-0.0120849609375,0.9935302734375,-0.003387451171875,0.0024751420132815,0.0201726462692022,-0.015796273946762,71.54721069335938,103.2453918457031,-2.169097900390625
30585,-0.01239013671875,0.9963226318359376,-0.00189208984375,0.002241050126031,0.0166958887130022,-0.0132393725216388,71.55044555664062,103.2006225585938,-2.07855224609375
30586,-0.01239013671875,0.9963226318359376,-0.00189208984375,0.002241050126031,0.0166958887130022,-0.0132393725216388,71.55044555664062,103.2006225585938,-2.07855224609375
30587,-0.011016845703125,0.9963531494140624,-0.0004730224609375,0.0052498895674943,0.0146841378882527,-0.0149640357121825,71.52207946777344,103.2306518554688,-2.170806884765625
30588,-0.008819580078125,0.9963836669921876,0.00030517578125,0.0042482744902372,0.0084589980542659,-0.0157272983342409,71.54360961914062,103.1396179199219,-2.099075317382812
30589,-0.009246826171875,0.9981231689453124,0.001617431640625,0.0002764361270237,0.0059955744072794,-0.0142045021057128,71.49221801757812,102.990966796875,-2.269744873046875
30590,-0.009246826171875,0.9981231689453124,0.001617431640625,0.0002764361270237,0.0059955744072794,-0.0142045021057128,71.49221801757812,102.990966796875,-2.269744873046875
30591,-0.01129150390625,0.9982452392578124,0.003326416015625,-0.0006868292111903,0.0032937976066023,-0.0103218797594308,71.47283935546875,103.021484375,-2.313003540039062
30592,-0.0108184814453125,0.9957275390625,0.00299072265625,-0.0003928162623196,0.0071103735826909,-0.0147320739924907,71.49729919433594,103.1269073486328,-2.340927124023438
30593,-0.0114898681640625,0.9949798583984376,0.0043182373046875,-0.0054112770594656,0.0018271948210895,-0.0135360490530729,71.45758056640625,103.1341400146484,-2.24139404296875
30594,-0.0114898681640625,0.9949798583984376,0.0043182373046875,-0.0054112770594656,0.0018271948210895,-0.0135360490530729,71.45758056640625,103.1341400146484,-2.24139404296875
30595,-0.0133209228515625,0.9942169189453124,0.00396728515625,-0.0056610815227031,0.0025172198656946,-0.0117842210456728,71.52658081054688,103.2537689208984,-2.358001708984375
30596,-0.013763427734375,0.99371337890625,9.1552734375e-05,-0.0056506949476897,-0.0004644552827812,-0.0128947598859667,71.54229736328125,103.1279449462891,-2.106353759765625
30597,-0.0126495361328125,0.996978759765625,-0.0016021728515625,-0.0044032703153789,0.0024993766564875,-0.0138625521212816,71.45405578613281,103.1103820800781,-2.04217529296875
30598,-0.0126495361328125,0.996978759765625,-0.0016021728515625,-0.0044032703153789,0.0024993766564875,-0.0138625521212816,71.45405578613281,103.1103820800781,-2.04217529296875
30599,-0.01251220703125,0.9979705810546876,-0.0024566650390625,-0.0019251991761848,0.0001019990668282,-0.0123871611431241,71.397705078125,103.2124633789062,-2.185333251953125
30600,-0.0124053955078125,0.9982757568359376,-0.0016937255859375,0.0005656554130837,-0.00023835292086,-0.0101570300757885,71.42822265625,103.2216186523438,-2.181747436523438
30601,-0.0135650634765625,0.9954986572265624,0.0028228759765625,-0.0012136024888604,-0.0034858114086091,-0.0132987610995769,71.42213439941406,103.0770874023438,-2.097640991210938
30602,-0.0135650634765625,0.9954986572265624,0.0028228759765625,-0.0012136024888604,-0.0034858114086091,-0.0132987610995769,71.42213439941406,103.0770874023438,-2.097640991210938
30603,-0.0145721435546875,0.99444580078125,0.0042724609375,-0.0014761901693418,-0.0066030416637659,-0.0129506858065724,71.41154479980469,103.1570281982422,-2.11907958984375
30604,-0.0157318115234375,0.9943084716796876,0.0035400390625,-0.0049912966787815,-0.0048930258490145,-0.0084177190437912,71.39138793945312,103.2557067871094,-2.002090454101562
30605,-0.01593017578125,0.9956512451171876,0.0018463134765625,-0.0037598507478833,-0.0057857176288962,-0.0074027888476848,71.41062927246094,103.1159057617188,-2.098907470703125
30606,-0.01593017578125,0.9956512451171876,0.0018463134765625,-0.0037598507478833,-0.0057857176288962,-0.0074027888476848,71.41062927246094,103.1159057617188,-2.098907470703125
30607,-0.01593017578125,0.9956512451171876,0.0018463134765625,-0.0037598507478833,-0.0057857176288962,-0.0074027888476848,71.41062927246094,103.1159057617188,-2.098907470703125
30608,-0.0160980224609375,0.9963226318359376,0.0006561279296875,-0.0016538230702281,0.0005717806634493,-0.0106907272711396,71.49720764160156,103.1798706054688,-2.02496337890625
30609,-0.01556396484375,0.995269775390625,0.0009918212890625,-0.0019832560792565,0.0118718398734927,-0.0062323296442627,71.35800170898438,103.2239379882812,-2.16925048828125
30610,-0.01556396484375,0.995269775390625,0.0009918212890625,-0.0019832560792565,0.0118718398734927,-0.0062323296442627,71.35800170898438,103.2239379882812,-2.16925048828125
30611,-0.016571044921875,0.995697021484375,0.00115966796875,-0.0019832560792565,0.0118718398734927,-0.0062323296442627,71.4102783203125,103.2852172851562,-2.158111572265625
30612,-0.0175628662109375,0.9945220947265624,0.0023651123046875,-0.0021385182626545,0.0106651615351438,-0.0046192528679966,71.35400390625,103.2187652587891,-2.189285278320312
30613,-0.019012451171875,0.99468994140625,0.0013885498046875,-0.0005496764206327,0.0098041612654924,-0.0046421559527516,71.35479736328125,103.0779113769531,-2.217376708984375
30614,-0.019012451171875,0.99468994140625,0.0013885498046875,-0.0005496764206327,0.0098041612654924,-0.0046421559527516,71.35479736328125,103.0779113769531,-2.217376708984375
30615,-0.0193328857421875,0.9955596923828124,0.000885009765625,0.0046472162939608,0.0107884658500552,-0.003637877991423,71.43089294433594,103.146484375,-2.2725830078125
30616,-0.019561767578125,0.995880126953125,-0.0009765625,0.0046472162939608,0.0107884658500552,-0.003637877991423,71.33601379394531,103.1132049560547,-2.219329833984375
30617,-0.0189666748046875,0.99609375,-0.000457763671875,0.0097626158967614,0.0107879331335425,-0.0045412224717438,71.45108032226562,103.0538635253906,-2.08392333984375
30618,-0.0189666748046875,0.99609375,-0.000457763671875,0.0097626158967614,0.0107879331335425,-0.0045412224717438,71.45108032226562,103.0538635253906,-2.08392333984375
30619,-0.0190887451171875,0.9952239990234376,0.0001220703125,0.008984706364572,0.0119794309139251,-0.0063287359662353,71.38909912109375,103.0007934570312,-2.122726440429688
30620,-0.0188446044921875,0.994354248046875,0.0016937255859375,0.012621252797544,0.0134859811514616,-0.0055233961902558,71.38906860351562,103.1119995117188,-2.018051147460938
30621,-0.0184783935546875,0.9974822998046876,0.0055084228515625,0.0060014333575963,0.0175504982471466,-0.0089636677876114,71.490234375,103.1866760253906,-2.02264404296875
30622,-0.0184783935546875,0.9974822998046876,0.0055084228515625,0.0060014333575963,0.0175504982471466,-0.0089636677876114,71.490234375,103.1866760253906,-2.02264404296875
30623,-0.0191497802734375,0.9976959228515624,0.005035400390625,0.0060014333575963,0.0175504982471466,-0.0089636677876114,71.42140197753906,103.1016693115234,-2.102371215820312
30624,-0.020538330078125,0.9980316162109376,0.002532958984375,0.0079886838793754,0.0178397167474031,-0.0082363579422235,71.43653869628906,103.1322631835938,-2.061325073242188
30625,-0.022705078125,0.997100830078125,7.62939453125e-05,0.0119874207302928,0.0184280090034008,-0.0116641130298376,71.453125,103.105224609375,-2.19830322265625
30626,-0.022705078125,0.997100830078125,7.62939453125e-05,0.0119874207302928,0.0184280090034008,-0.0116641130298376,71.453125,103.105224609375,-2.19830322265625
30627,-0.0226898193359375,0.9977569580078124,-0.0017547607421875,0.0116670420393347,0.0204480178654193,-0.012091283686459,71.44512939453125,103.0988616943359,-2.12188720703125
30628,-0.021392822265625,0.9988861083984376,-0.0025787353515625,0.0161009393632412,0.0182786062359809,-0.0092124063521623,71.464111328125,102.9863891601562,-2.007476806640625
30629,-0.0189208984375,0.9987030029296876,-0.00311279296875,0.0189174991101026,0.0179576948285102,-0.0081537999212741,71.55120849609375,102.8452301025391,-1.835357666015625
30630,-0.0189208984375,0.9987030029296876,-0.00311279296875,0.0189174991101026,0.0179576948285102,-0.0081537999212741,71.55120849609375,102.8452301025391,-1.835357666015625
30631,-0.0181884765625,0.9957427978515624,0.000457763671875,0.0225228853523731,0.0230872090905904,-0.0092715285718441,71.47683715820312,102.9721984863281,-1.972457885742188
30632,-0.017120361328125,0.9940185546875,0.0033111572265625,0.0199603922665119,0.0260776728391647,-0.0075340825133025,71.39016723632812,103.1201171875,-2.00390625
30633,-0.01800537109375,0.994842529296875,0.0055694580078125,0.0171443652361631,0.0295184776186943,-0.0102454470470547,71.33224487304688,103.0100860595703,-1.919540405273438
30634,-0.01800537109375,0.994842529296875,0.0055694580078125,0.0171443652361631,0.0295184776186943,-0.0102454470470547,71.33224487304688,103.0100860595703,-1.919540405273438
30635,-0.0195465087890625,0.9976959228515624,0.005279541015625,0.0182322673499584,0.038406778126955,-0.0100318612530827,71.34440612792969,102.9183807373047,-1.941696166992188
30636,-0.0219268798828125,0.9997100830078124,0.003173828125,0.0221231449395418,0.0444111414253711,-0.0092339785769581,71.34358215332031,102.9165954589844,-2.008270263671875
30637,-0.0228424072265625,1.000091552734375,0.00238037109375,0.0213039573282003,0.042867038398981,-0.0141802672296762,71.35173034667969,102.9698638916016,-1.953155517578125
30638,-0.0228424072265625,1.000091552734375,0.00238037109375,0.0213039573282003,0.042867038398981,-0.0141802672296762,71.35173034667969,102.9698638916016,-1.953155517578125
30639,-0.0211181640625,0.998992919921875,0.00494384765625,0.0241700503975153,0.0473528690636158,-0.0122718466445803,71.41282653808594,102.9352722167969,-1.9808349609375
30640,-0.0203704833984375,0.9958343505859376,0.004150390625,0.02538338676095,0.0424241572618484,-0.0113993948325514,71.36936950683594,102.8728790283203,-1.963287353515625
30641,-0.0174713134765625,0.9945526123046876,0.000274658203125,0.0261655580252409,0.0347076468169689,-0.0127229858189821,71.39593505859375,102.9750823974609,-2.022430419921875
30642,-0.0174713134765625,0.9945526123046876,0.000274658203125,0.0261655580252409,0.0347076468169689,-0.0127229858189821,71.39593505859375,102.9750823974609,-2.022430419921875
30643,-0.014617919921875,0.99432373046875,-0.00152587890625,0.0289554856717586,0.035632561892271,-0.0096286591142416,71.37295532226562,102.9072723388672,-1.999679565429688
30644,-0.013824462890625,0.9941864013671876,-0.0038909912109375,0.0280958171933889,0.0311094503849744,-0.0095327850431203,71.47087097167969,102.9120941162109,-1.784698486328125
30645,-0.0153045654296875,0.9953765869140624,-0.00201416015625,0.0245500840246677,0.033372338861227,-0.0096944393590092,71.43070983886719,102.8574676513672,-1.516937255859375
30646,-0.0153045654296875,0.9953765869140624,-0.00201416015625,0.0245500840246677,0.033372338861227,-0.0096944393590092,71.43070983886719,102.8574676513672,-1.516937255859375
30647,-0.016082763671875,0.995147705078125,-0.0017852783203125,0.0214272607117891,0.0301456525921821,-0.0112949991598725,71.46537780761719,103.0204010009766,-1.6832275390625
30648,-0.017913818359375,0.9952850341796876,0.0002899169921875,0.021328991279006,0.0297509711235761,-0.0087799094617366,71.35221862792969,103.0447998046875,-1.813201904296875
30649,-0.0170440673828125,0.9990997314453124,0.0043182373046875,0.0213737320154905,0.0297118220478296,-0.0094864461570978,71.32888793945312,103.0645751953125,-2.0615234375
30650,-0.0170440673828125,0.9990997314453124,0.0043182373046875,0.0213737320154905,0.0297118220478296,-0.0094864461570978,71.32888793945312,103.0645751953125,-2.0615234375
30651,-0.0170440673828125,0.9990997314453124,0.0043182373046875,0.0213737320154905,0.0297118220478296,-0.0094864461570978,71.32888793945312,103.0645751953125,-2.0615234375
30652,-0.0162200927734375,0.99957275390625,0.002288818359375,0.0203947536647319,0.0340160243213176,-0.0088675273582339,71.34396362304688,103.0505828857422,-2.019790649414062
30653,-0.015228271484375,0.9965972900390624,0.00146484375,0.0253306571394205,0.0355156511068344,-0.0051612062379717,71.36177062988281,103.0831451416016,-2.073806762695312
30654,-0.015228271484375,0.9965972900390624,0.00146484375,0.0253306571394205,0.0355156511068344,-0.0051612062379717,71.36177062988281,103.0831451416016,-2.073806762695312
30655,-0.015594482421875,0.9967803955078124,0.0005950927734375,0.0256355889141559,0.031112378463149,-0.010163421742618,71.35487365722656,103.1030120849609,-2.100570678710938
30656,-0.0146484375,0.997344970703125,-0.000701904296875,0.0230581816285848,0.0356128551065921,-0.007497863844037,71.36811828613281,102.9948577880859,-2.029541015625
30657,-0.016387939453125,0.9974365234375,-0.000244140625,0.022120214998722,0.0328476950526237,-0.0075572519563138,71.27255249023438,103.1506042480469,-2.054977416992188
30658,-0.016387939453125,0.9974365234375,-0.000244140625,0.022120214998722,0.0328476950526237,-0.0075572519563138,71.27255249023438,103.1506042480469,-2.054977416992188
30659,-0.01727294921875,0.9966888427734376,-0.0007171630859375,0.0210256557911634,0.031688954681158,-0.0072970613837242,71.29891967773438,103.1161041259766,-2.083847045898438
30660,-0.0182952880859375,0.994873046875,-0.0012969970703125,0.0233098492026329,0.0333475694060325,-0.0078563252463936,71.32682800292969,103.0252838134766,-2.072784423828125
30661,-0.0186767578125,0.9962615966796876,0.0004119873046875,0.0225780140608549,0.0345443934202194,-0.0079516666010022,71.32328796386719,103.1145172119141,-2.060958862304688
30662,-0.0186767578125,0.9962615966796876,0.0004119873046875,0.0225780140608549,0.0345443934202194,-0.0079516666010022,71.32328796386719,103.1145172119141,-2.060958862304688
30663,-0.0186767578125,0.9962615966796876,0.0004119873046875,0.0225780140608549,0.0345443934202194,-0.0079516666010022,71.32328796386719,103.1145172119141,-2.060958862304688
30664,-0.0177001953125,0.9961700439453124,0.00164794921875,0.0236962754279375,0.0401487499475479,-0.0078747011721134,71.36764526367188,103.1226043701172,-2.065719604492188
30665,-0.0169525146484375,0.9963531494140624,-0.00238037109375,0.0202839653939008,0.0400574058294296,-0.0080270338803529,71.44683837890625,103.1104888916016,-2.1680908203125
30666,-0.01568603515625,0.99664306640625,-0.0023345947265625,0.0189446620643138,0.0398800373077392,-0.0097650131210684,71.42427062988281,103.1705322265625,-2.266036987304688
30667,-0.01568603515625,0.99664306640625,-0.0023345947265625,0.0189446620643138,0.0398800373077392,-0.0097650131210684,71.42427062988281,103.1705322265625,-2.266036987304688
30668,-0.016387939453125,0.995941162109375,-0.0024566650390625,0.017753429710865,0.0374887846410274,-0.011430287733674,71.48060607910156,103.2158050537109,-2.315658569335938
30669,-0.018402099609375,0.994384765625,-0.0012664794921875,0.0220472458750009,0.0366930328309536,-0.0097000319510698,71.43733215332031,103.196533203125,-2.19354248046875
30670,-0.018402099609375,0.994384765625,-0.0012664794921875,0.0220472458750009,0.0366930328309536,-0.0097000319510698,71.43733215332031,103.196533203125,-2.19354248046875
30671,-0.018157958984375,0.991973876953125,-0.0018463134765625,0.0184948537498712,0.032213594764471,-0.0138082234188914,71.37355041503906,103.2018737792969,-2.194122314453125
30672,-0.01702880859375,0.994964599609375,0.002105712890625,0.0184948537498712,0.032213594764471,-0.0138082234188914,71.33038330078125,103.1417541503906,-2.174484252929688
30673,-0.0152740478515625,0.996337890625,0.001007080078125,0.0138915805146098,0.0330285243690013,-0.0109455920755863,71.26580810546875,103.0332946777344,-2.101943969726562
30674,-0.0152740478515625,0.996337890625,0.001007080078125,0.0138915805146098,0.0330285243690013,-0.0109455920755863,71.26580810546875,103.0332946777344,-2.101943969726562
30675,-0.01654052734375,0.9959564208984376,-0.001708984375,0.0137512320652604,0.0352466702461242,-0.0098116183653473,71.333251953125,103.0234985351562,-2.166259765625
30676,-0.015625,0.9951629638671876,-0.001922607421875,0.0154087832197547,0.0382496491074562,-0.0124113960191607,71.2056884765625,103.0170593261719,-2.201858520507812
30677,-0.0140228271484375,0.9949798583984376,-0.0033111572265625,0.0112947328016161,0.0358221791684627,-0.0105248121544718,71.24969482421875,102.9571990966797,-2.349807739257812
30678,-0.0140228271484375,0.9949798583984376,-0.0033111572265625,0.0112947328016161,0.0358221791684627,-0.0105248121544718,71.24969482421875,102.9571990966797,-2.349807739257812
30679,-0.014434814453125,0.996734619140625,-0.0023193359375,0.0112947328016161,0.0358221791684627,-0.0105248121544718,71.27761840820312,102.9751586914062,-2.299896240234375
30680,-0.015350341796875,0.9968719482421876,-0.003875732421875,0.0124822361394763,0.0322855003178119,-0.0096054896712303,71.31681823730469,103.00830078125,-2.264907836914062
30681,-0.015533447265625,0.99566650390625,-0.007965087890625,0.013670272193849,0.0332133471965789,-0.0070903999730944,71.18287658691406,102.95556640625,-2.202239990234375
30682,-0.015533447265625,0.99566650390625,-0.007965087890625,0.013670272193849,0.0332133471965789,-0.0070903999730944,71.18287658691406,102.95556640625,-2.202239990234375
30683,-0.015533447265625,0.99566650390625,-0.007965087890625,0.013670272193849,0.0332133471965789,-0.0070903999730944,71.18287658691406,102.95556640625,-2.202239990234375
30684,-0.0156097412109375,0.9976654052734376,-0.0063018798828125,0.0138377845287323,0.0330122783780098,-0.0064664212986826,71.19230651855469,102.941162109375,-2.27294921875
30685,-0.0164031982421875,0.996307373046875,-0.00701904296875,0.0109543800354003,0.0257130861282348,-0.010898720473051,71.22488403320312,103.1139221191406,-2.183944702148438
30686,-0.0164031982421875,0.996307373046875,-0.00701904296875,0.0109543800354003,0.0257130861282348,-0.010898720473051,71.22488403320312,103.1139221191406,-2.183944702148438
30687,-0.0155792236328125,0.998138427734375,-0.0070648193359375,0.0109543800354003,0.0257130861282348,-0.010898720473051,71.12763977050781,103.0727386474609,-2.266921997070312
