time_idx,accelerometerAccelerationX(G),accelerometerAccelerationY(G),accelerometerAccelerationZ(G),gyroRotationX(rad/s),gyroRotationY(rad/s),gyroRotationZ(rad/s),magnetometerX(µT),magnetometerY(µT),magnetometerZ(µT)
250000,0.0050811767578125,1.4400634765625,-0.2622528076171875,-0.6703251004219055,0.2624593079090118,-0.2457559704780579,60.42791748046875,99.3382568359375,-1.70855712890625
250001,0.06036376953125,1.426010131835938,-0.2271728515625,-0.5235300660133362,0.2326470911502838,-0.1867477744817734,60.00961303710938,99.28128051757812,-1.352508544921875
250002,0.06036376953125,1.426010131835938,-0.2271728515625,-0.5235300660133362,0.2326470911502838,-0.1867477744817734,60.00961303710938,99.28128051757812,-1.352508544921875
250003,0.0994873046875,1.380905151367188,-0.1816558837890625,-0.193663477897644,0.1206997856497765,-0.1172057166695595,59.67829895019531,99.3032684326172,-0.700897216796875
250004,0.08428955078125,1.336685180664062,-0.210540771484375,0.0697705596685409,0.0026522420812398,-0.0677891671657562,59.50794982910156,99.32267761230467,-0.4362030029296875
250005,0.0743408203125,1.239059448242188,-0.2496795654296875,0.2970468699932098,-0.1639311462640762,-0.033147033303976,59.30609130859375,99.39581298828124,-0.242767333984375
250006,0.0743408203125,1.239059448242188,-0.2496795654296875,0.2970468699932098,-0.1639311462640762,-0.033147033303976,59.30609130859375,99.39581298828124,-0.242767333984375
250007,0.1321868896484375,1.056198120117188,-0.3796844482421875,0.4745409488677979,-0.3696398437023163,0.1093890741467476,59.27085876464844,99.337646484375,-0.2471771240234375
250008,0.1699981689453125,1.042648315429688,-0.4269866943359375,0.5588781833648682,-0.3432047665119171,0.2993038892745972,59.31353759765625,99.39971923828124,-0.411224365234375
250009,0.1833953857421875,1.071548461914062,-0.4577178955078125,0.6754745841026306,-0.2736539244651794,0.3546006977558136,59.31723022460938,99.34977722167967,-0.6174774169921875
250010,0.1719512939453125,1.1046142578125,-0.44171142578125,0.6754745841026306,-0.2736539244651794,0.3546006977558136,59.50540161132812,99.32884216308594,-0.8399200439453125
250011,0.1719512939453125,1.1046142578125,-0.44171142578125,0.6754745841026306,-0.2736539244651794,0.3546006977558136,59.50540161132812,99.32884216308594,-0.8399200439453125
250012,0.142242431640625,1.157760620117188,-0.35321044921875,0.6898098587989807,-0.3122364580631256,0.2430462092161179,59.94111633300781,99.47105407714844,-1.133621215820312
250013,0.1348876953125,1.214675903320312,-0.2911376953125,0.6371527910232544,-0.3687748312950134,0.1683072447776794,60.18766784667969,99.49624633789062,-1.331085205078125
250014,0.1348876953125,1.214675903320312,-0.2911376953125,0.6371527910232544,-0.3687748312950134,0.1683072447776794,60.18766784667969,99.49624633789062,-1.331085205078125
250015,0.134918212890625,1.278656005859375,-0.23486328125,0.6371527910232544,-0.3687748312950134,0.1683072447776794,60.39093017578125,99.66419982910156,-1.697799682617188
250016,0.1511383056640625,1.323471069335938,-0.152099609375,0.6012397408485413,-0.432270735502243,0.1090029180049896,60.55780029296875,99.66880798339844,-2.26318359375
250017,0.136505126953125,1.415679931640625,0.1619415283203125,0.4503107070922852,-0.5724552869796753,0.071546621620655,60.83163452148438,99.8094482421875,-3.18603515625
250018,0.136505126953125,1.415679931640625,0.1619415283203125,0.4503107070922852,-0.5724552869796753,0.071546621620655,60.83163452148438,99.8094482421875,-3.18603515625
250019,0.0190582275390625,1.557952880859375,0.49188232421875,0.363122820854187,-0.6923995018005371,0.0119605222716927,61.25460815429688,99.92739868164062,-3.839202880859375
250020,-0.056732177734375,1.64031982421875,0.519439697265625,0.4056159555912018,-0.8913198113441467,-0.0927560329437255,61.44050598144531,100.0279846191406,-4.031723022460938
250021,-0.13623046875,1.643890380859375,0.4329833984375,0.4056159555912018,-0.8913198113441467,-0.0927560329437255,61.69691467285156,100.05908203125,-4.308334350585938
250022,-0.13623046875,1.643890380859375,0.4329833984375,0.4056159555912018,-0.8913198113441467,-0.0927560329437255,61.69691467285156,100.05908203125,-4.308334350585938
250023,-0.1778411865234375,1.40594482421875,0.0491180419921875,0.826752781867981,-0.9646579027175904,-0.21677066385746,62.15286254882812,100.0666046142578,-4.675338745117188
250024,-0.239532470703125,1.223281860351562,-0.10888671875,0.826752781867981,-0.9646579027175904,-0.21677066385746,62.31016540527344,100.0251312255859,-4.891510009765625
250025,-0.3000640869140625,1.048828125,-0.115234375,1.064165830612183,-1.030877947807312,-0.1830776780843735,62.46990966796875,100.1890258789062,-5.375961303710938
250026,-0.3000640869140625,1.048828125,-0.115234375,1.064165830612183,-1.030877947807312,-0.1830776780843735,62.46990966796875,100.1890258789062,-5.375961303710938
250027,-0.3197479248046875,0.9166412353515624,-0.0406341552734375,1.184834241867065,-1.149072766304016,-0.1119883209466934,62.5927734375,100.1840667724609,-5.848312377929688
250028,-0.2162017822265625,0.796966552734375,0.1248321533203125,0.868220329284668,-1.286432981491089,0.0366240590810775,62.94450378417969,100.2076416015625,-6.992156982421875
250029,-0.1469879150390625,0.76312255859375,0.1621551513671875,0.5694373846054077,-1.231302976608276,0.0597307085990905,63.18290710449219,100.2160034179688,-7.65283203125
250030,-0.1469879150390625,0.76312255859375,0.1621551513671875,0.5694373846054077,-1.231302976608276,0.0597307085990905,63.18290710449219,100.2160034179688,-7.65283203125
250031,-0.13067626953125,0.625396728515625,-0.055267333984375,0.1880671083927155,-1.303905725479126,0.038217693567276,63.59403991699219,100.1584167480469,-8.462158203125
250032,-0.1818084716796875,0.5672454833984375,-0.1184539794921875,0.1763255000114441,-1.278933525085449,-0.0072568478062748,63.77583312988281,100.1015167236328,-8.779586791992188
250033,-0.2665252685546875,0.5426177978515625,-0.143341064453125,0.2115463316440582,-0.9734449982643129,-0.063581109046936,63.92082214355469,100.0117492675781,-9.118301391601562
250034,-0.3316497802734375,0.56695556640625,-0.23895263671875,0.3842957317829132,-0.1123523712158203,-0.0763432383537292,64.15684509277344,99.7255401611328,-9.55218505859375
250035,-0.3316497802734375,0.56695556640625,-0.23895263671875,0.3842957317829132,-0.1123523712158203,-0.0763432383537292,64.15684509277344,99.7255401611328,-9.55218505859375
250036,-0.2838287353515625,0.5733489990234375,-0.201263427734375,0.4465061128139496,0.0352144464850425,-0.0572979114949703,64.23738098144531,99.64883422851562,-9.685699462890623
250037,-0.1896209716796875,0.55682373046875,-0.12261962890625,0.4047805070877075,0.112609900534153,-0.0040791640058159,64.19705200195312,99.57054138183594,-9.909500122070312
250038,-0.1896209716796875,0.55682373046875,-0.12261962890625,0.4047805070877075,0.112609900534153,-0.0040791640058159,64.19705200195312,99.57054138183594,-9.909500122070312
250039,-0.079437255859375,0.5615692138671875,-0.0593109130859375,0.1322855949401855,0.1002805307507515,0.091309942305088,64.17721557617188,99.50833129882812,-9.966354370117188
250040,0.067718505859375,0.5838623046875,-0.0201416015625,0.0058946409262716,0.0666605159640312,0.1475268751382828,64.08488464355469,99.5843505859375,-10.44013977050781
250041,0.135955810546875,0.614501953125,-0.011749267578125,-0.1150722578167915,0.0272244308143854,0.2085603922605515,64.12063598632812,99.65457153320312,-10.37045288085938
250042,0.135955810546875,0.614501953125,-0.011749267578125,-0.1150722578167915,0.0272244308143854,0.2085603922605515,64.12063598632812,99.65457153320312,-10.37045288085938
250043,0.1886444091796875,0.7198944091796875,0.0943145751953125,-0.3100795745849609,0.1370792984962463,0.2570648193359375,63.97959899902344,99.70394897460938,-10.241455078125
250044,0.165252685546875,0.770172119140625,0.132415771484375,-0.3910098373889923,0.2569135427474976,0.2342897355556488,63.96818542480469,99.77708435058594,-10.22201538085938
250045,0.113861083984375,0.79559326171875,0.15509033203125,-0.4522660076618195,0.332385927438736,0.2198074609041214,64.08546447753906,99.75860595703124,-10.02774047851562
250046,0.05975341796875,0.8043212890625,0.181640625,-0.5005283355712891,0.3740487098693848,0.2077822238206863,64.09468078613281,99.7681884765625,-9.787734985351562
250047,0.05975341796875,0.8043212890625,0.181640625,-0.5005283355712891,0.3740487098693848,0.2077822238206863,64.09468078613281,99.7681884765625,-9.787734985351562
250048,-0.0229034423828125,0.85400390625,0.2646026611328125,-0.6813217997550964,0.460067480802536,0.1661913692951202,64.17689514160156,99.70376586914062,-9.429443359375
250049,-0.0579071044921875,0.89166259765625,0.2861328125,-0.7914429903030396,0.4992716014385223,0.1288852840662003,64.14736938476562,99.63735961914062,-9.03985595703125
250050,-0.0579071044921875,0.89166259765625,0.2861328125,-0.7914429903030396,0.4992716014385223,0.1288852840662003,64.14736938476562,99.63735961914062,-9.03985595703125
250051,-0.1130828857421875,0.9435882568359376,0.2585296630859375,-0.9391754865646362,0.3143832385540009,0.009865946136415,64.16488647460938,99.62956237792967,-8.159698486328125
250052,-0.1161651611328125,0.9663848876953124,0.24139404296875,-0.9728772640228271,0.0813145637512207,-0.0540547110140323,64.19192504882812,99.53898620605467,-7.727371215820312
250053,-0.0887603759765625,1.015289306640625,0.2494964599609375,-1.000523805618286,-0.1252114474773407,-0.1226849034428596,64.0908203125,99.44424438476562,-7.227630615234375
250054,-0.0887603759765625,1.015289306640625,0.2494964599609375,-1.000523805618286,-0.1252114474773407,-0.1226849034428596,64.0908203125,99.44424438476562,-7.227630615234375
250055,0.0036773681640625,1.211639404296875,0.2281951904296875,-1.03003454208374,-0.2772156298160553,-0.2219595611095428,63.78125,99.29109191894533,-6.1868896484375
250056,0.0285491943359375,1.328414916992188,0.138641357421875,-0.939495325088501,-0.263496607542038,-0.2505115866661072,63.67794799804688,99.39361572265624,-5.79962158203125
250057,0.02655029296875,1.4259033203125,-0.00372314453125,-0.7353214025497437,-0.2195730954408646,-0.2644593417644501,63.45587158203125,99.43666076660156,-5.371261596679688
250058,0.02655029296875,1.4259033203125,-0.00372314453125,-0.7353214025497437,-0.2195730954408646,-0.2644593417644501,63.45587158203125,99.43666076660156,-5.371261596679688
250059,0.0028533935546875,1.476898193359375,-0.1208953857421875,-0.4659954011440277,-0.1556388586759567,-0.2735564410686493,63.16679382324219,99.3463897705078,-4.9591064453125
250060,-0.044677734375,1.414505004882812,-0.1698760986328125,-0.0501494519412517,0.0436393544077873,-0.1649071872234344,62.81764221191406,99.40843200683594,-4.544921875
250061,-0.0451812744140625,1.382278442382812,-0.1777496337890625,0.0587589219212532,0.1391887813806534,-0.082316979765892,62.59567260742188,99.42953491210938,-4.387466430664062
250062,-0.0451812744140625,1.382278442382812,-0.1777496337890625,0.0587589219212532,0.1391887813806534,-0.082316979765892,62.59567260742188,99.42953491210938,-4.387466430664062
250063,-0.036102294921875,1.329757690429688,-0.215789794921875,0.1648997366428375,0.2406200617551804,-0.0014069479657337,62.4537353515625,99.46339416503906,-4.307098388671875
250064,-0.0103759765625,1.113372802734375,-0.3037261962890625,0.3567045927047729,0.3762681782245636,0.2067984491586685,62.37347412109375,99.53556823730467,-4.410003662109375
250065,-0.0129241943359375,1.0169677734375,-0.3150482177734375,0.4485948383808136,0.4222718775272369,0.3169278800487518,62.38984680175781,99.47845458984376,-4.564315795898438
250066,-0.0129241943359375,1.0169677734375,-0.3150482177734375,0.4485948383808136,0.4222718775272369,0.3169278800487518,62.38984680175781,99.47845458984376,-4.564315795898438
250067,0.005126953125,0.8855743408203125,-0.373443603515625,0.5908334851264954,0.5253047943115234,0.4839829206466675,62.37416076660156,99.54289245605467,-4.794158935546875
250068,0.0366973876953125,0.8831939697265625,-0.3969268798828125,0.5853177905082703,0.5722278356552124,0.5242152810096741,62.62464904785156,99.50457763671876,-4.974349975585938
250069,0.0919342041015625,0.9174957275390624,-0.38507080078125,0.5269575715065002,0.5936393737792969,0.5298558473587036,62.77694702148438,99.55007934570312,-5.194107055664062
250070,0.0919342041015625,0.9174957275390624,-0.38507080078125,0.5269575715065002,0.5936393737792969,0.5298558473587036,62.77694702148438,99.55007934570312,-5.194107055664062
250071,0.1596832275390625,1.081680297851562,-0.3013916015625,0.3795792758464813,0.5949810743331909,0.4926400482654572,63.22137451171875,99.626708984375,-5.63580322265625
250072,0.161102294921875,1.175064086914062,-0.2482147216796875,0.3510996997356415,0.5974213480949402,0.459063708782196,63.31593322753906,99.5510711669922,-5.780563354492188
250073,0.147003173828125,1.273834228515625,-0.1984710693359375,0.3625779151916504,0.6074947118759155,0.4193711578845978,63.53251647949219,99.53385925292967,-5.899795532226562
250074,0.147003173828125,1.273834228515625,-0.1984710693359375,0.3625779151916504,0.6074947118759155,0.4193711578845978,63.53251647949219,99.53385925292967,-5.899795532226562
250075,0.102264404296875,1.418350219726562,-0.079864501953125,0.4492094814777374,0.6044254302978516,0.2997928261756897,63.75018310546875,99.49468994140624,-6.091964721679688
250076,0.07818603515625,1.433273315429688,-0.012237548828125,0.4492094814777374,0.6044254302978516,0.2997928261756897,63.91580200195312,99.36505126953124,-6.10748291015625
250077,0.056427001953125,1.387008666992188,0.0436859130859375,0.5015690922737122,0.5739913582801819,0.2773218750953674,64.081298828125,99.35700988769533,-6.24639892578125
250078,0.056427001953125,1.387008666992188,0.0436859130859375,0.5015690922737122,0.5739913582801819,0.2773218750953674,64.081298828125,99.35700988769533,-6.24639892578125
250079,0.015472412109375,1.166152954101562,0.0504913330078125,0.5877377986907959,0.3652509450912476,0.2669009268283844,64.39846801757812,99.30720520019533,-6.617111206054688
250080,-0.0046234130859375,1.021408081054688,0.0579833984375,0.6011300683021545,0.2204090654850006,0.2923519611358643,64.55055236816406,99.31103515625,-6.898666381835938
250081,-0.011932373046875,0.899505615234375,0.0914306640625,0.5804393887519836,0.0946585983037948,0.3611323535442352,64.77732849121094,99.20750427246094,-7.1259765625
250082,0.0024871826171875,0.8326416015625,0.126617431640625,0.4953887164592743,-0.0182514414191246,0.4229496717453003,64.86628723144531,99.19522094726562,-7.474807739257812
250083,0.0384674072265625,0.799591064453125,0.16302490234375,0.1353977769613266,-0.3178820908069611,0.4500795602798462,65.10165405273438,99.05291748046876,-7.689895629882812
250084,0.097412109375,0.7677001953125,0.173583984375,0.1353977769613266,-0.3178820908069611,0.4500795602798462,65.41419982910156,98.9782257080078,-8.021408081054688
250085,0.1409454345703125,0.7288818359375,0.1591339111328125,-0.0062419171445071,-0.4806350469589233,0.4455748200416565,65.58937072753906,98.76361083984376,-8.064804077148438
250086,0.1409454345703125,0.7288818359375,0.1591339111328125,-0.0062419171445071,-0.4806350469589233,0.4455748200416565,65.58937072753906,98.76361083984376,-8.064804077148438
250087,0.10089111328125,0.7702178955078125,0.1046142578125,0.0518032759428024,-0.4373616278171539,0.4243099987506866,66.103515625,98.6485595703125,-8.251327514648438
250088,0.0268096923828125,0.780364990234375,0.035400390625,0.1643673777580261,-0.2839717864990234,0.3544387817382812,66.35626220703125,98.36505126953124,-8.160690307617188
250089,-0.0174560546875,0.76776123046875,0.014007568359375,0.2685108184814453,-0.1052949950098991,0.2764299809932709,66.64817810058594,98.19491577148438,-8.130172729492188
250090,-0.0174560546875,0.76776123046875,0.014007568359375,0.2685108184814453,-0.1052949950098991,0.2764299809932709,66.64817810058594,98.19491577148438,-8.130172729492188
250091,-0.0756378173828125,0.7079010009765625,-0.0055999755859375,0.2944561243057251,0.3269232511520386,0.1162544339895248,66.93670654296875,98.0571746826172,-8.416656494140625
250092,-0.085113525390625,0.6743011474609375,-0.0838470458984375,0.2464113682508469,0.4680566787719727,0.0807182788848877,66.98870849609375,98.07098388671876,-8.573944091796875
250093,-0.0696563720703125,0.674468994140625,-0.1614532470703125,0.2223877906799316,0.5368815660476685,0.0740587785840034,67.06953430175781,98.11412048339844,-8.571456909179688
250094,0.0269775390625,0.7493743896484375,-0.2863006591796875,0.1834390610456467,0.630085825920105,0.0714528784155845,67.10433959960938,98.04258728027344,-8.707748413085938
250095,0.0269775390625,0.7493743896484375,-0.2863006591796875,0.1834390610456467,0.630085825920105,0.0714528784155845,67.10433959960938,98.04258728027344,-8.707748413085938
250096,0.0653228759765625,0.7971649169921875,-0.3189849853515625,0.1200478449463844,0.592436671257019,0.0763592198491096,66.99989318847656,98.10458374023438,-8.749557495117188
250097,0.095611572265625,0.8732452392578125,-0.2909088134765625,0.0210946332663297,0.5353768467903137,0.0597525462508201,66.96444702148438,97.90510559082033,-8.684844970703125
250098,0.095611572265625,0.8732452392578125,-0.2909088134765625,0.0210946332663297,0.5353768467903137,0.0597525462508201,66.96444702148438,97.90510559082033,-8.684844970703125
250099,0.1473541259765625,0.991790771484375,-0.149383544921875,-0.1303327083587646,0.442180335521698,-0.0584720969200134,66.93049621582031,97.93064880371094,-8.452438354492188
250100,0.120269775390625,1.009323120117188,-0.0633544921875,-0.1617084741592407,0.422076404094696,-0.1411315649747849,66.83949279785156,97.92147827148438,-8.354263305664062
250101,0.0631561279296875,1.015670776367188,0.006561279296875,-0.1876718997955322,0.3843649923801422,-0.2289639413356781,66.7952880859375,97.99346923828124,-8.202072143554688
250102,0.0631561279296875,1.015670776367188,0.006561279296875,-0.1876718997955322,0.3843649923801422,-0.2289639413356781,66.7952880859375,97.99346923828124,-8.202072143554688
250103,-0.049468994140625,0.97650146484375,0.1069793701171875,-0.2804540395736694,0.273608386516571,-0.3749640285968781,66.51576232910156,98.2512664794922,-8.049835205078125
250104,-0.080810546875,0.9390716552734376,0.1463775634765625,-0.3422574698925018,0.2166377604007721,-0.4166510105133057,66.36080932617188,98.25257873535156,-7.846893310546875
250105,-0.1077728271484375,0.899871826171875,0.1664276123046875,-0.4066937267780304,0.1716599017381668,-0.4574037790298462,66.25044250488281,98.26426696777344,-7.583358764648438
250106,-0.1213531494140625,0.8577117919921875,0.1673583984375,-0.4664113819599152,0.1073765233159065,-0.4930160939693451,66.02578735351562,98.31907653808594,-7.359283447265625
250107,-0.1213531494140625,0.8577117919921875,0.1673583984375,-0.4664113819599152,0.1073765233159065,-0.4930160939693451,66.02578735351562,98.31907653808594,-7.359283447265625
250108,-0.142822265625,0.825592041015625,0.1752777099609375,-0.5663635730743408,0.1091768220067024,-0.5692093968391418,65.52241516113281,98.4746551513672,-6.873565673828125
250109,-0.173065185546875,0.8299407958984375,0.1794281005859375,-0.6212300062179565,0.1696518808603287,-0.6017098426818848,65.2681884765625,98.62657165527344,-6.609390258789062
250110,-0.20458984375,0.843536376953125,0.1618194580078125,-0.7705462574958801,0.1853986233472824,-0.6410598754882812,64.96669006347656,98.67295837402344,-6.296371459960938
250111,-0.2328338623046875,0.8657073974609375,0.13427734375,-0.85005784034729,0.088539719581604,-0.6308528184890747,64.63226318359375,98.77433776855467,-5.8367919921875
250112,-0.2471466064453125,0.9047088623046876,0.103057861328125,-0.9133510589599608,-0.0454670824110508,-0.6187196969985962,64.38414001464844,98.9118194580078,-5.46038818359375
250113,-0.2421875,0.95025634765625,0.070159912109375,-0.9133510589599608,-0.0454670824110508,-0.6187196969985962,64.01139831542969,98.92868041992188,-4.946731567382812
250114,-0.210723876953125,0.99072265625,0.034759521484375,-0.9769678711891174,-0.2390032559633255,-0.503973126411438,63.68196105957031,98.9568328857422,-4.443222045898438
250115,-0.142974853515625,1.037567138671875,-0.0162353515625,-0.9769678711891174,-0.2390032559633255,-0.503973126411438,63.3314208984375,99.13575744628906,-4.225860595703125
250116,-0.0807342529296875,1.080780029296875,-0.080841064453125,-0.9764943718910216,-0.2327352464199066,-0.3512536287307739,63.01075744628906,99.1100616455078,-3.768447875976562
250117,-0.033355712890625,1.118804931640625,-0.151092529296875,-0.9764943718910216,-0.2327352464199066,-0.3512536287307739,62.69586181640625,99.25627136230467,-3.371719360351562
250118,-0.033355712890625,1.118804931640625,-0.151092529296875,-0.9764943718910216,-0.2327352464199066,-0.3512536287307739,62.69586181640625,99.25627136230467,-3.371719360351562
250119,-0.0374298095703125,1.249664306640625,-0.20574951171875,-0.8952386379241943,0.1040957793593407,-0.1415230482816696,62.45262145996094,99.23406982421876,-3.040145874023438
250120,-0.0443878173828125,1.429031372070312,-0.35333251953125,-0.8555319905281067,0.0901069864630699,-0.0923022329807281,61.94184875488281,99.06997680664062,-2.16156005859375
250121,-0.0072479248046875,1.317276000976562,-0.3496551513671875,-0.8229827880859375,-0.0520320422947406,-0.062021292746067,61.77093505859375,99.06651306152344,-1.64825439453125
250122,-0.0072479248046875,1.317276000976562,-0.3496551513671875,-0.8229827880859375,-0.0520320422947406,-0.062021292746067,61.77093505859375,99.06651306152344,-1.64825439453125
250123,0.0232696533203125,1.14886474609375,-0.3449859619140625,-0.740899384021759,-0.224150538444519,-0.0505827516317367,61.68136596679688,99.0501708984375,-1.22320556640625
250124,0.061126708984375,0.939605712890625,-0.3646392822265625,-0.3329302966594696,-0.4540007710456848,0.0588710382580757,61.59510803222656,98.80726623535156,-0.4707489013671875
250125,0.1052398681640625,0.97357177734375,-0.4019775390625,-0.0355063304305076,-0.3380140066146851,0.1317561715841293,61.63331604003906,98.7233428955078,-0.097137451171875
250126,0.1052398681640625,0.97357177734375,-0.4019775390625,-0.0355063304305076,-0.3380140066146851,0.1317561715841293,61.63331604003906,98.7233428955078,-0.097137451171875
250127,0.155914306640625,1.004852294921875,-0.508056640625,0.2415156811475754,-0.2216522395610809,0.2183989137411118,61.75212097167969,98.69866943359376,-0.0458831787109375
250128,0.2155303955078125,1.10089111328125,-0.5911407470703125,0.4445031583309174,-0.1692057996988297,0.2928662300109863,62.14840698242188,98.45556640625,-0.2258758544921875
250129,0.2304840087890625,1.167251586914062,-0.5599212646484375,0.4195884764194489,-0.1186171919107437,0.2841371893882751,62.26165771484375,98.37400817871094,-0.3382720947265625
250130,0.25537109375,1.20025634765625,-0.4996490478515625,0.3825860023498535,-0.066804863512516,0.257700502872467,62.44778442382812,98.46304321289062,-0.5101318359375
250131,0.2777557373046875,1.210250854492188,-0.417083740234375,0.3675290048122406,-0.041508562862873,0.2752819061279297,62.60978698730469,98.41934204101562,-0.800140380859375
250132,0.2979278564453125,1.233123779296875,-0.3160858154296875,0.4027282893657684,-0.0271043218672275,0.3216115832328796,62.70851135253906,98.42008972167967,-0.94879150390625
250133,0.321502685546875,1.243881225585938,-0.2205810546875,0.4549150466918945,-0.0918798595666885,0.357115238904953,62.98930358886719,98.3267059326172,-1.213882446289062
250134,0.321502685546875,1.243881225585938,-0.2205810546875,0.4549150466918945,-0.0918798595666885,0.357115238904953,62.98930358886719,98.3267059326172,-1.213882446289062
250135,0.3348388671875,1.258087158203125,-0.120330810546875,0.5140132308006287,-0.252060204744339,0.3860582113265991,63.20408630371094,98.3180694580078,-1.50665283203125
250136,0.271026611328125,1.310653686523438,0.13153076171875,0.4665874242782593,-0.6786131262779236,0.4233387410640717,63.64361572265625,98.26048278808594,-2.030975341796875
250137,0.2396087646484375,1.350921630859375,0.2875823974609375,0.4096295833587646,-0.732371985912323,0.4274634420871735,63.92256164550781,98.17710876464844,-2.329925537109375
250138,0.2396087646484375,1.350921630859375,0.2875823974609375,0.4096295833587646,-0.732371985912323,0.4274634420871735,63.92256164550781,98.17710876464844,-2.329925537109375
250139,0.1404876708984375,1.463043212890625,0.444793701171875,0.4655908644199371,-0.2983187735080719,0.2492140829563141,64.75167846679688,98.049560546875,-3.077590942382812
250140,0.0417938232421875,1.5118408203125,0.456207275390625,0.4655908644199371,-0.2983187735080719,0.2492140829563141,65.06941223144531,98.05116271972656,-3.371719360351562
250141,-0.06591796875,1.457626342773438,0.411041259765625,0.5736038684844971,-0.1396095603704453,0.0644397065043449,65.44154357910156,98.0882568359375,-3.51727294921875
250142,-0.06591796875,1.457626342773438,0.411041259765625,0.5736038684844971,-0.1396095603704453,0.0644397065043449,65.44154357910156,98.0882568359375,-3.51727294921875
250143,-0.193084716796875,1.188949584960938,0.2436676025390625,0.781324565410614,-0.2775967121124268,-0.1973338425159454,66.00910949707031,98.05134582519533,-3.938308715820312
250144,-0.191802978515625,1.000030517578125,0.152679443359375,0.8275269865989685,-0.476926863193512,-0.2796532213687897,66.17697143554688,98.02542114257812,-4.263137817382812
250145,-0.1876068115234375,0.8031158447265625,0.006500244140625,0.8134369850158691,-0.8174597024917603,-0.2968918681144714,66.20919799804688,97.96989440917967,-4.681488037109375
250146,-0.1876068115234375,0.8031158447265625,0.006500244140625,0.8134369850158691,-0.8174597024917603,-0.2968918681144714,66.20919799804688,97.96989440917967,-4.681488037109375
250147,-0.1941375732421875,0.6826324462890625,-0.0327301025390625,0.7812516093254089,-1.144145131111145,-0.1808968186378479,66.29678344726562,97.99124145507812,-5.03863525390625
250148,-0.1969451904296875,0.6396942138671875,0.1070404052734375,0.8118481636047363,-0.8597978353500366,-0.0739093795418739,66.42420959472656,98.2294464111328,-5.995498657226562
250149,-0.1657867431640625,0.637054443359375,0.0096435546875,0.8153315782546997,-0.6723429560661316,0.0164045393466949,66.44499206542969,98.23445129394533,-6.504501342773438
250150,-0.1314239501953125,0.66119384765625,-0.111236572265625,0.7993872165679932,-0.9374598860740662,-0.0044773062691092,66.40869140625,98.36343383789062,-6.936737060546875
250151,-0.136383056640625,0.650177001953125,-0.1196441650390625,0.7993872165679932,-0.9374598860740662,-0.0044773062691092,66.47142028808594,98.5140380859375,-7.451416015625
250152,-0.144744873046875,0.601776123046875,-0.0391845703125,0.812101423740387,-0.9348846077919006,-0.0112356105819344,66.55690002441406,98.54893493652344,-7.8682861328125
250153,-0.11956787109375,0.5646209716796875,0.0036163330078125,0.8103378415107727,-0.7702063918113708,0.0263748820871114,66.49899291992188,98.50205993652344,-8.334442138671875
250154,-0.11956787109375,0.5646209716796875,0.0036163330078125,0.8103378415107727,-0.7702063918113708,0.0263748820871114,66.49899291992188,98.50205993652344,-8.334442138671875
250155,-0.0278472900390625,0.582183837890625,-0.0120391845703125,0.7429524064064026,-0.6868353486061096,0.1076566874980927,66.57160949707031,98.5548095703125,-8.922637939453125
250156,0.1426544189453125,0.693695068359375,0.1258392333984375,0.4012544751167297,-0.6277893781661987,0.23005211353302,66.71235656738281,98.39169311523438,-9.88287353515625
250157,0.196685791015625,0.6984100341796875,0.204925537109375,0.2058088183403015,-0.5318598747253418,0.3086603581905365,66.77116394042969,98.37435913085938,-10.22482299804688
250158,0.196685791015625,0.6984100341796875,0.204925537109375,0.2058088183403015,-0.5318598747253418,0.3086603581905365,66.77116394042969,98.37435913085938,-10.22482299804688
250159,0.2721405029296875,0.750335693359375,0.2884674072265625,-0.1041104197502136,-0.3459259867668152,0.494442492723465,67.05583190917969,98.45867919921876,-10.72773742675781
250160,0.242095947265625,0.864898681640625,0.2872161865234375,-0.2295077592134476,-0.256353497505188,0.5277708768844604,67.20726013183594,98.33636474609376,-10.8963623046875
250161,0.1553192138671875,0.9783172607421876,0.26007080078125,-0.3428569436073303,-0.2082919478416443,0.473145455121994,67.4091796875,98.2246551513672,-10.91067504882812
250162,0.055938720703125,0.9536895751953124,0.196197509765625,-0.3278740048408508,-0.0542155690491199,0.2666378021240234,67.76988220214844,98.27725219726562,-10.89129638671875
250163,0.055938720703125,0.9536895751953124,0.196197509765625,-0.3278740048408508,-0.0542155690491199,0.2666378021240234,67.76988220214844,98.27725219726562,-10.89129638671875
250164,0.06048583984375,0.9413909912109376,0.2207794189453125,-0.3278740048408508,-0.0542155690491199,0.2666378021240234,67.9718017578125,98.18280029296876,-10.78840637207031
250165,0.0703887939453125,0.9379425048828124,0.2633209228515625,-0.3475750088691711,0.0092510227113962,0.19753597676754,68.1121826171875,98.1004638671875,-10.66244506835938
250166,0.0703887939453125,0.9379425048828124,0.2633209228515625,-0.3475750088691711,0.0092510227113962,0.19753597676754,68.1121826171875,98.1004638671875,-10.66244506835938
250167,0.0761871337890625,0.9331817626953124,0.2988128662109375,-0.5905227065086365,0.044348556548357,-0.0034519892651587,68.15057373046875,98.07884216308594,-10.50445556640625
250168,0.0204925537109375,0.9638671875,0.360626220703125,-0.7773138880729675,0.0432071238756179,-0.132384404540062,68.30313110351562,97.89411926269533,-10.19007873535156
250169,-0.0420379638671875,1.012435913085938,0.3599853515625,-0.984564244747162,0.0389311537146568,-0.2776481211185455,68.30419921875,97.89456176757812,-9.905242919921877
250170,-0.0420379638671875,1.012435913085938,0.3599853515625,-0.984564244747162,0.0389311537146568,-0.2776481211185455,68.30419921875,97.89456176757812,-9.905242919921877
250171,-0.090057373046875,1.05804443359375,0.3093719482421875,-1.281302690505981,-0.1355727463960648,-0.4831304550170898,68.31539916992188,97.86457824707033,-9.525009155273438
250172,-0.104400634765625,1.163284301757812,0.1748199462890625,-1.150801420211792,0.0163038726896047,-0.4658933877944946,68.041748046875,97.84164428710938,-8.299224853515625
250173,-0.082916259765625,1.252426147460938,0.06280517578125,-1.150801420211792,0.0163038726896047,-0.4658933877944946,67.85174560546875,97.87092590332033,-7.684341430664062
250174,-0.082916259765625,1.252426147460938,0.06280517578125,-1.150801420211792,0.0163038726896047,-0.4658933877944946,67.85174560546875,97.87092590332033,-7.684341430664062
250175,-0.0698089599609375,1.306655883789062,-0.108856201171875,-0.5746941566467285,0.5736222863197327,-0.3600950539112091,67.32502746582031,97.7691650390625,-6.273086547851562
250176,-0.0506439208984375,1.27679443359375,-0.136749267578125,-0.3546052277088165,0.7554389238357544,-0.326397567987442,67.09300231933594,97.71710205078124,-5.763214111328125
250177,-0.02032470703125,1.2830810546875,-0.1935577392578125,-0.2790960967540741,0.8174660801887512,-0.2952603995800018,66.81405639648438,97.82022094726562,-5.704483032226562
250178,-0.02032470703125,1.2830810546875,-0.1935577392578125,-0.2790960967540741,0.8174660801887512,-0.2952603995800018,66.81405639648438,97.82022094726562,-5.704483032226562
250179,-0.0047454833984375,1.319671630859375,-0.293182373046875,-0.2652617692947388,0.8119724988937378,-0.2682183980941772,66.42221069335938,97.89862060546876,-5.548873901367188
250180,0.072906494140625,1.22882080078125,-0.4932708740234375,-0.0808826014399528,0.6756753921508789,-0.1269363760948181,65.84666442871094,97.96180725097656,-4.991241455078125
250181,0.10382080078125,1.147811889648438,-0.555389404296875,0.1008776128292084,0.7073851227760315,-0.0279815662652254,65.66461181640625,97.99508666992188,-4.756362915039062
250182,0.1275787353515625,1.073089599609375,-0.61077880859375,0.276753842830658,0.7738744020462036,0.0561492890119552,65.37521362304688,98.01947021484376,-4.56842041015625
250183,0.1275787353515625,1.073089599609375,-0.61077880859375,0.276753842830658,0.7738744020462036,0.0561492890119552,65.37521362304688,98.01947021484376,-4.56842041015625
250184,0.1902923583984375,0.972259521484375,-0.6445770263671875,0.5300835967063904,0.9466317892074584,0.1725541949272156,65.04786682128906,98.03282165527344,-4.428115844726562
250185,0.2029571533203125,0.9686737060546876,-0.62786865234375,0.5824874043464661,1.019887566566467,0.191650390625,65.00022888183594,98.08511352539062,-4.445831298828125
250186,0.197601318359375,0.9980926513671876,-0.606842041015625,0.5939506888389587,1.056612133979797,0.1995820850133896,64.97958374023438,98.1244659423828,-4.416046142578125
250187,0.177154541015625,1.041915893554688,-0.581573486328125,0.5857990384101868,1.090988755226135,0.2086376249790192,64.90681457519531,98.12678527832033,-4.533859252929688
250188,0.1486663818359375,1.09716796875,-0.5377044677734375,0.5788670778274536,1.108328580856323,0.227255254983902,64.89949035644531,98.22398376464844,-4.711074829101562
250189,0.10736083984375,1.153152465820312,-0.4645538330078125,0.5657387971878052,1.154674768447876,0.2429705709218979,64.93962097167969,98.2963409423828,-4.8826904296875
250190,0.10736083984375,1.153152465820312,-0.4645538330078125,0.5657387971878052,1.154674768447876,0.2429705709218979,64.93962097167969,98.2963409423828,-4.8826904296875
250191,-0.0174560546875,1.258621215820312,-0.298675537109375,0.5539156794548035,1.126588225364685,0.1610149890184402,64.89738464355469,98.53434753417967,-5.3662109375
250192,-0.075225830078125,1.29693603515625,-0.201080322265625,0.5539156794548035,1.126588225364685,0.1610149890184402,64.82792663574219,98.61074829101562,-5.54071044921875
250193,-0.1062774658203125,1.335617065429688,-0.0903778076171875,0.5089937448501587,1.051880717277527,0.1234612166881561,64.87022399902344,98.76829528808594,-5.593246459960938
250194,-0.098114013671875,1.34674072265625,0.0286407470703125,0.3345460295677185,0.809112548828125,0.2102680206298828,64.86152648925781,98.80873107910156,-5.729873657226562
250195,-0.098114013671875,1.34674072265625,0.0286407470703125,0.3345460295677185,0.809112548828125,0.2102680206298828,64.86152648925781,98.80873107910156,-5.729873657226562
250196,-0.024078369140625,1.307815551757812,0.1543121337890625,0.2643930315971375,0.5532445311546326,0.294876366853714,65.00318908691406,98.83355712890624,-6.07257080078125
250197,0.0281524658203125,1.246475219726562,0.1799774169921875,0.2656862735748291,0.2538730204105377,0.3993130326271057,65.14111328125,98.912109375,-6.050765991210938
250198,0.0281524658203125,1.246475219726562,0.1799774169921875,0.2656862735748291,0.2538730204105377,0.3993130326271057,65.14111328125,98.912109375,-6.050765991210938
250199,0.0886688232421875,1.169174194335938,0.2368621826171875,0.3584454953670502,-0.0221721474081277,0.4895015358924866,65.33242797851562,98.85099792480467,-6.052154541015625
250200,0.1304168701171875,0.9011077880859376,0.2296142578125,0.4927327334880829,-0.4228644371032715,0.5352525115013123,65.71971130371094,98.69619750976562,-6.359756469726562
250201,0.1607818603515625,0.766448974609375,0.160797119140625,0.4458517730236053,-0.7394429445266724,0.5018668174743652,66.03372192382812,98.62315368652344,-6.583709716796875
250202,0.20404052734375,0.6515655517578125,0.15606689453125,0.3364605605602264,-1.026897311210632,0.4501266777515411,66.34431457519531,98.35130310058594,-6.728302001953125
250203,0.20404052734375,0.6515655517578125,0.15606689453125,0.3364605605602264,-1.026897311210632,0.4501266777515411,66.34431457519531,98.35130310058594,-6.728302001953125
250204,0.2906646728515625,0.5263671875,0.135711669921875,0.0591093935072422,-1.156421184539795,0.3826746642589569,66.997314453125,98.19142150878906,-7.319549560546875
250205,0.31561279296875,0.5138092041015625,0.0847320556640625,-0.0655611678957939,-1.020599722862244,0.3393239974975586,67.57682800292969,98.07611083984376,-7.8961181640625
250206,0.31561279296875,0.5138092041015625,0.0847320556640625,-0.0655611678957939,-1.020599722862244,0.3393239974975586,67.57682800292969,98.07611083984376,-7.8961181640625
250207,0.3033294677734375,0.5936126708984375,0.05999755859375,-0.1566687077283859,-0.7585052847862244,0.2169118076562881,67.75791931152344,97.94314575195312,-7.946746826171875
250208,0.0453643798828125,0.69549560546875,-0.0703125,-0.2648854553699493,-0.180104523897171,0.0969577059149742,68.06448364257812,97.9001007080078,-8.0054931640625
250209,0.0018463134765625,0.6971282958984375,-0.0911712646484375,-0.234970435500145,-0.138340562582016,0.0675532147288322,68.25196838378906,97.66835021972656,-7.797393798828125
250210,-0.03070068359375,0.6879425048828125,-0.0198822021484375,-0.163647249341011,-0.0670560002326965,0.0346115082502365,68.44964599609375,97.57257080078124,-7.621170043945312
250211,-0.0891265869140625,0.6969757080078125,0.0479888916015625,-0.1362710297107697,0.0706629827618598,0.0229242239147424,68.42001342773438,97.54116821289062,-7.397003173828125
250212,-0.170318603515625,0.750091552734375,0.087677001953125,-0.1707056909799576,0.1967695206403732,-0.0106542417779564,68.51455688476562,97.48112487792967,-7.232025146484375
250213,-0.2491455078125,0.826171875,0.123748779296875,-0.2269670963287354,0.2904318273067474,-0.076630063354969,68.48396301269531,97.43869018554688,-7.117355346679688
250214,-0.2992095947265625,0.894927978515625,0.169952392578125,-0.3047905266284943,0.4114109873771667,-0.2490439116954803,68.53114318847656,97.39048767089844,-7.195770263671875
250215,-0.2992095947265625,0.894927978515625,0.169952392578125,-0.3047905266284943,0.4114109873771667,-0.2490439116954803,68.53114318847656,97.39048767089844,-7.195770263671875
250216,-0.299713134765625,0.9581451416015624,0.249267578125,-0.3124473690986633,0.471843421459198,-0.3118242025375366,68.38276672363281,97.587890625,-7.025283813476562
250217,-0.2713470458984375,0.963958740234375,0.2578277587890625,-0.3212656378746033,0.5579807162284851,-0.3587155342102051,68.25082397460938,97.6062469482422,-6.839614868164062
250218,-0.2487945556640625,0.96368408203125,0.230133056640625,-0.322407603263855,0.6383613348007202,-0.4019668698310852,68.0037841796875,97.6097412109375,-6.617950439453125
250219,-0.2487945556640625,0.96368408203125,0.230133056640625,-0.322407603263855,0.6383613348007202,-0.4019668698310852,68.0037841796875,97.6097412109375,-6.617950439453125
250220,-0.254852294921875,0.9361724853515624,0.1404571533203125,-0.2376181483268738,0.7004438638687134,-0.4932701587677002,67.46859741210938,97.74684143066406,-6.18487548828125
250221,-0.2667388916015625,0.9213714599609376,0.120025634765625,-0.1732375621795654,0.6913704872131348,-0.5292878150939941,67.22122192382812,97.86614990234376,-5.922027587890625
250222,-0.2667388916015625,0.9213714599609376,0.120025634765625,-0.1732375621795654,0.6913704872131348,-0.5292878150939941,67.22122192382812,97.86614990234376,-5.922027587890625
250223,-0.2924346923828125,0.850799560546875,0.120941162109375,-0.1313108801841736,0.6990121603012085,-0.5470580458641052,66.52516174316406,98.0196533203125,-5.61376953125
250224,-0.3167724609375,0.81475830078125,0.126251220703125,-0.1763494610786438,0.7511062026023865,-0.4957564771175385,66.07035827636719,98.1809539794922,-5.417098999023438
250225,-0.3281402587890625,0.8061676025390625,0.105224609375,-0.2527832686901093,0.8406111001968384,-0.4186848700046539,65.81610107421875,98.32960510253906,-5.239700317382812
250226,-0.3281402587890625,0.8061676025390625,0.105224609375,-0.2527832686901093,0.8406111001968384,-0.4186848700046539,65.81610107421875,98.32960510253906,-5.239700317382812
250227,-0.3050079345703125,0.82794189453125,0.03955078125,-0.3427893221378326,0.8950596451759338,-0.3589749336242676,65.46994018554688,98.32530212402344,-5.125381469726562
250228,-0.222412109375,0.85797119140625,-0.0893402099609375,-0.4691608250141144,0.9480978846549988,-0.2841262519359589,64.73248291015625,98.49017333984376,-4.55072021484375
250229,-0.1518096923828125,0.864776611328125,-0.1061553955078125,-0.5261697769165039,0.971615433692932,-0.2163195163011551,64.45675659179688,98.58584594726562,-4.22039794921875
250230,-0.1518096923828125,0.864776611328125,-0.1061553955078125,-0.5261697769165039,0.971615433692932,-0.2163195163011551,64.45675659179688,98.58584594726562,-4.22039794921875
250231,0.0465850830078125,0.98846435546875,-0.075225830078125,-0.7786774039268494,0.956316351890564,-0.11205143481493,63.77796936035156,98.6599578857422,-3.46966552734375
250232,0.1207122802734375,1.104598999023438,-0.10113525390625,-0.7786774039268494,0.956316351890564,-0.11205143481493,63.461181640625,98.56199645996094,-3.124603271484375
250233,0.165740966796875,1.237579345703125,-0.147705078125,-0.7276432514190674,0.8539623022079468,-0.1224343031644821,63.18901062011719,98.51596069335938,-2.647735595703125
250234,0.165740966796875,1.237579345703125,-0.147705078125,-0.7276432514190674,0.8539623022079468,-0.1224343031644821,63.18901062011719,98.51596069335938,-2.647735595703125
250235,0.200927734375,1.361129760742188,-0.1983795166015625,-0.5549553632736206,0.7212870717048645,-0.1238031685352325,62.93180847167969,98.5334014892578,-2.211807250976562
250236,0.279510498046875,1.395355224609375,-0.2595672607421875,-0.2503637671470642,0.5543678402900696,-0.0659702271223068,62.32131958007812,98.33009338378906,-1.473495483398438
250237,0.287261962890625,1.312591552734375,-0.2330474853515625,-0.1934930384159088,0.4399648606777191,-0.0133666712790727,62.05502319335938,98.37144470214844,-1.3109130859375
250238,0.3043212890625,1.200942993164062,-0.240386962890625,-0.0947315692901611,0.296780526638031,0.0068821408785879,61.90434265136719,98.4648895263672,-1.230300903320312
250239,0.3043212890625,1.200942993164062,-0.240386962890625,-0.0947315692901611,0.296780526638031,0.0068821408785879,61.90434265136719,98.4648895263672,-1.230300903320312
250240,0.3351593017578125,0.983062744140625,-0.3537750244140625,0.1041775345802307,-0.0202810373157262,0.0218032989650964,61.7210693359375,98.48464965820312,-0.980072021484375
250241,0.3429412841796875,0.939239501953125,-0.4432525634765625,0.1671170890331268,-0.1717307418584824,0.0443024821579456,61.69474792480469,98.51423645019533,-0.924896240234375
250242,0.3429412841796875,0.939239501953125,-0.4432525634765625,0.1671170890331268,-0.1717307418584824,0.0443024821579456,61.69474792480469,98.51423645019533,-0.924896240234375
250243,0.3417510986328125,0.94622802734375,-0.5029144287109375,0.2407998293638229,-0.2956785261631012,0.0589738376438617,61.737548828125,98.5150146484375,-0.934417724609375
250244,0.3365325927734375,1.001373291015625,-0.5118865966796875,0.3924404978752136,-0.4686668217182159,0.1011407300829887,61.91616821289062,98.59043884277344,-1.029266357421875
250245,0.346466064453125,1.058563232421875,-0.4676666259765625,0.41804039478302,-0.5222141742706299,0.1152895763516426,62.00932312011719,98.54920959472656,-1.137298583984375
250246,0.36846923828125,1.108261108398438,-0.4128875732421875,0.4244056046009064,-0.5743037462234497,0.1285936683416367,62.152587890625,98.57579040527344,-1.417449951171875
250247,0.36846923828125,1.108261108398438,-0.4128875732421875,0.4244056046009064,-0.5743037462234497,0.1285936683416367,62.152587890625,98.57579040527344,-1.417449951171875
250248,0.395751953125,1.2386474609375,-0.2731170654296875,0.4028297364711761,-0.7560650110244751,0.148892804980278,62.37742614746094,98.63796997070312,-1.910797119140625
250249,0.3817138671875,1.31707763671875,-0.193145751953125,0.3526938855648041,-0.8494711518287659,0.1208566427230835,62.53909301757812,98.6890869140625,-2.110855102539062
250250,0.3817138671875,1.31707763671875,-0.193145751953125,0.3526938855648041,-0.8494711518287659,0.1208566427230835,62.53909301757812,98.6890869140625,-2.110855102539062
250251,0.29925537109375,1.471237182617188,-0.01611328125,0.2213361114263535,-0.9410426020622252,-0.0398350320756435,62.98893737792969,98.7874755859375,-2.881439208984375
250252,0.2342071533203125,1.497207641601562,0.0718536376953125,0.2101559042930603,-0.9467966556549072,-0.1226460263133049,63.19917297363281,98.73756408691406,-3.111953735351562
250253,0.1595001220703125,1.5113525390625,0.1475067138671875,0.2454896569252014,-0.9356262683868408,-0.1944427192211151,63.26425170898438,98.75965881347656,-3.37689208984375
250254,0.0756988525390625,1.500930786132812,0.1894989013671875,0.4604565501213074,-0.8956255912780762,-0.3204893171787262,63.46725463867188,98.76974487304688,-3.617584228515625
250255,-0.02301025390625,1.448394775390625,0.1864013671875,0.6367213129997253,-0.9111142754554749,-0.3534528613090515,63.58222961425781,99.01969909667967,-3.936264038085938
250256,-0.1290740966796875,1.38177490234375,0.1640625,0.6367213129997253,-0.9111142754554749,-0.3534528613090515,63.59898376464844,99.08460998535156,-4.375473022460938
250257,-0.2196044921875,1.314254760742188,0.123016357421875,0.7388913631439209,-0.9050310850143432,-0.3775765895843506,63.73165893554688,99.24919128417967,-4.775161743164062
250258,-0.3083343505859375,1.100692749023438,0.031097412109375,0.5037225484848022,-0.7169903516769409,-0.3261818289756775,63.63069152832031,99.4976043701172,-5.434249877929688
250259,-0.3083343505859375,1.100692749023438,0.031097412109375,0.5037225484848022,-0.7169903516769409,-0.3261818289756775,63.63069152832031,99.4976043701172,-5.434249877929688
250260,-0.297149658203125,0.9901275634765624,-0.053924560546875,0.4016534388065338,-0.6903747320175171,-0.2973187565803528,63.69692993164062,99.52584838867188,-5.843826293945312
250261,-0.2919769287109375,0.904052734375,-0.120208740234375,0.4266916811466217,-0.7398980259895325,-0.2499616295099258,63.72909545898438,99.598876953125,-6.078506469726562
250262,-0.2919769287109375,0.904052734375,-0.120208740234375,0.4266916811466217,-0.7398980259895325,-0.2499616295099258,63.72909545898438,99.598876953125,-6.078506469726562
250263,-0.336090087890625,0.821868896484375,-0.14825439453125,0.5688581466674805,-0.7068809866905212,-0.1362196207046509,63.75808715820312,99.68560791015624,-6.786300659179688
250264,-0.3389129638671875,0.830413818359375,-0.1006927490234375,0.5368975400924683,-0.6720049977302551,-0.0731154903769493,63.86650085449219,99.79745483398438,-7.095809936523438
250265,-0.314483642578125,0.8460235595703125,-0.03533935546875,0.4362830519676208,-0.598944902420044,-0.0110063124448061,63.92391967773438,99.98916625976562,-7.544281005859375
250266,-0.2838592529296875,0.8446197509765625,0.005645751953125,0.3198363184928894,-0.4756434857845306,0.0567785948514938,64.02105712890625,99.96217346191406,-7.737350463867188
250267,-0.2838592529296875,0.8446197509765625,0.005645751953125,0.3198363184928894,-0.4756434857845306,0.0567785948514938,64.02105712890625,99.96217346191406,-7.737350463867188
250268,-0.267852783203125,0.809478759765625,0.08782958984375,0.3515377938747406,-0.3833111822605133,0.0912183299660682,64.32301330566406,99.86711120605467,-8.200897216796875
250269,-0.263946533203125,0.77734375,0.13641357421875,0.4004707038402557,-0.2238903492689133,0.1053477302193642,64.47270202636719,99.693115234375,-8.28961181640625
250270,-0.26275634765625,0.7217559814453125,0.172637939453125,0.4141772091388702,0.2934824824333191,0.0783312916755676,64.69927978515625,99.64730834960938,-8.638519287109375
250271,-0.272430419921875,0.6489715576171875,0.188873291015625,0.3529434204101562,0.556413471698761,0.0723354518413543,64.71762084960938,99.5599365234375,-8.755172729492188
250272,-0.275360107421875,0.565460205078125,0.1998291015625,0.3529434204101562,0.556413471698761,0.0723354518413543,64.82618713378906,99.44757080078124,-8.989273071289062
250273,-0.25537109375,0.4981689453125,0.2195281982421875,0.2678016126155853,0.7784063220024109,0.071558341383934,64.8536376953125,99.31947326660156,-9.117080688476562
250274,-0.25537109375,0.4981689453125,0.2195281982421875,0.2678016126155853,0.7784063220024109,0.071558341383934,64.8536376953125,99.31947326660156,-9.117080688476562
250275,-0.129058837890625,0.509613037109375,0.3207550048828125,-0.0922684073448181,1.196737289428711,0.2362657934427261,64.83387756347656,99.51441955566406,-9.254074096679688
250276,-0.06707763671875,0.6100616455078125,0.3803253173828125,-0.0922684073448181,1.196737289428711,0.2362657934427261,64.81149291992188,99.39109802246094,-9.224380493164062
250277,-0.0374755859375,0.7041168212890625,0.38385009765625,-0.247967466711998,1.152010560035706,0.2985036075115204,64.8226318359375,99.34378051757812,-9.061187744140623
250278,-0.0478057861328125,0.7444610595703125,0.38458251953125,-0.408294290304184,0.9884945750236512,0.316426157951355,64.80780029296875,99.33488464355467,-8.7508544921875
250279,-0.07574462890625,0.72607421875,0.4101104736328125,-0.5471366047859192,0.8150569796562195,0.3034807741641998,64.90330505371094,99.25529479980467,-8.507431030273438
250280,-0.084228515625,0.70001220703125,0.4226531982421875,-0.6680683493614197,0.6947079300880432,0.2852940559387207,64.91436767578125,99.08148193359376,-8.127883911132812
250281,-0.064300537109375,0.693603515625,0.40679931640625,-0.7762171626091003,0.630322277545929,0.2421252876520157,64.91677856445312,99.16819763183594,-7.818756103515625
250282,-0.064300537109375,0.693603515625,0.40679931640625,-0.7762171626091003,0.630322277545929,0.2421252876520157,64.91677856445312,99.16819763183594,-7.818756103515625
250283,0.025360107421875,0.7324066162109375,0.274658203125,-0.9712607264518738,0.0856627076864242,0.0468788258731365,64.84745788574219,98.95260620117188,-7.063308715820312
250284,0.0796966552734375,0.795806884765625,0.171356201171875,-0.9712607264518738,0.0856627076864242,0.0468788258731365,64.82855224609375,98.9204559326172,-6.579910278320312
250285,0.1259765625,0.868377685546875,0.123565673828125,-0.9002427458763123,-0.2105654925107956,-0.0091290501877665,64.77301025390625,98.78761291503906,-6.108917236328125
250286,0.1259765625,0.868377685546875,0.123565673828125,-0.9002427458763123,-0.2105654925107956,-0.0091290501877665,64.77301025390625,98.78761291503906,-6.108917236328125
250287,0.1983184814453125,1.027374267578125,0.107086181640625,-0.7221075892448425,0.2544695734977722,-0.07868043333292,64.47282409667969,98.83389282226562,-5.45068359375
250288,0.2035369873046875,1.11383056640625,0.04791259765625,-0.7221075892448425,0.2544695734977722,-0.07868043333292,64.2752685546875,98.85452270507812,-5.05572509765625
250289,0.1959228515625,1.180068969726562,-0.0832061767578125,-0.7095856666564941,0.4248964190483093,-0.2671206593513489,64.04324340820312,98.90138244628906,-4.754104614257812
250290,0.1959228515625,1.180068969726562,-0.0832061767578125,-0.7095856666564941,0.4248964190483093,-0.2671206593513489,64.04324340820312,98.90138244628906,-4.754104614257812
250291,0.156982421875,1.228958129882812,-0.1678924560546875,-0.7095856666564941,0.4248964190483093,-0.2671206593513489,63.7900390625,98.88287353515624,-4.392410278320312
250292,0.091888427734375,1.35479736328125,-0.156951904296875,-0.5841166973114014,0.1247270181775093,-0.2914092242717743,63.3505859375,98.88238525390624,-3.584182739257812
250293,0.0612335205078125,1.408004760742188,-0.1814422607421875,-0.4481924176216125,0.1045405268669128,-0.2628209888935089,63.11222839355469,98.7509307861328,-3.1544189453125
250294,0.0612335205078125,1.408004760742188,-0.1814422607421875,-0.4481924176216125,0.1045405268669128,-0.2628209888935089,63.11222839355469,98.7509307861328,-3.1544189453125
250295,0.0059661865234375,1.424575805664062,-0.3039398193359375,-0.1354116201400757,0.2937471866607666,-0.1350670009851456,62.6314697265625,98.81680297851562,-2.539810180664062
250296,0.000152587890625,1.360992431640625,-0.3297119140625,-0.0377271398901939,0.3613105416297913,-0.0540975891053676,62.41490173339844,98.69827270507812,-2.271652221679688
250297,0.010955810546875,1.278427124023438,-0.3377227783203125,0.0251785907894372,0.3998081088066101,0.0190296173095703,62.28814697265625,98.74440002441406,-2.303359985351562
250298,0.0217742919921875,1.201934814453125,-0.3619842529296875,0.0886313319206237,0.443329244852066,0.0707905516028404,62.11270141601562,98.8122100830078,-2.070480346679688
250299,0.0217742919921875,1.201934814453125,-0.3619842529296875,0.0886313319206237,0.443329244852066,0.0707905516028404,62.11270141601562,98.8122100830078,-2.070480346679688
250300,0.0537872314453125,1.08221435546875,-0.486053466796875,0.2326420396566391,0.6044632792472839,0.206462100148201,61.999267578125,98.8567352294922,-2.035812377929688
250301,0.0657806396484375,1.080123901367188,-0.5351409912109375,0.295841783285141,0.70383220911026,0.2764422297477722,62.0440673828125,99.06094360351562,-2.066024780273438
250302,0.0657806396484375,1.080123901367188,-0.5351409912109375,0.295841783285141,0.70383220911026,0.2764422297477722,62.0440673828125,99.06094360351562,-2.066024780273438
250303,0.07135009765625,1.184921264648438,-0.526275634765625,0.397837907075882,0.8187398910522461,0.3040371239185333,61.96876525878906,99.00936889648438,-2.0640869140625
250304,0.0798187255859375,1.268951416015625,-0.485382080078125,0.397837907075882,0.8187398910522461,0.3040371239185333,62.00416564941406,98.92039489746094,-2.117996215820312
250305,0.10223388671875,1.347732543945312,-0.434814453125,0.4191855490207672,0.7976649403572083,0.2778531908988953,62.11956787109375,98.9787139892578,-2.072998046875
250306,0.10223388671875,1.347732543945312,-0.434814453125,0.4191855490207672,0.7976649403572083,0.2778531908988953,62.11956787109375,98.9787139892578,-2.072998046875
250307,0.1101226806640625,1.485076904296875,-0.2974395751953125,0.5055550336837769,0.8722467422485352,0.1722668409347534,62.20468139648438,99.128662109375,-2.34423828125
250308,0.0955657958984375,1.524871826171875,-0.2524261474609375,0.5847859382629395,0.8964011073112488,0.1285443902015686,62.22769165039062,99.11964416503906,-2.430740356445312
250309,0.0703277587890625,1.502090454101562,-0.2022705078125,0.5847859382629395,0.8964011073112488,0.1285443902015686,62.32618713378906,99.15101623535156,-2.555328369140625
250310,0.03076171875,1.442550659179688,-0.15216064453125,0.6894705891609192,0.8399929404258728,0.1035884469747543,62.272216796875,99.2052764892578,-2.726165771484375
250311,-0.0098724365234375,1.354812622070312,-0.0795135498046875,0.6234734654426575,0.7675999999046326,0.1186992228031158,62.35116577148438,99.32960510253906,-2.817672729492188
250312,-0.0482177734375,1.228118896484375,-0.0265655517578125,0.6234734654426575,0.7675999999046326,0.1186992228031158,62.36029052734375,99.41172790527344,-2.948379516601562
250313,-0.0818634033203125,1.100967407226562,-0.0171661376953125,0.5824466347694397,0.5468044877052307,0.1476965099573135,62.44602966308594,99.29158020019533,-3.022872924804688
250314,-0.0818634033203125,1.100967407226562,-0.0171661376953125,0.5824466347694397,0.5468044877052307,0.1476965099573135,62.44602966308594,99.29158020019533,-3.022872924804688
250315,-0.09130859375,0.8713531494140625,0.0266265869140625,0.6073256134986877,-0.1952211558818817,0.2539787590503693,62.65370178222656,99.41342163085938,-3.794998168945312
250316,-0.0706634521484375,0.777862548828125,0.0429840087890625,0.6073256134986877,-0.1952211558818817,0.2539787590503693,62.65238952636719,99.45729064941406,-4.159881591796875
250317,-0.03839111328125,0.7213134765625,0.0728912353515625,0.5100962519645691,-0.2735860049724579,0.3020205795764923,62.79838562011719,99.42750549316406,-4.38458251953125
250318,-0.021575927734375,0.7430419921875,0.1669158935546875,0.2734001278877258,-0.0044109937734901,0.3640304207801819,62.98957824707031,99.45274353027344,-4.693191528320312
250319,-0.016265869140625,0.792144775390625,0.2438201904296875,0.2734001278877258,-0.0044109937734901,0.3640304207801819,63.13385009765625,99.46540832519533,-4.8359375
250320,-0.0071258544921875,0.8097381591796875,0.2956390380859375,0.1671711504459381,0.2143865972757339,0.3619952201843262,63.44656372070312,99.2458038330078,-5.095458984375
250321,-0.0057220458984375,0.791259765625,0.2957000732421875,0.0733016431331634,0.4192899465560913,0.3204390108585358,63.73832702636719,99.180908203125,-5.23486328125
250322,-0.0057220458984375,0.791259765625,0.2957000732421875,0.0733016431331634,0.4192899465560913,0.3204390108585358,63.73832702636719,99.180908203125,-5.23486328125
250323,-0.0098419189453125,0.7369232177734375,0.2433319091796875,-0.0049873017705976,0.518837571144104,0.2611098885536194,63.90382385253906,99.05654907226562,-5.21942138671875
250324,0.02069091796875,0.5352783203125,0.1002655029296875,-0.100505568087101,0.2850338816642761,0.1315947771072388,64.31039428710938,98.82339477539062,-5.099655151367188
250325,0.06146240234375,0.4590606689453125,0.1051025390625,-0.0880965664982795,0.1484834849834442,0.1042148172855377,64.37149047851562,98.7001953125,-5.002670288085938
250326,0.06146240234375,0.4590606689453125,0.1051025390625,-0.0880965664982795,0.1484834849834442,0.1042148172855377,64.37149047851562,98.7001953125,-5.002670288085938
250327,0.115447998046875,0.4361419677734375,0.1360015869140625,-0.0483057461678981,0.154441773891449,0.123020201921463,64.54122924804688,98.57554626464844,-4.787124633789062
250328,0.00970458984375,0.7554931640625,0.1721038818359375,-0.025350097566843,0.8296447396278381,0.1519652903079987,64.72441101074219,98.4640655517578,-4.562820434570312
250329,-0.0410003662109375,0.7982635498046875,0.1587066650390625,-0.1296815574169159,1.128749370574951,0.1316877156496048,64.69407653808594,98.40763854980467,-4.384506225585938
250330,-0.0705108642578125,0.81805419921875,0.1659088134765625,-0.221590980887413,1.256956338882446,0.0724949762225151,64.7484130859375,98.23521423339844,-4.11285400390625
250331,-0.0705108642578125,0.81805419921875,0.1659088134765625,-0.221590980887413,1.256956338882446,0.0724949762225151,64.7484130859375,98.23521423339844,-4.11285400390625
250332,-0.127227783203125,0.8366546630859375,0.159332275390625,-0.2805597484111786,1.016006112098694,-0.0955515578389167,64.62550354003906,98.1295166015625,-3.692047119140625
250333,-0.1357879638671875,0.8381195068359375,0.1318359375,-0.249035120010376,0.7699952125549316,-0.1975016295909882,64.51359558105469,98.25260925292967,-3.699371337890625
250334,-0.1182708740234375,0.836761474609375,0.091278076171875,-0.185261994600296,0.5674999356269836,-0.2915447652339935,64.26828002929688,98.31089782714844,-3.44927978515625
250335,-0.1182708740234375,0.836761474609375,0.091278076171875,-0.185261994600296,0.5674999356269836,-0.2915447652339935,64.26828002929688,98.31089782714844,-3.44927978515625
250336,-0.1079864501953125,0.8985443115234375,0.0525970458984375,-0.0560337081551551,0.3578747808933258,-0.4328190684318542,63.7703857421875,98.45791625976562,-3.1241455078125
250337,-0.116485595703125,0.912811279296875,0.106842041015625,-0.0320886932313442,0.4983466863632202,-0.4550335705280304,63.4259033203125,98.61158752441406,-2.918975830078125
250338,-0.141204833984375,0.9284820556640624,0.1771240234375,-0.1451547890901566,0.8055098056793213,-0.4028342664241791,62.85235595703125,98.73731994628906,-2.760635375976562
250339,-0.141204833984375,0.9284820556640624,0.1771240234375,-0.1451547890901566,0.8055098056793213,-0.4028342664241791,62.85235595703125,98.73731994628906,-2.760635375976562
250340,-0.15374755859375,0.95562744140625,0.1986846923828125,-0.1451547890901566,0.8055098056793213,-0.4028342664241791,62.44798278808594,99.0015869140625,-2.72247314453125
250341,-0.167755126953125,0.9660491943359376,0.205963134765625,-0.1796038448810577,0.680298388004303,-0.4124866425991058,62.12481689453125,99.00502014160156,-2.653030395507812
250342,-0.167755126953125,0.9660491943359376,0.205963134765625,-0.1796038448810577,0.680298388004303,-0.4124866425991058,62.12481689453125,99.00502014160156,-2.653030395507812
250343,-0.1748199462890625,0.956756591796875,0.1694488525390625,-0.1968808472156525,0.5655075907707214,-0.4067270159721375,61.76405334472656,98.99606323242188,-2.451553344726562
250344,-0.162506103515625,0.869781494140625,-0.0313262939453125,-0.0947238430380821,0.3672656118869781,-0.3866435885429382,61.124755859375,99.04798889160156,-2.134750366210938
250345,-0.13702392578125,0.7934417724609375,-0.137542724609375,0.0355065949261188,0.3262516260147095,-0.3452961444854736,60.90878295898438,99.03645324707033,-2.047866821289062
250346,-0.13702392578125,0.7934417724609375,-0.137542724609375,0.0355065949261188,0.3262516260147095,-0.3452961444854736,60.90878295898438,99.03645324707033,-2.047866821289062
250347,-0.047210693359375,0.644989013671875,-0.26336669921875,0.1651905477046967,0.2668751180171967,-0.2390911430120468,60.2657470703125,99.2394561767578,-1.987167358398438
250348,0.007537841796875,0.6226806640625,-0.2812652587890625,-0.2030777484178543,0.3853639364242554,-0.218716636300087,60.05044555664062,99.34048461914062,-1.966720581054688
250349,0.0638885498046875,0.669708251953125,-0.327850341796875,-0.2030777484178543,0.3853639364242554,-0.218716636300087,59.80856323242188,99.3149871826172,-1.841156005859375
250350,0.15643310546875,0.9546966552734376,-0.47210693359375,-0.7568642497062683,0.3900031745433807,-0.3422172665596008,59.21684265136719,99.5434112548828,-1.73358154296875
250351,0.15643310546875,0.9546966552734376,-0.47210693359375,-0.7568642497062683,0.3900031745433807,-0.3422172665596008,59.21684265136719,99.5434112548828,-1.73358154296875
250352,0.174713134765625,1.135467529296875,-0.451385498046875,-0.9403350353240968,0.3679910600185394,-0.3522911965847015,58.94293212890625,99.5210418701172,-1.572357177734375
250353,0.17657470703125,1.318405151367188,-0.40234375,-0.9900959134101868,0.3595597743988037,-0.3123357892036438,58.64120483398438,99.47921752929688,-1.187210083007812
250354,0.17657470703125,1.318405151367188,-0.40234375,-0.9900959134101868,0.3595597743988037,-0.3123357892036438,58.64120483398438,99.47921752929688,-1.187210083007812
250355,0.1751861572265625,1.493896484375,-0.333526611328125,-0.6625361442565918,0.3869037628173828,-0.1483559161424637,58.40089416503906,99.6104736328125,-0.7395172119140625
250356,0.1136474609375,1.8272705078125,-0.2394866943359375,-0.3884947597980499,0.4176851212978363,-0.0540579073131084,57.82363891601562,99.34455871582033,0.24365234375
250357,0.1304473876953125,1.737945556640625,-0.2792510986328125,-0.0996176674962043,0.3579496145248413,-0.0326436981558799,57.60530090332031,99.27020263671876,0.7264556884765625
250358,0.197052001953125,1.390228271484375,-0.352020263671875,0.2102075666189194,0.2789847552776337,-0.0772428587079048,57.43043518066406,99.18905639648438,1.056991577148438
250359,0.25567626953125,1.205291748046875,-0.4129180908203125,0.4191450774669647,0.194248303771019,-0.0154820205643773,57.35957336425781,99.15788269042967,1.15045166015625
250360,0.2641448974609375,1.179580688476562,-0.4898834228515625,0.5787650942802429,0.1616570800542831,0.0454995743930339,57.27919006347656,99.195068359375,1.181396484375
250361,0.2749176025390625,1.141464233398438,-0.5421142578125,0.6880537867546082,0.0784420743584632,0.0903677120804786,57.21955871582031,99.24069213867188,0.957611083984375
250362,0.2749176025390625,1.141464233398438,-0.5421142578125,0.6880537867546082,0.0784420743584632,0.0903677120804786,57.21955871582031,99.24069213867188,0.957611083984375
250363,0.2669219970703125,1.147109985351562,-0.5472564697265625,0.7458536624908447,-0.0339196175336837,0.1190835162997246,57.15155029296875,99.3960418701172,0.7815704345703125
250364,0.2216339111328125,1.20367431640625,-0.449005126953125,0.6916578412055969,-0.1824038922786713,0.1054233610630035,57.28187561035156,99.67149353027344,0.2321319580078125
250365,0.204437255859375,1.240081787109375,-0.39862060546875,0.6194472908973694,-0.2541606426239014,0.0845013037323951,57.29292297363281,99.708984375,-0.134765625
250366,0.1907958984375,1.279251098632812,-0.33673095703125,0.567852795124054,-0.3230046927928925,0.0689273998141288,57.48616027832031,99.663818359375,-0.5717926025390625
250367,0.165740966796875,1.312103271484375,-0.2789154052734375,0.544169008731842,-0.369069904088974,0.0360775776207447,57.64523315429688,99.7109832763672,-0.9889373779296876
250368,0.125244140625,1.32861328125,-0.222808837890625,0.5448886156082153,-0.3823226094245911,-0.0170519538223743,57.76113891601562,99.8289031982422,-1.288314819335938
250369,0.062957763671875,1.332122802734375,-0.1626129150390625,0.5641291737556458,-0.372502475976944,-0.0709271728992462,57.97891235351562,99.89366149902344,-1.779769897460938
250370,0.062957763671875,1.332122802734375,-0.1626129150390625,0.5641291737556458,-0.372502475976944,-0.0709271728992462,57.97891235351562,99.89366149902344,-1.779769897460938
250371,-0.071929931640625,1.306488037109375,0.0074005126953125,0.5385524034500122,-0.3020149767398834,-0.1962933540344238,58.11129760742188,100.0169372558594,-2.461471557617188
250372,-0.1177978515625,1.293609619140625,0.0924224853515625,0.462240606546402,-0.1903571635484695,-0.2284960299730301,58.1531982421875,100.0146942138672,-2.74951171875
250373,-0.15655517578125,1.299407958984375,0.1337432861328125,0.393794983625412,-0.0866667181253433,-0.2564088702201843,58.1519775390625,99.92449951171876,-2.94342041015625
250374,-0.166473388671875,1.295486450195312,0.1260833740234375,0.3707165420055389,-0.0754494816064834,-0.3149099946022034,58.17884826660156,100.1399078369141,-3.248336791992188
250375,-0.169677734375,1.236587524414062,0.1015625,0.4201003313064575,-0.1330422013998032,-0.3693098723888397,58.14570617675781,100.3046417236328,-3.360504150390625
250376,-0.169097900390625,1.139541625976562,0.0684661865234375,0.5390666723251343,-0.2037659138441086,-0.4304163753986359,58.08854675292969,100.4157409667969,-3.503036499023438
250377,-0.1957550048828125,1.029342651367188,0.026611328125,0.6919044256210327,-0.2433822900056839,-0.4867717921733856,58.05534362792969,100.5347747802734,-3.63653564453125
250378,-0.1957550048828125,1.029342651367188,0.026611328125,0.6919044256210327,-0.2433822900056839,-0.4867717921733856,58.05534362792969,100.5347747802734,-3.63653564453125
250379,-0.2375946044921875,0.8524627685546875,-0.0679779052734375,0.9168959856033324,-0.3212437927722931,-0.6289179921150208,57.72834777832031,100.6414031982422,-4.453201293945312
250380,-0.255767822265625,0.747314453125,-0.1046600341796875,0.9209117889404296,-0.3972480297088623,-0.6642685532569885,57.50144958496094,100.8459930419922,-4.963821411132812
250381,-0.2731170654296875,0.6990203857421875,-0.134033203125,0.8528832197189331,-0.4859557747840881,-0.6191444396972656,57.28738403320312,100.9548034667969,-5.246734619140625
250382,-0.3027801513671875,0.71844482421875,-0.16082763671875,0.7132235765457153,-0.533414363861084,-0.5364291071891785,57.03813171386719,101.0742492675781,-5.796478271484375
250383,-0.3475799560546875,0.7703857421875,-0.1760406494140625,0.5363925695419312,-0.5484569668769836,-0.4228668212890625,56.87898254394531,101.1145172119141,-6.19940185546875
250384,-0.3790435791015625,0.8129730224609375,-0.1251373291015625,0.3778343796730042,-0.5409117341041565,-0.2992199957370758,56.75752258300781,101.0659637451172,-6.421127319335938
250385,-0.3968353271484375,0.8037872314453125,-0.00433349609375,0.329319566488266,-0.4604866504669189,-0.1873150318861008,56.76957702636719,101.0312194824219,-6.801742553710938
250386,-0.406768798828125,0.746612548828125,0.1135101318359375,0.5255756378173828,-0.1335774958133698,0.0204333700239658,56.81011962890625,100.9147186279297,-6.962860107421875
250387,-0.406768798828125,0.746612548828125,0.1135101318359375,0.5255756378173828,-0.1335774958133698,0.0204333700239658,56.81011962890625,100.9147186279297,-6.962860107421875
250388,-0.334716796875,0.5998992919921875,0.147735595703125,0.5828408002853394,-0.0656320080161094,0.0762255266308784,57.02586364746094,100.8638763427734,-7.181198120117188
250389,-0.272247314453125,0.543792724609375,0.1770782470703125,0.46668541431427,0.2245375066995621,0.079028770327568,57.12045288085938,100.7981567382812,-7.330947875976562
250390,-0.20562744140625,0.4974212646484375,0.178131103515625,0.46668541431427,0.2245375066995621,0.079028770327568,57.20492553710938,100.8917846679688,-7.6856689453125
250391,-0.20562744140625,0.4974212646484375,0.178131103515625,0.46668541431427,0.2245375066995621,0.079028770327568,57.20492553710938,100.8917846679688,-7.6856689453125
250392,-0.042510986328125,0.4509429931640625,0.1034088134765625,0.1966550052165985,0.5104555487632751,0.0812666267156601,57.25724792480469,100.9203033447266,-8.2645263671875
250393,0.0395660400390625,0.5411529541015625,0.1149139404296875,-0.0039369510486721,0.562329113483429,0.1457574665546417,57.21237182617188,100.8673400878906,-8.327407836914062
250394,0.02008056640625,0.6802520751953125,0.1744842529296875,-0.204763263463974,0.6591171622276306,0.1593249440193176,57.14398193359375,100.9618072509766,-8.352981567382812
250395,0.02008056640625,0.6802520751953125,0.1744842529296875,-0.204763263463974,0.6591171622276306,0.1593249440193176,57.14398193359375,100.9618072509766,-8.352981567382812
250396,-0.0319061279296875,0.8446807861328125,0.1948394775390625,-0.5258494019508362,0.7460765838623047,0.1632658839225769,57.06517028808594,100.9601440429688,-8.07745361328125
250397,-0.0444183349609375,0.9073028564453124,0.181884765625,-0.6026917099952698,0.685085117816925,0.1542241871356964,57.19889831542969,100.9120025634766,-7.831741333007812
250398,-0.0645904541015625,0.946807861328125,0.172088623046875,-0.6256817579269409,0.6363937854766846,0.1376137882471085,57.09349060058594,100.7496032714844,-7.44696044921875
250399,-0.0645904541015625,0.946807861328125,0.172088623046875,-0.6256817579269409,0.6363937854766846,0.1376137882471085,57.09349060058594,100.7496032714844,-7.44696044921875
250400,-0.0614166259765625,0.9107208251953124,0.1485137939453125,-0.61589515209198,0.5980343818664551,0.1315074265003204,57.11396789550781,100.6263122558594,-6.759292602539062
250401,-0.02593994140625,0.8583526611328125,0.163604736328125,-0.6271288990974426,0.6536619663238525,0.1260428875684738,57.18577575683594,100.6266479492188,-6.494552612304688
250402,-0.0015716552734375,0.8183135986328125,0.18218994140625,-0.6556364297866821,0.7386010885238647,0.1157239377498627,57.08836364746094,100.6189575195312,-6.218765258789062
250403,-0.0015716552734375,0.8183135986328125,0.18218994140625,-0.6556364297866821,0.7386010885238647,0.1157239377498627,57.08836364746094,100.6189575195312,-6.218765258789062
250404,-0.0084686279296875,0.8619232177734375,0.207855224609375,-0.7981570959091187,0.8242853879928589,0.0537367314100265,56.96208190917969,100.5420074462891,-5.471115112304688
250405,-0.0297698974609375,0.926361083984375,0.22332763671875,-0.8885676860809326,0.7824556231498718,0.0019568908028304,56.83773803710938,100.3504028320312,-5.014938354492188
250406,-0.0297698974609375,0.926361083984375,0.22332763671875,-0.8885676860809326,0.7824556231498718,0.0019568908028304,56.83773803710938,100.3504028320312,-5.014938354492188
250407,-0.0724639892578125,1.110702514648438,0.1544342041015625,-0.9830041527748108,0.3571740984916687,-0.1195343881845474,56.59158325195312,100.1872863769531,-4.110794067382812
250408,-0.085052490234375,1.193008422851562,0.079620361328125,-0.9830041527748108,0.3571740984916687,-0.1195343881845474,56.39851379394531,100.2124633789062,-3.715988159179688
250409,-0.0761566162109375,1.260452270507812,-0.003997802734375,-0.9018869400024414,0.1930797100067139,-0.1227903664112091,56.23712158203125,100.2467498779297,-3.195068359375
250410,-0.049560546875,1.320785522460938,-0.1181640625,-0.7889382839202881,0.1040712743997574,-0.1501570045948029,56.03990173339844,100.0689544677734,-2.607742309570312
250411,-0.017486572265625,1.324356079101562,-0.236480712890625,-0.6793708205223083,0.1120865941047668,-0.1702684015035629,55.81243896484375,100.0095977783203,-2.147994995117188
250412,0.02838134765625,1.311447143554688,-0.3692169189453125,-0.5784841179847717,0.2256243377923965,-0.1970904320478439,55.60531616210938,99.98078918457033,-1.633132934570312
250413,0.0737762451171875,1.312728881835938,-0.516265869140625,-0.463354617357254,0.3711445033550262,-0.1915760934352875,55.37911987304688,100.0302124023438,-0.974334716796875
250414,0.0737762451171875,1.312728881835938,-0.516265869140625,-0.463354617357254,0.3711445033550262,-0.1915760934352875,55.37911987304688,100.0302124023438,-0.974334716796875
250415,0.0995941162109375,1.362228393554688,-0.6480865478515625,-0.2374740689992905,0.4596685171127319,-0.0772425904870033,55.09721374511719,100.0103607177734,-0.7718658447265625
250416,0.15472412109375,1.423721313476562,-0.652435302734375,-0.1622999608516693,0.465004175901413,0.0356043316423893,54.60704040527344,100.1249694824219,-0.7671966552734375
250417,0.1707611083984375,1.380111694335938,-0.5846710205078125,-0.0988727807998657,0.5315563082695007,0.1307167410850525,54.35084533691406,100.0690765380859,-0.5627288818359375
250418,0.1795654296875,1.28924560546875,-0.559356689453125,-0.017423465847969,0.5714917182922363,0.2353254407644272,54.27815246582031,99.96337890625,-0.314361572265625
250419,0.1795654296875,1.28924560546875,-0.559356689453125,-0.017423465847969,0.5714917182922363,0.2353254407644272,54.27815246582031,99.96337890625,-0.314361572265625
250420,0.1436920166015625,1.096664428710938,-0.628173828125,0.2410938441753387,0.6297318935394287,0.4184470474720001,54.25325012207031,99.88772583007812,-0.1392974853515625
250421,0.1236419677734375,1.026626586914062,-0.66619873046875,0.3720252215862274,0.6985761523246765,0.5097317099571228,54.40704345703125,99.92742919921876,-0.0939178466796875
250422,0.1236419677734375,1.026626586914062,-0.66619873046875,0.3720252215862274,0.6985761523246765,0.5097317099571228,54.40704345703125,99.92742919921876,-0.0939178466796875
250423,0.080322265625,1.017440795898438,-0.6148529052734375,0.5127261281013489,0.9295662641525269,0.6282775402069092,54.67056274414062,99.99725341796876,-0.47369384765625
250424,0.0613250732421875,1.045486450195312,-0.5723876953125,0.5091021060943604,1.021024227142334,0.616718053817749,54.89791870117188,100.0618286132812,-0.6520233154296875
250425,0.048583984375,1.1083984375,-0.546478271484375,0.4817677140235901,1.089241147041321,0.5828059315681458,55.02699279785156,100.0232391357422,-0.7740936279296875
250426,0.048583984375,1.1083984375,-0.546478271484375,0.4817677140235901,1.089241147041321,0.5828059315681458,55.02699279785156,100.0232391357422,-0.7740936279296875
250427,0.020263671875,1.229766845703125,-0.5213165283203125,0.491940438747406,1.161095142364502,0.4692058265209198,55.37130737304688,100.0683288574219,-0.99884033203125
250428,-0.00836181640625,1.27972412109375,-0.4720916748046875,0.5461384057998657,1.195960164070129,0.3846113383769989,55.49031066894531,100.0803375244141,-1.213043212890625
250429,-0.0544586181640625,1.281814575195312,-0.3894195556640625,0.5851750373840332,1.242756605148315,0.298947274684906,55.611328125,100.2222747802734,-1.568923950195312
250430,-0.0544586181640625,1.281814575195312,-0.3894195556640625,0.5851750373840332,1.242756605148315,0.298947274684906,55.611328125,100.2222747802734,-1.568923950195312
250431,-0.133270263671875,1.1524658203125,-0.2154541015625,0.58115553855896,1.159814357757568,0.1407129019498825,55.71322631835938,100.2789459228516,-2.14837646484375
250432,-0.162841796875,1.047561645507812,-0.132568359375,0.5398530960083008,1.025513291358948,0.1067730486392975,55.69964599609375,100.3364105224609,-2.346725463867188
250433,-0.1812896728515625,0.9778594970703124,-0.0475921630859375,0.5080906748771667,0.8343329429626465,0.0886494442820549,55.62797546386719,100.5582885742188,-2.687057495117188
250434,-0.186737060546875,0.9933624267578124,0.132659912109375,0.3538307845592499,0.5381172895431519,0.1173308864235878,55.6820068359375,100.614013671875,-3.215499877929688
250435,-0.186737060546875,0.9933624267578124,0.132659912109375,0.3538307845592499,0.5381172895431519,0.1173308864235878,55.6820068359375,100.614013671875,-3.215499877929688
250436,-0.184356689453125,1.024444580078125,0.1700439453125,0.2252610772848129,0.507483959197998,0.2074967324733734,55.65452575683594,100.7218627929688,-3.44378662109375
250437,-0.1888275146484375,1.04486083984375,0.160064697265625,0.1219088584184647,0.494734913110733,0.316834419965744,55.6923828125,100.6730346679688,-3.573959350585938
250438,-0.1968994140625,1.01507568359375,0.1451416015625,0.1007066369056702,0.4733478426933289,0.4130352437496185,55.82829284667969,100.6888732910156,-3.648590087890625
250439,-0.1968994140625,1.01507568359375,0.1451416015625,0.1007066369056702,0.4733478426933289,0.4130352437496185,55.82829284667969,100.6888732910156,-3.648590087890625
250440,-0.10174560546875,0.87689208984375,0.2091217041015625,0.2582427263259888,0.4945266544818878,0.4330883026123047,56.15882873535156,100.3981170654297,-3.7471923828125
250441,-0.0290069580078125,0.791351318359375,0.324981689453125,0.3237064182758331,0.623586118221283,0.4322262406349182,56.3929443359375,100.2842864990234,-3.84539794921875
250442,-0.0290069580078125,0.791351318359375,0.324981689453125,0.3237064182758331,0.623586118221283,0.4322262406349182,56.3929443359375,100.2842864990234,-3.84539794921875
250443,0.0648193359375,0.6009979248046875,0.4214324951171875,0.0671111270785331,1.508951544761658,0.3563346862792969,56.73219299316406,99.93864440917967,-3.739791870117188
250444,0.1035919189453125,0.4858551025390625,0.378814697265625,0.0671111270785331,1.508951544761658,0.3563346862792969,56.87760925292969,99.91456604003906,-3.97833251953125
250445,0.136199951171875,0.3782958984375,0.313201904296875,-0.0623933374881744,1.49696147441864,0.3508850634098053,56.97247314453125,99.87171936035156,-3.9661865234375
250446,0.185760498046875,0.2910003662109375,0.2481842041015625,-0.1781311184167862,1.148459672927856,0.3624226748943329,57.07563781738281,99.66343688964844,-3.959213256835938
250447,0.185760498046875,0.2910003662109375,0.2481842041015625,-0.1781311184167862,1.148459672927856,0.3624226748943329,57.07563781738281,99.66343688964844,-3.959213256835938
250448,0.1724700927734375,0.6385498046875,0.3672027587890625,-0.3082656860351562,0.2119793593883514,0.3631470501422882,57.28077697753906,99.3831787109375,-3.630233764648438
250449,0.1002349853515625,0.8226776123046875,0.266632080078125,-0.4113239049911499,0.1733201146125793,0.1947622895240784,57.2962646484375,99.26895141601562,-3.292572021484375
250450,0.0367584228515625,0.9330596923828124,0.0262603759765625,-0.5602611899375916,-0.0941917449235916,0.0174538251012563,57.39973449707031,99.28805541992188,-3.256790161132812
250451,-0.0059356689453125,0.990936279296875,-0.0122528076171875,-0.6613278985023499,-0.3756604492664337,-0.1723344773054123,57.35514831542969,99.38404846191406,-3.055999755859375
250452,-0.014801025390625,1.011947631835938,0.0527496337890625,-0.6914764642715454,-0.3508480489253998,-0.3100292384624481,57.22721862792969,99.36349487304688,-2.807296752929688
250453,-0.02117919921875,1.03802490234375,0.0372467041015625,-0.6619840860366821,-0.1806392818689346,-0.3978733420372009,57.03216552734375,99.3790283203125,-2.555038452148438
250454,0.0048675537109375,1.058013916015625,0.03125,-0.4972435832023621,0.3939630091190338,-0.3274460434913635,56.95211791992188,99.38604736328124,-2.329681396484375
250455,0.0353546142578125,1.088027954101562,0.0261077880859375,-0.4972435832023621,0.3939630091190338,-0.3274460434913635,56.61721801757812,99.30218505859376,-1.982635498046875
250456,0.01580810546875,1.08978271484375,0.01092529296875,-0.3343982100486755,0.8322349190711975,-0.2886698842048645,56.438232421875,99.27310180664062,-1.734024047851562
250457,-0.021728515625,1.034927368164062,-0.000732421875,-0.1817586123943329,1.079811453819275,-0.3118660151958466,56.20857238769531,99.20892333984376,-1.534576416015625
250458,-0.021728515625,1.034927368164062,-0.000732421875,-0.1817586123943329,1.079811453819275,-0.3118660151958466,56.20857238769531,99.20892333984376,-1.534576416015625
250459,-0.064239501953125,0.965789794921875,0.0312957763671875,-0.0738052502274513,1.048182606697083,-0.361556351184845,55.96736145019531,99.33497619628906,-1.416030883789062
250460,-0.130035400390625,0.85791015625,0.0886688232421875,-0.1292123198509216,0.7942214608192444,-0.4160350263118744,55.30322265625,99.2799072265625,-1.0013427734375
250461,-0.12042236328125,0.812957763671875,0.042877197265625,-0.2139610201120377,0.6171654462814331,-0.4403984248638153,54.95062255859375,99.318115234375,-0.8271942138671875
250462,-0.12042236328125,0.812957763671875,0.042877197265625,-0.2139610201120377,0.6171654462814331,-0.4403984248638153,54.95062255859375,99.318115234375,-0.8271942138671875
250463,-0.0566864013671875,0.7764739990234375,-0.0491180419921875,-0.2794505655765533,0.3464482128620148,-0.4711880385875702,54.29942321777344,99.43280029296876,-0.615570068359375
250464,-0.0179901123046875,0.7873382568359375,-0.1315460205078125,-0.2794505655765533,0.3464482128620148,-0.4711880385875702,53.98861694335938,99.52084350585938,-0.4511566162109375
250465,0.010406494140625,0.794952392578125,-0.25738525390625,-0.2833339869976044,0.2203294336795807,-0.4856516420841217,53.64939880371094,99.5638427734375,-0.43011474609375
250466,0.010406494140625,0.794952392578125,-0.25738525390625,-0.2833339869976044,0.2203294336795807,-0.4856516420841217,53.64939880371094,99.5638427734375,-0.43011474609375
250467,0.09735107421875,0.6793060302734375,-0.33294677734375,-0.3159230649471283,-0.0105288075283169,-0.4708644449710846,53.04045104980469,99.72984313964844,-0.22589111328125
250468,0.1466522216796875,0.66070556640625,-0.3356170654296875,-0.3872670233249664,0.049791257828474,-0.4737135171890259,52.6318359375,99.74546813964844,-0.0685272216796875
250469,0.200714111328125,0.749053955078125,-0.40484619140625,-0.5376730561256409,0.0613025054335594,-0.5061239004135132,52.28067016601562,99.72889709472656,0.0682525634765625
250470,0.2390594482421875,0.9022674560546876,-0.4597930908203125,-0.7376223802566528,0.0580649003386497,-0.5276369452476501,51.96440124511719,99.76904296875,0.3156280517578125
250471,0.2408294677734375,1.078414916992188,-0.432525634765625,-0.89936363697052,0.1328243613243103,-0.440116673707962,51.55783081054688,99.84078979492188,0.57208251953125
250472,0.2109527587890625,1.243301391601562,-0.3326568603515625,-0.89936363697052,0.1328243613243103,-0.440116673707962,51.23550415039062,99.8164520263672,0.9659881591796876
250473,0.145111083984375,1.414794921875,-0.2232513427734375,-0.8234333992004395,0.0676440224051475,-0.3419096767902374,50.91523742675781,99.7440948486328,1.483856201171875
250474,0.145111083984375,1.414794921875,-0.2232513427734375,-0.8234333992004395,0.0676440224051475,-0.3419096767902374,50.91523742675781,99.7440948486328,1.483856201171875
250475,-0.0387420654296875,1.649444580078125,-0.046844482421875,-0.5614822506904602,0.0972783491015434,-0.1087469831109047,50.29084777832031,99.69572448730467,2.237350463867188
250476,-0.1217041015625,1.593353271484375,-0.104156494140625,-0.0477619282901287,0.2155799567699432,0.1196859180927277,50.22520446777344,99.65373229980467,2.591903686523438
250477,-0.113922119140625,1.366989135742188,-0.2087249755859375,-0.0477619282901287,0.2155799567699432,0.1196859180927277,49.99203491210938,99.58815002441406,2.842483520507812
250478,0.02349853515625,1.165908813476562,-0.22332763671875,0.2242115288972855,0.2923985719680786,0.2163397520780563,50.01722717285156,99.43190002441406,3.00341796875
250479,0.02349853515625,1.165908813476562,-0.22332763671875,0.2242115288972855,0.2923985719680786,0.2163397520780563,50.01722717285156,99.43190002441406,3.00341796875
250480,0.0662384033203125,1.191390991210938,-0.3113861083984375,0.3857735395431519,0.37956303358078,0.2329642772674561,50.01127624511719,99.4679718017578,2.89727783203125
250481,0.1160430908203125,1.179656982421875,-0.32025146484375,0.4772155582904816,0.4209056794643402,0.2113884091377258,50.04641723632812,99.58523559570312,2.8258056640625
250482,0.1605987548828125,1.183242797851562,-0.3282928466796875,0.4214223325252533,0.3161614239215851,0.1185082718729973,50.14674377441406,99.72213745117188,2.697616577148438
250483,0.1605987548828125,1.183242797851562,-0.3282928466796875,0.4214223325252533,0.3161614239215851,0.1185082718729973,50.14674377441406,99.72213745117188,2.697616577148438
250484,0.2045440673828125,1.231979370117188,-0.2646331787109375,0.3886095285415649,0.270137757062912,0.0915301814675331,50.15531921386719,99.6151885986328,2.421035766601562
250485,0.1973419189453125,1.268264770507812,-0.2169189453125,0.3752465844154358,0.1911648958921432,0.0799891054630279,50.28042602539062,99.64860534667967,2.230072021484375
250486,0.136871337890625,1.334381103515625,-0.1173248291015625,0.3776817917823792,0.0382400639355182,0.0972509160637855,50.36231994628906,99.60958862304688,1.927719116210938
250487,0.136871337890625,1.334381103515625,-0.1173248291015625,0.3776817917823792,0.0382400639355182,0.0972509160637855,50.36231994628906,99.60958862304688,1.927719116210938
250488,0.083099365234375,1.364288330078125,-0.099456787109375,0.3848765790462494,-0.0441645309329032,0.105791412293911,50.41349792480469,99.66307067871094,1.659469604492188
250489,0.02618408203125,1.370223999023438,-0.0814971923828125,0.4198084473609924,-0.0773216858506202,0.0945693850517272,50.3936767578125,99.70465087890624,1.544815063476562
250490,-0.0199432373046875,1.317855834960938,-0.07977294921875,0.4902788996696472,0.1782304495573044,-0.0073559172451496,50.76921081542969,99.68601989746094,1.24139404296875
250491,-0.0199432373046875,1.317855834960938,-0.07977294921875,0.4902788996696472,0.1782304495573044,-0.0073559172451496,50.76921081542969,99.68601989746094,1.24139404296875
250492,-0.0077362060546875,1.296539306640625,-0.007965087890625,0.4902788996696472,0.1782304495573044,-0.0073559172451496,50.86369323730469,99.69259643554688,0.99505615234375
250493,-0.0035247802734375,1.309524536132812,0.0682220458984375,0.4164930880069733,0.3054203689098358,-0.0484719276428222,50.90263366699219,99.77961730957033,0.7223052978515625
250494,-0.0157623291015625,1.321319580078125,0.075958251953125,0.3401146829128265,0.2706834375858307,-0.1497391611337662,50.95021057128906,99.95985412597656,0.2982940673828125
250495,-0.0320281982421875,1.291030883789062,0.0260009765625,0.3388965725898743,0.069825954735279,-0.2909327745437622,50.94139099121094,100.0635681152344,0.0857696533203125
250496,-0.0278778076171875,1.232315063476562,-0.0078125,0.4509152472019196,-0.1304488182067871,-0.4361703991889954,50.94810485839844,100.0099334716797,-0.0370635986328125
250497,-0.0153961181640625,1.144454956054688,-0.0521697998046875,0.6416047811508179,-0.2443146705627441,-0.547683596611023,50.95722961425781,100.0714111328125,-0.04248046875
250498,-0.0096588134765625,1.028335571289062,-0.10333251953125,0.8431991338729858,-0.2927237451076508,-0.6382667422294617,50.82882690429688,100.1787109375,-0.4039459228515625
250499,-0.02203369140625,0.91192626953125,-0.1234893798828125,0.9701458811759948,-0.2554669082164764,-0.7195541858673096,50.74488830566406,100.2283782958984,-0.59552001953125
250500,-0.0715484619140625,0.825653076171875,-0.13250732421875,0.9701458811759948,-0.2554669082164764,-0.7195541858673096,50.56855773925781,100.2174530029297,-0.8628082275390625
250501,-0.1553192138671875,0.774932861328125,-0.15203857421875,0.8668522834777832,-0.2939519882202148,-0.7244786024093628,50.4010009765625,100.3039093017578,-1.100830078125
250502,-0.2952728271484375,0.7421875,-0.1340179443359375,0.6462863683700562,-0.4521544277667999,-0.6793585419654846,49.97587585449219,100.6422882080078,-2.014572143554688
250503,-0.2952728271484375,0.7421875,-0.1340179443359375,0.6462863683700562,-0.4521544277667999,-0.6793585419654846,49.97587585449219,100.6422882080078,-2.014572143554688
250504,-0.3292236328125,0.7012939453125,-0.1241607666015625,0.6203583478927612,-0.4558173418045044,-0.637256920337677,49.85025024414062,100.6437225341797,-2.355270385742188
250505,-0.363037109375,0.6627655029296875,-0.098175048828125,0.6201809644699097,-0.2519968152046204,-0.5135487914085388,49.66999816894531,100.5931701660156,-2.501022338867188
250506,-0.3937225341796875,0.620635986328125,-0.0650787353515625,0.6201809644699097,-0.2519968152046204,-0.5135487914085388,49.50726318359375,100.7383422851562,-2.787673950195312
250507,-0.3937225341796875,0.620635986328125,-0.0650787353515625,0.6201809644699097,-0.2519968152046204,-0.5135487914085388,49.50726318359375,100.7383422851562,-2.787673950195312
250508,-0.418975830078125,0.530426025390625,-0.025909423828125,0.4385877549648285,0.2665294408798218,-0.2706722319126129,49.28114318847656,100.9304962158203,-3.477569580078125
250509,-0.393402099609375,0.5024566650390625,-0.02984619140625,0.4385877549648285,0.2665294408798218,-0.2706722319126129,49.13644409179688,100.8703308105469,-3.721206665039062
250510,-0.255645751953125,0.477294921875,-0.0798187255859375,0.2294726073741913,0.5660753846168518,0.0038599856197834,48.8970947265625,100.9202880859375,-4.162063598632812
250511,-0.255645751953125,0.477294921875,-0.0798187255859375,0.2294726073741913,0.5660753846168518,0.0038599856197834,48.8970947265625,100.9202880859375,-4.162063598632812
250512,-0.1747589111328125,0.484649658203125,-0.0776214599609375,0.1054044514894485,0.6179870367050171,0.0983332246541976,48.77658081054688,100.8551635742188,-4.3302001953125
250513,-0.08868408203125,0.5300445556640625,-0.0606689453125,0.1054044514894485,0.6179870367050171,0.0983332246541976,48.65103149414062,100.9095001220703,-4.379547119140625
250514,-0.0145721435546875,0.59051513671875,-0.01763916015625,-0.0964405164122581,0.6248436570167542,0.1535754501819611,48.39219665527344,101.0907745361328,-4.713882446289062
250515,0.0577239990234375,0.630859375,0.0588226318359375,-0.3479864597320557,0.6165500283241272,0.2086464166641235,48.29371643066406,101.2525939941406,-5.04864501953125
250516,0.1192169189453125,0.6740570068359375,0.1559295654296875,-0.5940806865692139,0.6309462785720825,0.2840317189693451,48.16159057617188,101.3088989257812,-5.03704833984375
250517,0.15478515625,0.7486114501953125,0.2527923583984375,-0.7856088280677795,0.7073047161102295,0.3733725249767303,48.19020080566406,101.2756805419922,-4.949417114257812
250518,0.179779052734375,0.8485565185546875,0.316864013671875,-0.9129244089126588,0.8129397630691528,0.4030521214008331,48.17570495605469,101.2857208251953,-4.83154296875
250519,0.1730194091796875,0.9989013671875,0.35125732421875,-0.9034600853919984,0.7298800349235535,0.258741021156311,48.227783203125,101.1866302490234,-4.531829833984375
250520,0.128143310546875,1.139617919921875,0.38421630859375,-0.9034600853919984,0.7298800349235535,0.258741021156311,48.32386779785156,101.0141143798828,-4.143707275390625
250521,0.0616607666015625,1.184478759765625,0.4241943359375,-0.879944920539856,0.5572459697723389,0.0914337784051895,48.51078796386719,100.9000854492188,-3.68927001953125
250522,-0.0058746337890625,1.153228759765625,0.4639434814453125,-0.8535630702972412,0.3390885889530182,-0.0437991470098495,48.551025390625,100.7420501708984,-3.2298583984375
250523,-0.0058746337890625,1.153228759765625,0.4639434814453125,-0.8535630702972412,0.3390885889530182,-0.0437991470098495,48.551025390625,100.7420501708984,-3.2298583984375
250524,-0.0970306396484375,1.041946411132812,0.5530242919921875,-0.8765498995780945,0.081558771431446,-0.2358069270849228,48.57661437988281,100.3002471923828,-2.459060668945312
250525,-0.1386871337890625,1.024703979492188,0.538665771484375,-0.9335532784461976,0.0133219305425882,-0.3109919726848602,48.58212280273438,100.2659606933594,-2.083465576171875
250526,-0.1912841796875,1.026123046875,0.473114013671875,-0.966831624507904,-0.1327151656150818,-0.3745746612548828,48.34942626953125,100.1839752197266,-1.668624877929688
250527,-0.24505615234375,1.035415649414062,0.36761474609375,-0.9282882213592528,-0.3841087818145752,-0.4246719181537628,48.27203369140625,100.0502624511719,-1.337661743164062
250528,-0.27642822265625,1.022293090820312,0.2484130859375,-0.640032947063446,-0.9856479167938232,-0.4971250891685486,48.04643249511719,99.87338256835938,-0.851165771484375
250529,-0.2739715576171875,1.029083251953125,0.1128997802734375,-0.640032947063446,-0.9856479167938232,-0.4971250891685486,47.97312927246094,99.75631713867188,-0.3871307373046875
250530,-0.2538299560546875,1.063812255859375,-0.0023193359375,-0.4134714603424072,-1.033099889755249,-0.5297360420227051,47.63276672363281,99.63644409179688,0.072479248046875
250531,-0.250152587890625,1.0755615234375,-0.1533203125,-0.2054498344659805,-0.544914186000824,-0.3587999641895294,47.11503601074219,99.65472412109376,0.75439453125
250532,-0.20037841796875,1.13189697265625,-0.3995208740234375,-0.0556400939822197,0.1029820442199707,-0.1356041729450226,46.77392578125,99.71295166015624,0.8397369384765625
250533,-0.10906982421875,1.203414916992188,-0.6055755615234375,-0.0835710614919662,0.2951677143573761,-0.0261999126523733,46.55656433105469,99.7902374267578,0.9339752197265624
250534,-0.02716064453125,1.25579833984375,-0.53460693359375,-0.3427770733833313,0.0998432412743568,-0.0398645922541618,46.35569763183594,99.80671691894533,0.9650115966796876
250535,-0.02716064453125,1.25579833984375,-0.53460693359375,-0.3427770733833313,0.0998432412743568,-0.0398645922541618,46.35569763183594,99.80671691894533,0.9650115966796876
250536,-0.0223541259765625,1.325485229492188,-0.2972564697265625,-0.561795711517334,0.1890000104904175,-0.0426268242299556,46.11112976074219,99.66273498535156,1.31439208984375
250537,-0.0040283203125,1.325103759765625,-0.292755126953125,-0.2907325029373169,0.2235611826181412,0.0200959462672472,46.03204345703125,99.51271057128906,1.672500610351562
250538,0.00531005859375,1.295364379882812,-0.282012939453125,0.0158740375190973,0.2838921844959259,0.1168797463178635,45.98100280761719,99.43951416015624,1.9112548828125
250539,0.00531005859375,1.295364379882812,-0.282012939453125,0.0158740375190973,0.2838921844959259,0.1168797463178635,45.98100280761719,99.43951416015624,1.9112548828125
250540,-0.0516815185546875,1.241180419921875,-0.4467620849609375,0.3484882116317749,0.4996838569641113,0.3469688892364502,45.98890686035156,99.39811706542967,1.978897094726562
250541,-0.0463409423828125,1.202651977539062,-0.5296630859375,0.4030515849590302,0.5809387564659119,0.4584040641784668,45.95448303222656,99.43049621582033,1.9769287109375
250542,0.036956787109375,1.196548461914062,-0.5193023681640625,0.4423667788505554,0.8392153382301331,0.5795480608940125,46.1168212890625,99.58299255371094,1.59185791015625
250543,0.036956787109375,1.196548461914062,-0.5193023681640625,0.4423667788505554,0.8392153382301331,0.5795480608940125,46.1168212890625,99.58299255371094,1.59185791015625
250544,0.075836181640625,1.233612060546875,-0.4842529296875,0.4618890583515167,0.9401472806930542,0.5740760564804077,46.31483459472656,99.63825988769533,1.378585815429688
250545,0.1077728271484375,1.262908935546875,-0.45135498046875,0.4947578012943268,0.9870849251747132,0.5286105871200562,46.470703125,99.64250183105467,1.096588134765625
250546,0.12274169921875,1.270751953125,-0.4404449462890625,0.5544013977050781,1.018950223922729,0.4533946514129639,46.68972778320312,99.69929504394533,0.8369903564453125
250547,0.1215057373046875,1.262847900390625,-0.4298858642578125,0.647948682308197,1.03709888458252,0.3637020587921143,46.82186889648438,99.77194213867188,0.5133056640625
250548,0.1050872802734375,1.232208251953125,-0.40008544921875,0.7304685711860657,1.065045475959778,0.2730408608913422,46.96672058105469,99.7606964111328,0.337921142578125
250549,0.0725555419921875,1.197006225585938,-0.3619842529296875,0.7934896349906921,1.080366134643555,0.1878319531679153,46.97505187988281,99.90611267089844,0.004425048828125
250550,0.0342864990234375,1.152633666992188,-0.285797119140625,0.8088129162788391,1.107840418815613,0.1091866716742516,47.05859375,99.91944885253906,-0.3943939208984375
250551,0.0342864990234375,1.152633666992188,-0.285797119140625,0.8088129162788391,1.107840418815613,0.1091866716742516,47.05859375,99.91944885253906,-0.3943939208984375
250552,-0.08642578125,0.981231689453125,-0.196258544921875,0.5475445985794067,1.047644376754761,-0.0131584126502275,47.02931213378906,100.2134094238281,-1.345535278320312
250553,-0.1458892822265625,0.9358978271484376,-0.1716461181640625,0.4372492432594299,0.8274396061897278,-0.0492050983011722,47.01278686523438,100.3327789306641,-1.649505615234375
250554,-0.1700592041015625,0.8600006103515625,0.0093841552734375,0.283031702041626,0.4904226958751678,-0.0106923254206776,47.07217407226562,100.40869140625,-2.191482543945312
250555,-0.1700592041015625,0.8600006103515625,0.0093841552734375,0.283031702041626,0.4904226958751678,-0.0106923254206776,47.07217407226562,100.40869140625,-2.191482543945312
250556,-0.1619110107421875,0.8645477294921875,0.11651611328125,0.1928866356611252,0.4829421639442444,0.0663577169179916,47.18119812011719,100.3995666503906,-2.459152221679688
250557,-0.1695709228515625,0.8794097900390625,0.1927947998046875,0.0786399468779563,0.5621549487113953,0.135127991437912,47.31443786621094,100.2180023193359,-2.570907592773438
250558,-0.199737548828125,0.88348388671875,0.2029876708984375,-0.0142822666093707,0.6701005697250366,0.2385675609111786,47.45535278320312,100.1385345458984,-2.721160888671875
250559,-0.210479736328125,0.892791748046875,0.1603546142578125,-0.0082837622612714,0.6982898712158203,0.3277302086353302,47.60595703125,100.1069641113281,-2.821441650390625
250560,-0.1808624267578125,0.857696533203125,0.1453399658203125,0.0782804265618324,0.6803620457649231,0.3930865824222565,47.72859191894531,100.0217437744141,-2.622116088867188
250561,-0.13250732421875,0.795928955078125,0.1886138916015625,0.1771337687969208,0.7558906078338623,0.4317271709442139,47.712890625,99.89889526367188,-2.633865356445312
250562,-0.0763092041015625,0.7110137939453125,0.210052490234375,0.2248541563749313,0.8976690173149109,0.4360564053058624,47.81752014160156,99.81088256835938,-2.703018188476562
250563,-0.0763092041015625,0.7110137939453125,0.210052490234375,0.2248541563749313,0.8976690173149109,0.4360564053058624,47.81752014160156,99.81088256835938,-2.703018188476562
250564,0.0355987548828125,0.530059814453125,0.177581787109375,0.1299257725477219,0.9295108318328856,0.4384362101554871,48.06803894042969,99.79916381835938,-2.869964599609375
250565,0.07354736328125,0.481292724609375,0.166015625,0.0343814082443714,0.8059937357902527,0.4272767603397369,48.11231994628906,99.71044921875,-2.976516723632812
250566,0.1190032958984375,0.4955596923828125,0.1577606201171875,-0.1157223358750343,0.4594972729682922,0.3465603590011597,48.27313232421875,99.66964721679688,-3.089340209960938
250567,0.1190032958984375,0.4955596923828125,0.1577606201171875,-0.1157223358750343,0.4594972729682922,0.3465603590011597,48.27313232421875,99.66964721679688,-3.089340209960938
250568,0.1916351318359375,0.72625732421875,0.057525634765625,-0.1229142025113106,0.2314095199108124,0.290088027715683,48.28488159179688,99.53143310546876,-3.033416748046875
250569,0.20953369140625,0.8453521728515625,0.001068115234375,-0.0932220891118049,0.0340533070266246,0.2250387072563171,48.30499267578125,99.61001586914062,-2.95147705078125
250570,0.212554931640625,0.972320556640625,-0.0489654541015625,-0.0673430860042572,-0.0411516986787319,0.1518680900335312,48.30271911621094,99.5377960205078,-2.86004638671875
250571,0.212554931640625,0.972320556640625,-0.0489654541015625,-0.0673430860042572,-0.0411516986787319,0.1518680900335312,48.30271911621094,99.5377960205078,-2.86004638671875
250572,0.1828765869140625,1.187606811523438,-0.14776611328125,-0.1766932755708694,0.5990517139434814,-0.1181095987558365,48.21852111816406,99.60940551757812,-2.87030029296875
250573,0.0937347412109375,1.153976440429688,-0.2098541259765625,-0.2254341840744019,0.7956750392913818,-0.2714453637599945,48.14950561523438,99.61994934082033,-2.830596923828125
250574,-0.03143310546875,1.0146484375,-0.093658447265625,-0.2357462197542191,0.7521994709968567,-0.3693391680717468,47.90753173828125,99.734130859375,-2.727890014648438
250575,-0.091217041015625,0.905914306640625,0.0283355712890625,-0.2357462197542191,0.7521994709968567,-0.3693391680717468,47.69419860839844,99.81361389160156,-2.723464965820312
250576,-0.1326141357421875,0.849456787109375,0.0525360107421875,-0.2810348570346832,0.7266115546226501,-0.4112591743469238,47.51296997070312,99.61599731445312,-2.627670288085938
250577,-0.16937255859375,0.8021240234375,0.0435791015625,-0.3191992938518524,0.6805111765861511,-0.4446895718574524,47.21540832519531,99.46942138671876,-2.488388061523438
250578,-0.1923370361328125,0.7734222412109375,0.0174102783203125,-0.3445893526077271,0.6436846852302551,-0.4495442509651184,46.92439270019531,99.51374816894533,-2.348220825195312
250579,-0.1923370361328125,0.7734222412109375,0.0174102783203125,-0.3445893526077271,0.6436846852302551,-0.4495442509651184,46.92439270019531,99.51374816894533,-2.348220825195312
250580,-0.1840972900390625,0.7838897705078125,-0.011566162109375,-0.3799084424972534,0.4269289672374725,-0.4056119620800018,46.33393859863281,99.4534912109375,-2.009658813476562
250581,-0.15875244140625,0.783172607421875,-0.0062255859375,-0.407877504825592,0.3065556585788727,-0.3814783692359924,46.00975036621094,99.35653686523438,-1.887496948242188
250582,-0.0917510986328125,0.740081787109375,-0.061187744140625,-0.4740866124629974,0.2194857448339462,-0.3733828961849213,45.56977844238281,99.24610900878906,-1.662155151367188
250583,-0.0917510986328125,0.740081787109375,-0.061187744140625,-0.4740866124629974,0.2194857448339462,-0.3733828961849213,45.56977844238281,99.24610900878906,-1.662155151367188
250584,-0.0625762939453125,0.713287353515625,-0.1014404296875,-0.5001065135002136,0.1992590427398682,-0.396117776632309,45.28350830078125,99.23519897460938,-1.408950805664062
250585,-0.0373077392578125,0.7091064453125,-0.1291961669921875,-0.5310124754905701,0.1975282579660416,-0.4100652933120728,45.015380859375,99.17063903808594,-1.189254760742188
250586,-0.0217132568359375,0.7572784423828125,-0.1553802490234375,-0.5938146114349365,0.199237734079361,-0.4290688037872314,44.75004577636719,99.13967895507812,-0.8748626708984375
250587,-0.0217132568359375,0.7572784423828125,-0.1553802490234375,-0.5938146114349365,0.199237734079361,-0.4290688037872314,44.75004577636719,99.13967895507812,-0.8748626708984375
250588,-0.03143310546875,1.004959106445312,-0.2213134765625,-0.7347842454910278,0.2264328747987747,-0.4530585706233978,44.09512329101562,99.00347900390624,-0.2878570556640625
250589,-0.0211334228515625,1.1412353515625,-0.218536376953125,-0.7610382437705994,0.2402304410934448,-0.4104005694389343,43.78555297851562,99.0306396484375,0.0328521728515625
250590,-0.01092529296875,1.259292602539062,-0.1777801513671875,-0.7176033854484558,0.2855036556720734,-0.2584376633167267,43.47926330566406,99.04513549804688,0.417877197265625
250591,-0.0063323974609375,1.33184814453125,-0.1120147705078125,-0.7414458990097046,0.2850194871425629,-0.1198054999113083,43.07182312011719,99.03474426269533,0.8735198974609375
250592,-0.007110595703125,1.408737182617188,-0.05389404296875,-0.7414458990097046,0.2850194871425629,-0.1198054999113083,42.71040344238281,98.9582977294922,1.10858154296875
250593,0.013427734375,1.4180908203125,-0.0032806396484375,-0.8260532021522522,0.1802616566419601,-0.0349132418632507,42.41670227050781,98.9285125732422,1.383132934570312
250594,0.04327392578125,1.332839965820312,0.0348663330078125,-0.6344464421272278,0.0044900896027684,0.1167700290679932,42.17239379882812,98.88308715820312,1.7650146484375
250595,0.035003662109375,1.256103515625,0.0242156982421875,-0.6344464421272278,0.0044900896027684,0.1167700290679932,41.96490478515625,98.68885803222656,2.073532104492188
250596,0.0446624755859375,1.19134521484375,-0.0748443603515625,-0.3163542449474335,-0.0161869600415229,0.1522345393896103,41.98002624511719,98.5487060546875,2.468292236328125
250597,0.0604248046875,1.173736572265625,-0.19305419921875,-0.0341001786291599,-0.0546536594629287,0.1814060062170029,41.95458984375,98.56999206542967,2.705535888671875
250598,0.1009674072265625,1.208816528320312,-0.3074951171875,0.1350840479135513,-0.1001210063695908,0.1964395493268967,41.9361572265625,98.5803680419922,2.811798095703125
250599,0.1767730712890625,1.268585205078125,-0.35369873046875,0.3227506279945374,-0.1060886159539223,0.1699541509151459,42.02900695800781,98.69381713867188,2.968856811523438
250600,0.25665283203125,1.314865112304688,-0.3330078125,0.3227506279945374,-0.1060886159539223,0.1699541509151459,42.08892822265625,98.69960021972656,2.791900634765625
250601,0.3167877197265625,1.35357666015625,-0.274566650390625,0.392373114824295,-0.1161985099315643,0.1352912485599518,42.18374633789062,98.75871276855467,2.636367797851562
250602,0.35308837890625,1.379852294921875,-0.1762847900390625,0.4295465648174286,-0.2535635530948639,0.0764292627573013,42.19129943847656,98.85870361328124,2.381362915039062
250603,0.355224609375,1.40032958984375,-0.092529296875,0.4153740406036377,-0.3235077559947968,0.0716230571269989,42.27423095703125,98.89825439453124,2.26153564453125
250604,0.3075103759765625,1.412918090820312,-0.0285491943359375,0.4153740406036377,-0.3235077559947968,0.0716230571269989,42.41574096679688,98.84559631347656,2.12225341796875
250605,0.2261505126953125,1.421890258789062,0.0215911865234375,0.3925523459911346,-0.330993115901947,0.0680016875267028,42.54934692382812,98.8611297607422,2.049148559570312
250606,0.02972412109375,1.405487060546875,0.1172027587890625,0.3981234133243561,-0.2729878723621368,0.0421280115842819,42.76943969726562,99.09371948242188,1.487289428710938
250607,-0.06732177734375,1.410964965820312,0.1507568359375,0.4106208086013794,-0.1951210200786591,-0.0473115891218185,42.89791870117188,99.10411071777344,1.359588623046875
250608,-0.06732177734375,1.410964965820312,0.1507568359375,0.4106208086013794,-0.1951210200786591,-0.0473115891218185,42.89791870117188,99.10411071777344,1.359588623046875
250609,-0.1510162353515625,1.402420043945312,0.1687164306640625,0.4106208086013794,-0.1951210200786591,-0.0473115891218185,43.09271240234375,99.26113891601562,1.190093994140625
250610,-0.2169952392578125,1.364227294921875,0.17205810546875,0.4320848286151886,-0.1630653589963913,-0.1025114580988884,43.27017211914062,99.15403747558594,1.125579833984375
250611,-0.2471160888671875,1.300491333007812,0.1581268310546875,0.5328732132911682,-0.0175323877483606,-0.1966968178749084,43.34159851074219,99.10491943359376,1.02191162109375
250612,-0.2608642578125,1.205352783203125,0.12445068359375,0.5328732132911682,-0.0175323877483606,-0.1966968178749084,43.49568176269531,99.05995178222656,0.836822509765625
250613,-0.2740325927734375,1.100875854492188,0.0659332275390625,0.5965288877487183,0.071235567331314,-0.2348189055919647,43.47152709960938,99.14353942871094,0.6448974609375
250614,-0.258453369140625,0.8708648681640625,-0.0176849365234375,0.6129739284515381,0.0445901043713092,-0.2843047082424164,43.2962646484375,99.31013488769533,-0.2425079345703125
250615,-0.258453369140625,0.8708648681640625,-0.0176849365234375,0.6129739284515381,0.0445901043713092,-0.2843047082424164,43.2962646484375,99.31013488769533,-0.2425079345703125
250616,-0.241973876953125,0.79925537109375,-0.0097198486328125,0.5388048887252808,0.0229473933577537,-0.2834306359291077,43.31268310546875,99.40481567382812,-0.5406494140625
250617,-0.226348876953125,0.7464447021484375,-0.0112762451171875,0.4263646304607391,0.0432425439357757,-0.2653544247150421,43.23861694335938,99.564697265625,-0.771148681640625
250618,-0.1957855224609375,0.7421722412109375,-0.018951416015625,0.3064036071300507,0.0385069139301776,-0.2445889711380005,43.12376403808594,99.60377502441406,-0.863372802734375
250619,-0.1525115966796875,0.7693328857421875,-0.0247039794921875,0.2011323124170303,0.0015502260066568,-0.2267913371324539,43.070068359375,99.62156677246094,-1.036376953125
250620,-0.1158294677734375,0.7900543212890625,-0.0315399169921875,0.1328312903642654,-0.0580166988074779,-0.1944666802883148,43.11009216308594,99.51071166992188,-1.342788696289062
250621,-0.0897064208984375,0.7850799560546875,-0.0234222412109375,0.1164099648594856,-0.0818424001336097,-0.1415480822324753,43.03233337402344,99.51838684082033,-1.37371826171875
250622,-0.0753326416015625,0.760833740234375,-0.0467529296875,0.1800227612257004,-0.1232625469565392,-0.0736225545406341,43.00462341308594,99.51893615722656,-1.383834838867188
250623,-0.0753326416015625,0.760833740234375,-0.0467529296875,0.1800227612257004,-0.1232625469565392,-0.0736225545406341,43.00462341308594,99.51893615722656,-1.383834838867188
250624,-0.0772552490234375,0.6814117431640625,-0.1372222900390625,0.2265141010284424,-0.1658425033092499,-0.0490287952125072,43.05230712890625,99.46954345703124,-1.361404418945312
250625,-0.0589141845703125,0.64129638671875,-0.1406707763671875,0.2555827796459198,-0.1011117026209831,-0.0400795079767704,43.04360961914062,99.43679809570312,-1.479583740234375
250626,-0.0289764404296875,0.604034423828125,-0.176513671875,0.2663826942443848,-0.0161078628152608,-0.0274518635123968,43.0006103515625,99.4373779296875,-1.514602661132812
250627,-0.0289764404296875,0.604034423828125,-0.176513671875,0.2663826942443848,-0.0161078628152608,-0.0274518635123968,43.0006103515625,99.4373779296875,-1.514602661132812
250628,0.04486083984375,0.55242919921875,-0.1789398193359375,0.222243458032608,0.0404888354241848,-0.0022205437999218,43.06037902832031,99.22328186035156,-1.715057373046875
250629,0.075347900390625,0.563323974609375,-0.1305694580078125,0.1723544597625732,0.0410286597907543,0.0147741520777344,43.09844970703125,99.23893737792967,-1.73297119140625
250630,0.09124755859375,0.6032562255859375,-0.07177734375,0.1006661579012871,0.0392680428922176,0.0246504843235015,43.17364501953125,99.31765747070312,-1.882095336914062
250631,0.09124755859375,0.6032562255859375,-0.07177734375,0.1006661579012871,0.0392680428922176,0.0246504843235015,43.17364501953125,99.31765747070312,-1.882095336914062
250632,0.073638916015625,0.6611785888671875,0.01708984375,-0.079051673412323,0.0776202231645584,0.046796265989542,43.27763366699219,99.11903381347656,-1.79827880859375
250633,0.062347412109375,0.6734161376953125,0.0484466552734375,-0.1626754701137543,0.1451856940984726,0.0749458819627761,43.19435119628906,99.2660675048828,-1.877090454101562
250634,0.048309326171875,0.68865966796875,0.076324462890625,-0.2393113821744919,0.196654736995697,0.0981968715786933,43.11305236816406,99.3393096923828,-1.984939575195312
250635,0.0293426513671875,0.698394775390625,0.11199951171875,-0.3276630938053131,0.2465820908546448,0.1074857115745544,43.08494567871094,99.38018798828124,-2.04058837890625
250636,0.0293426513671875,0.698394775390625,0.11199951171875,-0.3276630938053131,0.2465820908546448,0.1074857115745544,43.08494567871094,99.38018798828124,-2.04058837890625
250637,0.0001068115234375,0.7042694091796875,0.1631927490234375,-0.4264056384563446,0.3128737509250641,0.1040981709957123,43.06578063964844,99.41836547851562,-1.957077026367188
250638,-0.0443267822265625,0.7239532470703125,0.24212646484375,-0.6332919597625732,0.4211315214633942,0.0884726047515869,43.13999938964844,99.27723693847656,-1.7337646484375
250639,-0.04486083984375,0.7714385986328125,0.291107177734375,-0.8647654056549072,0.3821945190429688,0.0434273667633533,43.18406677246094,99.25425720214844,-1.364334106445312
250640,-0.0513153076171875,0.8666534423828125,0.349151611328125,-0.8647654056549072,0.3821945190429688,0.0434273667633533,43.12103271484375,99.1851806640625,-1.092926025390625
250641,-0.06768798828125,0.972564697265625,0.4045562744140625,-0.9839461445808412,0.3418113887310028,-0.0091615403071045,43.08802795410156,99.08753967285156,-0.7812652587890625
250642,-0.079559326171875,1.0604248046875,0.4308929443359375,-1.083278894424438,0.2935136258602142,-0.0556635297834873,43.04620361328125,98.9894561767578,-0.55889892578125
250643,-0.079559326171875,1.0604248046875,0.4308929443359375,-1.083278894424438,0.2935136258602142,-0.0556635297834873,43.04620361328125,98.9894561767578,-0.55889892578125
250644,-0.0750274658203125,1.169143676757812,0.4341888427734375,-1.172723293304443,0.1247507184743881,-0.1151201948523521,42.88189697265625,98.7630615234375,0.2967987060546875
250645,-0.066925048828125,1.214920043945312,0.3927001953125,-1.223625540733337,0.0142468465492129,-0.1555592268705368,42.77638244628906,98.60685729980467,0.6913909912109375
250646,-0.0424346923828125,1.280807495117188,0.2899627685546875,-1.283378958702087,-0.3433456420898438,-0.3509452342987061,42.66082763671875,98.33824157714844,1.2100830078125
250647,-0.0424346923828125,1.280807495117188,0.2899627685546875,-1.283378958702087,-0.3433456420898438,-0.3509452342987061,42.66082763671875,98.33824157714844,1.2100830078125
250648,-0.0225677490234375,1.355331420898438,0.0317230224609375,-1.230286121368408,-0.4440783858299255,-0.4041738510131836,42.29437255859375,98.0188446044922,2.233230590820312
250649,0.01129150390625,1.31866455078125,-0.0883331298828125,-1.112604260444641,-0.3492607772350311,-0.3898295164108276,42.18194580078125,97.94866943359376,2.797119140625
250650,0.0405120849609375,1.312850952148438,-0.1925811767578125,-0.8750329613685608,0.1798057109117508,-0.2552562654018402,41.8714599609375,97.65975952148438,3.514511108398438
250651,0.0322418212890625,1.341094970703125,-0.257171630859375,-0.8750329613685608,0.1798057109117508,-0.2552562654018402,41.72006225585938,97.4073486328125,4.025222778320312
250652,-0.0062408447265625,1.353286743164062,-0.25030517578125,-0.802541196346283,0.2168375104665756,-0.1879627108573914,41.48350524902344,97.20477294921876,4.433563232421875
250653,-0.0530242919921875,1.336532592773438,-0.178619384765625,-0.7372572422027588,0.1691799759864807,-0.1173463314771652,41.32992553710938,97.06573486328124,4.933807373046875
250654,-0.0944061279296875,1.27783203125,-0.102874755859375,-0.3802700936794281,0.2571702897548676,0.0250547528266906,41.03022766113281,96.79351806640624,5.442718505859375
250655,-0.0944061279296875,1.27783203125,-0.102874755859375,-0.3802700936794281,0.2571702897548676,0.0250547528266906,41.03022766113281,96.79351806640624,5.442718505859375
250656,-0.096923828125,1.210662841796875,-0.0663604736328125,-0.1096218377351761,0.5105836391448975,0.109311044216156,40.91130065917969,96.6603546142578,5.684326171875
250657,-0.1234130859375,1.148956298828125,-0.0251007080078125,-0.1096218377351761,0.5105836391448975,0.109311044216156,40.74560546875,96.54859924316406,5.987503051757812
250658,-0.16925048828125,1.105819702148438,-0.00128173828125,-0.0349665060639381,0.7267513275146484,0.2253633439540863,40.76455688476562,96.50407409667967,6.041763305664062
250659,-0.16925048828125,1.105819702148438,-0.00128173828125,-0.0349665060639381,0.7267513275146484,0.2253633439540863,40.76455688476562,96.50407409667967,6.041763305664062
250660,-0.190093994140625,1.064971923828125,-4.57763671875e-05,0.0234517958015203,0.8307076096534729,0.3005318641662598,40.62522888183594,96.43893432617188,6.032196044921875
250661,-0.13775634765625,1.040283203125,-0.0093536376953125,0.0901314914226532,0.939351499080658,0.4072386026382446,40.62168884277344,96.39956665039062,6.0504150390625
250662,-0.0828399658203125,1.034469604492188,-0.024444580078125,0.1645205020904541,1.031532883644104,0.510023295879364,40.66603088378906,96.47164916992188,5.973037719726562
250663,-0.043487548828125,1.054153442382812,-0.055816650390625,0.2337863892316818,1.041921019554138,0.56508868932724,40.58543395996094,96.48126220703124,5.844482421875
250664,-0.0216522216796875,1.07061767578125,-0.04498291015625,0.3142942786216736,0.9955891966819764,0.5701436400413513,40.67890930175781,96.52127075195312,5.53961181640625
250665,-0.0192718505859375,1.098922729492188,-0.0036468505859375,0.3882151246070862,0.9912269711494446,0.5328700542449951,40.79396057128906,96.53347778320312,5.329391479492188
250666,-0.03369140625,1.149078369140625,0.054779052734375,0.529596209526062,0.9076175689697266,0.2913484871387482,40.88639831542969,96.64950561523438,4.848342895507812
250667,-0.03369140625,1.149078369140625,0.054779052734375,0.529596209526062,0.9076175689697266,0.2913484871387482,40.88639831542969,96.64950561523438,4.848342895507812
250668,-0.025604248046875,1.16986083984375,0.1002044677734375,0.529596209526062,0.9076175689697266,0.2913484871387482,40.98231506347656,96.8898468017578,4.451766967773438
250669,-0.0179595947265625,1.176971435546875,0.1296539306640625,0.5343179702758789,0.8932077288627625,0.1961942762136459,40.87118530273438,96.90895080566406,4.279434204101562
250670,-0.0146484375,1.162445068359375,0.145263671875,0.5300729274749756,0.8584833145141602,0.1112679317593575,40.852783203125,97.00717163085938,4.011795043945312
250671,-0.0146484375,1.162445068359375,0.145263671875,0.5300729274749756,0.8584833145141602,0.1112679317593575,40.852783203125,97.00717163085938,4.011795043945312
250672,0.027618408203125,1.092498779296875,0.113800048828125,0.525335431098938,0.7484571933746338,0.0177680775523185,40.75871276855469,97.10092163085938,3.26068115234375
250673,0.076904296875,1.02716064453125,0.0774383544921875,0.5124686360359192,0.64338219165802,0.0349827520549297,40.62049865722656,97.3048858642578,2.949447631835938
250674,0.1443023681640625,0.9207763671875,0.086822509765625,0.2691198885440826,0.2494002431631088,0.2266853451728821,40.34368896484375,97.66293334960938,2.396148681640625
250675,0.1443023681640625,0.9207763671875,0.086822509765625,0.2691198885440826,0.2494002431631088,0.2266853451728821,40.34368896484375,97.66293334960938,2.396148681640625
250676,0.1247406005859375,0.92059326171875,0.1459808349609375,0.2691198885440826,0.2494002431631088,0.2266853451728821,40.29844665527344,97.74411010742188,2.15423583984375
250677,0.089019775390625,0.9223480224609376,0.165130615234375,0.2447452992200851,0.2023381888866425,0.2584637701511383,40.24794006347656,97.93939208984376,1.895416259765625
250678,0.0673828125,0.8940582275390625,0.14874267578125,0.2841225266456604,-0.0361390970647335,0.2762872576713562,40.352294921875,97.91363525390624,1.685791015625
250679,0.0673828125,0.8940582275390625,0.14874267578125,0.2841225266456604,-0.0361390970647335,0.2762872576713562,40.352294921875,97.91363525390624,1.685791015625
250680,0.0597686767578125,0.7627410888671875,0.109039306640625,0.3355098366737366,-0.1258351653814316,0.2777397334575653,40.67085266113281,97.97111511230467,1.298385620117188
250681,0.0685577392578125,0.7014617919921875,0.0848236083984375,0.3929992020130157,-0.1204907298088074,0.2769237458705902,40.86433410644531,97.93963623046876,1.307632446289062
250682,0.0698394775390625,0.6493377685546875,0.0377349853515625,0.4361842274665833,-0.0633896216750145,0.2707348167896271,41.09829711914062,97.97943115234376,1.332000732421875
250683,0.0646820068359375,0.6160430908203125,-0.0108795166015625,0.449130654335022,0.0388161055743694,0.2362687289714813,41.2550048828125,97.89732360839844,1.37738037109375
250684,0.06304931640625,0.5973052978515625,-0.0373382568359375,0.449130654335022,0.0388161055743694,0.2362687289714813,41.381591796875,97.95741271972656,1.163421630859375
250685,0.067474365234375,0.5978240966796875,-0.016021728515625,0.4006238579750061,0.1049328073859215,0.2045065313577652,41.50779724121094,98.0714874267578,0.9468536376953124
250686,0.06298828125,0.6287384033203125,0.0447845458984375,0.1827604919672012,0.3757731020450592,0.10214713960886,41.69140625,98.18260192871094,0.6457672119140625
250687,0.0313720703125,0.70458984375,0.1031646728515625,0.1827604919672012,0.3757731020450592,0.10214713960886,41.7213134765625,98.18951416015624,0.51934814453125
250688,0.02130126953125,0.7642059326171875,0.1141204833984375,0.0627792254090309,0.4297154247760773,0.0826400220394134,41.77615356445312,98.30281066894533,0.305206298828125
250689,0.0363922119140625,0.8146514892578125,0.145751953125,-0.0446966327726841,0.4208894371986389,0.0646050944924354,41.837158203125,98.39932250976562,0.1224365234375
250690,0.0363616943359375,0.8820343017578125,0.192169189453125,-0.1188840419054031,0.4574556946754456,0.0301123615354299,41.80618286132812,98.3348388671875,0.1404876708984375
