time_idx,accelerometerAccelerationX(G),accelerometerAccelerationY(G),accelerometerAccelerationZ(G),gyroRotationX(rad/s),gyroRotationY(rad/s),gyroRotationZ(rad/s),magnetometerX(µT),magnetometerY(µT),magnetometerZ(µT)
120000,-2.886337280273438,3.215194702148438,0.4729766845703125,0.1492944061756134,1.307446718215942,0.1023250371217728,7.726959228515625,75.77578735351562,-4.780975341796875
120001,-3.308731079101562,3.476837158203125,0.04766845703125,0.3644634485244751,1.430284261703491,0.292109340429306,7.285507202148438,75.69464111328125,-5.614212036132812
120002,-3.252166748046875,3.300323486328125,-0.3350982666015625,0.2757200002670288,1.27923846244812,-0.0418851338326931,7.053024291992188,75.65019226074219,-6.118087768554688
120003,-2.088836669921875,1.576019287109375,-0.2256927490234375,0.1830853968858719,0.5822117328643799,-0.0537505783140659,7.058059692382812,75.85348510742188,-7.15252685546875
120004,-2.088836669921875,1.576019287109375,-0.2256927490234375,0.1830853968858719,0.5822117328643799,-0.0537505783140659,7.058059692382812,75.85348510742188,-7.15252685546875
120005,-1.869415283203125,1.172576904296875,-0.3010406494140625,0.3370294272899628,0.5605730414390564,0.1653532683849335,7.102432250976562,75.94642639160156,-7.624481201171875
120006,-1.663040161132812,0.992034912109375,-0.329345703125,0.4225839972496033,0.4907540082931519,0.304692268371582,7.212509155273438,76.156494140625,-7.969406127929688
120007,-1.199859619140625,0.72265625,-0.2809906005859375,0.4351309537887573,-0.495672345161438,0.47856605052948,7.670242309570312,76.66259765625,-8.474685668945312
120008,-1.199859619140625,0.72265625,-0.2809906005859375,0.4351309537887573,-0.495672345161438,0.47856605052948,7.670242309570312,76.66259765625,-8.474685668945312
120009,-1.0130615234375,0.63323974609375,-0.096466064453125,0.5585759282112122,-0.7731471061706543,0.4663863480091095,8.121017456054688,76.79605102539062,-8.399520874023438
120010,-0.82781982421875,0.5607452392578125,0.12847900390625,0.6583778858184814,-0.4457841217517853,0.4031122922897339,8.635635375976562,76.95951843261719,-8.234588623046875
120011,-0.39453125,0.395294189453125,0.0087127685546875,0.858729362487793,1.215323925018311,0.4736471772193909,9.595352172851562,77.22341918945312,-7.972213745117188
120012,-0.39453125,0.395294189453125,0.0087127685546875,0.858729362487793,1.215323925018311,0.4736471772193909,9.595352172851562,77.22341918945312,-7.972213745117188
120013,-0.2503662109375,0.329010009765625,-0.253173828125,0.9704172611236572,1.545960783958435,0.6312360167503357,9.9630126953125,77.421875,-8.38671875
120014,-0.1631317138671875,0.3403472900390625,-0.4561920166015625,1.037047743797302,1.414934277534485,0.7344348430633545,10.04754638671875,77.66358947753906,-9.06878662109375
120015,-0.1038665771484375,0.4311370849609375,-0.35595703125,0.8346801996231079,0.4247416853904724,0.775115430355072,10.31289672851562,78.09649658203125,-10.6414794921875
120016,-0.1038665771484375,0.4311370849609375,-0.35595703125,0.8346801996231079,0.4247416853904724,0.775115430355072,10.31289672851562,78.09649658203125,-10.6414794921875
120017,-0.1147613525390625,0.4286956787109375,-0.1276092529296875,0.6729773283004761,0.169124573469162,0.6325974464416504,10.46345520019531,78.3900146484375,-11.18768310546875
120018,-0.1209564208984375,0.39398193359375,0.0662078857421875,0.5784844160079956,0.1348409056663513,0.4301670789718628,10.55174255371094,78.77294921875,-11.41220092773438
120019,-0.12469482421875,0.326385498046875,0.1817779541015625,0.5322676301002502,0.1833075135946274,0.2086573392152786,10.71977233886719,79.281982421875,-12.14205932617188
120020,-0.1292877197265625,0.224609375,0.2125396728515625,0.511807382106781,0.1313841193914413,0.0253141447901725,10.87992858886719,79.51651000976562,-12.50117492675781
120021,-0.1275482177734375,0.1219635009765625,0.2300872802734375,0.4915904998779297,-0.0087210536003112,-0.0776601731777191,10.92205810546875,79.56021118164062,-12.74835205078125
120022,-0.1179351806640625,0.020538330078125,0.2473297119140625,0.4449140727519989,-0.1272953748703003,-0.1146661266684532,10.98738098144531,79.65193176269531,-12.88925170898438
120023,-0.2039031982421875,-0.137054443359375,0.3011627197265625,0.1772216558456421,-0.2828303575515747,-0.167217493057251,10.80633544921875,79.69447326660156,-13.08016967773438
120024,-0.2039031982421875,-0.137054443359375,0.3011627197265625,0.1772216558456421,-0.2828303575515747,-0.167217493057251,10.80633544921875,79.69447326660156,-13.08016967773438
120025,-0.3561553955078125,-0.1460723876953125,0.377197265625,-0.0519955568015575,-0.3813476264476776,-0.2420224845409393,10.60333251953125,79.80535888671875,-13.18351745605469
120026,-0.5655670166015625,-0.03961181640625,0.4894256591796875,-0.324165016412735,-0.4167303740978241,-0.2838953733444214,10.42697143554688,79.70738220214844,-13.07591247558594
120027,-0.8922576904296875,0.2646484375,0.5926971435546875,-0.8141605854034424,-0.6564074158668518,-0.4488736689090729,10.01393127441406,79.75178527832031,-12.92103576660156
120028,-0.8922576904296875,0.2646484375,0.5926971435546875,-0.8141605854034424,-0.6564074158668518,-0.4488736689090729,10.01393127441406,79.75178527832031,-12.92103576660156
120029,-1.038558959960938,0.333343505859375,0.637664794921875,-1.015861511230469,-0.7992284893989563,-0.6462323069572449,9.757034301757812,79.67596435546875,-12.59608459472656
120030,-1.137069702148438,0.31048583984375,0.64422607421875,-1.169914126396179,-0.8705375790596008,-0.8371462821960449,9.483306884765623,79.48175048828125,-12.18135070800781
120031,-0.9972686767578124,0.10211181640625,0.4324798583984375,-1.104807615280151,-1.083524942398071,-0.9879353046417236,9.03411865234375,79.10441589355469,-11.16964721679688
120032,-0.9972686767578124,0.10211181640625,0.4324798583984375,-1.104807615280151,-1.083524942398071,-0.9879353046417236,9.03411865234375,79.10441589355469,-11.16964721679688
120033,-0.7747039794921875,0.0910491943359375,0.233978271484375,-0.9263203740119934,-1.453107714653015,-0.9899960160255432,8.775497436523438,78.75820922851562,-10.57341003417969
120034,-0.595916748046875,0.12579345703125,0.1460418701171875,-0.7578850388526917,-1.809770226478577,-1.010057687759399,8.611343383789062,78.25465393066406,-9.964340209960938
120035,-0.3449859619140625,0.173919677734375,0.1059417724609375,-0.7229377031326294,-2.025517225265503,-1.056280732154846,8.391708374023438,77.22236633300781,-8.084365844726562
120036,-0.3449859619140625,0.173919677734375,0.1059417724609375,-0.7229377031326294,-2.025517225265503,-1.056280732154846,8.391708374023438,77.22236633300781,-8.084365844726562
120037,-0.2476959228515625,0.180938720703125,0.033294677734375,-0.8253620862960815,-2.030792236328125,-1.039999008178711,8.455657958984375,76.73136901855469,-7.095382690429688
120038,-0.1506500244140625,0.17962646484375,-0.092803955078125,-0.8940420746803284,-2.108612298965454,-0.978127658367157,8.542770385742188,76.06143188476562,-6.004776000976562
120039,0.1368865966796875,0.25531005859375,-0.2544403076171875,-0.788277804851532,-1.69312596321106,-0.1530675739049911,9.01690673828125,74.87602233886719,-3.754287719726562
120040,0.1368865966796875,0.25531005859375,-0.2544403076171875,-0.788277804851532,-1.69312596321106,-0.1530675739049911,9.01690673828125,74.87602233886719,-3.754287719726562
120041,0.2472991943359375,0.2442779541015625,-0.1466064453125,-0.5960559248924255,-1.200722098350525,0.7875505089759827,9.247848510742188,74.24977111816406,-2.625076293945312
120042,0.2024993896484375,0.2330322265625,-0.0091705322265625,-0.3728055357933044,-0.4478278458118439,1.549291610717773,9.388015747070312,74.06011962890625,-1.658340454101562
120043,0.1229095458984375,0.223541259765625,-0.0334930419921875,-0.2330170124769211,0.0754002183675766,1.878215670585632,9.555419921875,74.35542297363281,-0.8645782470703125
120044,0.11456298828125,0.203399658203125,-0.1292877197265625,-0.1400391310453415,0.1852518767118454,1.947609424591064,9.826385498046877,74.68783569335938,-0.244964599609375
120045,0.140716552734375,0.1981201171875,-0.2186279296875,-0.0797539502382278,-0.0642053484916687,1.962724447250366,10.29130554199219,75.37899780273438,0.091888427734375
120046,0.15838623046875,0.22222900390625,-0.2525634765625,-0.0374155491590499,-0.4623987972736359,1.939163208007812,10.75540161132812,76.17825317382812,0.4420166015625
120047,0.2412109375,0.3604888916015625,-0.343963623046875,-0.4320302307605743,-0.7286147475242615,1.614311337471008,11.90304565429688,77.54034423828125,1.047683715820312
120048,0.2412109375,0.3604888916015625,-0.343963623046875,-0.4320302307605743,-0.7286147475242615,1.614311337471008,11.90304565429688,77.54034423828125,1.047683715820312
120049,0.2470703125,0.41839599609375,-0.3936767578125,-0.8742971420288086,-0.4234175682067871,1.216786861419678,12.41328430175781,78.04135131835938,1.568267822265625
120050,0.17022705078125,0.436309814453125,-0.2762298583984375,-0.8346394896507263,-0.2528367936611176,0.8244361281394958,12.95036315917969,78.46000671386719,2.165985107421875
120051,-0.017822265625,0.417327880859375,-0.3485565185546875,-0.5513507723808289,-0.0500695593655109,-0.0674565359950065,13.72874450683594,79.07218933105469,3.041305541992188
120052,-0.017822265625,0.417327880859375,-0.3485565185546875,-0.5513507723808289,-0.0500695593655109,-0.0674565359950065,13.72874450683594,79.07218933105469,3.041305541992188
120053,-0.175689697265625,0.3670654296875,-0.467437744140625,-0.3963686525821686,-0.1994446665048599,-0.2837499678134918,13.83074951171875,79.06065368652344,3.430801391601562
120054,-0.2734527587890625,0.468170166015625,-0.56658935546875,-0.27323979139328,-0.3080441057682037,-0.4735041856765747,13.83602905273438,79.02621459960938,3.738037109375
120055,-0.4018402099609375,0.7987060546875,-0.5522918701171875,0.007391070947051,-0.2321858406066895,-0.7890304327011108,13.56346130371094,78.71568298339844,4.0185546875
120056,-0.4018402099609375,0.7987060546875,-0.5522918701171875,0.007391070947051,-0.2321858406066895,-0.7890304327011108,13.56346130371094,78.71568298339844,4.0185546875
120057,-0.4731292724609375,0.9984893798828124,-0.46966552734375,0.0220741424709558,0.0036962011363357,-0.9125617146492004,13.34111022949219,78.41510009765625,4.0279541015625
120058,-0.5511627197265625,1.198867797851562,-0.4356689453125,-0.1113220006227493,0.2469370812177658,-1.004931569099426,13.10227966308594,77.97923278808594,4.1644287109375
120059,-0.614959716796875,1.672409057617188,0.0362548828125,-0.9256418347358704,1.108575463294983,-0.967056930065155,12.33717346191406,77.03921508789062,3.898941040039062
120060,-0.614959716796875,1.672409057617188,0.0362548828125,-0.9256418347358704,1.108575463294983,-0.967056930065155,12.33717346191406,77.03921508789062,3.898941040039062
120061,-0.6355438232421875,1.917236328125,0.3776092529296875,-1.393217802047729,1.859586000442505,-0.8665941953659058,11.85037231445312,76.61558532714844,3.6246337890625
120062,-0.73675537109375,2.156661987304688,0.65130615234375,-1.663435459136963,2.591028451919556,-0.7613889575004578,11.32563781738281,76.13661193847656,3.378738403320312
120063,-1.09014892578125,2.620437622070312,0.8134613037109375,-1.381748914718628,2.903013944625854,-0.6677716374397278,10.63929748535156,75.64990234375,2.781356811523438
120064,-1.759414672851562,3.320510864257812,0.8367767333984375,-0.4771966636180878,2.263980865478516,-0.7893457412719727,9.951156616210938,75.0078125,1.78125
120065,-2.5430908203125,4.108291625976562,1.02069091796875,0.5214378833770752,1.055715680122375,-1.233461737632751,9.234451293945312,74.46073913574219,0.4593353271484375
120066,-3.29852294921875,4.54296875,1.325912475585938,1.161194920539856,0.3821601569652557,-1.735093355178833,8.49530029296875,74.03239440917969,-0.9678955078125
120067,-3.744827270507812,2.066604614257812,1.148880004882812,0.1266876310110092,3.127203226089478,-0.5964269042015076,7.396682739257812,73.02738952636719,-3.635757446289062
120068,-3.744827270507812,2.066604614257812,1.148880004882812,0.1266876310110092,3.127203226089478,-0.5964269042015076,7.396682739257812,73.02738952636719,-3.635757446289062
120069,-2.6319580078125,1.209197998046875,-0.0609130859375,0.3366302251815796,3.265561819076538,-0.3101232349872589,6.925872802734375,72.71321105957031,-4.816375732421875
120070,-2.174667358398438,0.7458953857421875,-0.9642181396484376,0.836992621421814,1.272180914878845,0.1742647439241409,6.478164672851562,72.65074157714844,-5.878204345703125
120071,-1.490997314453125,0.8879241943359375,-0.0178375244140625,0.2224221527576447,-1.201803684234619,0.761438250541687,6.1357421875,73.05914306640625,-7.70806884765625
120072,-1.490997314453125,0.8879241943359375,-0.0178375244140625,0.2224221527576447,-1.201803684234619,0.761438250541687,6.1357421875,73.05914306640625,-7.70806884765625
120073,-1.0869140625,0.8360137939453125,-0.0848388671875,-0.0489025600254535,-0.6979473829269409,0.9679597020149232,6.165374755859375,73.23870849609375,-7.581588745117188
120074,-0.8618927001953125,0.73858642578125,-0.1678619384765625,0.3089929819107056,-0.1108844429254532,1.013828158378601,6.418777465820312,73.44503784179688,-6.970550537109375
120075,-0.7076416015625,0.6690673828125,-0.1126251220703125,0.7698988318443298,0.4581316113471985,1.024701595306396,6.881744384765625,73.85417175292969,-6.427871704101562
120076,-0.597503662109375,0.629730224609375,-0.0843505859375,0.9185484647750854,0.6962027549743652,1.057585716247559,7.526779174804688,74.25404357910156,-6.018768310546875
120077,-0.5041656494140625,0.539886474609375,-0.0745849609375,0.8701820373535156,0.6174719929695129,1.101780891418457,8.196624755859375,74.54486083984375,-5.969757080078125
120078,-0.453155517578125,0.4893035888671875,-0.090545654296875,0.8548749685287476,0.7127564549446106,1.072286367416382,8.902130126953125,75.02760314941406,-6.335372924804688
120079,-0.376220703125,0.4556884765625,-0.2005462646484375,0.921498477458954,0.8439466953277588,0.9999054074287416,9.565109252929688,75.63798522949219,-6.561920166015625
120080,-0.3086395263671875,0.4471588134765625,-0.3487396240234375,0.9733177423477172,0.8480260968208313,0.8944892287254333,10.06938171386719,76.06689453125,-6.899154663085938
120081,-0.29669189453125,0.4346923828125,-0.420928955078125,0.932470440864563,0.5753421187400818,0.6876324415206909,10.32550048828125,76.64016723632812,-7.36981201171875
120082,-0.28204345703125,0.3908538818359375,-0.32366943359375,0.97153902053833,0.3825044929981232,0.4225136935710907,10.54537963867188,77.09004211425781,-7.860794067382812
120083,-0.2659759521484375,0.3710174560546875,-0.1588897705078125,0.971771776676178,0.3202541768550873,0.1940440386533737,10.50126647949219,77.40316772460938,-8.301681518554688
120084,-0.2659759521484375,0.3710174560546875,-0.1588897705078125,0.971771776676178,0.3202541768550873,0.1940440386533737,10.50126647949219,77.40316772460938,-8.301681518554688
120085,-0.3043060302734375,0.36248779296875,0.1012725830078125,0.8219804167747498,0.2222948521375656,-0.1222148612141609,10.57908630371094,77.68330383300781,-9.02935791015625
120086,-0.3006134033203125,0.35321044921875,0.1343994140625,0.6525461077690125,-0.0495294705033302,-0.2398283034563065,10.59709167480469,77.78639221191406,-9.331405639648438
120087,-0.25152587890625,0.30535888671875,0.1338653564453125,0.518767237663269,-0.4269092381000519,-0.3157728612422943,10.67695617675781,77.72299194335938,-9.426239013671877
120088,-0.1864166259765625,0.2264251708984375,0.1243133544921875,0.5596600770950317,-0.8144530057907104,-0.3038221895694733,10.56089782714844,77.7752685546875,-9.815414428710938
120089,-0.1611328125,0.1653289794921875,0.2258453369140625,0.661176860332489,-0.9762765169143676,-0.2674282491207123,10.42970275878906,77.89285278320312,-10.24542236328125
120090,-0.158447265625,0.119293212890625,0.3597259521484375,0.6969119906425476,-0.8691439032554626,-0.2527222633361816,10.27366638183594,77.86991882324219,-10.19053649902344
120091,-0.182342529296875,0.0762176513671875,0.4733734130859375,0.677012026309967,-0.5870741605758667,-0.2416533678770065,10.08645629882812,77.94949340820312,-10.08149719238281
120092,-0.252777099609375,0.0780181884765625,0.57879638671875,0.5967523455619812,-0.1630826592445374,-0.2619059085845947,9.865631103515623,77.93914794921875,-9.966705322265623
120093,-0.370849609375,0.1128082275390625,0.59765625,0.444647490978241,0.188899353146553,-0.3071676790714264,9.651718139648438,77.93504333496094,-10.10087585449219
120094,-0.5397186279296875,0.1905670166015625,0.550689697265625,0.2270664423704147,0.2612366676330566,-0.3360941112041473,9.451171875,77.935546875,-10.1802978515625
120095,-0.913818359375,0.33172607421875,0.483795166015625,-0.3718494474887848,-0.400365799665451,-0.4305703043937683,9.073089599609377,77.99949645996094,-10.63021850585938
120096,-0.913818359375,0.33172607421875,0.483795166015625,-0.3718494474887848,-0.400365799665451,-0.4305703043937683,9.073089599609377,77.99949645996094,-10.63021850585938
120097,-1.052352905273438,0.304443359375,0.43719482421875,-0.6827676296234131,-0.9448663592338562,-0.5169320702552795,8.823089599609375,78.00410461425781,-10.90420532226562
120098,-1.0928955078125,0.215179443359375,0.3606414794921875,-0.950860857963562,-1.493872761726379,-0.6261453628540039,8.683334350585938,77.92420959472656,-10.81550598144531
120099,-0.6661529541015625,0.2029571533203125,0.2015228271484375,-1.180405139923096,-2.367929935455322,-0.7229321002960205,8.581573486328125,77.55464172363281,-9.908432006835938
120100,-0.6661529541015625,0.2029571533203125,0.2015228271484375,-1.180405139923096,-2.367929935455322,-0.7229321002960205,8.581573486328125,77.55464172363281,-9.908432006835938
120101,-0.492218017578125,0.2377471923828125,0.2051849365234375,-1.256812334060669,-2.406463861465454,-0.759949803352356,8.560623168945312,77.28985595703125,-8.886123657226562
120102,-0.3480072021484375,0.235565185546875,0.148101806640625,-1.299221038818359,-2.229467391967773,-0.7822439074516296,8.499908447265625,76.97650146484375,-7.724136352539062
120103,-0.2182769775390625,0.215057373046875,0.0292205810546875,-1.21116840839386,-2.046993732452393,-0.7754824161529541,8.44866943359375,76.56459045410156,-6.306503295898438
120104,-0.0969696044921875,0.184661865234375,-0.061279296875,-1.036793947219849,-1.839539051055908,-0.6949252486228943,8.449966430664062,76.03715515136719,-5.174530029296875
120105,0.0314788818359375,0.151763916015625,-0.1242218017578125,-0.7577308416366577,-1.57504677772522,-0.4962065517902374,8.591949462890625,75.47608947753906,-3.883056640625
120106,0.1413421630859375,0.1134796142578125,-0.1026611328125,-0.3661108911037445,-1.199402213096619,-0.1446463912725449,8.727767944335938,74.84819030761719,-2.646942138671875
120107,0.2422332763671875,0.05023193359375,-0.012237548828125,-0.0659577101469039,-0.3894646763801575,0.9714908003807068,9.28704833984375,74.04144287109375,-1.091812133789062
120108,0.2422332763671875,0.05023193359375,-0.012237548828125,-0.0659577101469039,-0.3894646763801575,0.9714908003807068,9.28704833984375,74.04144287109375,-1.091812133789062
120109,0.1937255859375,0.0655670166015625,-0.051544189453125,-0.0533324629068374,-0.0575628951191902,1.404828429222107,9.461257934570312,73.88931274414062,-0.388092041015625
120110,0.1248931884765625,0.1100311279296875,-0.0950469970703125,-0.0395679138600826,0.1594378650188446,1.564716815948486,9.73443603515625,74.02859497070312,0.2752532958984375
120111,0.096405029296875,0.130462646484375,-0.1428680419921875,-0.0650860592722892,0.2035845518112183,1.55866265296936,10.08541870117188,74.32962036132812,0.638153076171875
120112,0.0973968505859375,0.1429901123046875,-0.180450439453125,-0.1477649658918381,0.0726528987288475,1.507285475730896,10.42327880859375,74.88992309570312,0.7740478515625
120113,0.0993194580078125,0.171722412109375,-0.216766357421875,-0.2875170111656189,-0.1586756706237793,1.428825378417969,10.75752258300781,75.45964050292969,0.700775146484375
120114,0.1115264892578125,0.2196502685546875,-0.27044677734375,-0.4758823812007904,-0.4002275764942169,1.322266101837158,11.11495971679688,75.915771484375,0.85479736328125
120115,0.1291351318359375,0.27410888671875,-0.29107666015625,-0.6480546593666077,-0.5773027539253235,1.204142689704895,11.32260131835938,76.38923645019531,1.11846923828125
120116,0.1037139892578125,0.34759521484375,-0.226287841796875,-0.715715765953064,-0.6032872200012207,1.074525594711304,11.77241516113281,76.94216918945312,1.358291625976562
120117,0.035614013671875,0.4711456298828125,-0.181365966796875,-0.6785452365875244,-0.5167976021766663,0.8668176531791687,12.13543701171875,77.28324890136719,2.022476196289062
120118,-0.043609619140625,0.613311767578125,-0.21014404296875,-0.5651134848594666,-0.4365064799785614,0.561198353767395,12.47547912597656,77.61128234863281,2.463485717773438
120119,-0.2160491943359375,0.854583740234375,-0.22601318359375,-0.1587774008512497,-0.2636984884738922,-0.0651686191558837,12.91496276855469,78.04159545898438,2.893569946289062
120120,-0.2160491943359375,0.854583740234375,-0.22601318359375,-0.1587774008512497,-0.2636984884738922,-0.0651686191558837,12.91496276855469,78.04159545898438,2.893569946289062
120121,-0.31304931640625,1.008270263671875,-0.2774200439453125,0.0481507517397403,-0.0995476320385932,-0.3365409970283508,13.03707885742188,78.01638793945312,3.252914428710938
120122,-0.43310546875,1.2413330078125,-0.427276611328125,0.3321361243724823,-0.0390890799462795,-0.6358038783073425,13.08784484863281,78.01617431640625,3.615036010742188
120123,-0.510650634765625,1.502349853515625,-0.463653564453125,0.6039913296699524,-0.01675820723176,-0.8927158117294312,13.037109375,77.83860778808594,3.683624267578125
120124,-0.539825439453125,1.748870849609375,-0.2774810791015625,0.6078609228134155,0.2196000069379807,-0.977311670780182,12.78666687011719,77.70927429199219,3.670791625976562
120125,-0.5732421875,1.969390869140625,-0.0245361328125,0.2657075822353363,0.7584834694862366,-0.928433895111084,12.52957153320312,77.25389099121094,3.700729370117188
120126,-0.6510162353515625,2.13427734375,0.18255615234375,-0.2221640944480896,1.389810800552368,-0.7792382836341858,12.17352294921875,76.92437744140625,3.600296020507812
120127,-1.1654052734375,2.971603393554688,0.360443115234375,-0.5002534985542297,2.036932945251465,-0.6830342411994934,11.213134765625,76.18922424316406,2.419296264648438
120128,-1.1654052734375,2.971603393554688,0.360443115234375,-0.5002534985542297,2.036932945251465,-0.6830342411994934,11.213134765625,76.18922424316406,2.419296264648438
120129,-1.574920654296875,3.373031616210938,0.39776611328125,-0.0769999772310257,1.568619728088379,-0.6963673233985901,10.68437194824219,75.814208984375,1.6356201171875
120130,-1.989410400390625,3.581939697265625,0.4625091552734375,0.4242037534713745,0.6423046588897705,-0.6403672099113464,10.07859802246094,75.28375244140625,0.586883544921875
120131,-2.341995239257812,3.580001831054688,0.596527099609375,0.7826415300369263,-0.1706223338842392,-0.5472202301025391,9.570404052734377,74.92416381835938,-0.5742645263671875
120132,-2.799468994140625,3.09405517578125,0.8691253662109375,0.7919138669967651,0.2200687229633331,-0.2243098020553589,8.952301025390625,74.54374694824219,-1.633544921875
120133,-3.029617309570312,2.460678100585938,0.8224334716796875,0.3602276742458344,2.057207822799683,0.4643596708774567,8.389846801757812,74.40753173828125,-2.531890869140625
120134,-2.461135864257812,2.261032104492188,-0.0848541259765625,0.2259508371353149,2.661654949188232,0.1890977472066879,7.791091918945312,74.45404052734375,-3.342681884765625
120135,-1.855789184570312,1.349411010742188,0.0291290283203125,0.191766768693924,0.5606694221496582,-0.1987916529178619,7.098892211914062,75.12321472167969,-5.1793212890625
120136,-1.855789184570312,1.349411010742188,0.0291290283203125,0.191766768693924,0.5606694221496582,-0.1987916529178619,7.098892211914062,75.12321472167969,-5.1793212890625
120137,-1.582550048828125,1.010299682617188,0.2179107666015625,-0.0663928687572479,0.5923395156860352,-0.1680814176797867,7.145614624023438,75.46681213378906,-5.906829833984375
120138,-1.310440063476562,0.667510986328125,0.1071929931640625,-0.1736149340867996,0.6220691800117493,0.0112694324925541,7.156784057617188,75.5924072265625,-6.295242309570312
120139,-1.073165893554688,0.3943328857421875,-0.0113067626953125,-0.0866297036409378,0.4640592932701111,0.3044786751270294,7.245712280273438,75.68829345703125,-6.470260620117188
120140,-0.906280517578125,0.26824951171875,-0.08624267578125,0.120419092476368,0.1205932572484016,0.5651227831840515,7.507537841796875,75.71176147460938,-6.639068603515625
120141,-0.7882537841796875,0.225677490234375,-0.054168701171875,0.3610905408859253,-0.1816704571247101,0.7585170269012451,7.778839111328125,75.77799987792969,-6.742355346679688
120142,-0.696807861328125,0.2679290771484375,0.0319061279296875,0.5475144982337952,-0.2503134310245514,0.8843370079994202,8.129669189453125,75.89552307128906,-6.658050537109375
120143,-0.6136932373046875,0.371185302734375,0.0725250244140625,0.6990965604782104,-0.0905014052987098,0.9287723898887634,8.643844604492188,76.22337341308594,-6.482772827148438
120144,-0.52093505859375,0.4857940673828125,0.0190582275390625,0.8862209320068359,0.2854067087173462,0.9209898114204408,9.054855346679688,76.62028503417969,-6.343292236328125
120145,-0.42718505859375,0.6043853759765625,-0.0818634033203125,1.129751563072205,0.8302567005157471,0.8162221312522888,9.654159545898438,76.89833068847656,-6.39501953125
120146,-0.3611602783203125,0.6321868896484375,-0.135650634765625,1.258925199508667,1.322252869606018,0.6649218201637268,10.16314697265625,77.19927978515625,-6.458419799804688
120147,-0.3380126953125,0.4438018798828125,-0.1043548583984375,0.9714378118515016,1.434840083122253,0.2285016179084778,10.77520751953125,77.92140197753906,-7.342544555664062
120148,-0.3380126953125,0.4438018798828125,-0.1043548583984375,0.9714378118515016,1.434840083122253,0.2285016179084778,10.77520751953125,77.92140197753906,-7.342544555664062
120149,-0.2896270751953125,0.362274169921875,-0.0246429443359375,0.7205626964569092,1.10448956489563,0.0922865197062492,10.85848999023438,78.60771179199219,-8.935714721679688
120150,-0.2585906982421875,0.285369873046875,0.0219573974609375,0.4941985309123993,0.7579984664916992,-0.0048876996152102,10.75013732910156,78.80825805664062,-9.505416870117188
120151,-0.2416534423828125,0.1392364501953125,0.0996246337890625,0.443070650100708,0.0644005611538887,-0.0812021791934967,10.62301635742188,78.88108825683594,-10.42779541015625
120152,-0.2416534423828125,0.1392364501953125,0.0996246337890625,0.443070650100708,0.0644005611538887,-0.0812021791934967,10.62301635742188,78.88108825683594,-10.42779541015625
120153,-0.25360107421875,0.0736236572265625,0.17791748046875,0.5245916247367859,-0.062321163713932,-0.075850024819374,10.6060791015625,78.93013000488281,-10.79766845703125
120154,-0.28289794921875,0.0448455810546875,0.264129638671875,0.5782132744789124,-0.046477485448122,-0.0896739587187767,10.41450500488281,78.98976135253906,-11.03439331054688
120155,-0.32659912109375,0.0713958740234375,0.3676910400390625,0.5402344465255737,0.0798631384968757,-0.1457412242889404,10.31205749511719,79.15679931640625,-11.14695739746094
120156,-0.3773040771484375,0.1462249755859375,0.4258270263671875,0.4449247419834137,0.2346556484699249,-0.239097535610199,10.25386047363281,79.25465393066406,-11.46134948730469
120157,-0.4509124755859375,0.2490692138671875,0.453887939453125,0.3248435854911804,0.2700120508670807,-0.2843640744686127,10.13233947753906,79.36407470703125,-11.61097717285156
120158,-0.554290771484375,0.381805419921875,0.4871063232421875,0.1547008901834488,0.1638515144586563,-0.3603382110595703,9.93951416015625,79.29605102539062,-11.85206604003906
120159,-0.663970947265625,0.4636688232421875,0.529083251953125,-0.0465818829834461,-0.0638434290885925,-0.4834713339805603,9.723739624023438,79.22666931152344,-12.07766723632812
120160,-0.7491455078125,0.4755096435546875,0.5583953857421875,-0.229639858007431,-0.3510118126869202,-0.6301230788230896,9.396316528320312,79.16868591308594,-12.3787841796875
120161,-0.790252685546875,0.4069061279296875,0.561309814453125,-0.3578351140022278,-0.6588721871376038,-0.7930797934532166,9.0390625,79.12333679199219,-12.28800964355469
120162,-0.77685546875,0.278961181640625,0.524169921875,-0.4201932847499847,-0.9308373928070068,-0.9264184236526488,8.613677978515625,79.13639831542969,-12.10884094238281
120163,-0.6949920654296875,0.151153564453125,0.4188232421875,-0.3909664154052734,-1.246095776557922,-0.9952150583267212,8.313827514648438,78.893310546875,-11.84425354003906
120164,-0.5594024658203125,0.1063079833984375,0.2832183837890625,-0.2617123126983643,-1.722885489463806,-0.9925017952919006,8.10491943359375,78.56449890136719,-11.35299682617188
120165,-0.4449920654296875,0.1461944580078125,0.2288818359375,-0.1308581531047821,-2.186727046966553,-1.006862640380859,7.966018676757812,78.18130493164062,-10.74589538574219
120166,-0.3583221435546875,0.1727294921875,0.219268798828125,-0.1179109215736389,-2.465080499649048,-1.049426913261414,7.99017333984375,77.7015380859375,-9.937957763671877
120167,-0.1848907470703125,0.1389312744140625,0.1476287841796875,-0.3633377254009247,-2.842532396316528,-0.9959269165992736,8.241134643554688,76.66543579101562,-7.94677734375
120168,-0.1249237060546875,0.1096954345703125,0.0943145751953125,-0.5335757732391357,-3.001369476318359,-0.9095534086227416,8.479415893554688,76.07472229003906,-6.541290283203125
120169,-0.1249237060546875,0.1096954345703125,0.0943145751953125,-0.5335757732391357,-3.001369476318359,-0.9095534086227416,8.479415893554688,76.07472229003906,-6.541290283203125
120170,-0.0613555908203125,0.1111297607421875,-0.048919677734375,-0.6639077067375183,-3.089268445968628,-0.8046919703483582,8.791732788085938,75.38330078125,-5.052886962890625
120171,0.2824249267578125,0.0715789794921875,-0.5457305908203125,0.1656917631626129,-3.042030572891235,0.1661104112863541,9.548233032226562,74.57882690429688,-2.318084716796875
120172,0.2824249267578125,0.0715789794921875,-0.5457305908203125,0.1656917631626129,-3.042030572891235,0.1661104112863541,9.548233032226562,74.57882690429688,-2.318084716796875
120173,0.1944427490234375,0.0971832275390625,-0.05401611328125,0.4546010494232178,-1.401077270507812,0.9259302616119384,9.809814453125,74.32356262207031,-0.8952484130859375
120174,0.06707763671875,0.1573638916015625,0.0423126220703125,0.2920118868350983,0.2179291397333145,1.158924341201782,10.20527648925781,74.46243286132812,0.279144287109375
120175,0.0551605224609375,0.160675048828125,-0.1435546875,0.0618226192891597,0.7840239405632019,1.142107844352722,10.50898742675781,74.84739685058594,0.9986114501953124
120176,0.0554962158203125,0.1362762451171875,-0.2833099365234375,-0.1071078106760979,0.4896432161331177,1.062503814697266,10.82191467285156,75.31356811523438,0.9058074951171876
120177,0.0619049072265625,0.117828369140625,-0.321075439453125,-0.181412398815155,-0.1583851128816605,0.980887770652771,11.09175109863281,75.73724365234375,0.8066253662109375
120178,0.0723724365234375,0.1163482666015625,-0.2736663818359375,-0.1889345049858093,-0.7899071574211121,0.8995993137359619,11.45535278320312,76.16056823730469,0.888824462890625
120179,0.0804290771484375,0.1448211669921875,-0.1865386962890625,-0.1497277021408081,-1.154024124145508,0.8223673701286316,11.74467468261719,76.48793029785156,1.258163452148438
120180,0.0701141357421875,0.2102813720703125,-0.1362457275390625,-0.0391082540154457,-1.195420265197754,0.7283042669296265,12.09918212890625,76.73373413085938,1.800643920898438
120181,0.007293701171875,0.4505615234375,-0.2343902587890625,0.2286499589681625,-0.8638423681259155,0.4380015730857849,12.69525146484375,77.09074401855469,2.825393676757812
120182,-0.04119873046875,0.5871429443359375,-0.3750762939453125,0.3994869291782379,-0.8042357563972473,0.2935629189014435,12.97467041015625,77.29959106445312,3.219955444335938
120183,-0.04119873046875,0.5871429443359375,-0.3750762939453125,0.3994869291782379,-0.8042357563972473,0.2935629189014435,12.97467041015625,77.29959106445312,3.219955444335938
120184,-0.1327056884765625,0.7156219482421875,-0.46124267578125,0.6009292602539062,-0.7629258632659912,0.1455241739749908,13.20851135253906,77.37879943847656,3.68505859375
120185,-0.25677490234375,0.843017578125,-0.4688262939453125,0.7401297688484192,-0.6141582131385803,-0.0009347695158794,13.34013366699219,77.52099609375,4.083953857421875
120186,-0.403961181640625,1.017623901367188,-0.462890625,0.7540184259414673,-0.2661083936691284,-0.1969897598028183,13.46609497070312,77.69132995605469,4.312255859375
120187,-0.5382232666015625,1.283004760742188,-0.527130126953125,0.7428829073905945,0.2004662603139877,-0.4442855715751648,13.41128540039062,77.75341796875,4.376632690429688
120188,-0.6037750244140625,1.59259033203125,-0.5363616943359375,0.6882167458534241,0.662749707698822,-0.645548403263092,13.34356689453125,77.81578063964844,4.142471313476562
120189,-0.621246337890625,1.860137939453125,-0.3318328857421875,0.3961872756481171,1.085609436035156,-0.7337487936019897,13.10775756835938,77.72769165039062,3.833633422851562
120190,-0.676605224609375,2.098175048828125,-0.0350799560546875,-0.2208636701107025,1.546590328216553,-0.8431136608123779,12.78639221191406,77.52816772460938,3.333541870117188
120191,-1.012969970703125,2.918853759765625,0.116180419921875,-1.185190081596375,1.998596668243408,-1.382732391357422,11.69888305664062,76.92388916015625,1.797500610351562
120192,-1.012969970703125,2.918853759765625,0.116180419921875,-1.185190081596375,1.998596668243408,-1.382732391357422,11.69888305664062,76.92388916015625,1.797500610351562
120193,-1.371078491210938,3.3553466796875,0.1819305419921875,-0.7323359847068787,1.608682990074158,-1.660407900810242,11.12249755859375,76.27545166015625,0.97613525390625
120194,-1.8968505859375,3.734115600585938,0.4364471435546875,0.1458352357149124,0.7484076619148254,-1.182878732681274,10.30329895019531,75.54023742675781,0.1610107421875
120195,-2.728683471679688,3.282257080078125,0.9388427734375,0.5513747334480286,1.418758869171143,1.218650579452515,8.9215087890625,74.3563232421875,-1.930282592773438
120196,-2.728683471679688,3.282257080078125,0.9388427734375,0.5513747334480286,1.418758869171143,1.218650579452515,8.9215087890625,74.3563232421875,-1.930282592773438
120197,-2.05743408203125,2.934310913085938,0.5182647705078125,0.6977607011795044,1.970107197761536,1.059774041175842,8.530181884765625,74.36993408203125,-2.629608154296875
120198,-1.879562377929688,2.361251831054688,0.328826904296875,0.7638236284255981,1.782723426818848,0.6168349981307983,8.387908935546875,74.89443969726562,-3.423553466796875
120199,-1.904205322265625,1.527969360351562,-0.0323944091796875,0.2940268218517303,0.951830804347992,-0.1813119947910309,8.165496826171875,76.24290466308594,-5.59576416015625
120200,-1.904205322265625,1.527969360351562,-0.0323944091796875,0.2940268218517303,0.951830804347992,-0.1813119947910309,8.165496826171875,76.24290466308594,-5.59576416015625
120201,-1.789199829101562,1.262741088867188,-0.0588531494140625,0.207173690199852,0.2536895275115967,-0.3902018368244171,8.109909057617188,76.57565307617188,-6.355758666992188
120202,-1.556747436523438,0.9524078369140624,0.154144287109375,0.151974081993103,-0.0277836937457323,-0.3807697296142578,8.071136474609375,76.68391418457031,-6.637176513671875
120203,-1.066650390625,0.429473876953125,0.1713714599609375,0.2557558715343475,0.1635553687810898,0.155431941151619,8.318038940429688,76.66944885253906,-6.838150024414062
120204,-1.066650390625,0.429473876953125,0.1713714599609375,0.2557558715343475,0.1635553687810898,0.155431941151619,8.318038940429688,76.66944885253906,-6.838150024414062
120205,-0.8902740478515625,0.30010986328125,0.1018218994140625,0.3385492861270905,0.1224923580884933,0.4381073117256165,8.648361206054688,76.4251708984375,-6.635223388671875
120206,-0.7318267822265625,0.238494873046875,0.0574493408203125,0.3822123408317566,-0.0506418719887733,0.6776562333106995,8.996902465820312,76.52517700195312,-6.526412963867188
120207,-0.5227508544921875,0.3097381591796875,0.01873779296875,0.6113424897193909,-0.1529943495988846,0.8850102424621582,9.854415893554688,77.05624389648438,-6.43670654296875
120208,-0.5227508544921875,0.3097381591796875,0.01873779296875,0.6113424897193909,-0.1529943495988846,0.8850102424621582,9.854415893554688,77.05624389648438,-6.43670654296875
120209,-0.42547607421875,0.4193878173828125,-0.0598602294921875,0.8953371644020081,0.101978026330471,0.8882001638412476,10.25398254394531,77.35505676269531,-6.445526123046875
120210,-0.391510009765625,0.6209564208984375,-0.095611572265625,1.156149625778198,0.6053565144538879,0.7684564590454102,10.71070861816406,77.66836547851562,-6.39263916015625
120211,-0.377349853515625,0.663665771484375,-0.2169189453125,1.056602239608765,1.596460700035095,0.1605723649263382,11.22340393066406,78.44754028320312,-6.922409057617188
120212,-0.377349853515625,0.663665771484375,-0.2169189453125,1.056602239608765,1.596460700035095,0.1605723649263382,11.22340393066406,78.44754028320312,-6.922409057617188
120213,-0.3722686767578125,0.4839019775390625,-0.194610595703125,0.8475009202957153,1.431985378265381,-0.0635898932814598,11.35577392578125,78.59678649902344,-7.5140380859375
120214,-0.3609466552734375,0.362640380859375,-0.0654296875,0.5945512652397156,1.083913445472717,-0.1401035785675049,11.33331298828125,78.74722290039062,-8.303726196289062
120215,-0.31256103515625,0.1961669921875,-0.00836181640625,0.3735528290271759,0.4418154954910278,-0.1087350025773048,11.17572021484375,78.93099975585938,-9.915664672851562
120216,-0.31256103515625,0.1961669921875,-0.00836181640625,0.3735528290271759,0.4418154954910278,-0.1087350025773048,11.17572021484375,78.93099975585938,-9.915664672851562
120217,-0.287750244140625,0.1293487548828125,0.0096893310546875,0.4480198621749878,0.1023242399096489,-0.0571857914328575,11.03770446777344,78.80868530273438,-10.26039123535156
120218,-0.2855224609375,0.0958099365234375,0.1120147705078125,0.5196727514266968,-0.0657704919576644,-0.0301429890096187,10.968017578125,78.85530090332031,-10.65864562988281
120219,-0.302947998046875,0.1096038818359375,0.239227294921875,0.4601223170757294,-0.0483843088150024,-0.0772106349468231,10.94113159179688,78.73553466796875,-10.41169738769531
120220,-0.3171234130859375,0.1306304931640625,0.32305908203125,0.2855398654937744,0.007939682342112,-0.1779084801673889,10.83796691894531,78.87110900878906,-10.64863586425781
120221,-0.368377685546875,0.161102294921875,0.430419921875,0.0973393395543098,0.072753831744194,-0.2582986652851105,10.75445556640625,78.93801879882812,-10.75448608398438
120222,-0.46490478515625,0.2230377197265625,0.5372772216796875,-0.0439818389713764,0.2266190350055695,-0.3250744938850403,10.62800598144531,78.96794128417969,-10.76484680175781
120223,-0.5806884765625,0.29815673828125,0.5868682861328125,-0.1393397897481918,0.3337449431419373,-0.394659698009491,10.47712707519531,78.94963073730469,-10.907470703125
120224,-0.701690673828125,0.3627166748046875,0.591064453125,-0.2147818058729172,0.3097948729991913,-0.486526757478714,10.27015686035156,78.89918518066406,-11.064208984375
120225,-0.7982635498046875,0.3770751953125,0.5528106689453125,-0.2979936003684998,0.1342712491750717,-0.6183109283447266,9.905197143554688,78.82565307617188,-11.36235046386719
120226,-0.8447723388671875,0.323272705078125,0.4693603515625,-0.3662016987800598,-0.1688689142465591,-0.7524918913841248,9.553085327148438,78.83372497558594,-11.60012817382812
120227,-0.6791839599609375,0.213165283203125,0.12298583984375,-0.2375555634498596,-1.26007866859436,-0.8921635150909424,8.810211181640625,78.53860473632812,-11.4261474609375
120228,-0.6791839599609375,0.213165283203125,0.12298583984375,-0.2375555634498596,-1.26007866859436,-0.8921635150909424,8.810211181640625,78.53860473632812,-11.4261474609375
120229,-0.532562255859375,0.234405517578125,0.039886474609375,-0.0364602729678154,-1.950497627258301,-0.9267350435256958,8.4239501953125,78.31765747070312,-11.32687377929688
120230,-0.4132232666015625,0.2376708984375,0.107879638671875,0.0733357295393943,-2.364112854003906,-0.9596157670021056,8.25787353515625,77.89334106445312,-10.67788696289062
120231,-0.2139739990234375,0.207794189453125,0.1417388916015625,-0.034444261342287,-2.700626373291016,-0.9262436628341676,8.164016723632812,77.16311645507812,-9.063079833984377
120232,-0.2139739990234375,0.207794189453125,0.1417388916015625,-0.034444261342287,-2.700626373291016,-0.9262436628341676,8.164016723632812,77.16311645507812,-9.063079833984377
120233,-0.1366119384765625,0.1831512451171875,0.1054534912109375,-0.1712274104356766,-2.819645643234253,-0.8498586416244507,8.38153076171875,76.67918395996094,-7.869979858398438
120234,-0.0502166748046875,0.150787353515625,-0.0088653564453125,-0.1978443711996078,-2.902673959732056,-0.7026036977767944,8.646102905273438,76.22445678710938,-6.597991943359375
120235,0.0572357177734375,0.130950927734375,-0.152099609375,0.0470727048814296,-2.875974893569946,-0.4079169034957886,8.983016967773438,75.72822570800781,-5.313766479492188
120236,0.1921234130859375,0.13494873046875,-0.1618804931640625,0.343663364648819,-2.511975288391113,0.1618144661188126,9.4647216796875,75.31649780273438,-3.980758666992188
120237,0.2509307861328125,0.0851898193359375,-0.083038330078125,0.5001528263092041,-1.613132357597351,1.009331703186035,9.985031127929688,74.98147583007812,-2.450454711914062
120238,0.1838226318359375,0.0687713623046875,-0.110321044921875,0.5978080034255981,-0.6390103101730347,1.619877815246582,10.32423400878906,74.89338684082031,-1.064788818359375
120239,0.119873046875,0.089263916015625,-0.2363128662109375,0.594453752040863,-0.2277511358261108,1.820925712585449,10.68580627441406,75.11421203613281,-0.241241455078125
120240,0.1179656982421875,0.0764007568359375,-0.30731201171875,0.5229846239089966,-0.3301422297954559,1.80710768699646,10.94076538085938,75.87092590332031,0.026947021484375
120241,0.139892578125,0.056884765625,-0.3212127685546875,0.3907661437988281,-0.6482589244842529,1.739089131355286,11.40219116210938,76.57769775390625,0.2763214111328125
120242,0.1507720947265625,0.0694122314453125,-0.3036041259765625,0.2312079221010208,-0.9622432589530944,1.634435176849365,11.95811462402344,77.27288818359375,0.6975860595703125
120243,0.134429931640625,0.1163330078125,-0.2158355712890625,0.0245426278561353,-1.05604350566864,1.444920659065247,12.60835266113281,78.01075744628906,0.90216064453125
120244,0.09515380859375,0.17645263671875,-0.1143341064453125,-0.126291885972023,-0.8775544762611389,1.172518968582153,13.17913818359375,78.69804382324219,1.296417236328125
120245,0.0446014404296875,0.258087158203125,-0.0984344482421875,-0.1340680569410324,-0.6304775476455688,0.8493422269821167,13.71975708007812,79.3133544921875,1.892425537109375
120246,-0.04083251953125,0.42047119140625,-0.2011260986328125,0.0133802536875009,-0.3926135897636414,0.1293888837099075,14.54074096679688,80.02980041503906,2.7471923828125
120247,-0.04083251953125,0.42047119140625,-0.2011260986328125,0.0133802536875009,-0.3926135897636414,0.1293888837099075,14.54074096679688,80.02980041503906,2.7471923828125
120248,-0.0925445556640625,0.4809417724609375,-0.2790679931640625,0.1460592001676559,-0.4120272397994995,-0.1391549557447433,14.77046203613281,80.25148010253906,3.055160522460938
120249,-0.196685791015625,0.6133575439453125,-0.3591156005859375,0.3279240727424622,-0.3895586729049683,-0.3736811876296997,14.90599060058594,80.39559936523438,3.2313232421875
120250,-0.3651580810546875,0.824981689453125,-0.4690399169921875,0.6140775680541992,-0.1495348960161209,-0.6324523091316223,14.85856628417969,80.36848449707031,3.392974853515625
120251,-0.5185699462890625,1.052978515625,-0.623321533203125,0.938607931137085,0.3416910171508789,-0.8538650870323181,14.77751159667969,80.3193359375,3.488739013671875
120252,-0.5940704345703125,1.232879638671875,-0.7589569091796875,1.034190893173218,0.7571260333061218,-0.8512000441551208,14.56730651855469,80.1776123046875,3.337966918945312
120253,-0.6585235595703125,1.459548950195312,-0.7735595703125,0.6245338916778564,0.9657570123672484,-0.6935760974884033,14.25787353515625,79.84931945800781,3.156402587890625
120254,-0.7322998046875,1.773147583007812,-0.73309326171875,-0.1784943789243698,0.8782112002372742,-0.6568769216537476,13.97450256347656,79.64727783203125,2.696441650390625
120255,-0.605377197265625,2.2154541015625,-0.130462646484375,-0.884139358997345,0.977829933166504,-0.6065884828567505,13.15702819824219,79.07958984375,1.778060913085938
120256,-0.605377197265625,2.2154541015625,-0.130462646484375,-0.884139358997345,0.977829933166504,-0.6065884828567505,13.15702819824219,79.07958984375,1.778060913085938
120257,-0.6875,2.514205932617188,0.2451629638671875,-0.7836231589317322,1.768073439598083,-0.5324556231498718,12.76861572265625,78.68609619140625,1.468643188476562
120258,-0.865692138671875,3.107223510742188,0.334259033203125,-0.6256710886955261,2.548466444015503,-0.5591344237327576,12.29586791992188,78.36944580078125,1.26702880859375
120259,-1.798736572265625,4.858612060546875,0.02197265625,0.3492631912231445,1.819984316825867,-1.06878674030304,11.23478698730469,77.65769958496094,-0.32794189453125
120260,-1.798736572265625,4.858612060546875,0.02197265625,0.3492631912231445,1.819984316825867,-1.06878674030304,11.23478698730469,77.65769958496094,-0.32794189453125
120261,-2.272552490234375,4.417404174804688,0.2918701171875,0.9335545897483826,0.2712794542312622,-1.442021012306213,10.62464904785156,77.14884948730469,-1.584457397460938
120262,-2.8150634765625,3.155838012695312,0.8392486572265625,0.963260054588318,0.213074192404747,-1.407825827598572,10.0047607421875,76.84890747070312,-2.877120971679688
120263,-3.1158447265625,1.985885620117188,0.7727203369140625,0.5444084405899048,2.113840579986572,-0.4690995812416077,9.333877563476562,76.50874328613281,-3.863876342773438
120264,-2.612655639648438,1.545974731445312,-0.5496826171875,0.6802352666854858,2.040475606918335,0.0075854817405343,8.760299682617188,76.43641662597656,-4.77520751953125
120265,-2.194869995117188,1.245147705078125,-0.82000732421875,0.8850693702697754,-0.2257753312587738,0.1470203399658203,8.341995239257812,76.47611999511719,-5.872360229492188
120266,-1.457489013671875,1.012954711914062,0.154937744140625,0.6004387140274048,-1.103431224822998,0.1910485178232193,8.167816162109375,76.94070434570312,-7.32568359375
120267,-1.221542358398438,0.85479736328125,0.193023681640625,0.6363098621368408,-0.6557554602622986,0.2202490121126175,8.344970703125,77.25747680664062,-7.169464111328125
120268,-1.221542358398438,0.85479736328125,0.193023681640625,0.6363098621368408,-0.6557554602622986,0.2202490121126175,8.344970703125,77.25747680664062,-7.169464111328125
120269,-1.091079711914062,0.6641998291015625,0.1092376708984375,0.6949295401573181,-0.373850554227829,0.2012841105461121,8.592926025390625,77.53189086914062,-6.901611328125
120270,-0.962799072265625,0.43682861328125,0.0395050048828125,0.6256537437438965,-0.4170142710208893,0.2517278492450714,8.93133544921875,77.7445068359375,-6.554794311523438
120271,-0.8463134765625,0.27392578125,0.0506439208984375,0.5533321499824524,-0.561804473400116,0.3449906706809998,9.4163818359375,77.86634826660156,-6.312606811523438
120272,-0.725616455078125,0.17816162109375,0.1778717041015625,0.4376545548439026,-0.5152175426483154,0.4122315049171448,9.9224853515625,78.01908874511719,-6.26458740234375
120273,-0.56414794921875,0.12554931640625,0.24530029296875,0.3996693789958954,0.1250079870223999,0.5028144121170044,10.56794738769531,78.10525512695312,-6.015228271484375
120274,-0.376678466796875,0.16650390625,0.0861663818359375,0.5822692513465881,0.9203610420227052,0.6272178292274475,11.063720703125,78.11732482910156,-5.941696166992188
120275,-0.26153564453125,0.2995758056640625,-0.1709136962890625,0.9244463443756104,1.546282768249512,0.7364439368247986,11.34721374511719,78.34237670898438,-5.852767944335938
120276,-0.2261962890625,0.4729766845703125,-0.40234375,1.196420907974243,1.668535947799683,0.6985189318656921,11.60720825195312,78.49606323242188,-6.225341796875
120277,-0.2088623046875,0.5556640625,-0.4513092041015625,1.16950535774231,1.214630246162415,0.5101999044418335,11.70359802246094,78.76348876953125,-6.752120971679688
120278,-0.18133544921875,0.5509185791015625,-0.3218536376953125,0.8862009048461914,0.5940212607383728,0.3003672957420349,11.70124816894531,79.03279113769531,-7.49407958984375
120279,-0.123870849609375,0.524078369140625,-0.0118255615234375,0.336416631937027,-0.3116010427474976,-0.045453768223524,11.71775817871094,79.46537780761719,-9.1163330078125
120280,-0.123870849609375,0.524078369140625,-0.0118255615234375,0.336416631937027,-0.3116010427474976,-0.045453768223524,11.71775817871094,79.46537780761719,-9.1163330078125
120281,-0.0520477294921875,0.4492034912109375,0.0726470947265625,0.2401236444711685,-0.6240217685699463,-0.0487044230103492,11.77787780761719,79.63616943359375,-9.403533935546877
120282,-0.0103759765625,0.394073486328125,0.169158935546875,0.2772569060325623,-0.8207545280456543,0.0307376720011234,11.92732238769531,79.6331787109375,-9.4306640625
120283,0.02276611328125,0.3322296142578125,0.2349853515625,0.3678557872772217,-0.9092804193496704,0.1322043687105179,11.96464538574219,79.67192077636719,-9.345550537109377
120284,0.0341796875,0.27496337890625,0.2977142333984375,0.4579326808452606,-0.9080926775932312,0.1976624727249146,12.05436706542969,79.72959899902344,-9.114822387695312
120285,0.0226593017578125,0.2229156494140625,0.3645172119140625,0.5061483979225159,-0.8268387913703918,0.163167878985405,12.09298706054688,79.83576965332031,-8.756332397460938
120286,-0.0090484619140625,0.1763458251953125,0.422454833984375,0.5377057790756226,-0.6794450879096985,0.0401202552020549,12.13827514648438,79.87522888183594,-8.089157104492188
120287,-0.08642578125,0.146087646484375,0.495941162109375,0.4944067895412445,-0.4457175433635712,-0.1531621217727661,12.26333618164062,79.99533081054688,-7.7476806640625
120288,-0.2233734130859375,0.14581298828125,0.5627288818359375,0.324195921421051,-0.083524189889431,-0.2655832171440125,12.27293395996094,80.19026184082031,-7.821624755859375
120289,-0.3517608642578125,0.219635009765625,0.5493316650390625,0.0880398452281951,0.1495767086744308,-0.3451629877090454,12.25199890136719,80.339599609375,-8.077957153320312
120290,-0.6892852783203125,0.342193603515625,0.4538116455078125,-0.397570788860321,-0.2755482196807861,-0.821509838104248,12.0706787109375,80.43551635742188,-8.384857177734375
120291,-0.6892852783203125,0.342193603515625,0.4538116455078125,-0.397570788860321,-0.2755482196807861,-0.821509838104248,12.0706787109375,80.43551635742188,-8.384857177734375
120292,-0.91961669921875,0.2742462158203125,0.4232025146484375,-0.6462533473968506,-0.6901438236236572,-1.007878422737122,11.85920715332031,80.46609497070312,-8.597747802734375
120293,-1.140304565429688,0.12890625,0.382293701171875,-0.9483388662338256,-0.9129409193992616,-0.9039069414138794,11.52346801757812,80.23603820800781,-8.684326171875
120294,-1.187164306640625,0.0699462890625,0.2171783447265625,-1.205757856369019,-1.053026080131531,-0.5979382395744324,11.13558959960938,80.05406188964844,-8.641937255859375
120295,-0.9534149169921876,0.2099761962890625,-0.26953125,-1.097414612770081,-1.887725830078125,-0.5481073260307312,10.68714904785156,79.89244079589844,-8.514511108398438
120296,-0.6796417236328125,0.3140411376953125,-0.200042724609375,-0.8589386940002441,-2.752263069152832,-0.6142107248306274,10.31657409667969,79.68595886230469,-8.235321044921875
120297,-0.491424560546875,0.319488525390625,0.1919097900390625,-0.8808578252792358,-2.565807342529297,-0.6986917853355408,10.0218505859375,79.37907409667969,-7.4630126953125
120298,-0.3281402587890625,0.3063201904296875,0.2749176025390625,-0.954155206680298,-1.904807090759277,-0.7541105151176453,9.828628540039062,79.08111572265625,-6.389801025390625
120299,-0.217193603515625,0.26776123046875,0.1999053955078125,-0.8163318634033203,-1.461282014846802,-0.765403687953949,9.722183227539062,78.67002868652344,-4.98291015625
120300,-0.1592254638671875,0.210418701171875,0.1256103515625,-0.5567553639411926,-1.235543966293335,-0.7262547016143799,9.824066162109377,78.28781127929688,-3.9019775390625
120301,-0.10260009765625,0.1685333251953125,0.049774169921875,-0.3433866500854492,-1.09546685218811,-0.6515543460845947,9.933441162109377,77.59788513183594,-2.919326782226562
120302,-0.013214111328125,0.146453857421875,-0.06243896484375,-0.1976784616708755,-1.134459257125854,-0.5070725083351135,10.15065002441406,77.07572937011719,-2.06707763671875
120303,0.102264404296875,0.123443603515625,-0.1444549560546875,-0.1515077650547028,-1.388785004615784,-0.207863986492157,10.41123962402344,76.59141540527344,-1.360183715820312
120304,0.19342041015625,0.08795166015625,-0.1700897216796875,-0.1961093246936798,-1.68073296546936,0.2565574944019318,10.86894226074219,75.98384094238281,-0.2151336669921875
120305,0.2360076904296875,0.0576934814453125,-0.1540679931640625,-0.1920860856771469,-1.81811261177063,0.7842551469802856,11.18162536621094,75.78326416015625,0.630950927734375
120306,0.2355499267578125,0.0646209716796875,-0.11505126953125,-0.0065966499969363,-1.689513087272644,1.255909204483032,11.50971984863281,75.72760009765625,1.575057983398438
120307,0.19696044921875,0.1131591796875,-0.054840087890625,0.2719204723834991,-1.327791929244995,1.573444604873657,11.97775268554688,76.11616516113281,2.476959228515625
120308,0.1443023681640625,0.1706390380859375,0.011138916015625,0.4854806661605835,-0.858045220375061,1.699047207832336,12.52005004882812,76.60966491699219,3.288360595703125
120309,0.1213226318359375,0.20843505859375,0.012664794921875,0.5600952506065369,-0.4232215583324432,1.683476209640503,13.16404724121094,77.060546875,4.220535278320312
120310,0.12017822265625,0.255584716796875,-0.0778656005859375,0.5336977243423462,-0.221182182431221,1.61236047744751,13.81341552734375,77.694580078125,4.633560180664062
120311,0.1186981201171875,0.3336334228515625,-0.168426513671875,0.4443641304969788,-0.3268350958824158,1.490942716598511,14.41874694824219,78.42520141601562,4.566650390625
120312,0.123779296875,0.436187744140625,-0.2167816162109375,0.298194944858551,-0.645408570766449,1.329902529716492,14.88571166992188,79.10026550292969,4.696502685546875
120313,0.11541748046875,0.54937744140625,-0.2563934326171875,0.1833274811506271,-1.022339105606079,1.124573588371277,15.42459106445312,79.75785827636719,4.880645751953125
120314,0.068634033203125,0.6632537841796875,-0.2990264892578125,0.2214375883340836,-1.293861865997314,0.8232808113098145,15.9078369140625,80.22451782226562,5.352462768554688
120315,-0.0287628173828125,0.7251739501953125,-0.3309173583984375,0.4223917126655579,-1.355226993560791,0.3756497800350189,16.465576171875,80.54464721679688,5.7701416015625
120316,-0.1397552490234375,0.6945648193359375,-0.3287506103515625,0.6828622221946716,-1.196739315986633,-0.1161990463733673,16.81834411621094,80.712158203125,6.141815185546875
120317,-0.27093505859375,0.7172088623046875,-0.3961334228515625,1.002631187438965,-0.7595990300178528,-0.4751894176006317,17.16525268554688,80.79483032226562,6.597930908203125
120318,-0.405426025390625,0.9560394287109376,-0.6046600341796875,1.49199652671814,-0.0372256636619567,-0.7324260473251343,17.29902648925781,80.85800170898438,6.8397216796875
120319,-0.4935455322265625,1.262649536132812,-0.7774810791015625,1.780420899391174,0.7535083889961243,-0.8409106731414795,17.21095275878906,80.93507385253906,6.814910888671875
120320,-0.5099334716796875,1.549087524414062,-0.68170166015625,1.294873952865601,1.307978749275208,-0.7785415649414062,16.86151123046875,81.080810546875,6.346847534179688
120321,-0.47216796875,1.8037109375,-0.333404541015625,0.1131441295146942,1.539454102516174,-0.8322826027870178,16.38053894042969,81.05903625488281,5.571258544921875
120322,-0.4452362060546875,2.209884643554688,0.0384979248046875,-1.054402470588684,1.624386072158813,-0.9693560004234314,15.92608642578125,80.73475646972656,4.74755859375
120323,-0.6339874267578125,3.156173706054688,0.398284912109375,-1.523910522460938,1.966434717178345,-1.220923542976379,15.33634948730469,80.32949829101562,3.97119140625
120324,-1.30352783203125,5.723648071289062,0.2845611572265625,-0.73842853307724,2.148953199386597,-1.700058698654175,14.71125793457031,79.72023010253906,3.423690795898438
120325,-2.013336181640625,6.696731567382812,0.186126708984375,0.2640739977359772,0.8886926174163818,-2.323021173477173,13.82809448242188,78.80307006835938,2.714111328125
120326,-2.295425415039062,4.959762573242188,0.6123809814453125,0.983817219734192,-0.0595623962581157,-2.702040195465088,12.91180419921875,78.08274841308594,1.775054931640625
120327,-3.154098510742188,1.140762329101562,1.167144775390625,1.138280630111694,2.788499593734741,-0.9970017671585084,10.7623291015625,76.79051208496094,-0.3394012451171875
120328,-3.154098510742188,1.140762329101562,1.167144775390625,1.138280630111694,2.788499593734741,-0.9970017671585084,10.7623291015625,76.79051208496094,-0.3394012451171875
120329,-2.889190673828125,0.8759002685546875,-0.921051025390625,0.7897710800170898,3.671672582626343,0.1621513515710831,9.7977294921875,76.64266967773438,-1.625228881835938
120330,-2.46124267578125,1.18707275390625,-1.745407104492188,1.112836241722107,-0.4436951577663422,0.3784916400909424,9.151077270507812,76.70025634765625,-3.045867919921875
120331,-1.922286987304688,1.16033935546875,-0.063079833984375,0.7854751348495483,-1.800285220146179,0.2871276438236237,8.937881469726562,77.03201293945312,-4.183914184570312
120332,-1.489517211914062,1.00872802734375,0.1568145751953125,0.593406617641449,-1.535596489906311,0.3293270170688629,9.258316040039062,77.52090454101562,-4.30078125
120333,-1.20355224609375,0.8771820068359375,0.0236968994140625,0.8360751867294312,-0.7090602517127991,0.3558369278907776,9.781005859375,77.95405578613281,-3.712081909179688
120334,-1.052536010742188,0.690704345703125,-0.06085205078125,1.1279456615448,0.0419240146875381,0.3915174305438995,10.34091186523438,78.1363525390625,-3.078109741210938
120335,-0.989959716796875,0.374359130859375,0.0504302978515625,0.8679617643356323,0.1700960993766785,0.3477590382099152,11.42437744140625,78.86907958984375,-2.916778564453125
120336,-0.989959716796875,0.374359130859375,0.0504302978515625,0.8679617643356323,0.1700960993766785,0.3477590382099152,11.42437744140625,78.86907958984375,-2.916778564453125
120337,-0.8812103271484375,0.259735107421875,0.14166259765625,0.5587141513824463,0.0456420518457889,0.3580982387065887,11.92033386230469,79.19447326660156,-3.0523681640625
120338,-0.7585601806640625,0.1981048583984375,0.20440673828125,0.2875590920448303,0.1300469487905502,0.327410101890564,12.35238647460938,79.34280395507812,-3.347320556640625
120339,-0.590850830078125,0.14324951171875,0.105987548828125,0.2290582209825516,0.4953676760196686,0.3420955538749695,12.69801330566406,79.388671875,-3.664154052734375
120340,-0.4208984375,0.1302947998046875,-0.08709716796875,0.5175352692604065,0.791478157043457,0.4492278695106506,12.80844116210938,79.47055053710938,-3.917083740234375
120341,-0.32122802734375,0.19219970703125,-0.163238525390625,0.9711621403694152,1.026011824607849,0.5469450950622559,12.81146240234375,79.64726257324219,-4.14068603515625
120342,-0.3068695068359375,0.34796142578125,-0.132354736328125,1.255292415618896,1.251023650169373,0.4981176555156708,12.67974853515625,79.90406799316406,-4.613037109375
120343,-0.2612762451171875,0.5777130126953125,-0.1201019287109375,1.070324182510376,0.8108646273612976,0.0622375421226024,12.63845825195312,80.45703125,-6.08831787109375
120344,-0.2612762451171875,0.5777130126953125,-0.1201019287109375,1.070324182510376,0.8108646273612976,0.0622375421226024,12.63845825195312,80.45703125,-6.08831787109375
120345,-0.1998748779296875,0.5890960693359375,-0.0816802978515625,0.7886235117912292,0.1905398517847061,-0.0814804807305336,12.68856811523438,80.66084289550781,-6.756576538085938
120346,-0.120880126953125,0.5359344482421875,-0.0142669677734375,0.5863220691680908,-0.3896313905715942,-0.1045977845788002,12.80560302734375,80.667236328125,-7.207305908203125
120347,-0.0599822998046875,0.500518798828125,0.1126556396484375,0.4771601557731628,-0.7223406434059143,-0.0581258870661258,12.8697509765625,80.65249633789062,-7.56927490234375
120348,-0.0094757080078125,0.441162109375,0.2167205810546875,0.403775691986084,-0.8276081681251526,0.0426699668169021,12.82017517089844,80.60749816894531,-7.674835205078125
120349,0.027130126953125,0.3700714111328125,0.2857818603515625,0.3813316524028778,-0.833986759185791,0.1474195420742035,12.80865478515625,80.78018188476562,-7.493820190429688
120350,0.036224365234375,0.25592041015625,0.414215087890625,0.5932753086090088,-0.7440677881240845,0.1869781464338303,12.89459228515625,81.06033325195312,-6.98382568359375
120351,0.036224365234375,0.25592041015625,0.414215087890625,0.5932753086090088,-0.7440677881240845,0.1869781464338303,12.89459228515625,81.06033325195312,-6.98382568359375
120352,-0.022796630859375,0.260101318359375,0.51666259765625,0.7375563383102417,-0.5984253287315369,-0.0231559183448553,12.85601806640625,81.36770629882812,-7.03045654296875
120353,-0.1778717041015625,0.2751007080078125,0.6291046142578125,0.789313554763794,-0.44400754570961,-0.3514243364334106,13.00810241699219,81.44268798828125,-6.754150390625
120354,-0.401458740234375,0.3057098388671875,0.7442169189453125,0.6860726475715637,-0.2298742085695267,-0.4194627702236176,13.04876708984375,81.40702819824219,-6.758514404296875
120355,-0.5897674560546875,0.3976287841796875,0.79986572265625,0.4191780984401703,-0.1491258293390274,-0.5371662378311157,12.9227294921875,81.42994689941406,-6.916656494140625
120356,-0.7920074462890625,0.4681243896484375,0.77130126953125,0.0512634553015232,-0.31699338555336,-0.780721127986908,12.90896606445312,81.37472534179688,-7.253662109375
120357,-1.030624389648438,0.422210693359375,0.671661376953125,-0.3653526902198792,-0.6872864961624146,-1.047725439071655,12.71803283691406,81.36676025390625,-7.47772216796875
120358,-1.277984619140625,0.2189483642578125,0.51507568359375,-0.7717968821525574,-1.118399262428284,-1.050248980522156,12.47772216796875,81.10856628417969,-7.556396484375
120359,-1.348922729492188,0.0385589599609375,0.35009765625,-1.108558654785156,-1.464377522468567,-0.7296057343482971,12.10174560546875,80.91751098632812,-7.491363525390625
120360,-1.096099853515625,0.119049072265625,0.1025848388671875,-1.278962373733521,-1.842905640602112,-0.5484939813613892,11.77394104003906,80.71270751953125,-7.218048095703125
120361,-0.80596923828125,0.28997802734375,-0.378814697265625,-1.14844024181366,-2.803920745849609,-0.5905807614326477,11.47225952148438,80.45777893066406,-6.359405517578125
120362,-0.6058502197265625,0.3303375244140625,-0.302520751953125,-0.9039610028266908,-3.69144868850708,-0.6333915591239929,11.2716064453125,80.23985290527344,-5.418060302734375
120363,-0.4611358642578125,0.334075927734375,0.1147308349609375,-0.9213727712631226,-3.412801265716553,-0.6718934178352356,11.22059631347656,79.84544372558594,-4.118576049804688
120364,-0.3061981201171875,0.3371429443359375,0.178741455078125,-1.06814169883728,-2.455167770385742,-0.6687040328979492,11.23851013183594,79.42100524902344,-2.544418334960938
120365,-0.17138671875,0.2943878173828125,0.0084991455078125,-0.8858206272125244,-1.8402498960495,-0.6366414427757263,11.48054504394531,78.97358703613281,-0.8810577392578125
120366,-0.0541534423828125,0.1961669921875,0.004302978515625,-0.1812747120857239,-1.194874048233032,-0.4593707919120789,12.15275573730469,77.86236572265625,1.621994018554688
120367,-0.0541534423828125,0.1961669921875,0.004302978515625,-0.1812747120857239,-1.194874048233032,-0.4593707919120789,12.15275573730469,77.86236572265625,1.621994018554688
120368,0.004302978515625,0.1795196533203125,-0.0337371826171875,-0.0237074606120586,-0.8891780972480774,-0.3069516718387604,12.49037170410156,77.55293273925781,2.222885131835938
120369,0.0854644775390625,0.162567138671875,-0.0931549072265625,0.0269903391599655,-0.8494386672973633,-0.0640583410859108,12.89793395996094,77.14173889160156,2.679885864257812
120370,0.15576171875,0.1298675537109375,-0.13568115234375,-0.0060421796515583,-1.046113848686218,0.3305696547031403,13.2205810546875,76.87522888183594,3.23779296875
120371,0.158050537109375,0.0870819091796875,-0.0808258056640625,-0.0011643340112641,-1.19864296913147,1.101160168647766,13.69775390625,76.72059631347656,4.346923828125
120372,0.158050537109375,0.0870819091796875,-0.0808258056640625,-0.0011643340112641,-1.19864296913147,1.101160168647766,13.69775390625,76.72059631347656,4.346923828125
120373,0.1454010009765625,0.0809783935546875,-0.0491180419921875,0.0677920952439308,-1.072209477424622,1.335563778877258,14.0865478515625,77.07261657714844,5.01885986328125
120374,0.1370391845703125,0.0827789306640625,-0.0521392822265625,0.1360971182584763,-0.912754237651825,1.491661787033081,14.62261962890625,77.48521423339844,5.556610107421875
120375,0.1172332763671875,0.112060546875,-0.0973052978515625,0.2013160735368729,-0.8308780193328857,1.550868630409241,15.19635009765625,77.91734313964844,6.203155517578125
120376,0.0915374755859375,0.15826416015625,-0.1550140380859375,0.2585596442222595,-0.9118613004684448,1.496761202812195,15.85575866699219,78.21217346191406,6.8734130859375
120377,0.0587158203125,0.2290802001953125,-0.1667938232421875,0.303571879863739,-1.06507670879364,1.329135537147522,16.50230407714844,78.70613098144531,7.329513549804688
120378,0.006317138671875,0.349884033203125,-0.1856231689453125,0.3230030834674835,-1.220452189445496,1.027533531188965,17.15020751953125,79.17784118652344,7.833206176757812
120379,-0.0690155029296875,0.5271759033203125,-0.2776641845703125,0.4139820039272308,-1.366031169891357,0.5794468522071838,17.70994567871094,79.7779541015625,8.274993896484375
120380,-0.1800689697265625,0.720123291015625,-0.4143524169921875,0.6699408292770386,-1.532501101493835,0.0214549582451582,18.30796813964844,80.18115234375,8.653228759765625
120381,-0.3177337646484375,0.838775634765625,-0.461761474609375,1.133381724357605,-1.459556102752686,-0.540885865688324,18.7064208984375,80.42781066894531,9.080230712890623
120382,-0.44354248046875,0.9064178466796876,-0.4955902099609375,1.725924134254456,-0.9346467852592468,-0.98453950881958,19.02166748046875,80.50839233398438,9.448501586914062
120383,-0.63397216796875,1.197433471679688,-1.045135498046875,2.46172833442688,0.8238946795463562,-0.9845666289329528,19.01771545410156,80.5863037109375,9.6590576171875
120384,-0.63397216796875,1.197433471679688,-1.045135498046875,2.46172833442688,0.8238946795463562,-0.9845666289329528,19.01771545410156,80.5863037109375,9.6590576171875
120385,-0.5863494873046875,1.526412963867188,-0.8506011962890625,1.803005576133728,1.337556719779968,-0.4972758293151855,18.65092468261719,80.64823913574219,9.081161499023438
120386,-0.593597412109375,1.952072143554688,-0.5382080078125,0.5035028457641602,1.350233793258667,-0.3214318156242371,18.28056335449219,80.71710205078125,8.311767578125
120387,-0.7064361572265625,2.292724609375,-0.3581085205078125,-0.5262907147407532,0.9524015188217164,-0.6847434639930725,17.71394348144531,80.71585083007812,7.555160522460938
120388,-0.7480621337890625,2.592117309570312,-0.1115264892578125,-0.8065189123153687,0.9989434480667114,-1.006860256195068,17.26901245117188,80.62664794921875,6.638565063476562
120389,-0.84442138671875,2.927520751953125,0.0684967041015625,-0.7102780938148499,1.481781721115112,-1.096263647079468,16.79295349121094,80.36024475097656,5.901046752929688
120390,-1.10028076171875,3.3505859375,0.0534210205078125,-0.5528088808059692,1.646460771560669,-1.11739718914032,16.2740478515625,79.92097473144531,5.417022705078125
120391,-1.5543212890625,3.62890625,0.0689239501953125,-0.175246924161911,0.987613320350647,-1.081556797027588,15.54190063476562,79.40396118164062,4.7801513671875
120392,-2.151016235351562,3.288070678710938,0.4040679931640625,0.3664293885231018,0.3245970010757446,-0.8413146734237671,14.78306579589844,78.90922546386719,3.990142822265625
120393,-2.752288818359375,2.49896240234375,0.810272216796875,0.437135249376297,0.9212254881858826,0.1639362126588821,14.12550354003906,78.56378173828125,3.189102172851562
120394,-2.622940063476562,2.143051147460938,0.763916015625,0.2435335665941238,2.083866834640503,0.7387164235115051,13.45095825195312,78.39997863769531,2.44293212890625
120395,-2.146942138671875,1.73968505859375,0.15521240234375,0.4333378374576569,2.326715469360352,0.5641062259674072,12.57041931152344,79.15928649902344,0.67236328125
120396,-2.146942138671875,1.73968505859375,0.15521240234375,0.4333378374576569,2.326715469360352,0.5641062259674072,12.57041931152344,79.15928649902344,0.67236328125
120397,-1.897171020507812,1.4803466796875,-0.228363037109375,0.5898838043212891,1.581677675247192,0.4089843034744263,12.2999267578125,79.64773559570312,-0.1518707275390625
120398,-1.535018920898438,1.181686401367188,-0.3701019287109375,0.7615351676940918,0.644517719745636,0.3811098039150238,12.14627075195312,80.21087646484375,-0.9651947021484376
120399,-1.0457763671875,0.8293304443359375,0.02386474609375,0.7142057418823242,-0.021072793751955,0.6472640037536621,12.25666809082031,81.13764953613281,-2.66412353515625
120400,-1.0457763671875,0.8293304443359375,0.02386474609375,0.7142057418823242,-0.021072793751955,0.6472640037536621,12.25666809082031,81.13764953613281,-2.66412353515625
120401,-0.9455413818359376,0.7706298828125,0.1116790771484375,0.6198395490646362,-0.0422196239233017,0.7166489362716675,12.58558654785156,81.45147705078125,-2.936859130859375
120402,-0.8898773193359375,0.7427520751953125,0.1502532958984375,0.5797368884086609,-0.1332672387361526,0.7322793006896973,12.98521423339844,81.67520141601562,-2.96380615234375
120403,-0.816925048828125,0.7209930419921875,0.200439453125,0.7129966616630554,-0.2036548554897308,0.8002404570579529,13.96903991699219,82.38526916503906,-3.269195556640625
120404,-0.816925048828125,0.7209930419921875,0.200439453125,0.7129966616630554,-0.2036548554897308,0.8002404570579529,13.96903991699219,82.38526916503906,-3.269195556640625
120405,-0.7885894775390625,0.7451324462890625,0.1579132080078125,0.8884931206703186,-0.0423682294785976,0.7285063862800598,14.45892333984375,82.63835144042969,-3.239471435546875
120406,-0.754486083984375,0.8161163330078125,0.069366455078125,1.157987952232361,0.2153919339179993,0.6062004566192627,14.94450378417969,83.14218139648438,-3.457366943359375
120407,-0.7147979736328125,0.857147216796875,0.00311279296875,1.39144492149353,0.5200863480567932,0.4870189130306244,15.27825927734375,83.38787841796875,-3.560287475585938
120408,-0.657318115234375,0.7900543212890625,-0.0520172119140625,1.405974864959717,0.7389150857925415,0.4074146449565887,15.57080078125,83.70344543457031,-3.982131958007812
120409,-0.55462646484375,0.67681884765625,-0.10882568359375,1.299038529396057,0.6890668272972107,0.4172704815864563,15.86112976074219,84.07664489746094,-4.451324462890625
120410,-0.459442138671875,0.6071624755859375,-0.0445709228515625,1.172093152999878,0.5042501091957092,0.4649825990200043,16.01132202148438,84.27027893066406,-5.131881713867188
120411,-0.3779144287109375,0.56756591796875,0.065582275390625,1.082123041152954,0.3182344436645508,0.4892338812351227,16.13136291503906,84.53663635253906,-5.7510986328125
120412,-0.31292724609375,0.5450592041015625,0.1852569580078125,1.041435480117798,0.1726996004581451,0.4812084436416626,16.36607360839844,84.81767272949219,-6.379135131835938
120413,-0.2485809326171875,0.5008697509765625,0.265411376953125,1.030020713806152,0.0928860008716583,0.4623601734638214,16.60887145996094,85.00772094726562,-6.932281494140625
120414,-0.191864013671875,0.4388275146484375,0.2859954833984375,1.047093987464905,-0.0218206103891134,0.4617745578289032,16.72261047363281,85.41517639160156,-7.457229614257812
120415,-0.155853271484375,0.38555908203125,0.320098876953125,1.066286563873291,-0.1495620608329773,0.4619812071323395,16.81307983398438,85.69401550292969,-7.851150512695312
120416,-0.154998779296875,0.3663330078125,0.389862060546875,1.037352919578552,-0.2834189236164093,0.4220255315303802,16.90052795410156,85.99551391601562,-8.09466552734375
120417,-0.2082061767578125,0.4040069580078125,0.5070648193359375,0.9083302021026612,-0.3929885625839233,0.2514831125736237,17.1619873046875,86.24366760253906,-8.415603637695312
120418,-0.3243255615234375,0.4029083251953125,0.6440582275390625,0.6907486319541931,-0.4989557564258575,0.0589040629565715,17.2919921875,86.55537414550781,-8.619522094726562
120419,-0.4697418212890625,0.360748291015625,0.8106231689453125,0.4144246280193329,-0.4572913944721222,0.0253181401640176,17.45286560058594,86.80470275878906,-8.86090087890625
120420,-0.5756988525390625,0.31658935546875,0.9167022705078124,0.1051155030727386,-0.2949986159801483,-0.0355121865868568,17.4659423828125,87.02386474609375,-9.057083129882812
120421,-0.66259765625,0.2340240478515625,0.8929595947265625,-0.1689821034669876,-0.2344838678836823,-0.1527192443609238,17.44447326660156,87.09248352050781,-9.185195922851562
120422,-0.731536865234375,0.09716796875,0.8060150146484375,-0.3873493075370789,-0.3556686341762543,-0.2896302044391632,17.53656005859375,87.22291564941406,-9.236175537109377
120423,-0.768707275390625,-0.06280517578125,0.6857757568359375,-0.5905469059944153,-0.5337778925895691,-0.3468258678913116,17.54904174804688,87.31884765625,-9.147537231445312
120424,-0.7299346923828125,-0.1476898193359375,0.4879302978515625,-0.7572187185287476,-0.7710312008857727,-0.3298191726207733,17.53753662109375,87.28717041015625,-8.94610595703125
120425,-0.63720703125,-0.1314849853515625,0.279052734375,-0.8649427890777588,-1.093443870544434,-0.3164817988872528,17.49476623535156,87.33950805664062,-8.71832275390625
120426,-0.4284210205078125,-0.0543975830078125,0.04205322265625,-1.050901412963867,-1.754859328269958,-0.3880279064178467,17.14692687988281,87.06494140625,-7.560897827148438
120427,-0.4284210205078125,-0.0543975830078125,0.04205322265625,-1.050901412963867,-1.754859328269958,-0.3880279064178467,17.14692687988281,87.06494140625,-7.560897827148438
120428,-0.309478759765625,-0.0452117919921875,-0.167877197265625,-1.106234550476074,-1.997182011604309,-0.4127345681190491,16.99894714355469,86.78889465332031,-6.820877075195312
120429,-0.081787109375,-0.0626068115234375,-1.125244140625,-0.6127094626426697,-3.407509088516235,-0.3008407950401306,16.89146423339844,86.67900085449219,-5.893798828125
120430,0.104644775390625,-0.037750244140625,-1.122177124023438,0.4982894062995911,-5.273301601409912,0.0692571029067039,16.90615844726562,86.30287170410156,-4.5933837890625
120431,0.0792388916015625,0.0028839111328125,-0.1992340087890625,0.9011902809143066,-4.810906887054443,0.4097691476345062,17.00587463378906,86.14697265625,-3.490798950195312
120432,0.0615386962890625,-0.0577239990234375,0.072296142578125,0.6872692108154297,-2.725264549255371,0.8053063750267029,17.29289245605469,86.11146545410156,-2.314788818359375
120433,0.1547393798828125,-0.05169677734375,-0.07720947265625,0.6266042590141296,-0.974311351776123,1.191287398338318,18.02604675292969,86.10099792480469,-0.8687591552734375
120434,0.215606689453125,-0.009124755859375,-0.27264404296875,0.7209323644638062,-0.1351040303707123,1.490570187568665,18.93812561035156,86.179931640625,0.327117919921875
120435,0.31610107421875,0.0743408203125,-0.4129486083984375,-0.0288377739489078,-0.5463101863861084,1.760422468185425,20.95091247558594,86.63368225097656,1.297561645507812
120436,0.31610107421875,0.0743408203125,-0.4129486083984375,-0.0288377739489078,-0.5463101863861084,1.760422468185425,20.95091247558594,86.63368225097656,1.297561645507812
120437,0.273193359375,0.11968994140625,-0.2195892333984375,-0.3044373989105225,-0.6860787868499756,1.861578345298767,21.83699035644531,86.99954223632812,1.707015991210938
120438,0.1986083984375,0.222198486328125,-0.134307861328125,-0.2570834457874298,-0.6433326005935669,1.869284987449646,22.4224853515625,87.55447387695312,2.1632080078125
120439,0.094146728515625,0.4614715576171875,-0.068572998046875,0.1437899321317673,-0.3475523591041565,1.382147073745728,24.02902221679688,88.48098754882812,3.203262329101562
120440,0.094146728515625,0.4614715576171875,-0.068572998046875,0.1437899321317673,-0.3475523591041565,1.382147073745728,24.02902221679688,88.48098754882812,3.203262329101562
120441,0.07061767578125,0.6282958984375,-0.1285552978515625,0.2519052028656006,-0.3388334512710571,0.9685149788856506,24.82411193847656,88.76724243164062,3.526580810546875
120442,0.0352020263671875,0.7854766845703125,-0.24981689453125,0.3782330453395844,-0.5010934472084045,0.4814944565296173,25.48817443847656,89.13044738769531,3.849578857421875
120443,-0.0456695556640625,0.854217529296875,-0.393096923828125,0.5925368070602417,-0.7538937330245972,-0.0603850483894348,26.03785705566406,89.35032653808594,3.998748779296875
120444,-0.192413330078125,0.7663726806640625,-0.4835357666015625,0.856492280960083,-0.892645001411438,-0.5449205636978149,26.40083312988281,89.62506103515625,3.936080932617188
120445,-0.326812744140625,0.7389984130859375,-0.5718231201171875,1.115475177764893,-0.6517042517662048,-0.8671516180038452,26.50650024414062,89.77874755859375,3.783859252929688
120446,-0.4219970703125,0.85162353515625,-0.6563262939453125,1.230475187301636,0.0764620155096054,-1.025724768638611,26.38560485839844,89.88984680175781,3.912384033203125
120447,-0.4669952392578125,1.044570922851562,-0.7756805419921875,1.024870157241821,0.9100130796432496,-0.9761958122253418,26.1817626953125,89.86741638183594,3.817596435546875
120448,-0.5078582763671875,1.4267578125,-0.9925384521484376,0.4557725787162781,1.190279603004456,-0.8916167616844177,25.70620727539062,89.73910522460938,3.347396850585938
120449,-0.5044097900390625,1.914505004882812,-1.13104248046875,-0.2060836553573608,0.5951123833656311,-0.9247491359710692,25.27995300292969,89.71202087402344,2.788345336914062
120450,-0.3741455078125,2.161697387695312,-0.6917572021484375,-0.5476779937744141,0.0084118600934743,-0.7850735187530518,24.90029907226562,89.4691162109375,2.342315673828125
120451,-0.395721435546875,2.3653564453125,-0.0438232421875,-0.2419598996639252,0.347583532333374,-0.4376239478588104,24.47537231445312,89.1488037109375,2.071609497070312
120452,-0.486236572265625,2.624862670898438,0.1302032470703125,0.4226660430431366,1.154085636138916,-0.149079754948616,24.04225158691406,88.83659362792969,2.069747924804688
120453,-0.572845458984375,2.760345458984375,-0.1229248046875,0.8143645524978638,1.411198377609253,0.1457004696130753,23.83944702148438,88.62873840332031,2.020050048828125
120454,-0.7201690673828125,2.867156982421875,-0.41070556640625,0.8391716480255127,0.8786239624023438,0.26461461186409,23.605712890625,88.48097229003906,1.82586669921875
120455,-0.8226470947265625,2.942718505859375,-0.4499969482421875,0.7569659948348999,0.1239989101886749,0.2374785989522934,23.31266784667969,88.42433166503906,1.139541625976562
120456,-0.9505767822265624,3.142318725585938,-0.22637939453125,0.7499626874923706,-0.2031999826431274,-0.0089146653190255,23.00355529785156,88.66926574707031,0.238189697265625
120457,-1.161239624023438,3.48883056640625,0.1131744384765625,0.8269370794296265,0.1179247722029686,-0.6368720531463623,22.66722106933594,88.99308776855469,-0.5255279541015625
120458,-1.396835327148438,3.709396362304688,0.441009521484375,0.7994242310523987,0.7835459113121033,-1.824965476989746,22.32928466796875,89.21315002441406,-1.026611328125
120459,-1.891189575195312,2.83489990234375,0.2403411865234375,0.6534957885742188,0.6749541759490967,-4.623755931854248,21.08294677734375,89.48983764648438,-2.207275390625
120460,-1.891189575195312,2.83489990234375,0.2403411865234375,0.6534957885742188,0.6749541759490967,-4.623755931854248,21.08294677734375,89.48983764648438,-2.207275390625
120461,-3.026641845703125,1.205963134765625,0.4010772705078125,0.4590030014514923,0.7300946712493896,-4.105303287506104,18.40545654296875,88.31709289550781,-3.75433349609375
120462,-3.645477294921875,-0.1668853759765625,0.062774658203125,-0.2300403863191605,1.949660301208496,-0.6752836108207703,16.75059509277344,87.51150512695312,-4.928695678710938
120463,-2.541519165039062,0.0384521484375,-0.509033203125,0.1778363138437271,0.6015689373016357,0.4580903351306915,15.77896118164062,87.16072082519531,-5.963790893554688
120464,-1.71258544921875,0.24652099609375,-0.1771240234375,0.5899093747138977,-1.15285849571228,0.6229011416435242,15.75978088378906,87.11674499511719,-6.477432250976562
120465,-1.281280517578125,0.34222412109375,0.25091552734375,0.4710412919521332,-1.937912583351135,0.5103708505630493,16.037353515625,87.26925659179688,-6.27984619140625
120466,-0.7905120849609375,0.19598388671875,0.0856170654296875,0.0638271793723106,-0.7814598679542542,0.3514155447483063,16.98426818847656,87.56129455566406,-5.35308837890625
120467,-0.7905120849609375,0.19598388671875,0.0856170654296875,0.0638271793723106,-0.7814598679542542,0.3514155447483063,16.98426818847656,87.56129455566406,-5.35308837890625
120468,-0.6418914794921875,0.42352294921875,0.018798828125,0.5998064279556274,0.0261919219046831,0.3477803468704224,17.4241943359375,87.52613830566406,-4.915283203125
120469,-0.536376953125,0.901336669921875,0.0364990234375,1.218022584915161,2.247566699981689,0.1867208778858185,18.40573120117188,87.42790222167969,-4.925430297851562
120470,-0.536376953125,0.901336669921875,0.0364990234375,1.218022584915161,2.247566699981689,0.1867208778858185,18.40573120117188,87.42790222167969,-4.925430297851562
120471,-0.4619903564453125,0.8527069091796875,-0.2440032958984375,1.260163068771362,2.320754528045654,0.0843188762664794,18.73091125488281,87.5181884765625,-5.717758178710938
120472,-0.3252105712890625,0.78680419921875,-0.447906494140625,1.085222721099854,1.466026782989502,0.196414515376091,19.02415466308594,87.50852966308594,-6.811691284179688
120473,-0.2469329833984375,0.758544921875,-0.499908447265625,0.842815101146698,0.2960319221019745,0.388379693031311,19.06097412109375,87.4752197265625,-7.850479125976562
120474,-0.169464111328125,0.69158935546875,-0.1492919921875,0.8224731087684631,-0.886667788028717,0.3085351884365082,18.84942626953125,87.7059326171875,-9.027816772460938
120475,-0.169464111328125,0.69158935546875,-0.1492919921875,0.8224731087684631,-0.886667788028717,0.3085351884365082,18.84942626953125,87.7059326171875,-9.027816772460938
120476,-0.1216888427734375,0.639862060546875,0.022064208984375,0.9289097785949708,-0.9356456995010376,0.2241492122411728,18.90751647949219,87.89259338378906,-9.155487060546877
120477,-0.100738525390625,0.5867462158203125,0.1207427978515625,0.952573537826538,-0.9035495519638062,0.1045642271637917,18.94486999511719,88.15902709960938,-9.12420654296875
120478,-0.0678863525390625,0.457366943359375,0.11480712890625,0.948624074459076,-0.9964033365249634,0.0056171393953263,19.134521484375,88.40579223632812,-9.099884033203123
120479,-0.082061767578125,0.217132568359375,0.226043701171875,0.9971370100975036,-1.175944924354553,-0.3042235374450684,19.38238525390625,88.70819091796875,-9.295333862304688
120480,-0.082061767578125,0.217132568359375,0.226043701171875,0.9971370100975036,-1.175944924354553,-0.3042235374450684,19.38238525390625,88.70819091796875,-9.295333862304688
120481,-0.113616943359375,0.097869873046875,0.3153839111328125,0.980895221233368,-1.09270453453064,-0.4630432724952698,19.45230102539062,88.75697326660156,-9.155059814453123
120482,-0.182403564453125,-0.0037078857421875,0.3957061767578125,0.8585735559463501,-0.9078543186187744,-0.5271043181419373,19.494384765625,88.84657287597656,-9.20550537109375
120483,-0.290740966796875,-0.0520172119140625,0.4619903564453125,0.609164834022522,-0.6920127868652344,-0.4020009636878967,19.35728454589844,88.87966918945312,-9.28948974609375
120484,-0.45526123046875,0.043975830078125,0.5190277099609375,0.2930116355419159,-0.5492314100265503,-0.2013384401798248,19.22857666015625,88.71934509277344,-9.0201416015625
120485,-0.64801025390625,0.195648193359375,0.5416107177734375,-0.0075279572047293,-0.5748297572135925,-0.1114154756069183,19.11735534667969,88.69264221191406,-9.034042358398438
120486,-0.850128173828125,0.287841796875,0.5194854736328125,-0.2837667465209961,-0.7979075312614441,-0.1573041379451752,19.13914489746094,88.5953369140625,-8.999130249023438
120487,-1.019439697265625,0.3000335693359375,0.489501953125,-0.5345842838287354,-1.087939143180847,-0.266362726688385,19.14193725585938,88.53089904785156,-9.212677001953123
120488,-1.0887451171875,0.2411651611328125,0.434173583984375,-0.7362188696861267,-1.342782378196716,-0.3657859861850739,19.04121398925781,88.52293395996094,-9.241424560546877
120489,-0.953948974609375,0.1837310791015625,0.306488037109375,-0.8492759466171265,-1.566430807113647,-0.4112011194229126,19.02169799804688,88.56370544433594,-8.93206787109375
120490,-0.6893768310546875,0.233856201171875,0.12158203125,-0.879650890827179,-1.838034152984619,-0.4740376174449921,18.80268859863281,88.50773620605469,-8.313888549804688
120491,-0.49658203125,0.28533935546875,0.0190582275390625,-0.8536880016326904,-2.102363109588623,-0.5680959224700928,18.78916931152344,88.47735595703125,-7.736557006835938
120492,-0.35498046875,0.2938232421875,0.080474853515625,-0.8493848443031311,-2.107352733612061,-0.6586913466453552,18.75373840332031,88.17173767089844,-6.724258422851562
120493,-0.254547119140625,0.284210205078125,0.152740478515625,-0.823242723941803,-1.927381873130798,-0.7490928769111633,18.6690673828125,87.95135498046875,-5.730697631835938
120494,-0.1862640380859375,0.238311767578125,0.1715240478515625,-0.7492196559906006,-1.757719278335571,-0.7969501614570618,18.69703674316406,87.512939453125,-4.803482055664062
120495,-0.1279754638671875,0.166595458984375,0.1459808349609375,-0.6886865496635437,-1.630727529525757,-0.7739734649658203,18.75538635253906,87.24615478515625,-3.98583984375
120496,-0.0518646240234375,0.09820556640625,0.07391357421875,-0.6837889552116394,-1.545314073562622,-0.676261842250824,18.89645385742188,86.79287719726562,-3.201751708984375
120497,0.050567626953125,0.0363616943359375,-0.0806427001953125,-0.6726995706558228,-1.625745534896851,-0.4645447731018066,19.11355590820312,86.41661071777344,-2.205551147460938
120498,0.1520538330078125,-0.016937255859375,-0.210906982421875,-0.6468349695205688,-1.833131551742554,-0.1132165715098381,19.27752685546875,85.91583251953125,-1.36004638671875
120499,0.2182464599609375,-0.050750732421875,-0.2467498779296875,-0.6070776581764221,-1.934451460838318,0.3753067851066589,19.44358825683594,85.66879272460938,-0.7072296142578125
120500,0.2176666259765625,-0.0432586669921875,-0.18658447265625,-0.486855149269104,-1.731796383857727,0.8446468114852905,19.6180419921875,85.48159790039062,0.132476806640625
120501,0.182403564453125,-0.0028228759765625,-0.0876617431640625,-0.3456056118011475,-1.287911653518677,1.156152248382568,19.86418151855469,85.35195922851562,1.1810302734375
120502,0.1470947265625,0.0348663330078125,-0.033599853515625,-0.2283759117126465,-0.7947162985801697,1.322000026702881,20.26034545898438,85.52870178222656,2.0645751953125
120503,0.129241943359375,0.0994873046875,-0.094146728515625,-0.0518903620541095,-0.3594892024993896,1.47572386264801,21.37040710449219,86.09648132324219,3.16680908203125
120504,0.129241943359375,0.0994873046875,-0.094146728515625,-0.0518903620541095,-0.3594892024993896,1.47572386264801,21.37040710449219,86.09648132324219,3.16680908203125
120505,0.127960205078125,0.1437835693359375,-0.1584320068359375,0.0174354501068592,-0.5169147849082947,1.527772665023804,21.95880126953125,86.33317565917969,3.533767700195312
120506,0.11260986328125,0.2270050048828125,-0.2224884033203125,0.075602613389492,-0.8250912427902222,1.563765525817871,22.64407348632812,86.76115417480469,3.8297119140625
120507,0.038970947265625,0.490509033203125,-0.2242431640625,0.1802520602941513,-1.275829434394836,1.385252833366394,23.94918823242188,87.61679077148438,4.250274658203125
120508,0.038970947265625,0.490509033203125,-0.2242431640625,0.1802520602941513,-1.275829434394836,1.385252833366394,23.94918823242188,87.61679077148438,4.250274658203125
120509,-0.011810302734375,0.6162261962890625,-0.2203369140625,0.1933596134185791,-1.173212766647339,1.100485801696777,24.53804016113281,87.94252014160156,4.8287353515625
120510,-0.0943603515625,0.7337188720703125,-0.2890472412109375,0.2270246297121048,-0.886305570602417,0.6719533801078796,25.23828125,88.44773864746094,5.22601318359375
120511,-0.330352783203125,0.7057647705078125,-0.4553070068359375,0.2744986712932587,-0.1929516047239304,-0.1239757388830185,26.0087890625,89.02299499511719,5.497451782226562
120512,-0.330352783203125,0.7057647705078125,-0.4553070068359375,0.2744986712932587,-0.1929516047239304,-0.1239757388830185,26.0087890625,89.02299499511719,5.497451782226562
120513,-0.3902740478515625,0.7947998046875,-0.47076416015625,0.3040986359119415,0.0017688715597614,-0.3686691224575043,26.12831115722656,89.06886291503906,5.5482177734375
120514,-0.475860595703125,0.9941558837890624,-0.55609130859375,0.3447089195251465,-0.0462625697255134,-0.6702547669410706,26.13693237304688,88.95530700683594,5.567047119140625
120515,-0.5611724853515625,1.269088745117188,-0.5651397705078125,0.3705897927284241,-0.2651243507862091,-1.037340879440308,25.91693115234375,88.74392700195312,5.578338623046875
120516,-0.5916900634765625,1.5435791015625,-0.2812042236328125,0.188902273774147,-0.2543547749519348,-1.333472967147827,25.67681884765625,88.69020080566406,5.367660522460938
120517,-0.5951385498046875,1.72943115234375,0.1759033203125,-0.1614975482225418,0.4165317118167877,-1.415706038475037,25.28019714355469,88.36006164550781,5.173355102539062
120518,-0.6558074951171875,1.9957275390625,0.4724273681640625,-0.42286416888237,1.599833607673645,-1.400023221969604,24.68295288085938,88.0950927734375,4.9278564453125
120519,-0.8819122314453125,2.453659057617188,0.4260711669921875,-0.4157423377037048,2.264848470687866,-1.418419599533081,24.00086975097656,87.52627563476562,4.867538452148438
120520,-1.309280395507812,2.913558959960938,0.277496337890625,0.0504157692193985,1.694051146507263,-1.439185857772827,23.07920837402344,87.05027770996094,4.20635986328125
120521,-1.883438110351562,3.32568359375,0.336639404296875,0.6945790648460388,0.2135935127735138,-1.275217413902283,22.192626953125,86.57577514648438,3.365036010742188
120522,-2.716903686523438,3.89324951171875,0.733673095703125,1.049010038375854,-1.089324235916138,-0.9189599752426147,21.30203247070312,86.06330871582031,2.520294189453125
120523,-3.03961181640625,3.228363037109375,0.476531982421875,0.7271884083747864,2.494766712188721,0.9025535583496094,19.76272583007812,85.67198181152344,0.7049560546875
120524,-3.03961181640625,3.228363037109375,0.476531982421875,0.7271884083747864,2.494766712188721,0.9025535583496094,19.76272583007812,85.67198181152344,0.7049560546875
120525,-2.199615478515625,2.400985717773438,0.173095703125,0.9267203807830812,2.649056911468506,0.6595949530601501,19.41311645507812,85.84107971191406,0.105499267578125
120526,-2.14935302734375,1.712158203125,0.295806884765625,0.5517268180847168,2.566285848617554,0.1302991509437561,19.26741027832031,86.3389892578125,-0.8664093017578125
120527,-2.033309936523438,1.315231323242188,0.01922607421875,0.0760814547538757,1.823322534561157,-0.1871765404939651,19.18243408203125,86.90097045898438,-2.078903198242188
120528,-1.81683349609375,1.126358032226562,-0.0550079345703125,-0.1978065520524979,0.6724087595939636,-0.1422223895788193,19.14404296875,87.39015197753906,-3.097076416015625
120529,-1.532516479492188,0.996246337890625,0.095489501953125,-0.1058963388204575,0.1503341048955917,-0.0146889314055442,19.05526733398438,87.50624084472656,-3.61474609375
120530,-1.21990966796875,0.8149261474609375,0.1532745361328125,0.1972092092037201,0.1608559936285019,0.2244413644075394,19.08230590820312,87.61587524414062,-3.770401000976562
120531,-0.949920654296875,0.641357421875,0.1297149658203125,0.5514581203460693,0.3801617026329041,0.5256850719451904,19.08686828613281,87.66850280761719,-3.701263427734375
120532,-0.7576751708984375,0.505340576171875,0.0499114990234375,0.8463946580886841,0.5245436429977417,0.8003118634223938,19.37055969238281,87.7325439453125,-3.646987915039062
120533,-0.651153564453125,0.423004150390625,-0.0454559326171875,0.9531514644622804,0.3853343725204468,0.95864075422287,19.78285217285156,87.97964477539062,-3.851165771484375
120534,-0.5886993408203125,0.37646484375,-0.139404296875,0.9381970167160034,-0.0363873019814491,0.985217809677124,20.42463684082031,88.25210571289062,-3.833038330078125
120535,-0.549285888671875,0.4166107177734375,-0.1731414794921875,0.9610338807106018,-0.498072624206543,0.92231422662735,21.10369873046875,88.70025634765625,-4.201934814453125
120536,-0.53619384765625,0.577880859375,-0.117156982421875,1.08272123336792,-0.6246649622917175,0.8059985041618347,21.77436828613281,88.93057250976562,-4.497177124023438
120537,-0.5130767822265625,0.77825927734375,-0.0505523681640625,1.183147430419922,-0.2974290251731873,0.6304080486297607,22.47113037109375,89.29869079589844,-4.671432495117188
120538,-0.5460662841796875,0.84295654296875,-0.00042724609375,1.230085372924805,1.007882595062256,0.0958940386772155,23.36805725097656,89.89628601074219,-5.013656616210938
120539,-0.55609130859375,0.6751556396484375,0.04840087890625,1.236944317817688,1.247079253196716,-0.0452564284205436,23.47434997558594,90.21829223632812,-5.576324462890625
120540,-0.55609130859375,0.6751556396484375,0.04840087890625,1.236944317817688,1.247079253196716,-0.0452564284205436,23.47434997558594,90.21829223632812,-5.576324462890625
120541,-0.544677734375,0.531585693359375,0.10321044921875,1.135677337646484,1.190313935279846,-0.0399498119950294,23.57505798339844,90.33024597167967,-6.200546264648438
120542,-0.47119140625,0.3028411865234375,0.1384735107421875,0.9790328741073608,0.5568835139274597,0.0734811425209045,23.64944458007812,90.423095703125,-7.733917236328125
120543,-0.47119140625,0.3028411865234375,0.1384735107421875,0.9790328741073608,0.5568835139274597,0.0734811425209045,23.64944458007812,90.423095703125,-7.733917236328125
120544,-0.418701171875,0.2237701416015625,0.163543701171875,0.9736924171447754,0.2086669206619263,0.1533333659172058,23.54702758789062,90.63533020019533,-8.57440185546875
120545,-0.359283447265625,0.1670684814453125,0.1849212646484375,0.9430983066558838,-0.0386829487979412,0.2302566468715668,23.45338439941406,90.775146484375,-9.089935302734377
120546,-0.3170623779296875,0.1472015380859375,0.2280731201171875,0.8174722194671631,-0.1732191890478134,0.2476223111152649,23.49002075195312,91.00505065917967,-9.5257568359375
120547,-0.2702789306640625,0.158477783203125,0.2719268798828125,0.6366568803787231,-0.2637914419174194,0.2159421443939209,23.47091674804688,91.03233337402344,-9.912994384765623
120548,-0.2435455322265625,0.19549560546875,0.3470611572265625,0.4645727276802063,-0.2931008636951447,0.1428484916687012,23.40837097167969,91.4102783203125,-10.29647827148438
120549,-0.255645751953125,0.2410430908203125,0.4313812255859375,0.3056376874446869,-0.2846841812133789,0.0244403611868619,23.36244201660156,91.4404296875,-10.51972961425781
120550,-0.443817138671875,0.2927093505859375,0.6360015869140625,0.1256130486726761,-0.1557813435792923,-0.1366396099328995,23.16831970214844,91.84848022460938,-10.85935974121094
120551,-0.443817138671875,0.2927093505859375,0.6360015869140625,0.1256130486726761,-0.1557813435792923,-0.1366396099328995,23.16831970214844,91.84848022460938,-10.85935974121094
120552,-0.553924560546875,0.294677734375,0.6949310302734375,0.0668378844857215,-0.0917733311653137,-0.1944624185562134,22.89964294433594,91.91917419433594,-10.96025085449219
120553,-0.6387786865234375,0.2526702880859375,0.694854736328125,-0.0096662091091275,-0.1454954147338867,-0.2903846800327301,22.73347473144531,92.02088928222656,-11.171142578125
120554,-0.693939208984375,0.06793212890625,0.547943115234375,-0.1789431124925613,-0.751203715801239,-0.4584408104419708,22.4337158203125,91.98960876464844,-11.4033203125
120555,-0.693939208984375,0.06793212890625,0.547943115234375,-0.1789431124925613,-0.751203715801239,-0.4584408104419708,22.4337158203125,91.98960876464844,-11.4033203125
120556,-0.6292724609375,-0.0017547607421875,0.437896728515625,-0.2739098370075226,-1.179901480674744,-0.4837789237499237,22.34388732910156,91.84945678710938,-11.26309204101562
120557,-0.5279541015625,-0.00177001953125,0.3121490478515625,-0.3518922626972198,-1.63747227191925,-0.4924568235874176,22.262451171875,91.77816772460938,-10.90589904785156
120558,-0.4434661865234375,0.0387115478515625,0.23150634765625,-0.4469846785068512,-2.023083686828613,-0.5021552443504333,22.35191345214844,91.72531127929688,-10.43681335449219
120559,-0.3678741455078125,0.0710601806640625,0.1929473876953125,-0.6000168323516846,-2.296249866485596,-0.5084882378578186,22.3228759765625,91.53776550292967,-9.98345947265625
120560,-0.3022003173828125,0.0993804931640625,0.1681060791015625,-0.7651349902153015,-2.467017650604248,-0.4906746447086334,22.23495483398438,91.3450164794922,-9.500137329101562
120561,-0.261962890625,0.1206817626953125,0.1409759521484375,-0.8991103172302246,-2.517426013946533,-0.4610522985458374,22.11903381347656,91.0763702392578,-8.754531860351562
120562,-0.1840972900390625,0.141143798828125,0.00787353515625,-1.052298784255981,-2.41055703163147,-0.3896878361701965,22.18156433105469,90.55216979980467,-6.4814453125
120563,-0.1840972900390625,0.141143798828125,0.00787353515625,-1.052298784255981,-2.41055703163147,-0.3896878361701965,22.18156433105469,90.55216979980467,-6.4814453125
120564,-0.0950927734375,0.1771087646484375,-0.285369873046875,-1.14860987663269,-2.147930860519409,-0.2957504391670227,22.38233947753906,90.35671997070312,-5.351882934570312
120565,0.1420440673828125,0.1558837890625,-1.064926147460938,-0.1582594066858292,-2.874748229980469,0.1467324495315552,22.51251220703125,90.02578735351562,-4.306854248046875
120566,0.1333770751953125,0.1210479736328125,-0.3707122802734375,0.6502688527107239,-2.304549694061279,0.8120550513267517,22.83198547363281,89.66717529296875,-3.14337158203125
120567,0.0750274658203125,0.11651611328125,0.0866241455078125,0.4522700011730194,-0.5581136345863342,1.348201870918274,23.22932434082031,89.58949279785156,-2.096176147460938
120568,0.103759765625,0.1695709228515625,-0.141632080078125,0.2752054631710052,0.4664883613586426,1.655415296554565,23.67337036132812,89.73727416992188,-1.508041381835938
120569,0.093505859375,0.1890869140625,-0.2799072265625,0.2683744728565216,0.5679694414138794,1.807494878768921,24.06816101074219,90.11683654785156,-1.08966064453125
120570,0.068572998046875,0.200775146484375,-0.187744140625,0.094646081328392,0.0355593264102935,1.720098495483398,25.25096130371094,90.88345336914062,-0.9646148681640624
120571,0.068572998046875,0.200775146484375,-0.187744140625,0.094646081328392,0.0355593264102935,1.720098495483398,25.25096130371094,90.88345336914062,-0.9646148681640624
120572,0.0921783447265625,0.231109619140625,-0.212860107421875,-0.0296385865658521,-0.3415623903274536,1.636827826499939,26.12919616699219,91.29931640625,-0.8388214111328125
120573,0.118896484375,0.306549072265625,-0.2359771728515625,-0.0873258486390113,-0.8100393414497375,1.58264946937561,26.87126159667969,91.7003173828125,-0.6152801513671875
120574,0.13177490234375,0.4332275390625,-0.2347412109375,-0.0526445694267749,-1.263302087783813,1.550484895706177,27.71939086914062,92.17469787597656,-0.21624755859375
120575,0.1200714111328125,0.5967559814453125,-0.270660400390625,0.1391565501689911,-1.603085279464722,1.462271451950073,28.60922241210938,92.44790649414062,0.158843994140625
120576,0.08648681640625,0.7712860107421875,-0.329132080078125,0.5430137515068054,-1.729050636291504,1.248172402381897,29.44874572753906,92.74526977539062,0.7699432373046875
120577,0.010955810546875,0.9279937744140624,-0.395477294921875,1.05888295173645,-1.605376362800598,0.8867436647415161,30.20510864257812,93.01385498046876,1.34893798828125
120578,-0.124237060546875,1.060226440429688,-0.5439300537109375,1.621653318405151,-1.275813460350037,0.3812160491943359,30.97456359863281,93.22991943359376,1.84014892578125
120579,-0.2840576171875,1.230133056640625,-0.751922607421875,2.155571460723877,-0.410569429397583,-0.095605082809925,31.48689270019531,93.64321899414062,1.84075927734375
120580,-0.3987274169921875,1.383132934570312,-0.9443206787109376,2.004702568054199,0.8882896304130554,-0.2401873022317886,31.79074096679688,93.96768188476562,1.648788452148438
120581,-0.4461212158203125,1.622879028320312,-0.9748077392578124,0.961173176765442,1.554935097694397,-0.245226263999939,31.76602172851562,94.10092163085938,1.143798828125
120582,-0.3793487548828125,1.859237670898438,-0.665557861328125,-0.5770902037620544,1.271006345748901,-0.4589702486991882,31.67408752441406,94.28396606445312,0.19073486328125
120583,-0.3173065185546875,2.08404541015625,-0.043548583984375,-1.909942626953125,0.8660330772399902,-0.7090698480606079,31.52656555175781,94.48988342285156,-0.6399993896484375
120584,-0.47015380859375,2.6719970703125,0.6311798095703125,-2.336632490158081,1.186060309410095,-0.962956726551056,31.15846252441406,94.30169677734376,-0.9502716064453124
120585,-0.9658203125,4.222808837890625,0.73687744140625,-1.749499797821045,1.803960561752319,-1.545356154441833,30.74885559082031,93.96524047851562,-0.55712890625
120586,-1.664215087890625,5.776596069335938,0.521514892578125,-0.6152836680412292,1.036446928977966,-2.264145612716675,30.26094055175781,93.51315307617188,-0.0946807861328125
120587,-2.097198486328125,5.068771362304688,0.8975372314453125,0.0436798371374607,-0.2863289713859558,-2.523177146911621,29.48812866210938,92.90293884277344,0.236419677734375
120588,-2.172683715820312,3.535980224609375,1.116897583007812,0.7083364129066467,-0.9098703265190125,-2.378549098968506,28.61541748046875,92.24276733398438,0.034210205078125
120589,-2.019973754882812,2.430984497070312,1.117294311523438,1.504198908805847,-0.7164545059204102,-2.280338287353516,27.53782653808594,91.61280822753906,-0.4971923828125
120590,-2.077621459960938,1.622390747070312,1.161270141601562,1.892685413360596,0.2706932723522186,-2.088971614837646,26.32234191894531,91.22909545898438,-1.1212158203125
120591,-2.6939697265625,0.68231201171875,0.996856689453125,1.183906674385071,3.016185760498047,-0.5430827140808105,25.02903747558594,91.07406616210938,-1.900955200195312
120592,-2.533279418945312,0.938232421875,-1.071395874023438,0.6599704623222351,2.961112499237061,0.5041574239730835,23.75633239746094,91.1374969482422,-3.262130737304688
120593,-1.924789428710938,1.375457763671875,-1.138412475585938,0.62403804063797,-0.2516644597053528,0.3480972647666931,22.78546142578125,91.3366241455078,-4.887863159179688
120594,-1.525054931640625,1.294937133789062,0.1749420166015625,0.2741391360759735,-1.183775663375854,0.2876323163509369,22.36300659179688,91.63546752929688,-6.048507690429688
120595,-1.151336669921875,1.209930419921875,0.3372039794921875,0.2076099216938019,-1.069817900657654,0.285123348236084,22.46051025390625,91.8810577392578,-6.660812377929688
120596,-0.90704345703125,1.027206420898438,0.2711639404296875,0.4549792408943176,-0.7540184259414673,0.2650729417800903,22.7960205078125,92.14500427246094,-6.671356201171875
120597,-0.685699462890625,0.6239166259765625,0.29315185546875,0.6781492233276367,0.3250784873962402,0.1425158679485321,23.79081726074219,92.47958374023438,-5.956619262695312
120598,-0.685699462890625,0.6239166259765625,0.29315185546875,0.6781492233276367,0.3250784873962402,0.1425158679485321,23.79081726074219,92.47958374023438,-5.956619262695312
120599,-0.5099945068359375,0.2228546142578125,0.0403900146484375,0.4797176122665405,0.5255569815635681,0.2853872776031494,24.82818603515625,92.479736328125,-6.07598876953125
120600,-0.5099945068359375,0.2228546142578125,0.0403900146484375,0.4797176122665405,0.5255569815635681,0.2853872776031494,24.82818603515625,92.479736328125,-6.07598876953125
120601,-0.4561004638671875,0.0999908447265625,-0.1425933837890625,0.4692899882793427,0.2406999617815018,0.4010859131813049,25.17584228515625,92.42623901367188,-6.434982299804688
120602,-0.40362548828125,0.11578369140625,-0.2151641845703125,0.5733881592750549,0.0974139049649238,0.5094366073608398,25.48143005371094,92.45394897460938,-6.464309692382812
120603,-0.4048309326171875,0.2971038818359375,-0.1785888671875,0.7515629529953003,0.2832641899585724,0.4889736771583557,25.6861572265625,92.68727111816406,-6.684280395507812
120604,-0.416778564453125,0.472320556640625,-0.1463775634765625,0.9337626099586488,0.6325191259384155,0.3012373447418213,25.87689208984375,92.75407409667967,-6.831954956054688
120605,-0.414276123046875,0.513702392578125,-0.1504364013671875,1.080342411994934,0.8168972134590149,0.1182456836104393,26.00932312011719,92.9518585205078,-7.048751831054688
120606,-0.3443145751953125,0.47454833984375,-0.1066436767578125,1.069639682769775,0.454772025346756,-0.0668852925300598,26.26315307617188,93.2515106201172,-8.075424194335938
120607,-0.3443145751953125,0.47454833984375,-0.1066436767578125,1.069639682769775,0.454772025346756,-0.0668852925300598,26.26315307617188,93.2515106201172,-8.075424194335938
120608,-0.2736663818359375,0.4447784423828125,-0.0498199462890625,1.011976718902588,0.057620421051979,-0.0511681139469146,26.23030090332031,93.30361938476562,-8.843048095703125
120609,-0.21246337890625,0.438018798828125,0.026275634765625,0.979846179485321,-0.2902765572071075,0.0144889280200004,26.29635620117188,93.3177490234375,-9.437973022460938
120610,-0.1764373779296875,0.44873046875,0.1479339599609375,0.950616419315338,-0.4619404673576355,0.0586092509329319,26.17776489257812,93.39295959472656,-9.983535766601562
120611,-0.12860107421875,0.401519775390625,0.17791748046875,0.9341684579849244,-0.5167054533958435,0.1056430712342262,26.18678283691406,93.47604370117188,-10.49386596679688
120612,-0.1070709228515625,0.3352813720703125,0.1579437255859375,1.016222357749939,-0.6233162879943848,0.1759760975837708,26.23908996582031,93.47444152832033,-10.79792785644531
120613,-0.1165771484375,0.3037872314453125,0.1927642822265625,1.109804749488831,-0.703319251537323,0.1858034282922745,26.2940673828125,93.49246215820312,-10.99079895019531
120614,-0.1354827880859375,0.2760162353515625,0.3228759765625,1.162243485450745,-0.6421075463294983,0.1755750179290771,26.38418579101562,93.70021057128906,-11.50442504882812
120615,-0.1852264404296875,0.2957763671875,0.49908447265625,1.093050241470337,-0.3410265743732452,0.1045682206749916,26.40037536621094,93.82681274414062,-11.80134582519531
120616,-0.25628662109375,0.2739410400390625,0.529022216796875,0.9444831609725952,-0.1178573966026306,0.0446468293666839,26.53265380859375,94.044189453125,-12.20439147949219
120617,-0.383880615234375,0.2541046142578125,0.5538787841796875,0.7635951042175293,-0.0938199684023857,0.0481265150010585,26.68540954589844,94.31210327148438,-13.29035949707031
120618,-0.529632568359375,0.2581024169921875,0.6244659423828125,0.490673840045929,-0.1119563654065132,0.0271866135299205,26.58010864257812,94.4442901611328,-13.79833984375
120619,-0.676544189453125,0.238616943359375,0.6740875244140625,0.1114261299371719,-0.1642752289772034,-0.0556036084890365,26.5706787109375,94.50831604003906,-14.21310424804688
120620,-0.8120574951171875,0.1959381103515625,0.6914520263671875,-0.290952205657959,-0.2805842459201813,-0.1320722848176956,26.52035522460938,94.58726501464844,-14.45219421386719
120621,-0.88238525390625,0.1246490478515625,0.644317626953125,-0.6706374883651733,-0.4946451485157013,-0.2135295867919922,26.40550231933594,94.5337371826172,-14.19586181640625
120622,-0.8649749755859375,0.041717529296875,0.5383148193359375,-0.9712774753570556,-0.8212765455245972,-0.2987438142299652,26.21597290039062,94.74644470214844,-13.9417724609375
120623,-0.6158294677734375,0.0628814697265625,0.2606964111328125,-1.210610389709473,-1.723763227462769,-0.4278962016105652,25.63665771484375,94.95883178710938,-13.2142333984375
120624,-0.6158294677734375,0.0628814697265625,0.2606964111328125,-1.210610389709473,-1.723763227462769,-0.4278962016105652,25.63665771484375,94.95883178710938,-13.2142333984375
120625,-0.501708984375,0.14129638671875,0.2277679443359375,-1.212920427322388,-2.020073175430298,-0.4967852532863617,25.28643798828125,94.9167938232422,-12.61819458007812
120626,-0.417205810546875,0.1942291259765625,0.2169189453125,-1.197103977203369,-2.10014796257019,-0.562700629234314,25.01858520507812,94.829345703125,-11.90031433105469
120627,-0.3541412353515625,0.221435546875,0.1877593994140625,-1.158179998397827,-2.063408374786377,-0.6210664510726929,24.72430419921875,94.69024658203124,-10.92338562011719
120628,-0.305633544921875,0.22125244140625,0.1479034423828125,-1.0738445520401,-1.989295840263367,-0.6511977314949036,24.51686096191406,94.41062927246094,-9.811416625976562
120629,-0.2559051513671875,0.212158203125,0.096282958984375,-0.9641636610031128,-1.893006086349487,-0.6588114500045776,24.448974609375,94.1915283203125,-8.869522094726562
120630,-0.1959228515625,0.202911376953125,0.022064208984375,-0.8362568020820618,-1.777605652809143,-0.6241043210029602,24.35653686523438,93.78410339355467,-7.803207397460938
120631,-0.017578125,0.19110107421875,-0.3408203125,-0.3033361732959747,-1.95911979675293,-0.3591999709606171,24.434814453125,93.20542907714844,-6.368576049804688
120632,-0.017578125,0.19110107421875,-0.3408203125,-0.3033361732959747,-1.95911979675293,-0.3591999709606171,24.434814453125,93.20542907714844,-6.368576049804688
120633,0.052215576171875,0.198638916015625,-0.3164215087890625,0.0572337284684181,-1.931589603424072,-0.0878212004899978,24.62443542480469,92.91407775878906,-5.707855224609375
120634,0.0863037109375,0.206573486328125,-0.1805572509765625,0.3163348138332367,-1.489328384399414,0.2723851799964905,24.73294067382812,92.7288818359375,-5.053817749023438
120635,0.094482421875,0.206634521484375,-0.1244964599609375,0.5357773900032043,-0.4020800590515137,1.045023083686829,25.28877258300781,92.71876525878906,-4.084396362304688
120636,0.094482421875,0.206634521484375,-0.1244964599609375,0.5357773900032043,-0.4020800590515137,1.045023083686829,25.28877258300781,92.71876525878906,-4.084396362304688
120637,0.0525054931640625,0.232574462890625,-0.1591033935546875,0.5971829891204834,-0.2095438987016678,1.17465078830719,25.59663391113281,92.94088745117188,-3.888595581054688
120638,0.0675811767578125,0.27581787109375,-0.2925567626953125,0.5866701602935791,-0.5770020484924316,1.120336174964905,26.72930908203125,93.37364196777344,-3.597030639648438
120639,0.0675811767578125,0.27581787109375,-0.2925567626953125,0.5866701602935791,-0.5770020484924316,1.120336174964905,26.72930908203125,93.37364196777344,-3.597030639648438
120640,0.077606201171875,0.3927154541015625,-0.3836669921875,0.5920385718345642,-1.056142091751099,1.105848550796509,27.30085754394531,93.59791564941406,-3.463424682617188
120641,0.0340118408203125,0.6232452392578125,-0.471435546875,0.7286893129348755,-1.509855985641479,1.072444081306458,27.85934448242188,93.80300903320312,-3.236495971679688
120642,-0.2977294921875,1.275833129882812,-0.6630096435546875,1.538912653923035,-0.94510155916214,0.4259542226791382,28.68353271484375,94.41477966308594,-2.849884033203125
120643,-0.2977294921875,1.275833129882812,-0.6630096435546875,1.538912653923035,-0.94510155916214,0.4259542226791382,28.68353271484375,94.41477966308594,-2.849884033203125
120644,-0.438385009765625,1.45318603515625,-0.754150390625,1.806331872940063,0.3751629590988159,0.0044117928482592,29.03488159179688,94.6683349609375,-2.962966918945312
120645,-0.439117431640625,1.493515014648438,-0.8526458740234375,1.534414649009705,1.319419741630554,-0.0831601321697235,29.21578979492188,94.75473022460938,-3.1597900390625
120646,-0.4450225830078125,1.5556640625,-0.8089141845703125,0.8099847435951233,1.147550463676453,-0.1472147554159164,29.25811767578125,94.93373107910156,-3.895660400390625
120647,-0.5694122314453125,1.729278564453125,-0.48931884765625,0.0373849235475063,0.4851043820381165,-0.5451775789260864,29.25581359863281,94.887939453125,-4.703338623046875
120648,-0.6893310546875,2.010498046875,-0.2282867431640625,-0.1468994319438934,0.2441458255052567,-1.157437801361084,29.1309814453125,94.97283935546876,-5.253890991210938
120649,-0.68609619140625,2.254669189453125,-0.09759521484375,0.3444370031356812,0.4766807854175568,-1.436662793159485,28.900146484375,94.93142700195312,-5.49267578125
120650,-0.936553955078125,2.4451904296875,-0.009918212890625,0.6755813956260681,1.037694334983826,-0.8133552074432373,27.79238891601562,94.27273559570312,-6.358612060546875
120651,-0.936553955078125,2.4451904296875,-0.009918212890625,0.6755813956260681,1.037694334983826,-0.8133552074432373,27.79238891601562,94.27273559570312,-6.358612060546875
120652,-1.200119018554688,2.571212768554688,-0.006072998046875,0.0595288388431072,0.952953040599823,-0.3074731230735779,27.14506530761719,93.95755004882812,-7.197784423828125
120653,-1.536026000976562,2.886489868164062,0.080352783203125,-0.1982313245534897,0.7489234805107117,0.1733773797750473,26.63032531738281,93.6559600830078,-7.9171142578125
120654,-1.915496826171875,3.242263793945312,0.2630157470703125,0.3387128114700317,0.6265313029289246,0.3808746337890625,26.27229309082031,93.63687133789062,-8.701934814453125
120655,-2.235580444335938,2.69842529296875,0.6164703369140625,0.9939082264900208,1.536834120750427,-0.0849737450480461,25.76106262207031,94.00613403320312,-10.16546630859375
120656,-2.235580444335938,2.69842529296875,0.6164703369140625,0.9939082264900208,1.536834120750427,-0.0849737450480461,25.76106262207031,94.00613403320312,-10.16546630859375
120657,-2.252288818359375,2.140060424804688,0.4245147705078125,0.8087506294250488,1.996031999588013,-0.3870095014572144,25.63218688964844,94.17166137695312,-10.88627624511719
120658,-2.217330932617188,1.6126708984375,-0.139068603515625,0.7736578583717346,1.538373947143555,-0.5689263343811035,25.34770202636719,94.5707550048828,-11.74395751953125
120659,-1.982986450195312,1.07501220703125,-0.37847900390625,0.9006832242012024,0.3925214409828186,-0.4384077191352844,25.16769409179688,94.69747924804688,-12.39654541015625
120660,-1.576980590820312,0.7356109619140625,-0.099822998046875,0.9564966559410096,-0.1314288675785065,-0.1291467994451523,24.9351806640625,94.84239196777344,-13.10166931152344
120661,-1.29583740234375,0.6352386474609375,0.0722198486328125,0.772653341293335,-0.0900260284543037,0.1195365190505981,24.85511779785156,94.89529418945312,-13.62156677246094
120662,-1.126312255859375,0.6029205322265625,0.0829620361328125,0.4214931726455688,-0.0896944627165794,0.2543840706348419,25.01014709472656,95.10758972167967,-13.91816711425781
120663,-1.022171020507812,0.5527801513671875,0.0476226806640625,0.124777615070343,-0.2907058596611023,0.361223429441452,25.3092041015625,95.17771911621094,-14.00242614746094
120664,-0.9645843505859376,0.4984893798828125,0.0138092041015625,0.01243616361171,-0.5069819688796997,0.4654334783554077,25.6766357421875,95.41226196289062,-14.19546508789062
120665,-0.9233245849609376,0.4414215087890625,-0.0315704345703125,0.088921882212162,-0.6576042175292969,0.5232182145118713,26.28376770019531,95.46780395507812,-14.18702697753906
120666,-0.702484130859375,0.450592041015625,0.013916015625,0.5892869830131531,-0.0279333647340536,0.431458979845047,27.18000793457031,95.58708190917967,-13.65480041503906
120667,-0.702484130859375,0.450592041015625,0.013916015625,0.5892869830131531,-0.0279333647340536,0.431458979845047,27.18000793457031,95.58708190917967,-13.65480041503906
120668,-0.5296173095703125,0.515289306640625,0.0169677734375,0.8354772925376892,0.6764056086540222,0.4066255390644073,27.5780029296875,95.59201049804688,-13.50418090820312
120669,-0.4218597412109375,0.6382904052734375,-0.0478668212890625,1.023665904998779,1.272085785865784,0.3773899078369141,27.90876770019531,95.61419677734376,-13.53399658203125
120670,-0.3851165771484375,0.7722625732421875,-0.167388916015625,1.120588660240173,1.433547616004944,0.3030581474304199,28.13534545898438,95.63664245605467,-14.09590148925781
120671,-0.34625244140625,0.8203277587890625,-0.2218170166015625,1.106126427650452,1.099709987640381,0.2220189571380615,28.28036499023438,95.67726135253906,-14.82814025878906
120672,-0.303741455078125,0.7434234619140625,-0.17755126953125,0.9883360862731934,0.6134127974510193,0.1611457467079163,28.45986938476562,95.53897094726562,-15.510498046875
120673,-0.25115966796875,0.6618804931640625,-0.1436309814453125,0.8678475022315979,0.1268154680728912,0.142805889248848,28.54432678222656,95.62980651855467,-16.16583251953125
120674,-0.191497802734375,0.62994384765625,-0.0676116943359375,0.7798933982849121,-0.3315113484859467,0.1623407006263733,28.54374694824219,95.72335815429688,-16.83113098144531
120675,-0.1629486083984375,0.614898681640625,0.0614166259765625,0.7393648624420166,-0.6228017807006836,0.1777449697256088,28.62428283691406,95.84161376953124,-17.19416809082031
120676,-0.163665771484375,0.588165283203125,0.1683807373046875,0.7388607263565063,-0.7299418449401855,0.1231080815196037,28.64181518554688,95.85374450683594,-17.40673828125
120677,-0.1838836669921875,0.504974365234375,0.2328948974609375,0.8159826993942261,-0.7775642275810242,0.0128015493974089,28.6978759765625,95.90757751464844,-17.62413024902344
120678,-0.3133087158203125,0.3176116943359375,0.411163330078125,1.028602838516235,-0.5259878635406494,-0.2391811609268188,28.78387451171875,95.87144470214844,-18.06132507324219
120679,-0.3133087158203125,0.3176116943359375,0.411163330078125,1.028602838516235,-0.5259878635406494,-0.2391811609268188,28.78387451171875,95.87144470214844,-18.06132507324219
120680,-0.3772125244140625,0.26275634765625,0.459625244140625,1.024533748626709,-0.3433094322681427,-0.2403265833854675,28.76554870605469,95.92250061035156,-18.40376281738281
120681,-0.4717864990234375,0.2836456298828125,0.51300048828125,0.8896137475967407,-0.2981534004211426,-0.1633921265602112,28.6544189453125,95.84283447265624,-18.66819763183594
120682,-0.6042938232421875,0.34442138671875,0.591583251953125,0.6363705992698669,-0.3415828943252563,-0.1071861088275909,28.62063598632812,95.857421875,-19.11631774902344
120683,-0.738037109375,0.3699188232421875,0.651123046875,0.3172887563705444,-0.4248929619789124,-0.1201991140842438,28.49359130859375,95.91864013671876,-19.52066040039062
120684,-0.8457794189453125,0.3275299072265625,0.67333984375,-0.0077463365159928,-0.5276787281036377,-0.1772408187389374,28.397705078125,95.82600402832033,-19.68186950683594
120685,-0.896026611328125,0.2436676025390625,0.633087158203125,-0.2869827747344971,-0.6627731919288635,-0.2478236556053162,28.36027526855469,95.69805908203124,-19.535400390625
120686,-0.888031005859375,0.1576080322265625,0.5511322021484375,-0.4971112310886383,-0.8585250973701477,-0.321467787027359,28.226318359375,95.69790649414062,-19.43714904785156
120687,-0.695892333984375,0.09820556640625,0.3109130859375,-0.7282914519309998,-1.397588849067688,-0.4463862776756287,27.67137145996094,96.0959014892578,-19.48664855957031
120688,-0.695892333984375,0.09820556640625,0.3109130859375,-0.7282914519309998,-1.397588849067688,-0.4463862776756287,27.67137145996094,96.0959014892578,-19.48664855957031
120689,-0.5665435791015625,0.1660919189453125,0.2085113525390625,-0.7222806811332703,-1.707910537719727,-0.5299719572067261,27.29153442382812,96.12965393066406,-19.17877197265625
120690,-0.4624786376953125,0.2028045654296875,0.1651611328125,-0.6912713646888733,-1.91950261592865,-0.6412753462791443,26.95028686523438,96.08757019042967,-18.55805969238281
