time_idx,accelerometerAccelerationX(G),accelerometerAccelerationY(G),accelerometerAccelerationZ(G),gyroRotationX(rad/s),gyroRotationY(rad/s),gyroRotationZ(rad/s),magnetometerX(µT),magnetometerY(µT),magnetometerZ(µT)
225000,0.14117431640625,0.9752960205078124,-0.4620819091796875,0.5941222310066223,-0.8639542460441589,-0.0985532030463218,47.92303466796875,98.57754516601562,-36.22023010253906
225001,0.1066131591796875,0.9935455322265624,-0.4762725830078125,0.6796682476997375,-0.8149808049201965,-0.0481076091527938,47.67179870605469,98.54586791992188,-36.64094543457031
225002,0.075927734375,1.045822143554688,-0.4647979736328125,0.710178792476654,-0.7594707012176514,-0.021867748349905,47.49061584472656,98.3709716796875,-36.79779052734375
225003,0.0627899169921875,1.100601196289062,-0.424102783203125,0.7172542810440063,-0.7091494798660278,0.0011054781498387,47.4615478515625,98.12696838378906,-37.11039733886719
225004,0.0482025146484375,1.142684936523438,-0.3760986328125,0.7278667092323303,-0.654076874256134,0.0125884963199496,47.23828125,98.07289123535156,-37.46009826660156
225005,0.0482025146484375,1.142684936523438,-0.3760986328125,0.7278667092323303,-0.654076874256134,0.0125884963199496,47.23828125,98.07289123535156,-37.46009826660156
225006,0.049041748046875,1.180709838867188,-0.2903900146484375,0.7100618481636047,-0.539009690284729,0.053609699010849,47.12222290039062,97.86175537109376,-38.16964721679688
225007,0.049041748046875,1.180709838867188,-0.2903900146484375,0.7100618481636047,-0.539009690284729,0.053609699010849,47.12222290039062,97.86175537109376,-38.16964721679688
225008,0.0616607666015625,1.203704833984375,-0.2452239990234375,0.7100618481636047,-0.539009690284729,0.053609699010849,47.01651000976562,97.77037048339844,-38.45674133300781
225009,0.070220947265625,1.231964111328125,-0.1299896240234375,0.625910222530365,-0.5261857509613037,0.1211234927177429,47.01165771484375,97.33172607421876,-39.09028625488281
225010,0.05474853515625,1.247970581054688,-0.0660552978515625,0.5812631249427795,-0.569723904132843,0.1502190679311752,46.87013244628906,97.13156127929688,-39.35691833496094
225011,0.020751953125,1.261749267578125,-0.002532958984375,0.5355422496795654,-0.6491830348968506,0.1542822420597076,46.88839721679688,96.92782592773438,-39.60142517089844
225012,-0.026123046875,1.273208618164062,0.065643310546875,0.5048775672912598,-0.7425063252449036,0.146673858165741,46.88584899902344,96.904296875,-39.90071105957031
225013,-0.0665740966796875,1.258712768554688,0.1292572021484375,0.5026479363441467,-0.7890610694885254,0.1172102466225624,46.85769653320312,96.7963409423828,-40.14836120605469
225014,-0.1090240478515625,1.225082397460938,0.1430206298828125,0.5468057990074158,-0.8135032653808594,0.0788146555423736,46.84609985351562,96.67181396484376,-40.32583618164062
225015,-0.1605987548828125,1.172454833984375,0.1222381591796875,0.640099048614502,-0.881513774394989,0.0526919737458229,46.71955871582031,96.54978942871094,-40.51937866210938
225016,-0.209686279296875,1.111328125,0.100128173828125,0.7398466467857361,-0.977528989315033,0.0270065832883119,46.67698669433594,96.4129638671875,-40.74505615234375
225017,-0.209686279296875,1.111328125,0.100128173828125,0.7398466467857361,-0.977528989315033,0.0270065832883119,46.67698669433594,96.4129638671875,-40.74505615234375
225018,-0.22314453125,0.947845458984375,0.1009674072265625,0.753446638584137,-1.086239218711853,-0.0313406102359294,46.27789306640625,96.04974365234376,-41.26773071289062
225019,-0.2012939453125,0.847320556640625,0.0872039794921875,0.680673360824585,-1.067581415176392,-0.0640016198158264,46.11932373046875,95.78091430664062,-41.35221862792969
225020,-0.1654205322265625,0.7607574462890625,0.0141143798828125,0.6438181400299072,-1.119206190109253,-0.076678529381752,45.91793823242188,95.56706237792967,-41.81871032714844
225021,-0.1654205322265625,0.7607574462890625,0.0141143798828125,0.6438181400299072,-1.119206190109253,-0.076678529381752,45.91793823242188,95.56706237792967,-41.81871032714844
225022,-0.11236572265625,0.6829376220703125,-0.107574462890625,0.7698487639427185,-1.103711366653442,-0.0535649582743644,45.52169799804688,95.08856201171876,-42.38470458984375
225023,-0.11151123046875,0.6727447509765625,-0.1270599365234375,0.7698487639427185,-1.103711366653442,-0.0535649582743644,45.23294067382812,94.79931640625,-42.49137878417969
225024,-0.139190673828125,0.6595458984375,-0.125579833984375,0.768618643283844,-1.011749505996704,-0.0914383009076118,44.92559814453125,94.5664520263672,-42.56990051269531
225025,-0.139190673828125,0.6595458984375,-0.125579833984375,0.768618643283844,-1.011749505996704,-0.0914383009076118,44.92559814453125,94.5664520263672,-42.56990051269531
225026,-0.2153167724609375,0.617523193359375,-0.1096343994140625,0.6061157584190369,-0.7372567057609558,-0.1879816204309464,44.41868591308594,93.9606475830078,-42.89295959472656
225027,-0.2464752197265625,0.611572265625,-0.0826416015625,0.4908943474292755,-0.5969134569168091,-0.2068093717098236,44.13774108886719,93.71377563476562,-43.03610229492188
225028,-0.2609405517578125,0.6151275634765625,-0.03094482421875,0.1282021701335907,-0.2908531427383423,-0.1293718367815018,43.99949645996094,93.71112060546876,-43.47602844238281
225029,-0.2609405517578125,0.6151275634765625,-0.03094482421875,0.1282021701335907,-0.2908531427383423,-0.1293718367815018,43.99949645996094,93.71112060546876,-43.47602844238281
225030,-0.2342681884765625,0.792388916015625,0.13861083984375,-0.1058425456285477,-0.1376915574073792,-0.0216805282980203,43.54586791992188,93.41175842285156,-43.57025146484375
225031,-0.22064208984375,0.955108642578125,0.2153472900390625,-0.3331609070301056,0.0295046288520097,0.0682035535573959,43.433349609375,93.53254699707033,-43.5118408203125
225032,-0.2267303466796875,1.042526245117188,0.253204345703125,-0.5215955376625061,0.148218497633934,0.1335804313421249,43.36918640136719,93.63528442382812,-43.51908874511719
225033,-0.2267303466796875,1.042526245117188,0.253204345703125,-0.5215955376625061,0.148218497633934,0.1335804313421249,43.36918640136719,93.63528442382812,-43.51908874511719
225034,-0.2520599365234375,1.063064575195312,0.2454833984375,-0.6059018969535828,0.1771034002304077,0.2321445494890213,43.56355285644531,93.97450256347656,-43.13052368164062
225035,-0.2399444580078125,1.018035888671875,0.2243499755859375,-0.5352844595909119,0.1391608119010925,0.289716511964798,43.67546081542969,94.26657104492188,-42.80499267578125
225036,-0.19061279296875,0.977874755859375,0.206390380859375,-0.4286472201347351,0.1391605585813522,0.3543466329574585,43.75727844238281,94.55682373046876,-42.76063537597656
225037,-0.19061279296875,0.977874755859375,0.206390380859375,-0.4286472201347351,0.1391605585813522,0.3543466329574585,43.75727844238281,94.55682373046876,-42.76063537597656
225038,-0.0872344970703125,0.91448974609375,0.1704254150390625,-0.4395145177841187,0.0147539125755429,0.3295603096485138,43.97383117675781,94.84861755371094,-42.55340576171875
225039,-0.05010986328125,0.878875732421875,0.2037811279296875,-0.500680685043335,-0.1357445120811462,0.2785781025886536,44.16847229003906,94.91506958007812,-42.23365783691406
225040,-0.02337646484375,0.851593017578125,0.2433013916015625,-0.6169034242630005,-0.2522106766700745,0.203305184841156,44.25527954101562,95.2004852294922,-42.12225341796875
225041,-0.02337646484375,0.851593017578125,0.2433013916015625,-0.6169034242630005,-0.2522106766700745,0.203305184841156,44.25527954101562,95.2004852294922,-42.12225341796875
225042,-0.01141357421875,0.868194580078125,0.2411651611328125,-0.9278325438499452,-0.3917991816997528,0.0407703332602977,44.29888916015625,95.32310485839844,-41.59378051757812
225043,-0.019989013671875,0.9257354736328124,0.1803741455078125,-1.100042939186096,-0.4697688221931458,-0.0545346140861511,44.27537536621094,95.5287628173828,-41.19488525390625
225044,-0.03173828125,1.005035400390625,0.0748138427734375,-1.230953812599182,-0.6164059638977051,-0.1581952273845673,44.11541748046875,95.94900512695312,-40.84014892578125
225045,-0.03173828125,1.005035400390625,0.0748138427734375,-1.230953812599182,-0.6164059638977051,-0.1581952273845673,44.11541748046875,95.94900512695312,-40.84014892578125
225046,-0.012603759765625,1.209869384765625,-0.174591064453125,-1.117390513420105,-0.7887659668922424,-0.2772995233535767,43.52908325195312,96.309326171875,-39.51541137695312
225047,0.0307464599609375,1.302032470703125,-0.2386474609375,-0.7389408946037292,-0.4736213684082031,-0.2692298591136932,43.26971435546875,96.78132629394533,-38.9254150390625
225048,0.0264739990234375,1.338699340820312,-0.31390380859375,-0.3142516613006592,-0.2748691141605377,-0.262184739112854,42.88365173339844,97.05690002441406,-38.46945190429688
225049,0.0264739990234375,1.338699340820312,-0.31390380859375,-0.3142516613006592,-0.2748691141605377,-0.262184739112854,42.88365173339844,97.05690002441406,-38.46945190429688
225050,-0.0882568359375,1.273162841796875,-0.08990478515625,-0.1987064331769943,-0.4499101638793945,-0.2687757909297943,42.4215087890625,97.3177490234375,-37.75732421875
225051,-0.1126251220703125,1.294967651367188,-0.0727996826171875,-0.2615961730480194,-0.4367922246456146,-0.2135010957717896,42.18656921386719,97.30511474609376,-37.49479675292969
225052,-0.114349365234375,1.308425903320312,-0.128631591796875,-0.209914356470108,-0.38756263256073,-0.1158285960555077,41.91114807128906,97.3245849609375,-37.40321350097656
225053,-0.114349365234375,1.308425903320312,-0.128631591796875,-0.209914356470108,-0.38756263256073,-0.1158285960555077,41.91114807128906,97.3245849609375,-37.40321350097656
225054,-0.10662841796875,1.18927001953125,-0.2880859375,0.1927007436752319,-0.1687163114547729,0.0811334699392318,41.70156860351562,97.35162353515624,-36.88322448730469
225055,-0.0696868896484375,1.073974609375,-0.3619232177734375,0.3543460965156555,-0.0647374540567398,0.1623710691928864,41.64205932617188,97.29429626464844,-36.79991149902344
225056,-0.0256805419921875,1.013916015625,-0.4228515625,0.4500688910484314,0.0004364920896477,0.235176295042038,41.69094848632812,97.28694152832033,-37.06425476074219
225057,-0.0256805419921875,1.013916015625,-0.4228515625,0.4500688910484314,0.0004364920896477,0.235176295042038,41.69094848632812,97.28694152832033,-37.06425476074219
225058,0.044342041015625,1.028610229492188,-0.496490478515625,0.5149027705192566,-0.0014021543320268,0.3129456639289856,41.80789184570312,97.3183135986328,-37.40670776367188
225059,0.059234619140625,1.085830688476562,-0.4943084716796875,0.4823416173458099,-0.0268268212676048,0.2988322377204895,41.91958618164062,97.22769165039062,-37.5927734375
225060,0.04437255859375,1.148788452148438,-0.4607696533203125,0.4427779614925385,-0.0008122641011141,0.3052642941474915,42.11122131347656,97.12336730957033,-38.03875732421875
225061,0.04437255859375,1.148788452148438,-0.4607696533203125,0.4427779614925385,-0.0008122641011141,0.3052642941474915,42.11122131347656,97.12336730957033,-38.03875732421875
225062,-0.011871337890625,1.210128784179688,-0.340545654296875,0.4641676545143127,0.0460971891880035,0.3230337202548981,42.41908264160156,96.8813934326172,-38.247314453125
225063,-0.011871337890625,1.210128784179688,-0.340545654296875,0.4641676545143127,0.0460971891880035,0.3230337202548981,42.41908264160156,96.8813934326172,-38.247314453125
225064,-0.040985107421875,1.209503173828125,-0.2867889404296875,0.4814507961273193,0.0866978764533996,0.3373742997646332,42.69349670410156,96.70866394042967,-38.44291687011719
225065,-0.067901611328125,1.17340087890625,-0.1837921142578125,0.4477988183498383,0.1231565549969673,0.3471278548240662,43.19863891601562,96.58131408691406,-38.99406433105469
225066,-0.05975341796875,1.112960815429688,-0.1338653564453125,0.3458527326583862,0.0457733459770679,0.3309600949287415,43.46139526367188,96.47370910644533,-39.33786010742188
225067,-0.03143310546875,1.023269653320312,-0.1063995361328125,0.3458527326583862,0.0457733459770679,0.3309600949287415,43.56813049316406,96.4400634765625,-39.51290893554688
225068,0.004241943359375,0.9396514892578124,-0.101318359375,0.3301757872104645,-0.0779986605048179,0.3487571775913239,43.78044128417969,96.4223175048828,-39.71340942382812
225069,0.004241943359375,0.9396514892578124,-0.101318359375,0.3301757872104645,-0.0779986605048179,0.3487571775913239,43.78044128417969,96.4223175048828,-39.71340942382812
225070,0.0877838134765625,0.819000244140625,-0.0601654052734375,0.334664523601532,-0.4486986994743347,0.4212561547756195,44.28807067871094,96.11488342285156,-39.87869262695312
225071,0.121826171875,0.7693023681640625,-0.013946533203125,0.3097314834594727,-0.6264564394950867,0.4650009870529175,44.40399169921875,96.02073669433594,-39.96275329589844
225072,0.1494293212890625,0.73406982421875,0.034881591796875,0.2064676880836487,-0.7719281315803528,0.5001032948493958,44.49052429199219,95.9502410888672,-40.363037109375
225073,0.1494293212890625,0.73406982421875,0.034881591796875,0.2064676880836487,-0.7719281315803528,0.5001032948493958,44.49052429199219,95.9502410888672,-40.363037109375
225074,0.1939544677734375,0.748870849609375,0.0936431884765625,0.0071756211109459,-0.8635603189468384,0.5415298342704773,44.50581359863281,95.810302734375,-40.58323669433594
225075,0.2133636474609375,0.7960205078125,0.0976715087890625,-0.0550747029483318,-0.8699077367782593,0.5571607351303101,44.55693054199219,95.82089233398438,-40.58810424804688
225076,0.2208099365234375,0.8665008544921875,0.10528564453125,-0.0931483209133148,-0.7500601410865784,0.5987278819084167,44.54983520507812,95.90438842773438,-40.56193542480469
225077,0.2208099365234375,0.8665008544921875,0.10528564453125,-0.0931483209133148,-0.7500601410865784,0.5987278819084167,44.54983520507812,95.90438842773438,-40.56193542480469
225078,0.1663665771484375,0.9591827392578124,0.1048736572265625,-0.0783901438117027,-0.675891637802124,0.602150559425354,44.66656494140625,95.85531616210938,-40.37831115722656
225079,0.1173248291015625,0.96185302734375,0.1351318359375,-0.0484993606805801,-0.5757544040679932,0.5782811641693115,44.81486511230469,95.72593688964844,-40.10835266113281
225080,0.0726776123046875,0.956207275390625,0.1559600830078125,-0.0263019111007452,-0.4348579943180084,0.5177944302558899,44.92691040039062,95.8943328857422,-40.2838134765625
225081,0.0726776123046875,0.956207275390625,0.1559600830078125,-0.0263019111007452,-0.4348579943180084,0.5177944302558899,44.92691040039062,95.8943328857422,-40.2838134765625
225082,-0.01690673828125,0.90557861328125,0.126983642578125,-0.0301320701837539,-0.2235049903392792,0.3219881653785706,45.22917175292969,95.89732360839844,-40.224609375
225083,-0.065704345703125,0.9069976806640624,0.1278533935546875,-0.0798391699790954,-0.1716385930776596,0.201641246676445,45.36888122558594,95.8772430419922,-40.11347961425781
225084,-0.12640380859375,0.9247894287109376,0.153472900390625,-0.1923231035470963,-0.0530786626040935,-0.0258020367473363,45.41993713378906,95.98660278320312,-40.25204467773438
225085,-0.18499755859375,0.9434814453125,0.1870880126953125,-0.1923231035470963,-0.0530786626040935,-0.0258020367473363,45.47715759277344,96.09114074707033,-40.33033752441406
225086,-0.2375640869140625,0.955474853515625,0.21728515625,-0.2524359822273254,0.0148979891091585,-0.1152703985571861,45.52815246582031,95.98236083984376,-40.09825134277344
225087,-0.27691650390625,0.95538330078125,0.2297210693359375,-0.3143243789672852,0.0975723639130592,-0.1891358345746994,45.51210021972656,95.97966003417967,-40.00163269042969
225088,-0.298797607421875,0.9580230712890624,0.222747802734375,-0.3567988574504852,0.1697717308998108,-0.2204708606004715,45.58973693847656,96.1422119140625,-39.90090942382812
225089,-0.298797607421875,0.9580230712890624,0.222747802734375,-0.3567988574504852,0.1697717308998108,-0.2204708606004715,45.58973693847656,96.1422119140625,-39.90090942382812
225090,-0.2966156005859375,0.96307373046875,0.2154541015625,-0.3609778881072998,0.1842308193445206,-0.2027166187763214,45.46440124511719,96.3856201171875,-39.71304321289062
225091,-0.278167724609375,0.9391326904296876,0.2255401611328125,-0.3659007549285889,0.1610429435968399,-0.1987016499042511,45.40753173828125,96.47322082519533,-39.43797302246094
225092,-0.2541961669921875,0.8905487060546875,0.2044219970703125,-0.368426501750946,0.0760319158434867,-0.2277889549732208,45.36154174804688,96.62342834472656,-39.5430908203125
225093,-0.2541961669921875,0.8905487060546875,0.2044219970703125,-0.368426501750946,0.0760319158434867,-0.2277889549732208,45.36154174804688,96.62342834472656,-39.5430908203125
225094,-0.17352294921875,0.802154541015625,0.045928955078125,-0.3271043598651886,-0.0035888757556676,-0.2532897889614105,45.22003173828125,96.64930725097656,-38.97369384765625
225095,-0.1259307861328125,0.7680206298828125,-0.02783203125,-0.2724269926548004,-0.0665169730782508,-0.2756480872631073,45.20828247070312,96.64852905273438,-38.55207824707031
225096,-0.0950164794921875,0.74310302734375,-0.0358734130859375,-0.2520455718040466,-0.0888547748327255,-0.296180248260498,44.96260070800781,96.88204956054688,-38.55154418945312
225097,-0.0794219970703125,0.722991943359375,0.0134735107421875,-0.3081897795200348,-0.0756151303648948,-0.3255775570869446,44.83103942871094,96.86386108398438,-38.59913635253906
225098,-0.0772247314453125,0.736663818359375,0.0752716064453125,-0.4406876564025879,-0.0185534451156854,-0.3677268922328949,44.68785095214844,96.99429321289062,-38.48321533203125
225099,-0.089691162109375,0.7885284423828125,0.116424560546875,-0.6117011904716492,0.0750489458441734,-0.4270237684249878,44.49551391601562,97.11349487304688,-38.35749816894531
225100,-0.1167144775390625,0.8661651611328125,0.132049560546875,-0.7954281568527222,0.1514704823493958,-0.4735491871833801,44.20205688476562,97.28404235839844,-38.21513366699219
225101,-0.1167144775390625,0.8661651611328125,0.132049560546875,-0.7954281568527222,0.1514704823493958,-0.4735491871833801,44.20205688476562,97.28404235839844,-38.21513366699219
225102,-0.170074462890625,1.0523681640625,0.1389617919921875,-1.064027905464172,0.0978890135884285,-0.5114108324050903,43.72348022460938,97.66629028320312,-37.7623291015625
225103,-0.18743896484375,1.119049072265625,0.1613006591796875,-1.113762497901917,-0.0320894941687583,-0.4979032576084137,43.50186157226562,98.05247497558594,-37.30072021484375
225104,-0.1968994140625,1.176986694335938,0.19805908203125,-1.110695600509644,-0.1182592660188675,-0.4390332996845245,43.37149047851562,98.28030395507812,-36.8681640625
225105,-0.1968994140625,1.176986694335938,0.19805908203125,-1.110695600509644,-0.1182592660188675,-0.4390332996845245,43.37149047851562,98.28030395507812,-36.8681640625
225106,-0.1887054443359375,1.26300048828125,0.149261474609375,-0.9651418328285216,-0.1569533944129944,-0.2422997206449509,42.9093017578125,98.58164978027344,-35.63662719726562
225107,-0.1314697265625,1.222885131835938,0.0871124267578125,-0.4869565963745117,-0.1318709403276443,0.0100867226719856,42.63134765625,98.76731872558594,-35.15437316894531
225108,-0.0937347412109375,1.210540771484375,0.029144287109375,-0.4869565963745117,-0.1318709403276443,0.0100867226719856,42.45301818847656,98.9731903076172,-34.67276000976562
225109,-0.0937347412109375,1.210540771484375,0.029144287109375,-0.4869565963745117,-0.1318709403276443,0.0100867226719856,42.45301818847656,98.9731903076172,-34.67276000976562
225110,-0.002044677734375,1.197479248046875,-0.076812744140625,-0.1227637380361557,-0.112111359834671,0.0551471412181854,42.28129577636719,99.20228576660156,-33.735595703125
225111,0.0488739013671875,1.206924438476562,-0.1514892578125,-0.0202229805290699,-0.1316461712121964,0.0443237870931625,42.15245056152344,99.39146423339844,-33.48284912109375
225112,0.0954437255859375,1.223556518554688,-0.228546142578125,0.1552359312772751,-0.3478711545467377,-0.0441213883459568,42.00984191894531,99.47108459472656,-33.28720092773438
225113,0.0954437255859375,1.223556518554688,-0.228546142578125,0.1552359312772751,-0.3478711545467377,-0.0441213883459568,42.00984191894531,99.47108459472656,-33.28720092773438
225114,0.1533203125,1.158477783203125,-0.227020263671875,0.2626015245914459,-0.4430283010005951,-0.068213939666748,41.96502685546875,99.40780639648438,-33.24884033203125
225115,0.1533203125,1.158477783203125,-0.227020263671875,0.2626015245914459,-0.4430283010005951,-0.068213939666748,41.96502685546875,99.40780639648438,-33.24884033203125
225116,0.169158935546875,1.012954711914062,-0.272430419921875,0.5038303732872009,-0.6218031048774719,-0.0852259472012519,41.64308166503906,99.4813232421875,-33.15284729003906
225117,0.1539764404296875,0.9682159423828124,-0.3166046142578125,0.5890965461730957,-0.7284009456634521,-0.0433506704866886,41.64161682128906,99.43258666992188,-33.34927368164062
225118,0.1136932373046875,0.9754180908203124,-0.3652496337890625,0.70257169008255,-0.7837169170379639,0.0034519892651587,41.50677490234375,99.37126159667967,-33.46788024902344
225119,0.1136932373046875,0.9754180908203124,-0.3652496337890625,0.70257169008255,-0.7837169170379639,0.0034519892651587,41.50677490234375,99.37126159667967,-33.46788024902344
225120,0.045135498046875,0.9644927978515624,-0.421539306640625,0.9370854496955872,-0.7998673915863037,0.0133195333182811,41.19265747070312,99.0097198486328,-33.93730163574219
225121,0.049468994140625,0.9788055419921876,-0.4089508056640625,0.9649620652198792,-0.7753452658653259,0.0240225121378898,41.08042907714844,98.8433837890625,-34.18833923339844
225122,0.0746917724609375,1.003524780273438,-0.3912506103515625,0.9715371131896972,-0.7523411512374878,0.0479771122336387,40.99870300292969,98.65513610839844,-34.45619201660156
225123,0.0746917724609375,1.003524780273438,-0.3912506103515625,0.9715371131896972,-0.7523411512374878,0.0479771122336387,40.99870300292969,98.65513610839844,-34.45619201660156
225124,0.15924072265625,1.052459716796875,-0.328887939453125,0.9558671116828918,-0.7290717959403992,0.0801164060831069,40.80853271484375,98.17520141601562,-35.05308532714844
225125,0.15924072265625,1.052459716796875,-0.328887939453125,0.9558671116828918,-0.7290717959403992,0.0801164060831069,40.80853271484375,98.17520141601562,-35.05308532714844
225126,0.1971282958984375,1.139328002929688,-0.2019195556640625,0.8110867142677307,-0.7295945286750793,0.1649071872234344,40.68197631835938,97.64877319335938,-35.39541625976562
225127,0.1971282958984375,1.139328002929688,-0.2019195556640625,0.8110867142677307,-0.7295945286750793,0.1649071872234344,40.68197631835938,97.64877319335938,-35.39541625976562
225128,0.1537017822265625,1.279525756835938,0.0474395751953125,0.5038775205612183,-0.8685388565063477,0.2158840894699097,40.65353393554688,97.31381225585938,-36.31486511230469
225129,0.1404571533203125,1.362991333007812,0.143768310546875,0.3616394400596619,-0.9673296213150024,0.229272872209549,40.48143005371094,97.16746520996094,-36.877685546875
225130,0.1374969482421875,1.456375122070312,0.1645355224609375,0.3070230484008789,-0.9753774404525756,0.2245204597711563,40.55645751953125,97.15097045898438,-37.25851440429688
225131,0.124847412109375,1.50897216796875,0.09515380859375,0.384762316942215,-0.9331910610198976,0.1862321943044662,40.54286193847656,97.1371612548828,-37.17352294921875
225132,0.08489990234375,1.477645874023438,0.0362091064453125,0.5909637212753296,-0.9149510860443116,0.1496552675962448,40.5428466796875,97.02183532714844,-37.25643920898438
225133,0.08489990234375,1.477645874023438,0.0362091064453125,0.5909637212753296,-0.9149510860443116,0.1496552675962448,40.5428466796875,97.02183532714844,-37.25643920898438
225134,-0.0038604736328125,1.195343017578125,0.003082275390625,1.031559467315674,-0.921495795249939,0.053249105811119,40.564697265625,96.8426513671875,-37.44664001464844
225135,-0.02069091796875,1.011077880859375,-0.0315704345703125,1.139324307441711,-1.035239934921265,-0.0012588762911036,40.53643798828125,96.65203857421876,-37.62754821777344
225136,-0.0413665771484375,0.8576507568359375,-0.0584259033203125,1.07569682598114,-1.344703316688538,-0.1275925785303116,40.3912353515625,96.37240600585938,-37.84300231933594
225137,-0.0413665771484375,0.8576507568359375,-0.0584259033203125,1.07569682598114,-1.344703316688538,-0.1275925785303116,40.3912353515625,96.37240600585938,-37.84300231933594
225138,-0.088165283203125,0.6625213623046875,-0.060455322265625,0.9417850971221924,-1.423876166343689,-0.1721864193677902,40.00665283203125,96.05296325683594,-38.75735473632812
225139,-0.1234588623046875,0.6121826171875,-0.067718505859375,0.8042693138122559,-1.411458015441895,-0.1951939910650253,39.77137756347656,95.7335968017578,-39.11065673828125
225140,-0.1801910400390625,0.6169281005859375,-0.083648681640625,0.5480409860610962,-1.26194953918457,-0.1984174847602844,39.50848388671875,95.38165283203124,-39.41380310058594
225141,-0.1801910400390625,0.6169281005859375,-0.083648681640625,0.5480409860610962,-1.26194953918457,-0.1984174847602844,39.50848388671875,95.38165283203124,-39.41380310058594
225142,-0.30072021484375,0.710235595703125,-0.0975799560546875,0.4741518497467041,-1.207827210426331,-0.1650214493274689,38.92405700683594,94.87222290039062,-39.67819213867188
225143,-0.30859375,0.7481689453125,-0.05804443359375,0.438665509223938,-1.091668367385864,-0.12855264544487,38.72230529785156,94.57196044921876,-39.80122375488281
225144,-0.2984771728515625,0.768218994140625,-0.0417327880859375,0.3912790715694427,-0.6997565031051636,-0.0647483691573143,38.41336059570312,94.51727294921876,-39.92320251464844
225145,-0.274627685546875,0.7644805908203125,-0.059967041015625,0.3912790715694427,-0.6997565031051636,-0.0647483691573143,38.16647338867188,94.42643737792967,-39.92759704589844
225146,-0.2546844482421875,0.743194580078125,-0.083587646484375,0.3570689260959625,-0.5166292786598206,-0.0657995194196701,37.87458801269531,94.38851928710938,-40.03321838378906
225147,-0.251007080078125,0.715057373046875,-0.064453125,0.2710477411746979,-0.3014032542705536,-0.0461837388575077,37.72451782226562,94.23635864257812,-40.13742065429688
225148,-0.2514801025390625,0.7345428466796875,-0.0062713623046875,0.1277398467063904,-0.082110047340393,-0.0075247613713145,37.656494140625,94.10470581054688,-40.1839599609375
225149,-0.2514801025390625,0.7345428466796875,-0.0062713623046875,0.1277398467063904,-0.082110047340393,-0.0075247613713145,37.656494140625,94.10470581054688,-40.1839599609375
225150,-0.1990203857421875,0.8379058837890625,0.183441162109375,-0.1969966888427734,0.3258926272392273,0.1073533520102501,37.48484802246094,94.01608276367188,-40.36618041992188
225151,-0.1671905517578125,0.8775787353515625,0.2382049560546875,-0.3407051265239716,0.4963197410106659,0.1711837351322174,37.46786499023438,93.99307250976562,-40.35264587402344
225152,-0.150634765625,0.9171295166015624,0.2678985595703125,-0.4677980840206146,0.607827365398407,0.2132853865623474,37.48338317871094,93.96775817871094,-40.37602233886719
225153,-0.150634765625,0.9171295166015624,0.2678985595703125,-0.4677980840206146,0.607827365398407,0.2132853865623474,37.48338317871094,93.96775817871094,-40.37602233886719
225154,-0.1641845703125,0.981964111328125,0.3139495849609375,-0.5651770830154419,0.5930910110473633,0.2708442807197571,37.85885620117188,94.24075317382812,-40.27627563476562
225155,-0.18505859375,1.050506591796875,0.347747802734375,-0.5371659994125366,0.5352250933647156,0.2752097249031067,38.13829040527344,94.4204559326172,-40.08193969726562
225156,-0.1840057373046875,1.105072021484375,0.3623809814453125,-0.5012993216514587,0.4620400667190552,0.2639035582542419,38.35662841796875,94.58840942382812,-40.03826904296875
225157,-0.1666717529296875,1.099227905273438,0.368072509765625,-0.4758887588977814,0.3346088826656342,0.2262009084224701,38.52604675292969,94.85877990722656,-39.81271362304688
225158,-0.143585205078125,1.043411254882812,0.3748321533203125,-0.4831205904483795,0.1951740235090256,0.1635646969079971,38.60551452636719,94.98323059082033,-39.62371826171875
225159,-0.114593505859375,0.9614715576171876,0.3844757080078125,-0.532518208026886,0.0647696778178215,0.0816746205091476,38.78199768066406,95.19294738769533,-39.428955078125
225160,-0.094482421875,0.878082275390625,0.386749267578125,-0.6532526612281799,0.0168479550629854,0.0348149724304676,38.8497314453125,95.28355407714844,-39.39811706542969
225161,-0.094482421875,0.878082275390625,0.386749267578125,-0.6532526612281799,0.0168479550629854,0.0348149724304676,38.8497314453125,95.28355407714844,-39.39811706542969
225162,-0.0460205078125,0.8109588623046875,0.2783355712890625,-0.9523112177848816,-0.0741663724184036,-0.0407013557851314,38.78153991699219,95.7028350830078,-39.04115295410156
225163,-0.0198974609375,0.8226776123046875,0.18701171875,-1.07586944103241,-0.1735507547855377,-0.08417559415102,38.80226135253906,95.9202117919922,-38.68902587890625
225164,0.0112457275390625,0.85882568359375,0.0753326416015625,-1.179574251174927,-0.4233669638633728,-0.1734199821949005,38.74632263183594,96.0364227294922,-38.17694091796875
225165,0.0112457275390625,0.85882568359375,0.0753326416015625,-1.179574251174927,-0.4233669638633728,-0.1734199821949005,38.74632263183594,96.0364227294922,-38.17694091796875
225166,0.0734100341796875,0.9937591552734376,-0.189697265625,-1.150349736213684,-0.5688480138778687,-0.2462878078222275,38.25555419921875,96.76063537597656,-36.71186828613281
225167,0.0799407958984375,1.0721435546875,-0.2332000732421875,-1.029917120933533,-0.5908291935920715,-0.31612229347229,37.91128540039062,97.04893493652344,-35.94300842285156
225168,0.0597381591796875,1.137039184570312,-0.22412109375,-0.8372222185134888,-0.5126007199287415,-0.3689990639686584,37.57106018066406,97.46400451660156,-35.41252136230469
225169,0.0597381591796875,1.137039184570312,-0.22412109375,-0.8372222185134888,-0.5126007199287415,-0.3689990639686584,37.57106018066406,97.46400451660156,-35.41252136230469
225170,-0.0076446533203125,1.253585815429688,-0.1306610107421875,-0.5227082371711731,-0.3586407005786896,-0.4230377972126007,36.94190979003906,97.82121276855467,-34.40211486816406
225171,-0.0076446533203125,1.253585815429688,-0.1306610107421875,-0.5227082371711731,-0.3586407005786896,-0.4230377972126007,36.94190979003906,97.82121276855467,-34.40211486816406
225172,-0.0428924560546875,1.391738891601562,-0.1468658447265625,-0.2569710612297058,-0.249630868434906,-0.3510182201862335,36.26913452148438,98.00798034667967,-33.66557312011719
225173,-0.0461273193359375,1.406784057617188,-0.174468994140625,-0.08608428388834,-0.2056969702243805,-0.2642529606819153,36.07089233398438,98.06393432617188,-33.52474975585938
225174,-0.0327606201171875,1.34808349609375,-0.211669921875,0.0970858037471771,-0.1930094063282013,-0.1366851478815079,35.85366821289062,98.07769775390624,-33.32012939453125
225175,-0.0327606201171875,1.34808349609375,-0.211669921875,0.0970858037471771,-0.1930094063282013,-0.1366851478815079,35.85366821289062,98.07769775390624,-33.32012939453125
225176,0.01019287109375,1.23626708984375,-0.2468109130859375,0.2520865797996521,-0.2140635550022125,0.0102888569235801,35.67597961425781,98.12510681152344,-33.08758544921875
225177,0.04376220703125,1.058090209960938,-0.29937744140625,0.4987757205963135,-0.1666177362203598,0.2560280561447144,35.45439147949219,98.0200653076172,-33.17918395996094
225178,0.023681640625,1.048721313476562,-0.335296630859375,0.5631416440010071,-0.0768215432763099,0.340864896774292,35.64616394042969,97.92115783691406,-33.3662109375
225179,0.0106353759765625,1.07928466796875,-0.3746490478515625,0.6087815761566162,0.0339036397635936,0.4034081697463989,35.73458862304688,97.78421020507812,-33.52134704589844
225180,-0.0141754150390625,1.152557373046875,-0.3902435302734375,0.6465425491333008,0.164656326174736,0.4354928731918335,35.96269226074219,97.72297668457033,-33.76658630371094
225181,-0.0141754150390625,1.152557373046875,-0.3902435302734375,0.6465425491333008,0.164656326174736,0.4354928731918335,35.96269226074219,97.72297668457033,-33.76658630371094
225182,-0.0902099609375,1.33624267578125,-0.376190185546875,0.6884694695472717,0.3757379353046417,0.3915871977806091,36.43040466308594,97.5631866455078,-34.23980712890625
225183,-0.1065826416015625,1.391510009765625,-0.3484649658203125,0.7159104347229004,0.4202944934368134,0.3483848869800568,36.73318481445312,97.38027954101562,-34.53193664550781
225184,-0.1080169677734375,1.406539916992188,-0.3342437744140625,0.733656108379364,0.4373975694179535,0.3047769367694855,36.98994445800781,97.35752868652344,-35.14242553710938
225185,-0.0928192138671875,1.363449096679688,-0.30621337890625,0.7299948334693909,0.3775265216827393,0.2556906342506409,37.25404357910156,97.3651123046875,-35.50654602050781
225186,-0.06585693359375,1.273681640625,-0.236480712890625,0.7067190408706665,0.3313965797424316,0.2172449678182602,37.51713562011719,97.23239135742188,-35.93447875976562
225187,-0.0261077880859375,1.15753173828125,-0.187652587890625,0.6982890963554382,0.2591266334056854,0.2152579873800278,37.70634460449219,97.17668151855467,-36.32839965820312
225188,0.002288818359375,1.04681396484375,-0.16033935546875,0.7578102350234985,0.0828147232532501,0.2491634786128998,37.96424865722656,97.0146942138672,-36.75224304199219
225189,0.002288818359375,1.04681396484375,-0.16033935546875,0.7578102350234985,0.0828147232532501,0.2491634786128998,37.96424865722656,97.0146942138672,-36.75224304199219
225190,0.0541229248046875,0.9324951171875,-0.051788330078125,0.8896824717521667,-0.2986745834350586,0.4145492613315582,38.44027709960938,96.63546752929688,-37.21134948730469
225191,0.0717620849609375,0.88299560546875,-0.0127105712890625,0.8905943632125854,-0.4946520626544952,0.5098837614059448,38.57199096679688,96.43650817871094,-37.70037841796875
225192,0.0813446044921875,0.8385009765625,0.0377197265625,0.8408928513526917,-0.6812248826026917,0.572255551815033,38.71347045898438,96.1891632080078,-38.16632080078125
225193,0.0963592529296875,0.772552490234375,0.0757293701171875,0.7304075956344604,-0.7778449058532715,0.6005851626396179,38.89111328125,96.02740478515624,-38.51362609863281
225194,0.1113739013671875,0.7048492431640625,0.0590362548828125,0.5765978097915649,-0.8263576030731201,0.6265048980712891,39.04826354980469,95.80723571777344,-38.77568054199219
225195,0.1293182373046875,0.662872314453125,0.01123046875,0.4054305851459503,-0.8659795522689819,0.6422633528709412,39.21237182617188,95.62408447265624,-38.95199584960938
225196,0.1616058349609375,0.68377685546875,-0.02154541015625,0.2561873197555542,-0.8409929871559143,0.6340368390083313,39.24441528320312,95.54258728027344,-39.16410827636719
225197,0.181976318359375,0.768798828125,-0.0419158935546875,0.151081919670105,-0.7036715745925903,0.6141526103019714,39.34333801269531,95.59588623046876,-39.35462951660156
225198,0.16400146484375,0.8946685791015625,-0.052978515625,0.1161210164427757,-0.507779061794281,0.589448869228363,39.39154052734375,95.5560302734375,-39.29606628417969
225199,0.1191558837890625,0.956695556640625,-0.0593414306640625,0.1671751439571381,-0.3357540369033813,0.5586933493614197,39.50665283203125,95.46180725097656,-39.2982177734375
225200,0.0730438232421875,0.9484710693359376,-0.0619659423828125,0.3506645560264587,-0.1584293246269226,0.5254486203193665,39.71440124511719,95.43304443359376,-39.34074401855469
225201,0.0730438232421875,0.9484710693359376,-0.0619659423828125,0.3506645560264587,-0.1584293246269226,0.5254486203193665,39.71440124511719,95.43304443359376,-39.34074401855469
225202,0.061859130859375,0.8925018310546875,-0.0583343505859375,0.369925320148468,-0.1339162588119507,0.4919412434101105,40.089599609375,95.31320190429688,-39.47329711914062
225203,0.0706787109375,0.84326171875,-0.0839385986328125,0.3584534823894501,-0.1549696028232574,0.4616571068763733,40.28013610839844,95.1993408203125,-39.60591125488281
225204,0.083160400390625,0.7913360595703125,-0.1198577880859375,0.3236068189144135,-0.1954680383205414,0.4265457391738892,40.49270629882812,95.09498596191406,-39.76338195800781
225205,0.083160400390625,0.7913360595703125,-0.1198577880859375,0.3236068189144135,-0.1954680383205414,0.4265457391738892,40.49270629882812,95.09498596191406,-39.76338195800781
225206,0.0475616455078125,0.7635498046875,-0.1271209716796875,0.2082259058952332,-0.1973338425159454,0.3062603175640106,40.80656433105469,94.8952178955078,-40.04121398925781
225207,0.0475616455078125,0.7635498046875,-0.1271209716796875,0.2082259058952332,-0.1973338425159454,0.3062603175640106,40.80656433105469,94.8952178955078,-40.04121398925781
225208,-0.04571533203125,0.7921142578125,-0.0611114501953125,-0.0073955981060862,-0.0592366904020309,0.0361145958304405,41.01112365722656,94.74293518066406,-40.33702087402344
225209,-0.0839080810546875,0.821533203125,-0.0256500244140625,-0.0073955981060862,-0.0592366904020309,0.0361145958304405,41.06370544433594,94.810546875,-40.33317565917969
225210,-0.1006927490234375,0.866302490234375,-0.001678466796875,-0.0512583926320076,-0.0457379259169101,-0.0476263761520385,41.00685119628906,94.85783386230467,-40.292236328125
225211,-0.0918731689453125,0.9099578857421876,0.027984619140625,-0.0828149914741516,-0.0364621356129646,-0.1211658418178558,40.99006652832031,94.86863708496094,-40.27626037597656
225212,-0.066619873046875,0.93975830078125,0.0702972412109375,-0.119886726140976,-0.0320127941668033,-0.1838310807943344,40.97314453125,95.07565307617188,-40.38487243652344
225213,-0.066619873046875,0.93975830078125,0.0702972412109375,-0.119886726140976,-0.0320127941668033,-0.1838310807943344,40.97314453125,95.07565307617188,-40.38487243652344
225214,-0.0360107421875,0.9710540771484376,0.184844970703125,-0.2236780971288681,0.0145437885075807,-0.2411617487668991,40.80570983886719,95.06900024414062,-40.22889709472656
225215,-0.062347412109375,0.957794189453125,0.200927734375,-0.2546727657318115,0.0314420796930789,-0.2663131654262543,40.75393676757812,95.06706237792967,-40.13484191894531
225216,-0.1020050048828125,0.91607666015625,0.19384765625,-0.2692370712757111,0.0331251956522464,-0.298798143863678,40.70895385742188,95.12112426757812,-40.04916381835938
225217,-0.1020050048828125,0.91607666015625,0.19384765625,-0.2692370712757111,0.0331251956522464,-0.298798143863678,40.70895385742188,95.12112426757812,-40.04916381835938
225218,-0.1749725341796875,0.8902435302734375,0.1866455078125,-0.3637513220310211,0.0591749064624309,-0.371534138917923,40.52287292480469,95.30436706542967,-39.96052551269531
225219,-0.206695556640625,0.8939666748046875,0.183837890625,-0.4691376686096191,0.0783565938472747,-0.4063349962234497,40.37640380859375,95.33009338378906,-39.8876953125
225220,-0.229034423828125,0.8960418701171875,0.1842193603515625,-0.5908092260360718,0.060845773667097,-0.4291923642158508,40.2318115234375,95.46185302734376,-39.68623352050781
225221,-0.229034423828125,0.8960418701171875,0.1842193603515625,-0.5908092260360718,0.060845773667097,-0.4291923642158508,40.2318115234375,95.46185302734376,-39.68623352050781
225222,-0.2360992431640625,0.863922119140625,0.2074127197265625,-0.947574257850647,-0.1418069303035736,-0.4803397059440613,39.98030090332031,95.66658020019533,-38.95393371582031
225223,-0.2337188720703125,0.8555908203125,0.2355194091796875,-0.947574257850647,-0.1418069303035736,-0.4803397059440613,39.79508972167969,95.92916870117188,-38.5152587890625
225224,-0.2271728515625,0.8665008544921875,0.2393341064453125,-1.075600147247314,-0.1655266433954239,-0.4877086877822876,39.57809448242188,96.11195373535156,-38.25619506835938
225225,-0.2271728515625,0.8665008544921875,0.2393341064453125,-1.075600147247314,-0.1655266433954239,-0.4877086877822876,39.57809448242188,96.11195373535156,-38.25619506835938
225226,-0.1685638427734375,0.951263427734375,0.1520233154296875,-1.34499728679657,-0.2983632683753967,-0.5084787011146545,38.99298095703125,96.4465789794922,-37.17160034179688
225227,-0.1248779296875,1.01837158203125,0.07177734375,-1.440722942352295,-0.3939124047756195,-0.508144736289978,38.7958984375,96.69729614257812,-36.44831848144531
225228,-0.0809783935546875,1.096038818359375,-0.0206756591796875,-1.471384763717651,-0.4514881074428558,-0.496679276227951,38.43000793457031,97.03230285644533,-35.88970947265625
225229,-0.0809783935546875,1.096038818359375,-0.0206756591796875,-1.471384763717651,-0.4514881074428558,-0.496679276227951,38.43000793457031,97.03230285644533,-35.88970947265625
225230,0.0304412841796875,1.244888305664062,-0.23297119140625,-1.189432501792908,-0.4500688910484314,-0.4174691438674927,37.67491149902344,97.6474609375,-34.68234252929688
225231,0.0304412841796875,1.244888305664062,-0.23297119140625,-1.189432501792908,-0.4500688910484314,-0.4174691438674927,37.67491149902344,97.6474609375,-34.68234252929688
225232,0.07489013671875,1.27130126953125,-0.260223388671875,-0.7137322425842285,-0.3725938200950623,-0.3091304302215576,37.25059509277344,97.91864013671876,-33.96575927734375
225233,0.111846923828125,1.255661010742188,-0.236419677734375,-0.5995507836341858,-0.4331242740154266,-0.2642683982849121,36.47984313964844,98.19163513183594,-32.61262512207031
225234,0.12945556640625,1.271194458007812,-0.26220703125,-0.4951687157154083,-0.507625937461853,-0.2246456295251846,36.17922973632812,98.32073974609376,-32.0888671875
225235,0.169708251953125,1.250045776367188,-0.345123291015625,-0.3144908249378204,-0.5984178781509399,-0.1869251430034637,35.98963928222656,98.37272644042967,-31.60771179199219
225236,0.2205810546875,1.22100830078125,-0.408477783203125,-0.0711255744099617,-0.6813889145851135,-0.1223871633410454,35.83256530761719,98.51148986816406,-31.26821899414062
225237,0.2205810546875,1.22100830078125,-0.408477783203125,-0.0711255744099617,-0.6813889145851135,-0.1223871633410454,35.83256530761719,98.51148986816406,-31.26821899414062
225238,0.3065032958984375,1.178436279296875,-0.4934234619140625,0.4433417618274689,-0.7003056406974792,0.0515646561980247,35.45664978027344,98.38467407226562,-30.92195129394531
225239,0.322784423828125,1.187652587890625,-0.5123748779296875,0.6291773915290833,-0.6402026414871216,0.1208939328789711,35.30824279785156,98.24874877929688,-30.92652893066406
225240,0.3082122802734375,1.222320556640625,-0.4878997802734375,0.818378210067749,-0.4773598909378052,0.2170657366514206,35.28263854980469,98.13711547851562,-30.99943542480469
225241,0.2685394287109375,1.261688232421875,-0.411041259765625,0.818378210067749,-0.4773598909378052,0.2170657366514206,35.34577941894531,97.9348602294922,-31.24337768554688
225242,0.221221923828125,1.3013916015625,-0.3313446044921875,0.8175017833709717,-0.4275294840335846,0.2460329383611679,35.34811401367188,97.87908935546876,-31.40257263183594
225243,0.200347900390625,1.307754516601562,-0.33172607421875,0.8016679286956787,-0.4265768826007843,0.272529274225235,35.45787048339844,97.82771301269533,-31.82212829589844
225244,0.1877593994140625,1.278945922851562,-0.3586883544921875,0.8106926083564758,-0.5148993134498596,0.3077543675899506,35.55368041992188,97.75282287597656,-32.12164306640625
225245,0.1877593994140625,1.278945922851562,-0.3586883544921875,0.8106926083564758,-0.5148993134498596,0.3077543675899506,35.55368041992188,97.75282287597656,-32.12164306640625
225246,0.1622772216796875,1.278457641601562,-0.1758880615234375,0.7413537502288818,-0.6348618865013123,0.3385333120822906,35.74392700195312,97.391357421875,-32.86607360839844
225247,0.14404296875,1.309005737304688,-0.079376220703125,0.7393092513084412,-0.6321942210197449,0.3536691069602966,35.97862243652344,97.34811401367188,-33.1650390625
225248,0.1129150390625,1.343902587890625,0.01513671875,0.8509311079978943,-0.6228779554367065,0.3382526040077209,36.13693237304688,97.2082977294922,-33.42674255371094
225249,0.1129150390625,1.343902587890625,0.01513671875,0.8509311079978943,-0.6228779554367065,0.3382526040077209,36.13693237304688,97.2082977294922,-33.42674255371094
225250,0.0177154541015625,1.337356567382812,0.093963623046875,0.9934967756271362,-0.895051121711731,0.2175975739955902,36.42039489746094,96.88697814941406,-34.04081726074219
225251,0.0177154541015625,1.337356567382812,0.093963623046875,0.9934967756271362,-0.895051121711731,0.2175975739955902,36.42039489746094,96.88697814941406,-34.04081726074219
225252,-0.1184844970703125,1.082763671875,0.1198883056640625,1.01141345500946,-1.133460283279419,0.0438028760254383,36.82801818847656,96.32749938964844,-34.84544372558594
225253,-0.1184844970703125,1.082763671875,0.1198883056640625,1.01141345500946,-1.133460283279419,0.0438028760254383,36.82801818847656,96.32749938964844,-34.84544372558594
225254,-0.1454010009765625,1.002182006835938,0.1356964111328125,0.9683474898338318,-1.201403856277466,-0.0280598644167184,36.73484802246094,96.19866943359376,-35.14375305175781
225255,-0.165130615234375,0.943328857421875,0.1357879638671875,0.8836536407470703,-1.235878229141235,-0.0704949423670768,36.70710754394531,95.94837951660156,-35.34355163574219
225256,-0.1624298095703125,0.903411865234375,0.1124114990234375,0.7856996059417725,-1.216737031936646,-0.07952331751585,36.490478515625,95.62898254394533,-35.6898193359375
225257,-0.139617919921875,0.8576812744140625,0.0404815673828125,0.6966009140014648,-1.156541585922241,-0.0724153444170951,36.32518005371094,95.46514892578124,-36.101806640625
225258,-0.124481201171875,0.803466796875,-0.0487518310546875,0.6843453049659729,-1.082755565643311,-0.0458127632737159,36.132568359375,95.2734832763672,-36.17306518554688
225259,-0.124481201171875,0.803466796875,-0.0487518310546875,0.6843453049659729,-1.082755565643311,-0.0458127632737159,36.132568359375,95.2734832763672,-36.17306518554688
225260,-0.183441162109375,0.7261810302734375,-0.0772705078125,0.8756119608879089,-0.6538678407669067,-0.0311073195189237,35.7550048828125,94.74581909179688,-36.21003723144531
225261,-0.2260284423828125,0.70733642578125,-0.0543975830078125,0.8756119608879089,-0.6538678407669067,-0.0311073195189237,35.65867614746094,94.39572143554688,-36.45269775390625
225262,-0.2354278564453125,0.66082763671875,-0.0469970703125,0.8004620671272278,-0.5770809054374695,-0.0697332769632339,35.49751281738281,94.20420837402344,-36.66622924804688
225263,-0.218719482421875,0.594451904296875,-0.0410614013671875,0.6957529783248901,-0.5076538920402527,-0.091392233967781,35.43684387207031,94.04136657714844,-36.82379150390625
225264,-0.188690185546875,0.5577392578125,-0.0277252197265625,0.4379038512706757,-0.3014594614505768,-0.079380840063095,35.28865051269531,93.94996643066406,-37.15103149414062
225265,-0.141357421875,0.565185546875,0.0160980224609375,0.4379038512706757,-0.3014594614505768,-0.079380840063095,35.08677673339844,93.8870849609375,-37.40449523925781
225266,-0.0771026611328125,0.6053466796875,0.0829315185546875,0.2595924139022827,-0.1683096438646317,-0.055858738720417,34.94667053222656,93.76863098144533,-37.50497436523438
225267,-0.0194854736328125,0.6712646484375,0.1591033935546875,0.0418310686945915,-0.0637430250644683,0.0083197150379419,34.85302734375,93.4403076171875,-37.77723693847656
225268,0.007598876953125,0.7467193603515625,0.22802734375,-0.3676328659057617,0.1326131671667099,0.1178049296140671,34.78573608398438,93.3896942138672,-38.00248718261719
225269,0.007598876953125,0.7467193603515625,0.22802734375,-0.3676328659057617,0.1326131671667099,0.1178049296140671,34.78573608398438,93.3896942138672,-38.00248718261719
225270,0.0163116455078125,0.880706787109375,0.266204833984375,-0.5201600790023804,0.1513354629278183,0.1432690173387527,34.71379089355469,93.4405517578125,-37.95582580566406
225271,-0.03485107421875,0.94287109375,0.2501373291015625,-0.5787387490272522,0.153335228562355,0.1684249639511108,34.70924377441406,93.44952392578124,-37.76095581054688
225272,-0.0688323974609375,0.9318389892578124,0.1837921142578125,-0.548569917678833,0.1027370318770409,0.1869704127311707,34.79283142089844,93.7293701171875,-37.5137939453125
225273,-0.0688323974609375,0.9318389892578124,0.1837921142578125,-0.548569917678833,0.1027370318770409,0.1869704127311707,34.79283142089844,93.7293701171875,-37.5137939453125
225274,-0.0052642822265625,0.8655853271484375,0.164276123046875,-0.4514811635017395,0.1257531344890594,0.203196793794632,34.88900756835938,94.03483581542967,-37.17935180664062
225275,0.0269317626953125,0.8585357666015625,0.174224853515625,-0.4800630211830139,0.1926189810037613,0.2071321457624435,34.94172668457031,94.28215026855467,-37.05490112304688
225276,0.0498199462890625,0.864654541015625,0.18963623046875,-0.5675872564315796,0.1674047112464905,0.1949298083782196,34.969970703125,94.49586486816406,-36.89739990234375
225277,0.0498199462890625,0.864654541015625,0.18963623046875,-0.5675872564315796,0.1674047112464905,0.1949298083782196,34.969970703125,94.49586486816406,-36.89739990234375
225278,0.0607452392578125,0.9206085205078124,0.252655029296875,-0.8649643659591675,-0.1127971187233925,0.0441240519285202,35.17134094238281,94.7275848388672,-36.50340270996094
225279,0.039031982421875,0.9647979736328124,0.2815704345703125,-1.032308340072632,-0.2227033823728561,-0.0689021050930023,35.22491455078125,95.07717895507812,-36.17855834960938
225280,0.014129638671875,1.013336181640625,0.2355499267578125,-1.172987461090088,-0.3137083947658539,-0.1773074120283127,35.27488708496094,95.39939880371094,-35.79550170898438
225281,0.014129638671875,1.013336181640625,0.2355499267578125,-1.172987461090088,-0.3137083947658539,-0.1773074120283127,35.27488708496094,95.39939880371094,-35.79550170898438
225282,-0.0171051025390625,1.166290283203125,0.008148193359375,-1.233296871185303,-0.7136036157608032,-0.4114591777324677,34.98936462402344,95.79881286621094,-34.79704284667969
225283,0.00091552734375,1.20062255859375,-0.0849761962890625,-1.125241160392761,-0.7968779802322388,-0.4691682755947113,34.75483703613281,95.87693786621094,-34.08888244628906
225284,0.025970458984375,1.190017700195312,-0.097442626953125,-0.6209213137626648,-0.2973722815513611,-0.4108101725578308,34.43780517578125,96.00210571289062,-33.43405151367188
225285,0.01934814453125,1.149307250976562,-0.0968475341796875,-0.6209213137626648,-0.2973722815513611,-0.4108101725578308,34.05439758300781,96.1306610107422,-32.75239562988281
225286,-0.000274658203125,1.090042114257812,-0.076629638671875,-0.4434967339038849,-0.1114319860935211,-0.3937667310237885,33.70747375488281,96.3488311767578,-32.11622619628906
225287,-0.018829345703125,1.057403564453125,-0.038909912109375,-0.4269182980060577,0.0158077254891395,-0.3871645033359528,33.41140747070312,96.40220642089844,-31.51956176757812
225288,-0.036529541015625,1.105743408203125,-0.09869384765625,-0.4883952438831329,0.0577996484935283,-0.3863058984279633,33.10317993164062,96.56719970703124,-31.40339660644531
225289,-0.0346527099609375,1.173614501953125,-0.2042694091796875,-0.5303158164024353,-0.0457270070910453,-0.3627462387084961,32.88395690917969,96.6758270263672,-31.28125
225290,-0.0160064697265625,1.192398071289062,-0.2523040771484375,-0.4822731614112854,-0.1817538142204285,-0.306643545627594,32.65232849121094,96.77777099609376,-31.06661987304688
225291,-0.0160064697265625,1.192398071289062,-0.2523040771484375,-0.4822731614112854,-0.1817538142204285,-0.306643545627594,32.65232849121094,96.77777099609376,-31.06661987304688
225292,0.02532958984375,1.131423950195312,-0.2782745361328125,-0.1692148596048355,-0.2146933972835541,-0.1240018382668495,32.23219299316406,96.76162719726562,-30.54771423339844
225293,0.0159912109375,1.099945068359375,-0.324615478515625,0.0463525839149951,-0.091043621301651,-0.0285560116171836,32.0504150390625,96.85365295410156,-30.10504150390625
225294,0.0225677490234375,1.06854248046875,-0.4108428955078125,0.2582685649394989,0.0463821440935134,0.0682842507958412,31.98469543457031,96.84323120117188,-29.91012573242188
225295,0.0225677490234375,1.06854248046875,-0.4108428955078125,0.2582685649394989,0.0463821440935134,0.0682842507958412,31.98469543457031,96.84323120117188,-29.91012573242188
225296,0.0760345458984375,1.129180908203125,-0.5225067138671875,0.5284329652786255,0.260276585817337,0.2243907600641251,32.00355529785156,96.7825927734375,-29.83192443847656
225297,0.088531494140625,1.194717407226562,-0.4955902099609375,0.5303951501846313,0.3086478412151337,0.2464273571968079,32.06454467773438,96.77076721191406,-29.95443725585938
225298,0.079559326171875,1.243331909179688,-0.4317626953125,0.4813930094242096,0.3094734251499176,0.2421407252550125,32.15232849121094,96.7017059326172,-30.33071899414062
225299,0.0498199462890625,1.256988525390625,-0.379852294921875,0.4623031914234161,0.3093461394309998,0.2439285069704056,32.33695983886719,96.6264190673828,-30.55325317382812
225300,0.0199432373046875,1.249267578125,-0.34423828125,0.5016266107559204,0.3170772790908813,0.2680231928825378,32.53509521484375,96.66197204589844,-30.93951416015625
225301,0.0199432373046875,1.249267578125,-0.34423828125,0.5016266107559204,0.3170772790908813,0.2680231928825378,32.53509521484375,96.66197204589844,-30.93951416015625
225302,-0.02447509765625,1.245193481445312,-0.268890380859375,0.594224214553833,0.3859948515892029,0.2948497533798218,32.84867858886719,96.64547729492188,-31.39151000976562
225303,-0.0534820556640625,1.24188232421875,-0.208892822265625,0.5595018863677979,0.4067259430885315,0.2628742456436157,33.12013244628906,96.58984375,-31.69740295410156
225304,-0.0790252685546875,1.202621459960938,-0.13714599609375,0.3218584656715393,0.2667419612407684,0.1605867445468903,33.32173156738281,96.6075439453125,-32.15681457519531
225305,-0.095367431640625,1.134490966796875,-0.068206787109375,0.3218584656715393,0.2667419612407684,0.1605867445468903,33.58157348632812,96.5922393798828,-32.53057861328125
225306,-0.0920562744140625,1.068756103515625,-0.023651123046875,0.2249907702207565,0.1513865888118744,0.1458586752414703,33.77444458007812,96.58935546875,-32.92800903320312
225307,-0.0920562744140625,1.068756103515625,-0.023651123046875,0.2249907702207565,0.1513865888118744,0.1458586752414703,33.77444458007812,96.58935546875,-32.92800903320312
225308,-0.064971923828125,1.019943237304688,-0.0019683837890625,0.1896016150712967,0.0111197624355554,0.170617550611496,33.97560119628906,96.5261688232422,-33.04055786132812
225309,0.00921630859375,0.9433135986328124,0.039031982421875,0.2133477032184601,-0.2948545515537262,0.2588866949081421,34.22013854980469,96.52139282226562,-33.42750549316406
225310,0.0265960693359375,0.904541015625,0.092864990234375,0.2209358364343643,-0.4090325236320496,0.3045830726623535,34.43589782714844,96.5329132080078,-33.53565979003906
225311,0.0265960693359375,0.904541015625,0.092864990234375,0.2209358364343643,-0.4090325236320496,0.3045830726623535,34.43589782714844,96.5329132080078,-33.53565979003906
225312,0.04840087890625,0.8223419189453125,0.183563232421875,0.1479974538087845,-0.4347296059131622,0.3486104607582092,34.57400512695312,96.459228515625,-33.62222290039062
225313,0.063629150390625,0.7979888916015625,0.185211181640625,0.0357436165213584,-0.4003615379333496,0.3582428395748138,34.53456115722656,96.44627380371094,-33.73785400390625
225314,0.0876922607421875,0.801361083984375,0.1617279052734375,-0.0846054330468177,-0.39559605717659,0.3627731502056122,34.66908264160156,96.55523681640624,-33.7412109375
225315,0.1250457763671875,0.841949462890625,0.136749267578125,-0.1770091354846954,-0.4064638912677765,0.3613195717334747,34.786376953125,96.53756713867188,-33.58004760742188
225316,0.15606689453125,0.9181365966796876,0.1082611083984375,-0.2294342517852783,-0.3778966963291168,0.3640884757041931,34.89532470703125,96.57705688476562,-33.49189758300781
225317,0.1768798828125,0.974822998046875,0.0706787109375,-0.2307376116514206,-0.3434223532676697,0.3678089082241058,35.00703430175781,96.51910400390624,-33.38034057617188
225318,0.1862030029296875,0.9905548095703124,0.04949951171875,-0.1792722791433334,-0.3040469884872437,0.3654402792453766,35.15130615234375,96.50015258789062,-33.06454467773438
225319,0.1862030029296875,0.9905548095703124,0.04949951171875,-0.1792722791433334,-0.3040469884872437,0.3654402792453766,35.15130615234375,96.50015258789062,-33.06454467773438
225320,0.1676483154296875,0.99298095703125,0.039642333984375,-0.0595067366957664,-0.2067044377326965,0.294093132019043,35.27398681640625,96.60321044921876,-32.861328125
225321,0.1295013427734375,0.9895172119140624,0.03472900390625,-0.0595067366957664,-0.2067044377326965,0.294093132019043,35.33287048339844,96.61036682128906,-32.90306091308594
225322,0.0413818359375,0.9633026123046876,0.0219879150390625,0.0266127027571201,-0.1672294735908508,0.0794556736946106,35.57087707519531,96.79606628417967,-32.76551818847656
225323,0.0413818359375,0.9633026123046876,0.0219879150390625,0.0266127027571201,-0.1672294735908508,0.0794556736946106,35.57087707519531,96.79606628417967,-32.76551818847656
225324,-0.0087738037109375,0.938323974609375,0.014892578125,0.0584862120449543,-0.1493559330701828,-0.0647297278046608,35.6903076171875,96.87141418457033,-32.69619750976562
225325,-0.0717926025390625,0.902618408203125,0.0195770263671875,0.0261362623423337,-0.0882624834775924,-0.2923788726329803,35.81451416015625,96.9088897705078,-32.59793090820312
225326,-0.1856689453125,0.8314208984375,0.028472900390625,-0.0337936505675315,-0.0635856315493583,-0.3628525137901306,35.73149108886719,96.96075439453124,-32.35037231445312
225327,-0.2368621826171875,0.8100128173828125,0.032012939453125,-0.1070833131670952,-0.0544794872403144,-0.4184166789054871,35.65098571777344,96.8196258544922,-32.24894714355469
225328,-0.2889862060546875,0.800445556640625,0.0389404296875,-0.1862870454788208,-0.0429013930261135,-0.4461665749549866,35.53070068359375,96.75750732421876,-32.35720825195312
225329,-0.2889862060546875,0.800445556640625,0.0389404296875,-0.1862870454788208,-0.0429013930261135,-0.4461665749549866,35.53070068359375,96.75750732421876,-32.35720825195312
225330,-0.37164306640625,0.7977752685546875,0.03656005859375,-0.3244641125202179,0.0026511768810451,-0.3983870446681976,34.992431640625,96.835205078125,-32.7178955078125
225331,-0.3843231201171875,0.7816925048828125,0.025726318359375,-0.3583315312862396,-0.0302681569010019,-0.3298985362052917,34.79551696777344,96.8207550048828,-32.65348815917969
225332,-0.3683929443359375,0.759490966796875,0.0228729248046875,-0.3821692168712616,-0.1019577905535698,-0.2607514262199402,34.72189331054688,96.90008544921876,-32.66136169433594
225333,-0.3292388916015625,0.7362518310546875,0.035980224609375,-0.4124935567378998,-0.1534990072250366,-0.2217116206884384,34.52403259277344,96.90512084960938,-32.3994140625
225334,-0.281402587890625,0.716888427734375,0.0623626708984375,-0.4583230912685394,-0.1548827886581421,-0.2090682685375214,34.37298583984375,96.97085571289062,-32.21749877929688
225335,-0.2335205078125,0.7197723388671875,0.0978240966796875,-0.5144484043121338,-0.1272951066493988,-0.2066431939601898,34.22592163085938,96.99514770507812,-31.92230224609375
225336,-0.1924285888671875,0.7548980712890625,0.1415863037109375,-0.6381580829620361,-0.0551785677671432,-0.2884658873081207,34.008544921875,97.07835388183594,-31.63063049316406
225337,-0.1543731689453125,0.8055419921875,0.1761322021484375,-0.6381580829620361,-0.0551785677671432,-0.2884658873081207,33.89112854003906,97.10499572753906,-31.32078552246094
225338,-0.124908447265625,0.866058349609375,0.21380615234375,-0.7037746906280518,-0.1037402451038361,-0.3571045994758606,33.68217468261719,97.15133666992188,-30.84147644042969
225339,-0.10308837890625,0.9277496337890624,0.27142333984375,-0.7715108394622803,-0.1888077408075333,-0.4315367639064789,33.45115661621094,97.2647705078125,-30.55238342285156
225340,-0.09228515625,0.985626220703125,0.332855224609375,-0.864400327205658,-0.2351786941289902,-0.491007536649704,33.18669128417969,97.45025634765624,-30.23817443847656
225341,-0.09228515625,0.985626220703125,0.332855224609375,-0.864400327205658,-0.2351786941289902,-0.491007536649704,33.18669128417969,97.45025634765624,-30.23817443847656
225342,-0.1110382080078125,1.193893432617188,0.343505859375,-1.162511348724365,-0.3210712373256683,-0.5238115787506104,32.6298828125,97.60386657714844,-29.57608032226562
225343,-0.0985565185546875,1.219497680664062,0.2537841796875,-1.285407423973083,-0.4643239974975586,-0.5593293309211731,32.333251953125,97.66334533691406,-28.93258666992188
225344,-0.0087890625,1.159072875976562,0.17266845703125,-1.293969511985779,-0.6475601196289062,-0.5267373323440552,31.98483276367188,97.8148956298828,-28.40266418457031
225345,-0.0087890625,1.159072875976562,0.17266845703125,-1.293969511985779,-0.6475601196289062,-0.5267373323440552,31.98483276367188,97.8148956298828,-28.40266418457031
225346,0.0311737060546875,1.233566284179688,-0.0533905029296875,-0.7250810265541077,-0.4311266243457794,-0.2701483964920044,31.33268737792969,97.98127746582033,-27.02218627929688
225347,0.0198516845703125,1.183380126953125,-0.1194305419921875,-0.3324413299560547,-0.5554895997047424,-0.1999661177396774,31.02098083496094,97.99400329589844,-26.36288452148438
225348,0.029083251953125,1.101089477539062,-0.0484161376953125,-0.1161314025521278,-0.5961717963218689,-0.1290461272001266,30.82264709472656,98.05523681640624,-25.99856567382812
225349,0.029083251953125,1.101089477539062,-0.0484161376953125,-0.1161314025521278,-0.5961717963218689,-0.1290461272001266,30.82264709472656,98.05523681640624,-25.99856567382812
225350,0.0049896240234375,1.025894165039062,-0.094024658203125,0.0230659041553735,-0.5719354152679443,-0.1520981937646866,30.67897033691406,98.0401611328125,-25.36332702636719
225351,0.0044097900390625,0.988616943359375,-0.1486663818359375,0.0903405472636222,-0.6293689012527466,-0.1965399533510208,30.48808288574219,98.05833435058594,-25.21737670898438
225352,0.022216796875,0.9471893310546876,-0.203033447265625,0.163707435131073,-0.6679027080535889,-0.2177395224571228,30.34518432617188,98.14820861816406,-25.19660949707031
225353,0.022216796875,0.9471893310546876,-0.203033447265625,0.163707435131073,-0.6679027080535889,-0.2177395224571228,30.34518432617188,98.14820861816406,-25.19660949707031
225354,0.0959625244140625,0.9474334716796876,-0.3142547607421875,0.2929322719573975,-0.6195737719535828,-0.1959756314754486,30.02627563476562,98.06495666503906,-24.99325561523438
225355,0.1139373779296875,0.9821929931640624,-0.373199462890625,0.3883293569087982,-0.5784716010093689,-0.1545680016279221,29.82418823242188,97.8864288330078,-24.743896484375
225356,0.1245880126953125,1.040985107421875,-0.398773193359375,0.4952568709850311,-0.5315594673156738,-0.1028475537896156,29.76344299316406,97.90510559082033,-24.92352294921875
225357,0.1245880126953125,1.040985107421875,-0.398773193359375,0.4952568709850311,-0.5315594673156738,-0.1028475537896156,29.76344299316406,97.90510559082033,-24.92352294921875
225358,0.116546630859375,1.170684814453125,-0.3252410888671875,0.6382491588592529,-0.3696158528327942,-0.0222171545028686,29.54434204101562,97.6736297607422,-24.98654174804688
225359,0.1067962646484375,1.23114013671875,-0.2649383544921875,0.6514440774917603,-0.3184174001216888,-0.0089333076030015,29.60708618164062,97.459228515625,-25.04562377929688
225360,0.1091156005859375,1.271697998046875,-0.201812744140625,0.6353399753570557,-0.3031079471111298,0.0070802802219986,29.55555725097656,97.4587860107422,-25.22016906738281
225361,0.1091156005859375,1.271697998046875,-0.201812744140625,0.6353399753570557,-0.3031079471111298,0.0070802802219986,29.55555725097656,97.4587860107422,-25.22016906738281
225362,0.1102142333984375,1.347793579101562,-0.0747528076171875,0.6232832670211792,-0.3869490623474121,0.0562832467257976,29.65901184082031,97.28582763671876,-25.72987365722656
225363,0.089141845703125,1.386688232421875,0.011260986328125,0.6009156703948975,-0.4452496469020844,0.0768593624234199,29.73300170898438,97.18548583984376,-25.94804382324219
225364,0.0615692138671875,1.42633056640625,0.1054840087890625,0.5554174184799194,-0.4847618937492371,0.0891511812806129,29.8369140625,97.10963439941406,-26.25410461425781
225365,0.0615692138671875,1.42633056640625,0.1054840087890625,0.5554174184799194,-0.4847618937492371,0.0891511812806129,29.8369140625,97.10963439941406,-26.25410461425781
225366,-0.010406494140625,1.472122192382812,0.2563018798828125,0.4811176359653473,-0.5001975893974304,0.0894185602664947,29.94717407226562,97.05523681640624,-26.39228820800781
225367,-0.0591888427734375,1.471633911132812,0.2631683349609375,0.481294721364975,-0.4735744893550873,0.0571101568639278,29.98960876464844,96.94171142578124,-26.54837036132812
225368,-0.08599853515625,1.3963623046875,0.2301177978515625,0.5275202989578247,-0.4545656442642212,0.0144364638254046,30.04206848144531,96.8556671142578,-26.79293823242188
225369,-0.08599853515625,1.3963623046875,0.2301177978515625,0.5275202989578247,-0.4545656442642212,0.0144364638254046,30.04206848144531,96.8556671142578,-26.79293823242188
225370,-0.1067657470703125,1.127395629882812,0.0946044921875,0.6974467039108276,-0.5068099498748779,-0.0143312690779566,30.19093322753906,96.53663635253906,-26.97694396972656
225371,-0.1067657470703125,1.127395629882812,0.0946044921875,0.6974467039108276,-0.5068099498748779,-0.0143312690779566,30.19093322753906,96.53663635253906,-26.97694396972656
225372,-0.091339111328125,0.9037933349609376,-0.0100250244140625,0.8905232548713684,-0.7316765785217285,-0.0787059962749481,30.17910766601562,96.44435119628906,-27.32475280761719
225373,-0.0858917236328125,0.8118743896484375,-0.053802490234375,0.8905232548713684,-0.7316765785217285,-0.0787059962749481,30.22172546386719,96.36660766601562,-27.52082824707031
225374,-0.0746612548828125,0.766082763671875,-0.09075927734375,0.9184704422950744,-0.790438711643219,-0.1096167713403702,30.19390869140625,96.2220458984375,-27.5830078125
225375,-0.0746612548828125,0.766082763671875,-0.09075927734375,0.9184704422950744,-0.790438711643219,-0.1096167713403702,30.19390869140625,96.2220458984375,-27.5830078125
225376,-0.074005126953125,0.7279052734375,-0.1510467529296875,0.7888296246528625,-0.7643005847930908,-0.1427922993898392,30.10308837890625,95.81997680664062,-28.2156982421875
225377,-0.071136474609375,0.7180938720703125,-0.1741790771484375,0.7132847905158997,-0.7765175700187683,-0.1342299729585648,30.11924743652344,95.59996032714844,-28.50521850585938
225378,-0.0929718017578125,0.72747802734375,-0.1672210693359375,0.6803750395774841,-0.7835275530815125,-0.1360513120889664,30.079833984375,95.37760925292967,-28.46755981445312
225379,-0.133392333984375,0.7365570068359375,-0.142333984375,0.6811867952346802,-0.732076108455658,-0.1549187451601028,29.97996520996094,95.31427001953124,-28.63595581054688
225380,-0.1652069091796875,0.75390625,-0.1286163330078125,0.6724205017089844,-0.6615327000617981,-0.186417818069458,29.86473083496094,95.07504272460938,-28.81015014648438
225381,-0.1652069091796875,0.75390625,-0.1286163330078125,0.6724205017089844,-0.6615327000617981,-0.186417818069458,29.86473083496094,95.07504272460938,-28.81015014648438
225382,-0.19012451171875,0.7595062255859375,-0.0877227783203125,0.5183632373809814,-0.4326329231262207,-0.1965918838977814,29.7052001953125,94.94792175292967,-28.79573059082031
225383,-0.2023468017578125,0.7691650390625,-0.0220947265625,0.3523905277252197,-0.2872914373874664,-0.1555669605731964,29.61573791503906,94.87490844726562,-28.99855041503906
225384,-0.2221527099609375,0.789886474609375,0.068634033203125,0.1621686667203903,-0.1068902313709259,-0.1008784100413322,29.42388916015625,94.91311645507812,-29.32708740234375
225385,-0.2221527099609375,0.789886474609375,0.068634033203125,0.1621686667203903,-0.1068902313709259,-0.1008784100413322,29.42388916015625,94.91311645507812,-29.32708740234375
225386,-0.268218994140625,0.8024749755859375,0.1602783203125,-0.10838533192873,0.2679651379585266,0.0571090914309024,29.33171081542969,94.94700622558594,-29.50759887695312
225387,-0.283721923828125,0.7981719970703125,0.14349365234375,-0.165461927652359,0.3078960478305817,0.1457715779542923,29.27967834472656,95.03190612792967,-29.53683471679688
225388,-0.2939910888671875,0.8170166015625,0.1616973876953125,-0.192546010017395,0.2643767893314362,0.2225353419780731,29.32920837402344,95.0062255859375,-29.59661865234375
225389,-0.2939910888671875,0.8170166015625,0.1616973876953125,-0.192546010017395,0.2643767893314362,0.2225353419780731,29.32920837402344,95.0062255859375,-29.59661865234375
225390,-0.2616119384765625,0.85809326171875,0.294769287109375,-0.2349009215831757,0.2463636994361877,0.307910144329071,29.57806396484375,95.25788879394533,-29.72653198242188
225391,-0.2616119384765625,0.85809326171875,0.294769287109375,-0.2349009215831757,0.2463636994361877,0.307910144329071,29.57806396484375,95.25788879394533,-29.72653198242188
225392,-0.1895904541015625,0.916748046875,0.3850250244140625,-0.4078274369239807,0.0918548256158828,0.2866618633270264,29.82774353027344,95.4597625732422,-29.78059387207031
225393,-0.1576690673828125,0.931121826171875,0.389312744140625,-0.4078274369239807,0.0918548256158828,0.2866618633270264,29.91340637207031,95.64320373535156,-29.663818359375
225394,-0.11175537109375,0.9540863037109376,0.3860321044921875,-0.5237351059913635,-0.0685276612639427,0.2239097952842712,29.99658203125,95.785400390625,-29.60372924804688
225395,-0.0543212890625,0.9597320556640624,0.38348388671875,-0.6512510180473328,-0.2193733602762222,0.1195580884814262,30.03250122070312,95.8989715576172,-29.42669677734375
225396,-0.0117034912109375,0.925262451171875,0.3732452392578125,-0.7952268123626709,-0.3246300220489502,0.0023518374655395,30.1190185546875,95.93212890625,-29.18864440917969
225397,-0.0117034912109375,0.925262451171875,0.3732452392578125,-0.7952268123626709,-0.3246300220489502,0.0023518374655395,30.1190185546875,95.93212890625,-29.18864440917969
225398,0.0277252197265625,0.861846923828125,0.3111572265625,-1.068047404289246,-0.4049802422523499,-0.1532603949308395,30.06011962890625,96.1278839111328,-28.51936340332031
225399,0.0434722900390625,0.8889007568359375,0.2573089599609375,-1.161490321159363,-0.402728796005249,-0.1984435766935349,29.90750122070312,96.1636962890625,-27.9952392578125
225400,0.0487823486328125,0.955108642578125,0.169586181640625,-1.208945989608765,-0.4030691683292389,-0.2558195292949677,29.68260192871094,96.300048828125,-27.50088500976562
225401,0.0487823486328125,0.955108642578125,0.169586181640625,-1.208945989608765,-0.4030691683292389,-0.2558195292949677,29.68260192871094,96.300048828125,-27.50088500976562
225402,-0.03778076171875,1.12152099609375,-0.0304412841796875,-1.170882940292358,-0.6286274790763855,-0.4516691863536835,29.24864196777344,96.55662536621094,-26.12789916992188
225403,-0.1179351806640625,1.215957641601562,-0.033355712890625,-1.125712871551514,-0.6370505094528198,-0.5027661919593811,28.96591186523438,96.66864013671876,-25.43896484375
225404,-0.1156005859375,1.175582885742188,-0.03759765625,-0.8387032151222229,-0.5332950949668884,-0.5659995079040527,28.70831298828125,96.83509826660156,-24.77740478515625
225405,-0.1322479248046875,1.132553100585938,-0.0450592041015625,-0.8387032151222229,-0.5332950949668884,-0.5659995079040527,28.35592651367188,96.88165283203124,-24.09754943847656
225406,-0.1793670654296875,1.157241821289062,-0.008056640625,-0.6758024096488953,-0.493772953748703,-0.5193606019020081,28.01968383789062,96.8238525390625,-23.36750793457031
225407,-0.1793670654296875,1.157241821289062,-0.008056640625,-0.6758024096488953,-0.493772953748703,-0.5193606019020081,28.01968383789062,96.8238525390625,-23.36750793457031
225408,-0.2402191162109375,1.219207763671875,-0.086578369140625,-0.0845849215984344,-0.2608651518821716,-0.3651643991470337,27.45463562011719,96.9619140625,-22.51361083984375
225409,-0.217681884765625,1.192276000976562,-0.1358184814453125,-0.0845849215984344,-0.2608651518821716,-0.3651643991470337,27.15138244628906,96.98805236816406,-22.11068725585938
225410,-0.159515380859375,1.138473510742188,-0.1909942626953125,0.0404326431453228,-0.2610704898834229,-0.2885449826717377,26.94850158691406,96.91203308105467,-21.70669555664062
225411,-0.1026611328125,1.076461791992188,-0.246673583984375,0.1242077052593231,-0.282054603099823,-0.2093273848295212,26.668701171875,96.84324645996094,-21.46798706054688
225412,-0.066864013671875,1.033737182617188,-0.26873779296875,0.1585102826356888,-0.2716466784477234,-0.1259416788816452,26.53076171875,96.886962890625,-21.33966064453125
225413,-0.066864013671875,1.033737182617188,-0.26873779296875,0.1585102826356888,-0.2716466784477234,-0.1259416788816452,26.53076171875,96.886962890625,-21.33966064453125
225414,-0.0267486572265625,1.0931396484375,-0.2802734375,0.2271820157766342,-0.1124067008495331,0.0965286716818809,26.29258728027344,96.87168884277344,-21.08061218261719
225415,-0.042144775390625,1.188705444335938,-0.2905731201171875,0.3109261989593506,0.0140774697065353,0.191369965672493,26.25544738769531,96.84376525878906,-20.93563842773438
225416,-0.0550994873046875,1.25726318359375,-0.27899169921875,0.4062449932098389,0.1358814090490341,0.273878425359726,26.25848388671875,96.89129638671876,-21.10456848144531
225417,-0.0550994873046875,1.25726318359375,-0.27899169921875,0.4062449932098389,0.1358814090490341,0.273878425359726,26.25848388671875,96.89129638671876,-21.10456848144531
225418,-0.08648681640625,1.3560791015625,-0.21881103515625,0.5778279304504395,0.3547697961330414,0.299800306558609,26.58082580566406,96.85758972167967,-21.31025695800781
225419,-0.1016693115234375,1.352005004882812,-0.2082977294921875,0.6850185394287109,0.4405654072761536,0.3246422708034515,26.74781799316406,96.74577331542967,-21.46546936035156
225420,-0.1185760498046875,1.317520141601562,-0.2019805908203125,0.888015627861023,0.5628726482391357,0.3783957660198212,26.92999267578125,96.7336883544922,-21.90463256835938
225421,-0.1185760498046875,1.317520141601562,-0.2019805908203125,0.888015627861023,0.5628726482391357,0.3783957660198212,26.92999267578125,96.7336883544922,-21.90463256835938
225422,-0.097412109375,1.141128540039062,-0.171722412109375,0.9458722472190856,0.53272944688797,0.4200771749019623,27.51019287109375,96.69963073730467,-22.97433471679688
225423,-0.097412109375,1.141128540039062,-0.171722412109375,0.9458722472190856,0.53272944688797,0.4200771749019623,27.51019287109375,96.69963073730467,-22.97433471679688
225424,-0.069427490234375,1.049575805664062,-0.1385955810546875,0.9458722472190856,0.53272944688797,0.4200771749019623,27.87240600585938,96.56292724609376,-23.39501953125
225425,-0.0451202392578125,0.9714508056640624,-0.1382598876953125,0.924856424331665,0.2623506486415863,0.4480390250682831,28.14190673828125,96.5718994140625,-23.92784118652344
225426,-0.0087127685546875,0.9140777587890624,-0.0286712646484375,0.8953113555908203,0.1777207255363464,0.4733646214008331,28.75839233398438,96.33888244628906,-24.97100830078125
225427,0.0160675048828125,0.9091033935546876,0.017333984375,0.8404417037963867,0.1112474277615547,0.5011824369430542,29.00157165527344,96.22349548339844,-25.48077392578125
225428,0.0307769775390625,0.900634765625,0.0621490478515625,0.7723912596702576,-0.0367902368307113,0.5191478133201599,29.21876525878906,96.24411010742188,-26.070068359375
225429,0.0307769775390625,0.900634765625,0.0621490478515625,0.7723912596702576,-0.0367902368307113,0.5191478133201599,29.21876525878906,96.24411010742188,-26.070068359375
225430,0.0468902587890625,0.9011077880859376,0.168487548828125,0.53407883644104,-0.2622646391391754,0.5034002661705017,29.66560363769531,96.1741943359375,-26.93641662597656
225431,0.0461883544921875,0.8796234130859375,0.156890869140625,0.3724848926067352,-0.3058360815048218,0.4767404496669769,29.90168762207031,96.09024047851562,-27.17616271972656
225432,0.0294952392578125,0.840606689453125,0.1297149658203125,0.2053901702165604,-0.3393051028251648,0.4446970224380493,30.05068969726562,96.063720703125,-27.43174743652344
225433,0.00592041015625,0.838623046875,0.10833740234375,0.0594468154013156,-0.3087799549102783,0.4390854835510254,30.22805786132812,96.0234832763672,-27.58963012695312
225434,-0.0080718994140625,0.8910064697265625,0.0601348876953125,-0.0401594042778015,-0.2452435791492462,0.4401012063026428,30.45579528808594,96.11376953125,-27.67366027832031
225435,-0.0274658203125,0.969512939453125,0.026947021484375,-0.0650197491049766,-0.1862958371639252,0.4237552583217621,30.51052856445312,96.16029357910156,-27.51968383789062
225436,-0.0492095947265625,1.00042724609375,0.029022216796875,0.1147641316056252,-0.0475376918911933,0.4127342998981476,30.72700500488281,96.25959777832033,-27.5845947265625
225437,-0.0492095947265625,1.00042724609375,0.029022216796875,0.1147641316056252,-0.0475376918911933,0.4127342998981476,30.72700500488281,96.25959777832033,-27.5845947265625
225438,-0.0599365234375,0.950408935546875,0.0731353759765625,0.2170058190822601,0.0457280725240707,0.4008054733276367,31.04254150390625,96.47918701171876,-27.42916870117188
225439,-0.0513916015625,0.894561767578125,0.063018798828125,0.2358314394950867,0.0943304970860481,0.3808216452598572,31.26106262207031,96.42880249023438,-27.32736206054688
225440,-0.0311431884765625,0.8395843505859375,0.0352630615234375,0.2024907916784286,0.0774644315242767,0.3601685762405396,31.41085815429688,96.25961303710938,-27.47053527832031
225441,-0.0311431884765625,0.8395843505859375,0.0352630615234375,0.2024907916784286,0.0774644315242767,0.3601685762405396,31.41085815429688,96.25961303710938,-27.47053527832031
225442,0.025146484375,0.73095703125,-0.0259246826171875,0.0710358247160911,-0.0319147892296314,0.3104175329208374,31.8135986328125,96.27719116210938,-27.80845642089844
225443,0.0367279052734375,0.74908447265625,-0.00640869140625,0.0144207505509257,0.0182607620954513,0.272937536239624,31.87162780761719,96.28453063964844,-27.8135986328125
225444,0.0081024169921875,0.7967987060546875,0.0066375732421875,-0.0194631796330213,0.1050885990262032,0.2136579602956772,31.97569274902344,96.38137817382812,-27.84153747558594
225445,0.0081024169921875,0.7967987060546875,0.0066375732421875,-0.0194631796330213,0.1050885990262032,0.2136579602956772,31.97569274902344,96.38137817382812,-27.84153747558594
225446,-0.0606536865234375,0.907745361328125,-0.0009307861328125,-0.0658442601561546,0.0642508938908577,0.012411662377417,32.21875,96.34750366210938,-27.7813720703125
225447,-0.067047119140625,0.9521331787109376,0.00689697265625,-0.0815438628196716,0.0438140593469142,-0.0855641663074493,32.28158569335938,96.3850555419922,-27.85202026367188
225448,-0.066741943359375,0.9583892822265624,0.012725830078125,-0.0729937851428985,-0.0064347297884523,-0.1652597934007645,32.29103088378906,96.48347473144533,-27.95103454589844
225449,-0.0623016357421875,0.9531707763671876,0.0323333740234375,-0.0481736548244953,-0.0601323135197162,-0.2270472645759583,32.29275512695312,96.4831085205078,-28.01805114746094
225450,-0.05474853515625,0.95196533203125,0.0515289306640625,-0.0309224966913461,-0.1150618717074394,-0.2791243195533752,32.26939392089844,96.5735321044922,-27.91192626953125
225451,-0.05474853515625,0.95196533203125,0.0515289306640625,-0.0309224966913461,-0.1150618717074394,-0.2791243195533752,32.26939392089844,96.5735321044922,-27.91192626953125
225452,-0.07196044921875,0.9221954345703124,0.11212158203125,-0.038758847862482,-0.2793354988098145,-0.3961737155914307,32.05262756347656,96.45982360839844,-27.88081359863281
225453,-0.1277618408203125,0.9005126953125,0.14093017578125,-0.038758847862482,-0.2793354988098145,-0.3961737155914307,31.98497009277344,96.37367248535156,-27.77711486816406
225454,-0.2037200927734375,0.8568115234375,0.149810791015625,-0.0729423835873603,-0.2944012582302094,-0.4246002733707428,31.80128479003906,96.28874206542967,-27.65771484375
225455,-0.272705078125,0.81072998046875,0.1605682373046875,-0.2242709249258041,-0.2478257864713669,-0.4609929025173187,31.62437438964844,96.29855346679688,-27.49850463867188
225456,-0.32623291015625,0.7768096923828125,0.1669158935546875,-0.2242709249258041,-0.2478257864713669,-0.4609929025173187,31.42890930175781,96.23982238769533,-27.59552001953125
225457,-0.35968017578125,0.7489776611328125,0.1585693359375,-0.333352118730545,-0.2429037243127823,-0.4629791080951691,31.19944763183594,96.17982482910156,-27.53324890136719
225458,-0.371337890625,0.7364959716796875,0.156768798828125,-0.4472824335098267,-0.2836354374885559,-0.4414277374744415,31.06439208984375,96.23753356933594,-27.34820556640625
225459,-0.3460693359375,0.7579345703125,0.1667938232421875,-0.5751962065696716,-0.3411123156547546,-0.4124616086483002,30.75288391113281,96.2928466796875,-27.19047546386719
225460,-0.291046142578125,0.80645751953125,0.1770172119140625,-0.8467989563941956,-0.3540134727954865,-0.4153980016708374,30.587158203125,96.23487854003906,-26.9368896484375
225461,-0.291046142578125,0.80645751953125,0.1770172119140625,-0.8467989563941956,-0.3540134727954865,-0.4153980016708374,30.587158203125,96.23487854003906,-26.9368896484375
225462,-0.190887451171875,0.9159698486328124,0.1120147705078125,-0.9524524211883544,-0.3351340591907501,-0.4115183055400848,30.18923950195312,96.31842041015624,-26.20025634765625
225463,-0.1455841064453125,0.9896240234375,0.05218505859375,-0.9683703780174256,-0.3202174305915833,-0.3612130582332611,29.93417358398438,96.36984252929688,-25.70466613769531
225464,-0.099273681640625,1.073455810546875,-0.020782470703125,-0.9683703780174256,-0.3202174305915833,-0.3612130582332611,29.67982482910156,96.45506286621094,-25.27267456054688
225465,-0.099273681640625,1.073455810546875,-0.020782470703125,-0.9683703780174256,-0.3202174305915833,-0.3612130582332611,29.67982482910156,96.45506286621094,-25.27267456054688
225466,-0.0210418701171875,1.21319580078125,-0.163726806640625,-0.7280752062797546,-0.40044966340065,-0.3065713942050934,29.13134765625,96.64385986328124,-24.27119445800781
225467,0.01763916015625,1.272598266601562,-0.199859619140625,-0.5856214165687561,-0.4851150214672089,-0.2512133121490479,28.80461120605469,96.65658569335938,-23.66033935546875
225468,0.0511932373046875,1.32476806640625,-0.2247772216796875,-0.264007955789566,-0.6646190285682678,-0.1513532996177673,28.60545349121094,96.66984558105467,-23.27700805664062
225469,0.0511932373046875,1.32476806640625,-0.2247772216796875,-0.264007955789566,-0.6646190285682678,-0.1513532996177673,28.60545349121094,96.66984558105467,-23.27700805664062
225470,0.108642578125,1.34814453125,-0.213653564453125,-0.0821414738893508,-0.7059289216995239,-0.0816495865583419,28.128173828125,96.78530883789062,-22.42071533203125
225471,0.108642578125,1.34814453125,-0.213653564453125,-0.0821414738893508,-0.7059289216995239,-0.0816495865583419,28.128173828125,96.78530883789062,-22.42071533203125
225472,0.1860198974609375,1.20758056640625,-0.3208465576171875,0.5533398985862732,-0.7433199286460876,0.0916835814714431,27.81031799316406,96.76463317871094,-21.59855651855469
225473,0.2124481201171875,1.110809326171875,-0.3904876708984375,0.5533398985862732,-0.7433199286460876,0.0916835814714431,27.72560119628906,96.68243408203124,-21.27442932128906
225474,0.21588134765625,1.052978515625,-0.4304656982421875,0.708626389503479,-0.7281053066253662,0.153357058763504,27.58375549316406,96.68215942382812,-21.23013305664062
225475,0.2099151611328125,1.034194946289062,-0.4425506591796875,0.7832167744636536,-0.6988105177879333,0.2050410360097885,27.5791015625,96.72299194335938,-21.25604248046875
225476,0.198638916015625,1.055404663085938,-0.4325103759765625,0.7651219367980957,-0.6632663607597351,0.2320287078619003,27.62973022460938,96.69166564941406,-21.22564697265625
225477,0.198638916015625,1.055404663085938,-0.4325103759765625,0.7651219367980957,-0.6632663607597351,0.2320287078619003,27.62973022460938,96.69166564941406,-21.22564697265625
225478,0.1599273681640625,1.181777954101562,-0.3641204833984375,0.6231299042701721,-0.6138564944267273,0.2916193306446075,27.79414367675781,96.38908386230467,-21.694580078125
225479,0.1599273681640625,1.181777954101562,-0.3641204833984375,0.6231299042701721,-0.6138564944267273,0.2916193306446075,27.79414367675781,96.38908386230467,-21.694580078125
225480,0.151123046875,1.217544555664062,-0.33135986328125,0.6134127974510193,-0.5550011396408081,0.3271182179450989,28.01382446289062,96.2370147705078,-21.73564147949219
225481,0.1443939208984375,1.25579833984375,-0.3165740966796875,0.6256617307662964,-0.4507101774215698,0.3733791708946228,28.145751953125,96.25575256347656,-22.03965759277344
225482,0.146453857421875,1.325759887695312,-0.2265777587890625,0.6457246541976929,-0.4097526371479034,0.3575669229030609,28.44857788085938,96.41290283203124,-22.45893859863281
225483,0.13690185546875,1.359786987304688,-0.17327880859375,0.6907512545585632,-0.5472044944763184,0.2736504673957825,28.62129211425781,96.37271118164062,-22.64305114746094
225484,0.1214447021484375,1.3887939453125,-0.11956787109375,0.7008619904518127,-0.6934629082679749,0.2206926941871643,28.86067199707031,96.18348693847656,-22.81764221191406
225485,0.1083221435546875,1.413833618164062,-0.07672119140625,0.7008619904518127,-0.6934629082679749,0.2206926941871643,29.07199096679688,96.17791748046876,-22.99613952636719
225486,0.09722900390625,1.433090209960938,-0.0418701171875,0.7379334568977356,-0.8045945167541504,0.1692555993795395,29.2803955078125,96.11256408691406,-23.20816040039062
225487,0.072113037109375,1.40118408203125,-0.0126800537109375,0.8297008872032166,-0.8757190108299255,0.1260721832513809,29.46334838867188,96.06643676757812,-23.39955139160156
225488,0.018951416015625,1.296707153320312,0.02001953125,0.9657692909240724,-0.9107555747032166,0.1150554791092873,29.56765747070312,96.05599975585938,-23.53077697753906
225489,-0.064605712890625,1.17340087890625,0.0435333251953125,1.094678997993469,-0.9883800148963928,0.1163215488195419,29.66067504882812,95.9868621826172,-23.76486206054688
225490,-0.1344757080078125,1.051513671875,0.095550537109375,1.131473541259766,-1.095890522003174,0.1149971559643745,29.75265502929688,95.79696655273438,-23.97293090820312
225491,-0.1344757080078125,1.051513671875,0.095550537109375,1.131473541259766,-1.095890522003174,0.1149971559643745,29.75265502929688,95.79696655273438,-23.97293090820312
225492,-0.2160186767578125,0.8475189208984375,0.1737823486328125,0.9165801405906676,-1.094022274017334,0.1011628359556198,29.84703063964844,95.38699340820312,-24.39288330078125
225493,-0.2362060546875,0.7631988525390625,0.1531829833984375,0.7685709595680237,-1.02767014503479,0.1035724654793739,29.90867614746094,95.30931091308594,-24.84172058105469
225494,-0.2668914794921875,0.7210693359375,0.1181793212890625,0.6625292301177979,-0.9305782318115234,0.0933483242988586,30.03688049316406,95.17088317871094,-24.91622924804688
225495,-0.293121337890625,0.7111358642578125,0.0847930908203125,0.6177377700805664,-0.7631293535232544,0.0566057562828064,29.99969482421875,95.08290100097656,-24.97996520996094
225496,-0.2932891845703125,0.7204742431640625,0.0361175537109375,0.6323571801185608,-0.5362229347229004,0.0117370830848813,29.98997497558594,94.93414306640624,-25.29730224609375
225497,-0.2932891845703125,0.7204742431640625,0.0361175537109375,0.6323571801185608,-0.5362229347229004,0.0117370830848813,29.98997497558594,94.93414306640624,-25.29730224609375
225498,-0.2384033203125,0.7373046875,-0.067718505859375,0.7860109210014343,-0.2887649536132812,-0.0718251913785934,29.909423828125,94.78059387207033,-25.55363464355469
225499,-0.1937255859375,0.6974639892578125,-0.06146240234375,0.8246006965637207,-0.2142835259437561,-0.0893330723047256,29.79949951171875,94.67889404296876,-25.75091552734375
225500,-0.1346588134765625,0.6750030517578125,-0.0354461669921875,0.7533829808235168,-0.1682931333780289,-0.0588340200483799,29.760498046875,94.49494934082033,-25.99732971191406
225501,-0.1346588134765625,0.6750030517578125,-0.0354461669921875,0.7533829808235168,-0.1682931333780289,-0.0588340200483799,29.760498046875,94.49494934082033,-25.99732971191406
225502,-0.035491943359375,0.6650848388671875,0.0736541748046875,0.3578486740589142,-0.184157058596611,0.039838757365942,29.58778381347656,94.34478759765624,-26.69938659667969
225503,-0.0050048828125,0.686492919921875,0.128631591796875,0.1504132002592087,-0.2390570491552353,0.080531857907772,29.56040954589844,94.41461181640624,-26.82632446289062
225504,0.02239990234375,0.7037353515625,0.1846771240234375,-0.0436803698539733,-0.2897466123104095,0.0915954336524009,29.49200439453125,94.35794067382812,-26.8956298828125
225505,0.0502166748046875,0.7171173095703125,0.2286376953125,-0.2492772042751312,-0.3429024815559387,0.0962333232164382,29.51518249511719,94.30003356933594,-26.97506713867188
225506,0.0596771240234375,0.74560546875,0.2744903564453125,-0.4370934367179871,-0.3571554720401764,0.0924204811453819,29.48313903808594,94.41595458984376,-26.78643798828125
225507,0.0596771240234375,0.74560546875,0.2744903564453125,-0.4370934367179871,-0.3571554720401764,0.0924204811453819,29.48313903808594,94.41595458984376,-26.78643798828125
225508,-0.01654052734375,0.871673583984375,0.2711334228515625,-0.6497948169708252,-0.1686792969703674,0.0998158082365989,29.469482421875,94.75230407714844,-26.24790954589844
225509,-0.03936767578125,0.930877685546875,0.180419921875,-0.6785116791725159,-0.115571603178978,0.1112482249736786,29.52412414550781,94.80369567871094,-25.95130920410156
225510,-0.048858642578125,0.9563446044921876,0.13470458984375,-0.6925771236419678,-0.1335713714361191,0.1188954934477806,29.47122192382812,94.95573425292967,-25.60655212402344
225511,-0.0455169677734375,0.9670867919921876,0.1735687255859375,-0.7039472460746765,-0.1395059674978256,0.122442290186882,29.56248474121094,95.1093292236328,-25.41400146484375
225512,-0.038665771484375,0.9646148681640624,0.23944091796875,-0.7177589535713196,-0.1260279715061188,0.1073373779654503,29.61872863769531,95.15594482421876,-25.20170593261719
225513,-0.038665771484375,0.9646148681640624,0.23944091796875,-0.7177589535713196,-0.1260279715061188,0.1073373779654503,29.61872863769531,95.15594482421876,-25.20170593261719
225514,-0.054443359375,0.9708099365234376,0.342620849609375,-0.8059862852096558,-0.1235818564891815,0.0295336581766605,29.63017272949219,95.3958740234375,-24.53950500488281
225515,-0.06787109375,0.995025634765625,0.351654052734375,-0.9137595891952516,-0.1169894710183144,-0.0418747439980506,29.56507873535156,95.61314392089844,-24.2279052734375
225516,-0.0795440673828125,1.028228759765625,0.3277587890625,-1.0635826587677,-0.1265614032745361,-0.1350475698709488,29.53720092773438,95.67001342773438,-23.7127685546875
225517,-0.0795440673828125,1.028228759765625,0.3277587890625,-1.0635826587677,-0.1265614032745361,-0.1350475698709488,29.53720092773438,95.67001342773438,-23.7127685546875
225518,-0.1165924072265625,1.105560302734375,0.202484130859375,-1.245445132255554,-0.2507467269897461,-0.3506088852882385,29.49496459960938,95.7774658203125,-22.7374267578125
225519,-0.1274261474609375,1.107315063476562,0.12744140625,-1.213695764541626,-0.2479629367589951,-0.4300626814365387,29.34214782714844,95.67916870117188,-22.12974548339844
225520,-0.1354217529296875,1.093414306640625,0.0052642822265625,-1.071200609207153,-0.2509131729602814,-0.4697587192058563,29.17573547363281,95.74142456054688,-21.5535888671875
225521,-0.1354217529296875,1.093414306640625,0.0052642822265625,-1.071200609207153,-0.2509131729602814,-0.4697587192058563,29.17573547363281,95.74142456054688,-21.5535888671875
225522,-0.1065521240234375,1.05914306640625,-0.1835479736328125,-0.5689835548400879,-0.1567294299602509,-0.4281257688999176,28.62399291992188,95.94143676757812,-20.53219604492188
225523,-0.085296630859375,1.039260864257812,-0.2052459716796875,-0.4128248393535614,-0.1197945773601532,-0.4069904088973999,28.40005493164062,95.86959838867188,-19.96864318847656
225524,-0.073028564453125,1.053573608398438,-0.21002197265625,-0.4063720107078552,-0.1148317754268646,-0.415841668844223,28.15895080566406,95.73348999023438,-19.47013854980469
225525,-0.0545196533203125,1.112442016601562,-0.223052978515625,-0.4815399944782257,-0.1469553560018539,-0.4168781936168671,27.98941040039062,95.69544982910156,-19.06086730957031
225526,-0.0383453369140625,1.196426391601562,-0.2573699951171875,-0.5146535038948059,-0.2605295777320862,-0.3926173150539398,27.7413330078125,95.68629455566406,-18.68135070800781
225527,-0.01470947265625,1.248703002929688,-0.2908477783203125,-0.4392367601394653,-0.3749339282512665,-0.3114756047725677,27.36897277832031,95.72430419921876,-18.35462951660156
225528,0.025665283203125,1.279586791992188,-0.3398284912109375,-0.2413684129714966,-0.4150973260402679,-0.1779175400733948,27.04026794433594,95.77896118164062,-18.3388671875
225529,0.0655975341796875,1.243194580078125,-0.41741943359375,0.0281528085470199,-0.3566425442695618,-0.0166913624852895,26.93757629394531,95.7701416015625,-18.03861999511719
225530,0.0839080810546875,1.181396484375,-0.486175537109375,0.2855856716632843,-0.2410315275192261,0.1379197835922241,26.84503173828125,95.80084228515624,-17.80715942382812
225531,0.101104736328125,1.124801635742188,-0.5363006591796875,0.4663722217082977,-0.1028717905282974,0.2802124917507172,26.84799194335938,95.6930694580078,-17.73471069335938
225532,0.11663818359375,1.101287841796875,-0.5604400634765625,0.5657704472541809,0.0074880099855363,0.3940293192863464,26.93620300292969,95.61634826660156,-17.74850463867188
225533,0.1063995361328125,1.126602172851562,-0.54815673828125,0.5996171236038208,0.0851143598556518,0.4367459118366241,27.03875732421875,95.7764129638672,-17.93707275390625
225534,0.089141845703125,1.158477783203125,-0.5007781982421875,0.5810796618461609,0.1186129301786423,0.40694460272789,27.1617431640625,95.8909912109375,-18.19412231445312
225535,0.0493011474609375,1.173629760742188,-0.4586334228515625,0.5744651556015015,0.160776361823082,0.3791843354701996,27.41746520996094,95.9809112548828,-18.50897216796875
225536,0.0300445556640625,1.170791625976562,-0.4297637939453125,0.5951858758926392,0.229831337928772,0.3703671395778656,27.63742065429688,95.93002319335938,-18.88604736328125
225537,0.0300445556640625,1.170791625976562,-0.4297637939453125,0.5951858758926392,0.229831337928772,0.3703671395778656,27.63742065429688,95.93002319335938,-18.88604736328125
225538,0.006683349609375,1.186141967773438,-0.32684326171875,0.6122655272483826,0.4028883278369904,0.3517268896102905,28.11827087402344,96.04176330566406,-19.40922546386719
225539,-0.00616455078125,1.186004638671875,-0.2721099853515625,0.5665832757949829,0.4524569511413574,0.3058065176010132,28.22174072265625,96.16748046875,-19.93951416015625
225540,-0.0267791748046875,1.169692993164062,-0.2449493408203125,0.4848130345344543,0.3816911578178406,0.2408693432807922,28.54554748535156,96.08323669433594,-20.19088745117188
225541,-0.0267791748046875,1.169692993164062,-0.2449493408203125,0.4848130345344543,0.3816911578178406,0.2408693432807922,28.54554748535156,96.08323669433594,-20.19088745117188
225542,-0.0523834228515625,1.129913330078125,-0.1837158203125,0.3879722356796265,0.2181453853845596,0.1728743016719818,28.79011535644531,96.03314208984376,-20.55534362792969
225543,-0.05059814453125,1.024002075195312,-0.0313568115234375,0.2457367926836014,0.0857013240456581,0.1515314728021622,29.15101623535156,96.13735961914062,-20.92341613769531
225544,-0.0312347412109375,1.025314331054688,0.0055084228515625,0.2204490154981613,0.0795808434486389,0.2282896339893341,29.25241088867188,96.1212158203125,-21.28999328613281
225545,-0.0312347412109375,1.025314331054688,0.0055084228515625,0.2204490154981613,0.0795808434486389,0.2282896339893341,29.25241088867188,96.1212158203125,-21.28999328613281
225546,0.0024871826171875,1.049163818359375,0.0392608642578125,0.3825596272945404,-0.0669500082731246,0.4426517188549042,29.52398681640625,96.0310516357422,-21.61262512207031
225547,0.0024871826171875,1.049163818359375,0.0392608642578125,0.3825596272945404,-0.0669500082731246,0.4426517188549042,29.52398681640625,96.0310516357422,-21.61262512207031
225548,0.0117034912109375,0.9803314208984376,0.0920867919921875,0.587427020072937,-0.2676961421966553,0.6037386059761047,29.92015075683594,96.17723083496094,-21.98591613769531
225549,0.0277557373046875,0.9185638427734376,0.1111297607421875,0.587427020072937,-0.2676961421966553,0.6037386059761047,30.17997741699219,96.15266418457033,-22.22520446777344
225550,0.041717529296875,0.85357666015625,0.1287078857421875,0.5339406132698059,-0.3104848861694336,0.5975680947303772,30.42460632324219,96.12628173828124,-22.43000793457031
225551,0.041717529296875,0.85357666015625,0.1287078857421875,0.5339406132698059,-0.3104848861694336,0.5975680947303772,30.42460632324219,96.12628173828124,-22.43000793457031
225552,0.0916595458984375,0.7752532958984375,0.151123046875,0.3386688530445099,-0.2741085290908813,0.5271834135055542,30.81668090820312,96.22718811035156,-22.85343933105469
225553,0.1260833740234375,0.76318359375,0.133026123046875,0.229552760720253,-0.2784446775913239,0.4852100908756256,31.02828979492188,96.2809600830078,-23.14088439941406
225554,0.1544189453125,0.7593841552734375,0.108795166015625,0.1488866806030273,-0.3119693398475647,0.4452728033065796,31.28010559082031,96.24758911132812,-23.10493469238281
225555,0.166595458984375,0.7759857177734375,0.07427978515625,0.096205897629261,-0.3471907079219818,0.3844603300094604,31.50138854980469,96.27713012695312,-23.08848571777344
225556,0.1686859130859375,0.7931976318359375,0.00689697265625,0.0758950337767601,-0.4103544950485229,0.3168072402477264,31.61953735351562,96.4075927734375,-23.26448059082031
225557,0.1686859130859375,0.7931976318359375,0.00689697265625,0.0758950337767601,-0.4103544950485229,0.3168072402477264,31.61953735351562,96.4075927734375,-23.26448059082031
225558,0.12078857421875,0.86181640625,0.002899169921875,0.0552273020148277,-0.4138016998767853,0.1487684398889542,31.87115478515625,96.23403930664062,-23.14082336425781
225559,0.040313720703125,0.91729736328125,0.0329742431640625,0.0173180028796196,-0.2628785073757172,0.0366578809916973,31.88238525390625,96.35289001464844,-23.20584106445312
225560,-0.0401611328125,0.96234130859375,0.0816802978515625,-0.047630101442337,-0.1878814846277237,-0.077769361436367,31.89620971679688,96.52523803710938,-23.09466552734375
225561,-0.0859375,0.986541748046875,0.1420440673828125,-0.125434622168541,-0.1766786277294159,-0.2044303715229034,31.90733337402344,96.60577392578124,-23.082275390625
225562,-0.121734619140625,1.003311157226562,0.197174072265625,-0.2100690752267838,-0.2001038044691086,-0.3085945844650269,31.90663146972656,96.46646118164062,-22.99591064453125
225563,-0.14031982421875,1.017013549804688,0.25421142578125,-0.2837097346782684,-0.2335008978843689,-0.3863793909549713,31.788330078125,96.4139404296875,-22.90611267089844
225564,-0.1541595458984375,1.009170532226562,0.3028411865234375,-0.31612229347229,-0.2909905612468719,-0.4336510300636292,31.65284729003906,96.48577880859376,-22.73280334472656
225565,-0.1541595458984375,1.009170532226562,0.3028411865234375,-0.31612229347229,-0.2909905612468719,-0.4336510300636292,31.65284729003906,96.48577880859376,-22.73280334472656
225566,-0.190704345703125,0.908660888671875,0.2828216552734375,-0.2874365746974945,-0.3413381576538086,-0.4284381568431854,31.33407592773438,96.56973266601562,-22.29191589355469
225567,-0.2070159912109375,0.8643951416015625,0.2664642333984375,-0.2928585112094879,-0.3638879358768463,-0.4284570813179016,31.07765197753906,96.59490966796876,-22.060546875
225568,-0.235382080078125,0.845062255859375,0.269775390625,-0.344077467918396,-0.2949911653995514,-0.4400306344032288,30.94041442871094,96.55607604980467,-22.02220153808594
225569,-0.235382080078125,0.845062255859375,0.269775390625,-0.344077467918396,-0.2949911653995514,-0.4400306344032288,30.94041442871094,96.55607604980467,-22.02220153808594
225570,-0.3186492919921875,0.83349609375,0.2368316650390625,-0.5370751619338989,-0.1613774448633194,-0.4575494527816772,30.55734252929688,96.53587341308594,-21.60353088378906
225571,-0.3186492919921875,0.83349609375,0.2368316650390625,-0.5370751619338989,-0.1613774448633194,-0.4575494527816772,30.55734252929688,96.53587341308594,-21.60353088378906
225572,-0.338134765625,0.818328857421875,0.2294769287109375,-0.6593696475028992,-0.2049116045236588,-0.4549653828144073,30.39332580566406,96.41700744628906,-21.25660705566406
225573,-0.338531494140625,0.804901123046875,0.2462310791015625,-0.9543733596801758,-0.3985537588596344,-0.443408340215683,30.18557739257812,96.6609344482422,-21.0479736328125
225574,-0.27142333984375,0.8416290283203125,0.2900390625,-1.113929986953735,-0.4629503488540649,-0.4594032764434814,29.92385864257812,96.41360473632812,-20.02389526367188
225575,-0.23284912109375,0.878082275390625,0.2853851318359375,-1.260539889335632,-0.4973248243331909,-0.4730791449546814,29.61961364746094,96.52873229980467,-19.57345581054688
225576,-0.18756103515625,0.9194793701171876,0.245758056640625,-1.380389094352722,-0.553577721118927,-0.4880383908748627,29.28729248046875,96.64413452148438,-19.29385375976562
225577,-0.18756103515625,0.9194793701171876,0.245758056640625,-1.380389094352722,-0.553577721118927,-0.4880383908748627,29.28729248046875,96.64413452148438,-19.29385375976562
225578,-0.077789306640625,1.0174560546875,0.1206207275390625,-1.422189474105835,-0.6019609570503235,-0.4928592443466187,28.72444152832031,96.6181640625,-17.78872680664062
225579,-0.0293426513671875,1.074203491210938,0.003387451171875,-1.076022267341614,-0.5800580382347107,-0.4325982928276062,28.51156616210938,96.55258178710938,-17.06427001953125
225580,-0.0009765625,1.107421875,-0.0937347412109375,-0.8138558864593506,-0.5594497323036194,-0.368695467710495,28.09953308105469,96.38693237304688,-16.2940673828125
225581,-0.0009765625,1.107421875,-0.0937347412109375,-0.8138558864593506,-0.5594497323036194,-0.368695467710495,28.09953308105469,96.38693237304688,-16.2940673828125
225582,0.0452423095703125,1.151153564453125,-0.1686859130859375,-0.6050440669059753,-0.5538613200187683,-0.3233271837234497,27.56057739257812,96.37844848632812,-14.6661376953125
225583,0.0452423095703125,1.151153564453125,-0.1686859130859375,-0.6050440669059753,-0.5538613200187683,-0.3233271837234497,27.56057739257812,96.37844848632812,-14.6661376953125
225584,0.1055145263671875,1.286163330078125,-0.238037109375,-0.3709437251091003,-0.6792645454406738,-0.2440664619207382,27.15115356445312,96.38728332519533,-13.49050903320312
225585,0.14935302734375,1.317306518554688,-0.2804107666015625,-0.1979122757911682,-0.8142122030258179,-0.1994981914758682,26.99778747558594,96.45147705078124,-13.05026245117188
225586,0.1826171875,1.282516479492188,-0.2772216796875,0.0463563129305839,-0.8732209801673889,-0.1712303310632706,26.80047607421875,96.4340362548828,-12.78083801269531
225587,0.1921844482421875,1.234390258789062,-0.298919677734375,0.2758353054523468,-0.9111899137496948,-0.128214955329895,26.60713195800781,96.4901885986328,-12.66639709472656
225588,0.1807403564453125,1.177215576171875,-0.3692779541015625,0.4654563665390015,-0.9425939321517944,-0.1019327566027641,26.44853210449219,96.44447326660156,-12.31999206542969
225589,0.1795501708984375,1.075836181640625,-0.4495391845703125,0.6179484724998474,-0.970946192741394,-0.0633566007018089,26.40704345703125,96.37005615234376,-12.27047729492188
225590,0.1736602783203125,1.0123291015625,-0.5014801025390625,0.8179987072944641,-0.9115371704101562,0.0155576542019844,26.43197631835938,96.28932189941406,-12.09712219238281
225591,0.1736602783203125,1.0123291015625,-0.5014801025390625,0.8179987072944641,-0.9115371704101562,0.0155576542019844,26.43197631835938,96.28932189941406,-12.09712219238281
225592,0.1581268310546875,1.026382446289062,-0.4768829345703125,0.8547530174255371,-0.7853496670722961,0.0608106181025505,26.49029541015625,96.24972534179688,-11.982177734375
225593,0.15618896484375,1.078369140625,-0.4217376708984375,0.8547530174255371,-0.7853496670722961,0.0608106181025505,26.58810424804688,96.18800354003906,-12.1922607421875
225594,0.1518707275390625,1.127288818359375,-0.3751373291015625,0.8376496434211731,-0.7317911386489868,0.091609813272953,26.64137268066406,96.00917053222656,-12.34666442871094
225595,0.145050048828125,1.168121337890625,-0.3370819091796875,0.8117640018463135,-0.6891096830368042,0.1248551160097122,26.74504089355469,96.10635375976562,-12.70768737792969
225596,0.1363677978515625,1.203384399414062,-0.3004913330078125,0.7244546413421631,-0.6941449642181396,0.1668683439493179,26.99433898925781,96.1088409423828,-12.96762084960938
225597,0.11798095703125,1.244155883789062,-0.24237060546875,0.7244546413421631,-0.6941449642181396,0.1668683439493179,27.17414855957031,95.987060546875,-13.13838195800781
225598,0.104461669921875,1.28564453125,-0.143951416015625,0.6448966860771179,-0.6951971650123596,0.1713123619556427,27.26612854003906,96.1212158203125,-13.41244506835938
225599,0.0970916748046875,1.329849243164062,-0.0479888916015625,0.5640338063240051,-0.6627652049064636,0.1565017253160477,27.43023681640625,96.1064453125,-13.59794616699219
225600,0.0819549560546875,1.394866943359375,0.0221405029296875,0.494670182466507,-0.6878204941749573,0.1340986788272858,27.61161804199219,96.1591796875,-13.69737243652344
225601,0.0819549560546875,1.394866943359375,0.0221405029296875,0.494670182466507,-0.6878204941749573,0.1340986788272858,27.61161804199219,96.1591796875,-13.69737243652344
225602,0.020538330078125,1.53472900390625,0.2049102783203125,0.4770786762237549,-0.7979392409324646,0.1293872892856598,27.955078125,96.05001831054688,-13.94154357910156
225603,-0.007965087890625,1.564666748046875,0.2460784912109375,0.5603985786437988,-0.8354437351226807,0.1244753524661064,28.13412475585938,96.01031494140624,-13.99458312988281
225604,-0.039337158203125,1.478713989257812,0.251800537109375,0.7049307227134705,-0.9463335275650024,0.1462094038724899,28.35591125488281,96.08863830566406,-14.05610656738281
225605,-0.039337158203125,1.478713989257812,0.251800537109375,0.7049307227134705,-0.9463335275650024,0.1462094038724899,28.35591125488281,96.08863830566406,-14.05610656738281
225606,-0.0595855712890625,1.142379760742188,0.250213623046875,0.966391921043396,-1.214843273162842,0.1643700301647186,28.66389465332031,95.76071166992188,-13.99284362792969
225607,-0.065460205078125,0.9635162353515624,0.2499542236328125,0.9520941972732544,-1.259764194488525,0.1605356186628342,28.85147094726562,95.75140380859376,-14.12576293945312
225608,-0.065460205078125,0.9635162353515624,0.2499542236328125,0.9520941972732544,-1.259764194488525,0.1605356186628342,28.85147094726562,95.75140380859376,-14.12576293945312
225609,-0.0732574462890625,0.7310638427734375,0.1894378662109375,0.6670001149177551,-1.247434020042419,0.1147398948669434,29.19781494140625,95.81253051757812,-14.68630981445312
225610,-0.0572662353515625,0.6811370849609375,0.1218719482421875,0.5167688131332397,-1.267702221870422,0.096808835864067,29.26705932617188,95.7869110107422,-14.75999450683594
225611,-0.038787841796875,0.66851806640625,0.04364013671875,0.4665719568729401,-1.273741245269775,0.0944026708602905,29.45755004882812,95.67221069335938,-14.689453125
225612,-0.029937744140625,0.7131500244140625,-0.010284423828125,0.537216067314148,-1.2005455493927,0.0428057871758937,29.54592895507812,95.5740203857422,-14.62931823730469
225613,-0.029937744140625,0.7131500244140625,-0.010284423828125,0.537216067314148,-1.2005455493927,0.0428057871758937,29.54592895507812,95.5740203857422,-14.62931823730469
225614,-0.0672149658203125,0.7115631103515625,-0.07293701171875,0.8402001261711121,-1.030008435249329,-0.0438257791101932,29.802978515625,95.51568603515624,-14.3314208984375
225615,-0.0626220703125,0.672943115234375,-0.03857421875,0.8832591772079468,-1.051677465438843,-0.0914625376462936,29.82527160644531,95.5117645263672,-14.30581665039062
225616,-0.0678558349609375,0.6116180419921875,0.017974853515625,0.8176208138465881,-1.002317667007446,-0.1344041526317596,29.90771484375,95.4214324951172,-14.34796142578125
225617,-0.0678558349609375,0.6116180419921875,0.017974853515625,0.8176208138465881,-1.002317667007446,-0.1344041526317596,29.90771484375,95.4214324951172,-14.34796142578125
225618,-0.10772705078125,0.5618438720703125,0.0826873779296875,0.5108941793441772,-0.752627432346344,-0.1492795050144196,29.9425048828125,95.4038543701172,-14.82801818847656
225619,-0.139739990234375,0.5705108642578125,0.0948944091796875,0.3361758887767792,-0.644960880279541,-0.1202252134680748,29.89996337890625,95.3798370361328,-15.01136779785156
225620,-0.1626434326171875,0.5933074951171875,0.1144866943359375,0.1418314427137375,-0.5526413321495056,-0.0769951790571212,29.86599731445312,95.38206481933594,-15.15480041503906
225621,-0.1626434326171875,0.5933074951171875,0.1144866943359375,0.1418314427137375,-0.5526413321495056,-0.0769951790571212,29.86599731445312,95.38206481933594,-15.15480041503906
225622,-0.1676177978515625,0.7588653564453125,0.2404327392578125,-0.4153343439102173,-0.121835358440876,0.1333181113004684,29.71064758300781,95.47915649414062,-15.1153564453125
225623,-0.1676177978515625,0.7588653564453125,0.2404327392578125,-0.4153343439102173,-0.121835358440876,0.1333181113004684,29.71064758300781,95.47915649414062,-15.1153564453125
225624,-0.1507568359375,0.9483184814453124,0.378936767578125,-0.4837594926357269,0.0122095281258225,0.1902200132608414,29.673095703125,95.64982604980467,-14.8668212890625
225625,-0.140960693359375,1.000381469726562,0.394012451171875,-0.4539962708950043,0.0702624469995498,0.2400576025247574,29.72900390625,95.68853759765624,-14.56948852539062
225626,-0.126800537109375,1.019699096679688,0.4189605712890625,-0.4539962708950043,0.0702624469995498,0.2400576025247574,29.81625366210938,95.705810546875,-14.27479553222656
225627,-0.0915069580078125,1.052017211914062,0.4665374755859375,-0.4515749216079712,0.1048225536942482,0.2437902987003326,29.84989929199219,95.78292846679688,-14.02574157714844
225628,-0.05230712890625,1.089828491210938,0.4978485107421875,-0.4560714066028595,0.1496307700872421,0.2214056253433228,29.89390563964844,95.91349792480467,-14.16746520996094
225629,-0.05230712890625,1.089828491210938,0.4978485107421875,-0.4560714066028595,0.1496307700872421,0.2214056253433228,29.89390563964844,95.91349792480467,-14.16746520996094
225630,-0.0532684326171875,1.04388427734375,0.501220703125,-0.5788795948028564,0.0557082705199718,0.0850307345390319,29.93911743164062,96.06211853027344,-14.0714111328125
225631,-0.0777435302734375,1.02093505859375,0.5028228759765625,-0.7726320028305054,-0.0541796162724494,-0.0027928571216762,29.91590881347656,96.19757080078124,-13.89985656738281
225632,-0.072265625,1.040634155273438,0.485626220703125,-1.021758794784546,-0.1941151469945908,-0.0974410697817802,30.07560729980469,96.3833465576172,-13.71025085449219
225633,-0.072265625,1.040634155273438,0.485626220703125,-1.021758794784546,-0.1941151469945908,-0.0974410697817802,30.07560729980469,96.3833465576172,-13.71025085449219
225634,-0.0521392822265625,1.139968872070312,0.3544464111328125,-1.369127154350281,-0.4581936597824097,-0.304286390542984,29.99636840820312,96.3488311767578,-12.95465087890625
225635,-0.0521392822265625,1.139968872070312,0.3544464111328125,-1.369127154350281,-0.4581936597824097,-0.304286390542984,29.99636840820312,96.3488311767578,-12.95465087890625
225636,-0.0443572998046875,1.2835693359375,0.030303955078125,-1.142362952232361,-0.0724241361021995,-0.3967521488666534,29.76803588867188,96.1876983642578,-11.73995971679688
225637,-0.0443572998046875,1.2835693359375,0.030303955078125,-1.142362952232361,-0.0724241361021995,-0.3967521488666534,29.76803588867188,96.1876983642578,-11.73995971679688
225638,-0.1649322509765625,1.102996826171875,-0.24188232421875,-0.2949362993240356,-0.1213080510497093,-0.317586213350296,29.3778076171875,95.96600341796876,-10.21916198730469
225639,-0.1681976318359375,1.053756713867188,-0.0904541015625,-0.1848343014717102,-0.0519454888999462,-0.2302121669054031,29.15754699707031,95.88818359375,-9.684234619140623
225640,-0.1644134521484375,1.108078002929688,-0.1017913818359375,-0.271227240562439,0.036292228847742,-0.1672116219997406,28.95895385742188,95.92831420898438,-9.465591430664062
225641,-0.17059326171875,1.210189819335938,-0.1887359619140625,-0.3621904253959656,0.0381338037550449,-0.1189761906862259,28.69345092773438,96.00912475585938,-9.3006591796875
225642,-0.1858978271484375,1.30401611328125,-0.260955810546875,-0.3381759226322174,0.0118982046842575,-0.0368613451719284,28.52268981933594,96.06419372558594,-9.127685546875
225643,-0.17657470703125,1.343994140625,-0.287109375,-0.2016297876834869,0.0331204012036323,0.0495129562914371,28.37294006347656,96.0413818359375,-8.956008911132812
225644,-0.135162353515625,1.283447265625,-0.2980194091796875,-0.0036312201991677,0.1225352361798286,0.0768279358744621,28.28854370117188,96.02655029296876,-8.86187744140625
225645,-0.135162353515625,1.283447265625,-0.2980194091796875,-0.0036312201991677,0.1225352361798286,0.0768279358744621,28.28854370117188,96.02655029296876,-8.86187744140625
225646,0.064361572265625,0.946563720703125,-0.386199951171875,0.3059199750423431,0.2502913475036621,0.1287441253662109,28.07781982421875,96.07373046875,-8.7469482421875
225647,0.064361572265625,0.946563720703125,-0.386199951171875,0.3059199750423431,0.2502913475036621,0.1287441253662109,28.07781982421875,96.07373046875,-8.7469482421875
225648,0.235931396484375,0.8758544921875,-0.457000732421875,0.4667621254920959,0.0823137834668159,0.2096384465694427,28.12396240234375,96.01632690429688,-8.901123046875
225649,0.3013458251953125,0.8807373046875,-0.43585205078125,0.5260395407676697,-0.0128175280988216,0.2175472378730774,28.12576293945312,95.967529296875,-9.082717895507812
225650,0.3441925048828125,0.9236602783203124,-0.4127655029296875,0.5560978651046753,-0.0889269411563873,0.2030961215496063,28.27578735351562,96.01272583007812,-9.253265380859377
225651,0.3711090087890625,0.989044189453125,-0.3876953125,0.5484032034873962,-0.2011272460222244,0.1733526140451431,28.30714416503906,96.09767150878906,-9.49371337890625
225652,0.3751678466796875,1.055450439453125,-0.3283843994140625,0.4949865639209747,-0.3236100077629089,0.1444059163331985,28.455322265625,96.21929931640624,-9.684524536132812
225653,0.3751678466796875,1.055450439453125,-0.3283843994140625,0.4949865639209747,-0.3236100077629089,0.1444059163331985,28.455322265625,96.21929931640624,-9.684524536132812
225654,0.2566375732421875,1.155563354492188,-0.157989501953125,0.3554995059967041,-0.4247014820575714,0.1286919265985489,28.62858581542969,96.35945129394533,-10.06341552734375
225655,0.119842529296875,1.203506469726562,-0.122711181640625,0.3263868987560272,-0.4154800176620483,0.1311220675706863,28.72734069824219,96.52619934082033,-10.10427856445312
225656,-0.0200042724609375,1.248764038085938,-0.088348388671875,0.3253439962863922,-0.3960520029067993,0.1102942824363708,28.82827758789062,96.67030334472656,-10.19548034667969
225657,-0.1378326416015625,1.275772094726562,-0.013702392578125,0.3386435806751251,-0.3354097008705139,0.0730654224753379,28.91091918945312,96.64520263671876,-10.25666809082031
225658,-0.224365234375,1.276046752929688,0.04949951171875,0.3256731629371643,-0.2102861255407333,0.0199998077005147,29.07090759277344,96.75320434570312,-10.45474243164062
225659,-0.2707061767578125,1.253204345703125,0.02093505859375,0.2923780679702759,-0.114727646112442,-0.0287104733288288,29.23065185546875,96.8422393798828,-10.49154663085938
225660,-0.2679290771484375,1.195541381835938,-0.0625762939453125,0.2705950140953064,-0.1460450887680054,-0.0276707764714956,29.41572570800781,96.87345886230467,-10.57643127441406
225661,-0.2679290771484375,1.195541381835938,-0.0625762939453125,0.2705950140953064,-0.1460450887680054,-0.0276707764714956,29.41572570800781,96.87345886230467,-10.57643127441406
225662,-0.12811279296875,1.010910034179688,-0.0801544189453125,0.3448252975940704,-0.4832982122898102,0.079741433262825,29.50340270996094,97.00862121582033,-10.8909912109375
225663,-0.12811279296875,1.010910034179688,-0.0801544189453125,0.3448252975940704,-0.4832982122898102,0.079741433262825,29.50340270996094,97.00862121582033,-10.8909912109375
225664,-0.047698974609375,0.9124908447265624,-0.03460693359375,0.3871027231216431,-0.5738763213157654,0.173323318362236,29.72525024414062,96.77378845214844,-10.97891235351562
225665,0.06939697265625,0.78253173828125,0.042938232421875,0.3172365427017212,-0.7611604332923889,0.404780775308609,29.94679260253906,96.82479858398438,-11.12086486816406
225666,0.0975341796875,0.7527923583984375,0.118133544921875,0.2024551033973694,-0.8208528161048889,0.4867174625396729,30.25758361816406,96.91804504394533,-11.0557861328125
225667,0.11993408203125,0.732666015625,0.1937255859375,0.0777057111263275,-0.7728267312049866,0.5310015678405762,30.46986389160156,96.82669067382812,-11.02203369140625
225668,0.1363983154296875,0.7131195068359375,0.218902587890625,-0.025912556797266,-0.6517223715782166,0.5472601652145386,30.65769958496094,96.83438110351562,-10.8431396484375
225669,0.1363983154296875,0.7131195068359375,0.218902587890625,-0.025912556797266,-0.6517223715782166,0.5472601652145386,30.65769958496094,96.83438110351562,-10.8431396484375
225670,0.1386871337890625,0.7560882568359375,0.145416259765625,-0.1586985737085342,-0.4550133049488068,0.5347678065299988,31.30853271484375,96.80201721191406,-10.32334899902344
225671,0.1386871337890625,0.7560882568359375,0.145416259765625,-0.1586985737085342,-0.4550133049488068,0.5347678065299988,31.30853271484375,96.80201721191406,-10.32334899902344
225672,0.0932464599609375,0.9451141357421876,0.094451904296875,-0.1068268492817879,-0.2620015144348145,0.4929665625095367,31.78022766113281,97.0400390625,-10.35873413085938
225673,0.10552978515625,0.976776123046875,0.0437469482421875,-0.0440934263169765,-0.189161404967308,0.4689925312995911,32.0050048828125,97.01913452148438,-10.18692016601562
225674,0.12371826171875,0.9598846435546876,0.0192718505859375,0.05963696539402,-0.1492667198181152,0.4517408311367035,32.23170471191406,97.07545471191406,-10.11613464355469
225675,0.12371826171875,0.9598846435546876,0.0192718505859375,0.05963696539402,-0.1492667198181152,0.4517408311367035,32.23170471191406,97.07545471191406,-10.11613464355469
225676,0.1277313232421875,0.93328857421875,0.01458740234375,0.157301738858223,-0.1101744398474693,0.4406703412532806,32.46516418457031,97.202880859375,-9.97113037109375
225677,0.0597686767578125,0.9481658935546876,0.03399658203125,0.200992226600647,-0.0630143880844116,0.3206981122493744,32.87879943847656,97.46656799316406,-10.06352233886719
225678,0.012847900390625,0.9694976806640624,0.0459747314453125,0.1812779158353806,-0.0715335682034492,0.1979847252368927,33.04225158691406,97.5340576171875,-10.08139038085938
225679,-0.03692626953125,0.9882965087890624,0.0504913330078125,0.1502805799245834,-0.0808349251747131,0.0503297485411167,33.16450500488281,97.59884643554688,-10.1710205078125
225680,-0.09307861328125,1.014328002929688,0.07568359375,0.0960769951343536,-0.1058989986777306,-0.083849623799324,33.33345031738281,97.6276397705078,-10.27859497070312
225681,-0.09307861328125,1.014328002929688,0.07568359375,0.0960769951343536,-0.1058989986777306,-0.083849623799324,33.33345031738281,97.6276397705078,-10.27859497070312
225682,-0.17724609375,1.0396728515625,0.1923065185546875,-0.037735927850008,-0.2350460737943649,-0.2322207242250443,33.39918518066406,97.61923217773438,-10.32499694824219
225683,-0.1981658935546875,1.052230834960938,0.259490966796875,-0.1078114211559296,-0.2919652760028839,-0.2321615964174271,33.33554077148438,97.60643005371094,-10.27041625976562
225684,-0.219085693359375,1.045883178710938,0.3051910400390625,-0.1692287027835846,-0.2895106375217438,-0.208572655916214,33.16703796386719,97.6584014892578,-10.1973876953125
225685,-0.219085693359375,1.045883178710938,0.3051910400390625,-0.1692287027835846,-0.2895106375217438,-0.208572655916214,33.16703796386719,97.6584014892578,-10.1973876953125
225686,-0.26336669921875,1.0084228515625,0.310028076171875,-0.176315650343895,-0.257183849811554,-0.0803166776895523,33.19532775878906,97.41285705566406,-10.06539916992188
