time_idx,accelerometerAccelerationX(G),accelerometerAccelerationY(G),accelerometerAccelerationZ(G),gyroRotationX(rad/s),gyroRotationY(rad/s),gyroRotationZ(rad/s),magnetometerX(µT),magnetometerY(µT),magnetometerZ(µT)
220000,-0.298004150390625,0.903289794921875,0.23052978515625,-0.1828073710203171,0.1203594356775284,-0.3941944539546967,55.46051025390625,96.23428344726562,-40.2120361328125
220001,-0.3031463623046875,0.810333251953125,0.2285614013671875,-0.3322615623474121,0.0650828629732132,-0.4524545669555664,55.23086547851562,96.29866027832033,-40.08509826660156
220002,-0.2953033447265625,0.7764892578125,0.2198333740234375,-0.3765179812908173,0.0490647479891777,-0.4363642632961273,55.21391296386719,96.4950714111328,-39.97677612304688
220003,-0.2739715576171875,0.776397705078125,0.21612548828125,-0.456413596868515,0.1153329834342003,-0.4226830899715424,55.02496337890625,96.4754638671875,-39.77005004882812
220004,-0.253509521484375,0.8001708984375,0.2237091064453125,-0.456413596868515,0.1153329834342003,-0.4226830899715424,54.84461975097656,96.6785125732422,-39.58296203613281
220005,-0.2490234375,0.818817138671875,0.22802734375,-0.5046493411064148,0.1833282858133316,-0.4406631290912628,54.74180603027344,96.77333068847656,-39.53195190429688
220006,-0.2559967041015625,0.8220367431640625,0.2373809814453125,-0.559711754322052,0.2354668527841568,-0.4483074843883514,54.54702758789062,96.85173034667967,-39.33006286621094
220007,-0.264434814453125,0.83319091796875,0.2411651611328125,-0.7480491995811462,0.1860183328390121,-0.4585598409175873,54.40632629394531,96.99769592285156,-39.11088562011719
220008,-0.2654571533203125,0.851470947265625,0.21270751953125,-0.7480491995811462,0.1860183328390121,-0.4585598409175873,54.34616088867188,97.27212524414062,-38.89469909667969
220009,-0.26129150390625,0.873199462890625,0.152679443359375,-0.861344575881958,0.0097005637362599,-0.474572092294693,54.10081481933594,97.33995056152344,-38.69898986816406
220010,-0.26129150390625,0.873199462890625,0.152679443359375,-0.861344575881958,0.0097005637362599,-0.474572092294693,54.10081481933594,97.33995056152344,-38.69898986816406
220011,-0.193267822265625,0.8950958251953125,0.089691162109375,-1.056241393089294,-0.3823492228984833,-0.4306107759475708,53.37747192382812,98.10171508789062,-37.70603942871094
220012,-0.1278076171875,0.89385986328125,0.0893096923828125,-1.122384667396545,-0.4931481778621674,-0.3917137086391449,52.99154663085938,98.41363525390624,-37.19064331054688
220013,-0.0540924072265625,0.909027099609375,0.1142425537109375,-1.155805230140686,-0.5120601058006287,-0.3623363673686981,52.63020324707031,98.77688598632812,-36.69790649414062
220014,-0.0540924072265625,0.909027099609375,0.1142425537109375,-1.155805230140686,-0.5120601058006287,-0.3623363673686981,52.63020324707031,98.77688598632812,-36.69790649414062
220015,-0.00177001953125,0.9592437744140624,0.11676025390625,-1.151281833648682,-0.3950852751731873,-0.3665188848972321,52.2335205078125,99.05070495605467,-36.25642395019531
220016,0.05194091796875,1.172164916992188,-0.0650482177734375,-0.9700143337249756,-0.1130261570215225,-0.4153516590595245,51.55557250976562,99.646484375,-35.02142333984375
220017,0.06829833984375,1.251602172851562,-0.1808013916015625,-0.8334133625030518,-0.1358529031276703,-0.4550151824951172,51.21023559570312,99.80868530273438,-34.39146423339844
220018,0.0875244140625,1.325653076171875,-0.2278289794921875,-0.6774658560752869,-0.1998771578073502,-0.4275870323181152,50.89453125,100.0796051025391,-33.84991455078125
220019,0.0860595703125,1.432220458984375,-0.26885986328125,-0.5142974257469177,-0.2294941693544388,-0.3391082882881165,50.45501708984375,100.4667205810547,-33.50367736816406
220020,0.1063232421875,1.50146484375,-0.2863922119140625,-0.320205956697464,-0.2742206454277039,-0.2820433974266052,50.07389831542969,100.6201324462891,-33.03031921386719
220021,0.1497955322265625,1.485336303710938,-0.3115386962890625,-0.0861332863569259,-0.3375615179538727,-0.2299133539199829,49.77232360839844,100.6779937744141,-32.70477294921875
220022,0.19427490234375,1.390365600585938,-0.3651275634765625,0.1971141397953033,-0.4018923044204712,-0.1540737152099609,49.58758544921875,100.5965881347656,-32.58369445800781
220023,0.2581787109375,1.254409790039062,-0.4317169189453125,0.4949735105037689,-0.4870623350143433,-0.0575141608715057,49.42576599121094,100.5445098876953,-32.50306701660156
220024,0.2581787109375,1.254409790039062,-0.4317169189453125,0.4949735105037689,-0.4870623350143433,-0.0575141608715057,49.42576599121094,100.5445098876953,-32.50306701660156
220025,0.287750244140625,1.098358154296875,-0.562347412109375,0.9845911264419556,-0.6066398620605469,0.1058087199926376,49.26484680175781,100.3077545166016,-32.74075317382812
220026,0.287750244140625,1.098358154296875,-0.562347412109375,0.9845911264419556,-0.6066398620605469,0.1058087199926376,49.26484680175781,100.3077545166016,-32.74075317382812
220027,0.2166900634765625,1.063323974609375,-0.5815582275390625,1.014383435249329,-0.5191254615783691,0.1467708051204681,49.3116455078125,99.8963623046875,-33.51828002929688
220028,0.1887664794921875,1.081146240234375,-0.5687103271484375,0.9162951707839966,-0.4616499245166779,0.1470759958028793,49.37779235839844,99.66737365722656,-33.86404418945312
220029,0.1844635009765625,1.113601684570312,-0.5330657958984375,0.8434545397758484,-0.3992195725440979,0.1751827299594879,49.37138366699219,99.27406311035156,-34.2713623046875
220030,0.1922149658203125,1.139480590820312,-0.4754180908203125,0.8272148370742798,-0.3464538156986237,0.2177789360284805,49.43386840820312,99.01889038085938,-34.82850646972656
220031,0.1999359130859375,1.158157348632812,-0.399810791015625,0.8059138059616089,-0.3168424069881439,0.2611130774021149,49.5447998046875,98.83615112304688,-35.55110168457031
220032,0.1934967041015625,1.191253662109375,-0.3202972412109375,0.7573391199111938,-0.3071479499340057,0.30100217461586,49.62594604492188,98.86871337890624,-35.967041015625
220033,0.1769561767578125,1.246475219726562,-0.239349365234375,0.6709024906158447,-0.353412389755249,0.2915181219577789,49.66810607910156,98.77195739746094,-36.36898803710938
220034,0.1769561767578125,1.246475219726562,-0.239349365234375,0.6709024906158447,-0.353412389755249,0.2915181219577789,49.66810607910156,98.77195739746094,-36.36898803710938
220035,0.11444091796875,1.375152587890625,-0.045196533203125,0.3531236946582794,-0.7331562638282776,0.1217221766710281,49.98991394042969,98.45045471191406,-36.97817993164062
220036,0.0761871337890625,1.462509155273438,0.0395355224609375,0.3531236946582794,-0.7331562638282776,0.1217221766710281,50.09672546386719,98.25935363769533,-37.24169921875
220037,0.0353240966796875,1.543014526367188,0.0972747802734375,0.3610857725143433,-0.7923982739448547,0.0085061360150575,50.09730529785156,98.3078155517578,-37.61842346191406
220038,-0.0108642578125,1.598617553710938,0.115631103515625,0.4906701147556305,-0.8199161887168884,-0.109880693256855,49.94644165039062,98.0584716796875,-37.7796630859375
220039,-0.0500030517578125,1.593109130859375,0.0892791748046875,0.7030841112136841,-0.862387478351593,-0.2308710366487503,49.87232971191406,98.0553741455078,-38.13636779785156
220040,-0.0749664306640625,1.516952514648438,0.0614166259765625,0.9341253042221068,-0.9493409991264344,-0.3312666118144989,49.74412536621094,98.0260772705078,-38.31324768066406
220041,-0.1057586669921875,1.34417724609375,0.045623779296875,1.164827227592468,-1.057364463806152,-0.3524424731731415,49.45643615722656,97.79934692382812,-38.54985046386719
220042,-0.1452178955078125,1.168701171875,0.0481414794921875,1.34770679473877,-1.185855865478516,-0.2801246047019958,49.25299072265625,97.44834899902344,-39.05508422851562
220043,-0.1525726318359375,1.036026000976562,0.0589752197265625,1.425035357475281,-1.308836817741394,-0.1743385195732117,48.90985107421875,97.17605590820312,-39.539794921875
220044,-0.1492919921875,0.9055938720703124,0.0923919677734375,1.349675059318542,-1.43337619304657,-0.0837630704045295,48.76353454589844,96.68038940429688,-40.18095397949219
220045,-0.152252197265625,0.7998199462890625,0.1342926025390625,1.244055986404419,-1.524294018745422,-0.0099370526149868,48.45477294921875,96.33026123046876,-40.70309448242188
220046,-0.152252197265625,0.7998199462890625,0.1342926025390625,1.244055986404419,-1.524294018745422,-0.0099370526149868,48.45477294921875,96.33026123046876,-40.70309448242188
220047,-0.171142578125,0.6225128173828125,0.16571044921875,1.021299362182617,-1.552182674407959,0.0994208604097366,47.96762084960938,95.46861267089844,-41.63121032714844
220048,-0.19110107421875,0.544586181640625,0.1323394775390625,0.9236063361167908,-1.509886145591736,0.1024749726057053,47.78146362304688,95.19737243652344,-42.11369323730469
220049,-0.21527099609375,0.4658966064453125,0.113311767578125,0.8752415180206299,-1.375656127929688,0.0843678787350654,47.56929016113281,94.80999755859376,-42.60261535644531
220050,-0.2366943359375,0.407318115234375,0.0792388916015625,0.8936433792114258,-1.1071697473526,0.0481595396995544,47.32984924316406,94.52406311035156,-42.92124938964844
220051,-0.2782440185546875,0.3984375,0.0416412353515625,0.92388254404068,-0.5084214210510254,-0.0685694739222526,47.16862487792969,94.27825927734376,-43.33488464355469
220052,-0.2782440185546875,0.3984375,0.0416412353515625,0.92388254404068,-0.5084214210510254,-0.0685694739222526,47.16862487792969,94.27825927734376,-43.33488464355469
220053,-0.3640594482421875,0.414306640625,0.035858154296875,0.8648279905319214,-0.355835348367691,-0.1009114310145378,46.75837707519531,93.65744018554688,-43.81887817382812
220054,-0.3640594482421875,0.414306640625,0.035858154296875,0.8648279905319214,-0.355835348367691,-0.1009114310145378,46.75837707519531,93.65744018554688,-43.81887817382812
220055,-0.332733154296875,0.41455078125,0.0944976806640625,0.7278528213500977,-0.2698061764240265,-0.0938793569803237,46.56277465820312,93.373779296875,-43.99880981445312
220056,-0.20477294921875,0.620361328125,0.2327880859375,0.1310698688030243,-0.0593506731092929,0.0898087173700332,46.42295837402344,92.97795104980467,-44.63948059082031
220057,-0.1763458251953125,0.7238006591796875,0.24822998046875,-0.1716111749410629,-0.004522047471255,0.1214060559868813,46.29649353027344,92.83131408691406,-44.90605163574219
220058,-0.182281494140625,0.780548095703125,0.2438507080078125,-0.3736537396907806,-0.020717529579997,0.1514193415641785,46.3123779296875,93.02523803710938,-45.06204223632812
220059,-0.1990966796875,0.8323211669921875,0.2388916015625,-0.4677354991436005,-0.071834772825241,0.1877733618021011,46.45790100097656,93.09471130371094,-45.06144714355469
220060,-0.1990966796875,0.8323211669921875,0.2388916015625,-0.4677354991436005,-0.071834772825241,0.1877733618021011,46.45790100097656,93.09471130371094,-45.06144714355469
220061,-0.185577392578125,0.9189910888671876,0.3046722412109375,-0.5635110139846802,-0.0056200688704848,0.1980627477169037,46.48291015625,93.39682006835938,-44.52748107910156
220062,-0.185577392578125,0.9189910888671876,0.3046722412109375,-0.5635110139846802,-0.0056200688704848,0.1980627477169037,46.48291015625,93.39682006835938,-44.52748107910156
220063,-0.1736907958984375,0.9356231689453124,0.337158203125,-0.641743004322052,0.0613597631454467,0.1569595187902451,46.49765014648438,93.5136260986328,-44.17555236816406
220064,-0.1822662353515625,0.9906463623046876,0.4182586669921875,-0.8498197793960571,0.1736514121294022,-0.0272960700094699,46.53346252441406,94.04191589355467,-43.95695495605469
220065,-0.2091827392578125,1.026870727539062,0.4410400390625,-0.9576812386512756,0.2173339128494263,-0.156252458691597,46.65805053710938,94.43209838867188,-43.67207336425781
220066,-0.2369842529296875,1.056427001953125,0.4313201904296875,-1.118889093399048,-0.0799161344766616,-0.3433941006660461,46.58055114746094,94.73329162597656,-43.35183715820312
220067,-0.264923095703125,1.093994140625,0.387939453125,-1.118889093399048,-0.0799161344766616,-0.3433941006660461,46.49798583984375,94.90754699707033,-42.84773254394531
220068,-0.2906646728515625,1.13287353515625,0.3739013671875,-1.298632383346558,-0.6444977521896362,-0.4001940190792084,46.49752807617188,95.1588897705078,-42.3955078125
220069,-0.2894287109375,1.186920166015625,0.358306884765625,-1.298632383346558,-0.6444977521896362,-0.4001940190792084,46.30801391601562,95.38150024414062,-41.79666137695312
220070,-0.252716064453125,1.233657836914062,0.25262451171875,-1.329200506210327,-0.8397231698036194,-0.4080122411251068,46.07748413085938,95.72828674316406,-41.25477600097656
220071,-0.252716064453125,1.233657836914062,0.25262451171875,-1.329200506210327,-0.8397231698036194,-0.4080122411251068,46.07748413085938,95.72828674316406,-41.25477600097656
220072,-0.131011962890625,1.25335693359375,-0.026824951171875,-0.7800758481025696,-0.7285236716270447,-0.2347174286842346,45.28952026367188,96.2086181640625,-40.04267883300781
220073,-0.1126861572265625,1.14837646484375,-0.1838531494140625,-0.3427525460720062,-0.1485801488161087,-0.1261957585811615,44.917236328125,96.52769470214844,-39.50038146972656
220074,-0.1126861572265625,1.14837646484375,-0.1838531494140625,-0.3427525460720062,-0.1485801488161087,-0.1261957585811615,44.917236328125,96.52769470214844,-39.50038146972656
220075,-0.1359100341796875,0.9972381591796876,-0.32415771484375,-0.1094812229275703,0.1485268920660019,-0.1280703544616699,44.45657348632812,96.77711486816406,-39.05638122558594
220076,-0.0541839599609375,1.024932861328125,-0.4829559326171875,-0.3950852751731873,0.1384428292512894,-0.2384658306837082,44.08332824707031,97.06219482421876,-38.63760375976562
220077,-0.006866455078125,1.176284790039062,-0.62469482421875,-0.5676913857460022,-0.0118569256737828,-0.2929402589797974,43.95487976074219,97.07040405273438,-38.41761779785156
220078,0.00531005859375,1.3233642578125,-0.6641082763671875,-0.630766749382019,-0.2018303275108337,-0.2961405813694,43.7420654296875,97.14369201660156,-38.15129089355469
220079,-0.0171356201171875,1.428421020507812,-0.59637451171875,-0.5335968136787415,-0.220752090215683,-0.2012228518724442,43.57899475097656,97.3485870361328,-37.85519409179688
220080,-0.03399658203125,1.493148803710938,-0.5802459716796875,-0.302562803030014,-0.0830506756901741,-0.0487667396664619,43.27999877929688,97.4957275390625,-37.46778869628906
220081,-0.00823974609375,1.50335693359375,-0.6656646728515625,0.0106702214106917,0.1060771644115448,0.1254964023828506,43.1846923828125,97.6375732421875,-37.252685546875
220082,-0.00823974609375,1.50335693359375,-0.6656646728515625,0.0106702214106917,0.1060771644115448,0.1254964023828506,43.1846923828125,97.6375732421875,-37.252685546875
220083,0.1593475341796875,1.3533935546875,-0.8329315185546875,0.8162716627120972,0.3371913433074951,0.5596875548362732,43.24600219726562,97.46517944335938,-36.90632629394531
220084,0.22027587890625,1.2501220703125,-0.7973175048828125,0.8162716627120972,0.3371913433074951,0.5596875548362732,43.39254760742188,97.32217407226562,-37.16226196289062
220085,0.224273681640625,1.153717041015625,-0.71685791015625,0.9050713181495668,0.3625710010528564,0.5953152775764465,43.74014282226562,97.2284698486328,-37.4576416015625
220086,0.1956024169921875,1.072601318359375,-0.66094970703125,0.9661152362823486,0.3925544619560242,0.6117235422134399,44.12576293945312,97.02214050292967,-37.87899780273438
220087,0.1632080078125,1.012435913085938,-0.622772216796875,0.9859355092048644,0.3836765587329865,0.6104580163955688,44.43672180175781,96.83546447753906,-38.38528442382812
220088,0.1632080078125,1.012435913085938,-0.622772216796875,0.9859355092048644,0.3836765587329865,0.6104580163955688,44.43672180175781,96.83546447753906,-38.38528442382812
220089,0.0940399169921875,0.9666595458984376,-0.4925994873046875,0.8849993348121643,0.3593645691871643,0.5216887593269348,45.22224426269531,96.51736450195312,-39.35922241210938
220090,0.0513458251953125,0.981475830078125,-0.417877197265625,0.7322465181350708,0.3308066725730896,0.4676936864852905,45.59718322753906,96.29940795898438,-39.75323486328125
220091,0.004058837890625,0.989166259765625,-0.332611083984375,0.489025354385376,0.25332972407341,0.3998526036739349,45.94277954101562,96.24415588378906,-40.15519714355469
220092,0.004058837890625,0.989166259765625,-0.332611083984375,0.489025354385376,0.25332972407341,0.3998526036739349,45.94277954101562,96.24415588378906,-40.15519714355469
220093,-0.066162109375,0.993743896484375,-0.1501922607421875,0.0478982850909233,-0.169533371925354,0.2928473055362701,46.42337036132812,96.02273559570312,-40.84236145019531
220094,-0.066162109375,0.993743896484375,-0.1501922607421875,0.0478982850909233,-0.169533371925354,0.2928473055362701,46.42337036132812,96.02273559570312,-40.84236145019531
220095,-0.0728302001953125,1.066726684570312,0.039520263671875,-0.0878704637289047,-0.8112609386444092,0.4776035845279694,46.91282653808594,96.01617431640624,-41.18466186523438
220096,-0.071929931640625,1.101150512695312,0.1239471435546875,-0.0878704637289047,-0.8112609386444092,0.4776035845279694,46.96331787109375,96.19718933105467,-41.21669006347656
220097,-0.052581787109375,1.117645263671875,0.2182464599609375,-0.008877913467586,-0.9603225588798524,0.540579080581665,47.079345703125,96.216552734375,-41.15263366699219
220098,-0.030059814453125,1.099411010742188,0.293853759765625,0.1413512676954269,-0.9801716208457948,0.5921669006347656,47.15237426757812,96.11038208007812,-41.10140991210938
220099,0.005859375,1.056686401367188,0.3113861083984375,0.2891849279403687,-0.967890202999115,0.5993963479995728,47.22123718261719,96.02418518066406,-41.18501281738281
220100,0.056121826171875,0.9872589111328124,0.2930755615234375,0.4090961515903473,-1.001891613006592,0.5342476963996887,47.17901611328125,95.97006225585938,-41.21426391601562
220101,0.10028076171875,0.8866119384765625,0.2706451416015625,0.48050856590271,-1.031440138816833,0.4498979151248932,47.239990234375,95.87867736816406,-41.30230712890625
220102,0.10028076171875,0.8866119384765625,0.2706451416015625,0.48050856590271,-1.031440138816833,0.4498979151248932,47.239990234375,95.87867736816406,-41.30230712890625
220103,0.132537841796875,0.705230712890625,0.21441650390625,0.4112375974655151,-0.9454453587532043,0.3378387689590454,47.17636108398438,95.69361877441406,-41.67068481445312
220104,0.08294677734375,0.6434478759765625,0.2095184326171875,0.3141850829124451,-0.7599924206733704,0.3125152885913849,47.13253784179688,95.5905303955078,-41.75218200683594
220105,-0.0040740966796875,0.6082916259765625,0.1866912841796875,0.2198340892791748,-0.5687627792358398,0.2960204780101776,47.08792114257812,95.41915893554688,-41.92117309570312
220106,-0.0908660888671875,0.62493896484375,0.1550140380859375,0.1494675129652023,-0.4624960124492645,0.2862203121185303,47.0140380859375,95.2410888671875,-41.94703674316406
220107,-0.0908660888671875,0.62493896484375,0.1550140380859375,0.1494675129652023,-0.4624960124492645,0.2862203121185303,47.0140380859375,95.2410888671875,-41.94703674316406
220108,-0.141387939453125,0.68389892578125,0.1207275390625,0.1221027374267578,-0.4258855283260345,0.2612907290458679,47.0872802734375,95.02214050292967,-41.99522399902344
220109,-0.16949462890625,0.8350372314453125,0.1094818115234375,0.1301635950803757,-0.2835036218166351,0.1822928488254547,47.19985961914062,94.88990783691406,-41.99302673339844
220110,-0.16949462890625,0.8350372314453125,0.1094818115234375,0.1301635950803757,-0.2835036218166351,0.1822928488254547,47.19985961914062,94.88990783691406,-41.99302673339844
220111,-0.22528076171875,0.9325714111328124,0.13079833984375,0.0322106666862964,0.083200879395008,0.0762614831328392,47.18081665039062,94.72395324707033,-41.84689331054688
220112,-0.2477569580078125,0.983673095703125,0.13580322265625,0.0322106666862964,0.083200879395008,0.0762614831328392,47.19357299804688,94.73513793945312,-41.95669555664062
220113,-0.2633514404296875,1.018112182617188,0.14361572265625,-0.0364410988986492,0.0747844949364662,0.0079471385106444,47.25234985351562,94.64964294433594,-42.00335693359375
220114,-0.2655792236328125,1.016769409179688,0.1445465087890625,-0.1062033995985985,0.0464524514973163,-0.0665787607431411,47.38694763183594,94.80119323730467,-42.2333984375
220115,-0.2437286376953125,0.9709930419921876,0.1365203857421875,-0.1766203045845032,0.0289823822677135,-0.1177346259355545,47.36831665039062,94.88848876953124,-42.30961608886719
220116,-0.2437286376953125,0.9709930419921876,0.1365203857421875,-0.1766203045845032,0.0289823822677135,-0.1177346259355545,47.36831665039062,94.88848876953124,-42.30961608886719
220117,-0.172119140625,0.86456298828125,0.1306610107421875,-0.3128804266452789,0.1385589390993118,-0.1777540147304535,47.35565185546875,94.98300170898438,-41.97561645507812
220118,-0.1690216064453125,0.8441314697265625,0.1413726806640625,-0.3668296635150909,0.1949439197778702,-0.2017669379711151,47.22224426269531,94.96316528320312,-41.81634521484375
220119,-0.1722869873046875,0.832366943359375,0.1872406005859375,-0.4421933889389038,0.2370740622282028,-0.2303655594587326,47.07707214355469,95.03660583496094,-41.735107421875
220120,-0.181854248046875,0.8261871337890625,0.25482177734375,-0.546853244304657,0.3071950972080231,-0.2644367218017578,47.06695556640625,95.2060546875,-41.8310546875
220121,-0.1936492919921875,0.82281494140625,0.300079345703125,-0.6748724579811096,0.3752953112125397,-0.3020091354846954,47.0184326171875,95.27232360839844,-41.68045043945312
220122,-0.2059326171875,0.81756591796875,0.3183135986328125,-0.8056674599647522,0.3726630508899689,-0.3395645022392273,46.87472534179688,95.4542999267578,-41.46533203125
220123,-0.214599609375,0.8219146728515625,0.328826904296875,-0.9344246387481688,0.3253847658634186,-0.3617337048053741,46.85986328125,95.73435974121094,-41.15896606445312
220124,-0.21685791015625,0.8555450439453125,0.3241119384765625,-1.061659812927246,0.2605437040328979,-0.3685562014579773,46.73300170898438,96.01564025878906,-40.92918395996094
220125,-0.201812744140625,0.911895751953125,0.2684478759765625,-1.157900333404541,0.144860252737999,-0.3809641301631927,46.64987182617188,96.30296325683594,-40.48057556152344
220126,-0.201812744140625,0.911895751953125,0.2684478759765625,-1.157900333404541,0.144860252737999,-0.3809641301631927,46.64987182617188,96.30296325683594,-40.48057556152344
220127,-0.16375732421875,0.9689788818359376,0.176239013671875,-1.196553230285645,-0.0612031705677509,-0.3877930045127869,46.48323059082031,96.68295288085938,-40.07351684570312
220128,-0.0109100341796875,1.0262451171875,0.0186614990234375,-1.137190818786621,-0.4256106913089752,-0.2872101962566376,46.13833618164062,97.21083068847656,-38.87571716308594
220129,0.05511474609375,1.060760498046875,-0.0107269287109375,-1.137190818786621,-0.4256106913089752,-0.2872101962566376,45.85334777832031,97.32501220703124,-38.14793395996094
220130,0.081207275390625,1.073867797851562,-0.0570526123046875,-1.043964505195618,-0.2535494565963745,-0.3138812184333801,45.54116821289062,97.64199829101562,-37.63447570800781
220131,0.0989837646484375,1.1044921875,-0.108551025390625,-0.9052952527999878,-0.0058275288902223,-0.3985950648784637,45.12445068359375,97.98519897460938,-37.2725830078125
220132,0.116912841796875,1.170089721679688,-0.16546630859375,-0.9052952527999878,-0.0058275288902223,-0.3985950648784637,44.73335266113281,98.44088745117188,-36.93217468261719
220133,0.1342620849609375,1.247482299804688,-0.258636474609375,-0.852443516254425,-0.0093120094388723,-0.4390127956867218,44.41609191894531,98.6710205078125,-36.30882263183594
220134,0.1544647216796875,1.347427368164062,-0.356719970703125,-0.7239617109298706,-0.1192888468503952,-0.4853635132312775,44.12890625,98.83277893066406,-35.80265808105469
220135,0.167327880859375,1.420944213867188,-0.3865966796875,-0.5351622104644775,-0.2470958083868027,-0.46985724568367,43.80081176757812,99.03450012207033,-35.31173706054688
220136,0.1617889404296875,1.444671630859375,-0.3512420654296875,-0.3507375121116638,-0.3180962204933167,-0.4075216948986053,43.42230224609375,99.23110961914062,-34.82276916503906
220137,0.1429901123046875,1.4080810546875,-0.334503173828125,-0.1529908776283264,-0.3303097486495972,-0.3331851661205292,43.12919616699219,99.36843872070312,-34.48233032226562
220138,0.128173828125,1.337066650390625,-0.389373779296875,0.1172834858298302,-0.3519156873226166,-0.2671416997909546,42.87936401367188,99.39874267578124,-34.15763854980469
220139,0.1235198974609375,1.20166015625,-0.4857025146484375,0.7146171927452087,-0.4385291635990143,-0.0937858819961547,42.65615844726562,99.43435668945312,-34.04847717285156
220140,0.1268463134765625,1.083221435546875,-0.5791473388671875,0.7146171927452087,-0.4385291635990143,-0.0937858819961547,42.48831176757812,99.32154846191406,-33.93220520019531
220141,0.1536865234375,0.9999542236328124,-0.6468505859375,0.9135910272598268,-0.4496979117393494,0.0020253339316695,42.4708251953125,99.17404174804688,-33.98818969726562
220142,0.219818115234375,0.9356231689453124,-0.6664276123046875,0.9903374314308168,-0.2615349292755127,0.2029621750116348,42.26237487792969,98.9320068359375,-34.68893432617188
220143,0.219818115234375,0.9356231689453124,-0.6664276123046875,0.9903374314308168,-0.2615349292755127,0.2029621750116348,42.26237487792969,98.9320068359375,-34.68893432617188
220144,0.2544403076171875,0.9285430908203124,-0.6255035400390625,0.9903374314308168,-0.2615349292755127,0.2029621750116348,42.3133544921875,98.68196105957033,-35.06112670898438
220145,0.2935638427734375,0.943023681640625,-0.554718017578125,0.8670147061347961,-0.2394509315490723,0.2602925598621368,42.33047485351562,98.3328094482422,-35.58564758300781
220146,0.2935638427734375,0.943023681640625,-0.554718017578125,0.8670147061347961,-0.2394509315490723,0.2602925598621368,42.33047485351562,98.3328094482422,-35.58564758300781
220147,0.3249053955078125,0.960845947265625,-0.4807586669921875,0.759801983833313,-0.2381736785173416,0.3101038038730621,42.41473388671875,98.1251220703125,-36.11331176757812
220148,0.3448944091796875,1.046844482421875,-0.33782958984375,0.6225906014442444,-0.3138301074504852,0.3827729523181915,42.76033020019531,97.88343811035156,-37.02149963378906
220149,0.3260345458984375,1.122482299804688,-0.257110595703125,0.5249684453010559,-0.3870941996574402,0.3515383303165436,42.87454223632812,97.71493530273438,-37.20359802246094
220150,0.29266357421875,1.207916259765625,-0.1429595947265625,0.4018832445144653,-0.4934629797935486,0.3099583983421326,43.07095336914062,97.57347106933594,-37.56893920898438
220151,0.2605743408203125,1.298599243164062,-0.01617431640625,0.2657294273376465,-0.551044225692749,0.2524157464504242,43.20260620117188,97.39241027832033,-37.803955078125
220152,0.2041473388671875,1.37908935546875,0.06781005859375,0.1313966363668442,-0.6306679844856262,0.197716012597084,43.41087341308594,97.27603149414062,-38.19996643066406
220153,0.11328125,1.475814819335938,0.128875732421875,0.063311330974102,-0.7656217813491821,0.1543408334255219,43.50233459472656,97.32351684570312,-38.21208190917969
220154,0.028411865234375,1.574951171875,0.2050018310546875,0.1574016064405441,-0.950782835483551,0.0733857974410057,43.51396179199219,97.290283203125,-38.23904418945312
220155,-0.0361480712890625,1.640548706054688,0.243499755859375,0.666480302810669,-1.13020932674408,-0.2668258249759674,43.46018981933594,97.25404357910156,-38.35275268554688
220156,-0.08892822265625,1.5804443359375,0.1963043212890625,0.666480302810669,-1.13020932674408,-0.2668258249759674,43.38215637207031,97.3628387451172,-38.24278259277344
220157,-0.14984130859375,1.440750122070312,0.135345458984375,0.9109110832214355,-1.26357114315033,-0.2892861366271973,43.31857299804688,97.30860900878906,-38.43344116210938
220158,-0.200714111328125,1.311431884765625,0.1243133544921875,1.10649836063385,-1.427173376083374,-0.2345816195011139,43.04106140136719,97.12026977539062,-38.4830322265625
220159,-0.238555908203125,1.141403198242188,0.11102294921875,1.231267809867859,-1.665713787078857,-0.1546569466590881,42.86470031738281,96.97723388671876,-38.81866455078125
220160,-0.2563629150390625,0.9841461181640624,0.1325836181640625,1.24055290222168,-1.957524299621582,-0.0628988072276115,42.71659851074219,96.510498046875,-39.15179443359375
220161,-0.2501678466796875,0.87176513671875,0.209991455078125,1.123233199119568,-2.121039628982544,0.010708836838603,42.51336669921875,96.0337371826172,-39.46217346191406
220162,-0.2298583984375,0.7518310546875,0.2722320556640625,0.9312259554862976,-2.046912670135498,0.0606918446719646,42.27546691894531,95.7013702392578,-39.88301086425781
220163,-0.206329345703125,0.647979736328125,0.2791900634765625,0.7382809519767761,-1.81337034702301,0.1216571927070618,41.99795532226562,95.22386169433594,-40.26954650878906
220164,-0.200775146484375,0.5770416259765625,0.276458740234375,0.5957714915275574,-1.486724019050598,0.1648115813732147,41.62843322753906,94.93074035644533,-40.43212890625
220165,-0.235992431640625,0.5314178466796875,0.266387939453125,0.5161405801773071,-1.09720766544342,0.1660859137773514,41.39012145996094,94.5524444580078,-40.5528564453125
220166,-0.235992431640625,0.5314178466796875,0.266387939453125,0.5161405801773071,-1.09720766544342,0.1660859137773514,41.39012145996094,94.5524444580078,-40.5528564453125
220167,-0.31591796875,0.5218048095703125,0.237396240234375,0.4410458505153656,-0.391408771276474,0.0210975613445043,41.07304382324219,94.43463134765624,-40.73114013671875
220168,-0.50555419921875,0.4777069091796875,0.24761962890625,0.3883088529109955,-0.0823579877614975,-0.1008493825793266,40.93510437011719,94.40060424804688,-40.85784912109375
220169,-0.580230712890625,0.4461669921875,0.2777862548828125,0.3219298422336578,0.614782452583313,-0.1843690425157547,40.82585144042969,94.25213623046876,-40.76890563964844
220170,-0.6049652099609375,0.4170989990234375,0.2965850830078125,0.3219298422336578,0.614782452583313,-0.1843690425157547,40.82522583007812,94.2463836669922,-40.84197998046875
220171,-0.5419464111328125,0.491943359375,0.281463623046875,0.1570950746536255,0.870228111743927,0.0421085730195045,40.77352905273438,94.13697814941406,-41.13334655761719
220172,-0.3886871337890625,0.7274322509765625,0.2693939208984375,0.1570950746536255,0.870228111743927,0.0421085730195045,40.80665588378906,94.20606994628906,-41.3255615234375
220173,-0.2938690185546875,0.826263427734375,0.3280029296875,0.0342210866510868,0.7516093254089355,0.0022796657867729,40.91706848144531,94.08460998535156,-41.68374633789062
220174,-0.282623291015625,0.84051513671875,0.4061126708984375,-0.1329551190137863,0.706529974937439,0.0038157771341502,41.07734680175781,94.23988342285156,-41.91041564941406
220175,-0.25640869140625,0.882049560546875,0.4262542724609375,-0.6684009432792664,0.4420919418334961,0.0561423636972904,41.19631958007812,94.3140106201172,-42.07820129394531
220176,-0.21417236328125,0.9567108154296876,0.4421539306640625,-0.6684009432792664,0.4420919418334961,0.0561423636972904,41.34130859375,94.28146362304688,-42.20146179199219
220177,-0.151611328125,1.014739990234375,0.4676666259765625,-0.9666193723678588,0.3025452196598053,0.0401303768157959,41.507080078125,94.34292602539062,-41.92616271972656
220178,-0.151611328125,1.014739990234375,0.4676666259765625,-0.9666193723678588,0.3025452196598053,0.0401303768157959,41.507080078125,94.34292602539062,-41.92616271972656
220179,0.007049560546875,1.013702392578125,0.4146575927734375,-1.276351094245911,0.1323359310626984,0.0392371527850627,41.61251831054688,94.86270141601562,-41.37934875488281
220180,0.085357666015625,0.9945526123046876,0.332183837890625,-1.190928101539612,0.0145983835682272,0.038327682763338,41.5947265625,95.13548278808594,-40.89732360839844
220181,0.115142822265625,1.024871826171875,0.2435150146484375,-0.9921950101852416,-0.112755574285984,0.0046956855803728,41.60025024414062,95.55348205566406,-40.42753601074219
220182,0.115142822265625,1.024871826171875,0.2435150146484375,-0.9921950101852416,-0.112755574285984,0.0046956855803728,41.60025024414062,95.55348205566406,-40.42753601074219
220183,-0.011383056640625,1.115768432617188,0.147003173828125,-0.7443596720695496,-0.2518194615840912,-0.3142684400081635,41.1387939453125,96.09197998046876,-39.64372253417969
220184,-0.0764617919921875,1.098526000976562,0.0894775390625,-0.7303919196128845,-0.2637397646903992,-0.4276061952114105,40.90875244140625,96.36500549316406,-39.2420654296875
220185,-0.093719482421875,1.096954345703125,-0.0154571533203125,-0.6873576045036316,-0.3512624204158783,-0.4931649565696716,40.61245727539062,96.64337158203124,-38.75407409667969
220186,-0.1042633056640625,1.096572875976562,-0.105926513671875,-0.596612811088562,-0.469939261674881,-0.5266051888465881,40.21514892578125,96.98567199707033,-38.38310241699219
220187,-0.113983154296875,1.041458129882812,-0.1308441162109375,-0.4948214590549469,-0.4433542788028717,-0.5012223720550537,39.754150390625,97.07746887207033,-38.02967834472656
220188,-0.1326446533203125,0.9930572509765624,-0.139923095703125,-0.3918924033641815,-0.2215781956911087,-0.479535698890686,39.37153625488281,97.0994110107422,-37.67399597167969
220189,-0.138885498046875,0.984283447265625,-0.2200164794921875,-0.3331476151943207,-0.062140867114067,-0.487757682800293,38.97183227539062,97.12527465820312,-37.34193420410156
220190,-0.11810302734375,1.008270263671875,-0.3267822265625,-0.3372874855995178,-0.0213782582432031,-0.5073180794715881,38.62953186035156,97.34725952148438,-37.18055725097656
220191,-0.0740509033203125,1.082351684570312,-0.4651947021484375,-0.3746069073677063,-0.0811254754662513,-0.5045379996299744,38.2528076171875,97.44374084472656,-37.0057373046875
220192,-0.0388336181640625,1.180068969726562,-0.536041259765625,-0.4258953928947449,-0.2461554408073425,-0.4591966271400452,37.98878479003906,97.50439453125,-36.75843811035156
220193,-0.046905517578125,1.266189575195312,-0.50921630859375,-0.4589002132415771,-0.3444130420684814,-0.3409219086170197,37.56617736816406,97.52711486816406,-36.53775024414062
220194,-0.1240081787109375,1.401947021484375,-0.60565185546875,-0.18826524913311,-0.2404371052980423,0.0180261377245187,36.93722534179688,97.71560668945312,-36.02333068847656
220195,-0.1240081787109375,1.401947021484375,-0.60565185546875,-0.18826524913311,-0.2404371052980423,0.0180261377245187,36.93722534179688,97.71560668945312,-36.02333068847656
220196,-0.076934814453125,1.367706298828125,-0.7018890380859375,0.1003013029694557,-0.1022028028964996,0.1944416463375092,36.78709411621094,97.64877319335938,-35.70663452148438
220197,0.0092315673828125,1.30908203125,-0.769622802734375,0.3639992475509644,0.0872009471058845,0.394844263792038,36.83683776855469,97.54481506347656,-35.55075073242188
220198,0.084564208984375,1.313018798828125,-0.790740966796875,0.5226269960403442,0.3141017258167267,0.5298494696617126,37.02119445800781,97.56655883789062,-35.54023742675781
220199,0.1212310791015625,1.338485717773438,-0.725677490234375,0.5776033997535706,0.4767606854438782,0.572258710861206,37.16963195800781,97.57781982421876,-35.67835998535156
220200,0.124053955078125,1.342071533203125,-0.62274169921875,0.6126735210418701,0.5886041522026062,0.5640601515769958,37.52235412597656,97.41462707519533,-36.01870727539062
220201,0.1123809814453125,1.307022094726562,-0.548919677734375,0.7076647281646729,0.6189907789230347,0.5630516409873962,37.99467468261719,97.40460205078124,-36.18693542480469
220202,0.10028076171875,1.244659423828125,-0.50830078125,0.820244312286377,0.6273052096366882,0.5654703378677368,38.44062805175781,97.36100769042967,-36.66252136230469
220203,0.10028076171875,1.244659423828125,-0.50830078125,0.820244312286377,0.6273052096366882,0.5654703378677368,38.44062805175781,97.36100769042967,-36.66252136230469
220204,0.0521087646484375,1.155487060546875,-0.36370849609375,0.7200180888175964,0.4994273781776428,0.4275819659233093,39.23820495605469,97.31993103027344,-37.67636108398438
220205,0.0235595703125,1.096145629882812,-0.2542877197265625,0.7200180888175964,0.4994273781776428,0.4275819659233093,39.71517944335938,97.13720703125,-38.06369018554688
220206,0.0235595703125,1.096145629882812,-0.2542877197265625,0.7200180888175964,0.4994273781776428,0.4275819659233093,39.71517944335938,97.13720703125,-38.06369018554688
220207,-0.0684661865234375,0.982421875,-0.133941650390625,0.2069824784994125,0.2990506291389465,0.3274617493152618,40.38551330566406,96.89161682128906,-39.01109313964844
220208,-0.0844879150390625,0.984832763671875,-0.0609588623046875,0.0020226708147674,0.104044109582901,0.3069586157798767,40.68623352050781,96.92132568359376,-39.30897521972656
220209,-0.0824127197265625,0.99774169921875,0.030853271484375,-0.0800676718354225,-0.0792546048760414,0.3111917078495026,40.90153503417969,97.07438659667967,-39.5245361328125
220210,-0.0654754638671875,1.00982666015625,0.10723876953125,0.0968772768974304,-0.2444571405649185,0.4534324705600739,41.1719970703125,96.83827209472656,-39.4366455078125
220211,-0.0654754638671875,1.00982666015625,0.10723876953125,0.0968772768974304,-0.2444571405649185,0.4534324705600739,41.1719970703125,96.83827209472656,-39.4366455078125
220212,0.0016632080078125,1.067337036132812,0.15020751953125,0.2552906274795532,-0.3766058683395386,0.6026493906974792,41.59506225585938,96.7925262451172,-39.32954406738281
220213,0.020782470703125,1.129806518554688,0.147735595703125,0.4347794055938721,-0.5596627593040466,0.7211504578590393,41.78082275390625,96.7906494140625,-39.44073486328125
220214,0.020782470703125,1.129806518554688,0.147735595703125,0.4347794055938721,-0.5596627593040466,0.7211504578590393,41.78082275390625,96.7906494140625,-39.44073486328125
220215,0.0542449951171875,1.08941650390625,0.1601715087890625,0.7465644478797913,-0.7200772166252136,0.6697863340377808,42.004150390625,96.59709167480467,-39.92216491699219
220216,0.0916595458984375,1.016937255859375,0.1523284912109375,0.8284542560577393,-0.8012860417366028,0.5371372103691101,42.16792297363281,96.3844757080078,-40.05766296386719
220217,0.1292572021484375,0.886138916015625,0.1402435302734375,0.8214536309242249,-0.8929464817047119,0.4230085015296936,42.39529418945312,96.17288208007812,-40.20050048828125
220218,0.1292572021484375,0.886138916015625,0.1402435302734375,0.8214536309242249,-0.8929464817047119,0.4230085015296936,42.39529418945312,96.17288208007812,-40.20050048828125
220219,0.1498565673828125,0.7484283447265625,0.1584320068359375,0.7261513471603394,-1.01265549659729,0.3632751405239105,42.36245727539062,95.91905212402344,-40.6705322265625
220220,0.158538818359375,0.646209716796875,0.2078399658203125,0.573305070400238,-1.023301005363464,0.3558225631713867,42.38288879394531,95.73068237304688,-40.996337890625
220221,0.1997833251953125,0.5915679931640625,0.21636962890625,0.2486327141523361,-0.8869961500167847,0.3840187788009644,42.19908142089844,95.3668212890625,-41.31167602539062
220222,0.1997833251953125,0.5915679931640625,0.21636962890625,0.2486327141523361,-0.8869961500167847,0.3840187788009644,42.19908142089844,95.3668212890625,-41.31167602539062
220223,0.19415283203125,0.6462249755859375,0.1923065185546875,0.1464134007692337,-0.7036593556404114,0.3671702742576599,42.25717163085938,95.2747039794922,-41.32960510253906
220224,0.114471435546875,0.7014312744140625,0.12017822265625,-0.0702714994549751,-0.5061715841293335,0.3164298832416534,42.16943359375,95.17726135253906,-41.46162414550781
220225,-0.0920867919921875,0.7391357421875,0.11968994140625,-0.2938665151596069,-0.4085712432861328,0.1787505745887756,42.24671936035156,95.22059631347656,-41.25895690917969
220226,-0.0920867919921875,0.7391357421875,0.11968994140625,-0.2938665151596069,-0.4085712432861328,0.1787505745887756,42.24671936035156,95.22059631347656,-41.25895690917969
220227,-0.2346954345703125,0.7402191162109375,0.19622802734375,-0.3945419788360596,-0.3131155669689178,0.0695817396044731,42.44795227050781,95.21351623535156,-40.94979858398438
220228,-0.2905120849609375,0.7982330322265625,0.227142333984375,-0.4559424817562103,-0.1270546168088913,-0.1990196257829666,42.5263671875,95.28201293945312,-40.73907470703125
220229,-0.3278961181640625,0.862579345703125,0.2491302490234375,-0.4559424817562103,-0.1270546168088913,-0.1990196257829666,42.618408203125,95.19964599609376,-40.33433532714844
220230,-0.3278961181640625,0.862579345703125,0.2491302490234375,-0.4559424817562103,-0.1270546168088913,-0.1990196257829666,42.618408203125,95.19964599609376,-40.33433532714844
220231,-0.33990478515625,0.8872528076171875,0.2432403564453125,-0.317542552947998,0.093176282942295,-0.3091245591640472,42.61543273925781,95.3230438232422,-39.95285034179688
220232,-0.3133392333984375,0.8751983642578125,0.2622528076171875,-0.317542552947998,0.093176282942295,-0.3091245591640472,42.51181030273438,95.427734375,-39.99090576171875
220233,-0.27642822265625,0.8563232421875,0.2901458740234375,-0.3366107642650604,0.2067414671182632,-0.274135410785675,42.41618347167969,95.52131652832033,-39.80953979492188
220234,-0.2607269287109375,0.851348876953125,0.316253662109375,-0.3907017111778259,0.3419746458530426,-0.2782063186168671,42.23419189453125,95.5266571044922,-39.51451110839844
220235,-0.2607269287109375,0.851348876953125,0.316253662109375,-0.3907017111778259,0.3419746458530426,-0.2782063186168671,42.23419189453125,95.5266571044922,-39.51451110839844
220236,-0.293731689453125,0.8087310791015625,0.333831787109375,-0.5479328632354736,0.5278816819190979,-0.3744098246097565,42.2349853515625,95.81671142578124,-39.24360656738281
220237,-0.3315277099609375,0.7861175537109375,0.334747314453125,-0.6431208848953247,0.5638359189033508,-0.4244522154331207,42.13359069824219,95.93231201171876,-39.10195922851562
220238,-0.3315277099609375,0.7861175537109375,0.334747314453125,-0.6431208848953247,0.5638359189033508,-0.4244522154331207,42.13359069824219,95.93231201171876,-39.10195922851562
220239,-0.3932342529296875,0.7587127685546875,0.295013427734375,-0.9506731629371644,0.234425812959671,-0.4584216475486755,42.11906433105469,96.203369140625,-38.93228149414062
220240,-0.3915863037109375,0.7642364501953125,0.2969970703125,-0.9506731629371644,0.234425812959671,-0.4584216475486755,41.94523620605469,96.36705017089844,-38.68179321289062
220241,-0.3736724853515625,0.7829132080078125,0.3006591796875,-1.068846344947815,0.1241304725408554,-0.4396916329860687,41.84027099609375,96.72557067871094,-38.36213684082031
220242,-0.3736724853515625,0.7829132080078125,0.3006591796875,-1.068846344947815,0.1241304725408554,-0.4396916329860687,41.84027099609375,96.72557067871094,-38.36213684082031
220243,-0.3470611572265625,0.831634521484375,0.249267578125,-1.299947261810303,-0.2622377276420593,-0.4063776135444641,41.54121398925781,96.97428894042967,-37.8819580078125
220244,-0.236785888671875,0.9345703125,0.08074951171875,-1.351394176483154,-0.5360226631164551,-0.3799630403518677,40.96334838867188,97.48274230957033,-36.86959838867188
220245,-0.138275146484375,0.94610595703125,0.0234375,-1.350963234901428,-0.7435598969459534,-0.3164983093738556,40.62138366699219,97.85194396972656,-36.12783813476562
220246,-0.138275146484375,0.94610595703125,0.0234375,-1.350963234901428,-0.7435598969459534,-0.3164983093738556,40.62138366699219,97.85194396972656,-36.12783813476562
220247,-0.0242462158203125,0.9679412841796876,0.00531005859375,-1.11148464679718,-0.4296091496944427,-0.1991767585277557,40.16781616210938,98.17483520507812,-35.32548522949219
220248,0.1390380859375,1.18951416015625,-0.1268310546875,-0.8955193161964417,-0.081334538757801,-0.2582176923751831,39.3837890625,98.87969970703124,-33.97718811035156
220249,0.179351806640625,1.353988647460938,-0.271759033203125,-0.6776344180107117,-0.0464524514973163,-0.3787457048892975,39.07206726074219,99.03215026855467,-33.31034851074219
220250,0.179351806640625,1.353988647460938,-0.271759033203125,-0.6776344180107117,-0.0464524514973163,-0.3787457048892975,39.07206726074219,99.03215026855467,-33.31034851074219
220251,0.210296630859375,1.790267944335938,-0.397979736328125,-0.4072252810001373,-0.3039995729923248,-0.3676224946975708,38.38311767578125,99.28170776367188,-32.19065856933594
220252,0.244964599609375,1.852340698242188,-0.4304656982421875,-0.2468198984861374,-0.3555365204811096,-0.3496733009815216,37.974365234375,99.3456573486328,-31.8394775390625
220253,0.294158935546875,1.799880981445312,-0.4937896728515625,0.0451075583696365,-0.4169439673423767,-0.245504304766655,37.66537475585938,99.36688232421876,-31.47683715820312
220254,0.294158935546875,1.799880981445312,-0.4937896728515625,0.0451075583696365,-0.4169439673423767,-0.245504304766655,37.66537475585938,99.36688232421876,-31.47683715820312
220255,0.2899017333984375,1.442123413085938,-0.751678466796875,0.919398844242096,-0.4961977601051331,0.1015495285391808,37.23490905761719,99.16717529296876,-30.97354125976562
220256,0.262298583984375,1.288467407226562,-0.8262939453125,1.384514570236206,-0.3957654535770416,0.4144096970558167,37.0888671875,99.01393127441406,-31.28153991699219
220257,0.2145538330078125,1.147354125976562,-0.79150390625,1.384514570236206,-0.3957654535770416,0.4144096970558167,37.17881774902344,98.814453125,-31.70359802246094
220258,0.2145538330078125,1.147354125976562,-0.79150390625,1.384514570236206,-0.3957654535770416,0.4144096970558167,37.17881774902344,98.814453125,-31.70359802246094
220259,0.1790924072265625,1.023818969726562,-0.708282470703125,1.36474084854126,-0.2781658470630646,0.4717480838298798,37.38490295410156,98.48280334472656,-32.18623352050781
220260,0.22235107421875,0.9965972900390624,-0.5701446533203125,1.098602414131165,-0.0864046663045883,0.5401479005813599,37.79339599609375,98.07667541503906,-33.64581298828125
220261,0.2488861083984375,1.022216796875,-0.5246124267578125,0.9845432043075562,-0.0948854982852935,0.5426360964775085,38.03813171386719,97.8601531982422,-34.24766540527344
220262,0.2488861083984375,1.022216796875,-0.5246124267578125,0.9845432043075562,-0.0948854982852935,0.5426360964775085,38.03813171386719,97.8601531982422,-34.24766540527344
220263,0.262847900390625,1.049514770507812,-0.4750823974609375,0.8465163707733154,-0.163591593503952,0.5107641816139221,38.37681579589844,97.57194519042967,-34.5631103515625
220264,0.2558135986328125,1.10467529296875,-0.4064788818359375,0.4481644630432129,-0.4513112604618073,0.3127360641956329,38.65245056152344,97.39419555664062,-35.07832336425781
220265,0.21832275390625,1.253402709960938,-0.1163177490234375,0.2786926031112671,-0.5530837178230286,0.2280430197715759,39.0982666015625,97.2452392578125,-35.7802734375
220266,0.21832275390625,1.253402709960938,-0.1163177490234375,0.2786926031112671,-0.5530837178230286,0.2280430197715759,39.0982666015625,97.2452392578125,-35.7802734375
220267,0.19720458984375,1.352859497070312,0.019012451171875,0.1999211013317108,-0.5807845592498779,0.1557664275169373,39.33216857910156,97.20909118652344,-35.974365234375
220268,0.1184234619140625,1.494216918945312,0.1579437255859375,0.3783560991287231,-0.6775063276290894,0.0148852057754993,39.39083862304688,97.12936401367188,-36.10549926757812
220269,0.0707550048828125,1.503570556640625,0.1974639892578125,0.7840737700462341,-0.794624924659729,-0.1040060296654701,39.3814697265625,97.18072509765624,-36.2447509765625
220270,0.0707550048828125,1.503570556640625,0.1974639892578125,0.7840737700462341,-0.794624924659729,-0.1040060296654701,39.3814697265625,97.18072509765624,-36.2447509765625
220271,-0.0047454833984375,1.38232421875,0.1395263671875,0.9713611006736756,-0.9090623259544371,-0.1557752192020416,39.23710632324219,96.904296875,-36.54066467285156
220272,-0.0603179931640625,1.227142333984375,0.0923004150390625,1.070375084877014,-1.089812159538269,-0.1826281398534775,39.20228576660156,96.71603393554688,-36.86123657226562
220273,-0.1145172119140625,1.082870483398438,0.1089935302734375,1.06794810295105,-1.240421652793884,-0.168840155005455,38.97935485839844,96.4431610107422,-37.187255859375
220274,-0.1145172119140625,1.082870483398438,0.1089935302734375,1.06794810295105,-1.240421652793884,-0.168840155005455,38.97935485839844,96.4431610107422,-37.187255859375
220275,-0.1485137939453125,0.9543609619140624,0.144744873046875,0.9559552669525146,-1.354334354400635,-0.0975406691431999,38.7723388671875,96.18489074707033,-37.58419799804688
220276,-0.2161407470703125,0.83258056640625,0.2059783935546875,0.6117891073226929,-1.443824291229248,0.0310993306338787,38.44992065429688,95.81201171875,-38.20896911621094
220277,-0.2285003662109375,0.778350830078125,0.249176025390625,0.4826084673404694,-1.431382775306702,0.0435067303478717,38.35882568359375,95.38583374023438,-38.37484741210938
220278,-0.2478179931640625,0.7005462646484375,0.2408599853515625,0.4440730512142181,-1.41120982170105,0.0488301217555999,38.27764892578125,95.042236328125,-38.41552734375
220279,-0.2478179931640625,0.7005462646484375,0.2408599853515625,0.4440730512142181,-1.41120982170105,0.0488301217555999,38.27764892578125,95.042236328125,-38.41552734375
220280,-0.2913665771484375,0.5110626220703125,0.1631011962890625,0.6235306859016418,-1.296598076820374,-0.0016801883466541,37.98741149902344,94.75474548339844,-38.28953552246094
220281,-0.3426361083984375,0.418426513671875,0.121337890625,0.7516705393791199,-1.104506134986877,-0.0383457913994789,37.81356811523438,94.46183776855467,-38.22227478027344
220282,-0.3426361083984375,0.418426513671875,0.121337890625,0.7516705393791199,-1.104506134986877,-0.0383457913994789,37.81356811523438,94.46183776855467,-38.22227478027344
220283,-0.4113006591796875,0.3278350830078125,0.097869873046875,0.8357620239257812,-0.5645392537117004,-0.0570611543953418,37.46623229980469,94.04696655273438,-38.6605224609375
220284,-0.3760528564453125,0.332122802734375,0.0911712646484375,0.7298457026481628,-0.3979644179344177,-0.0500200241804122,37.34437561035156,93.76687622070312,-38.73640441894531
220285,-0.2801971435546875,0.354339599609375,0.11883544921875,0.5091748237609863,-0.320380687713623,-0.0211404394358396,37.2122802734375,93.54969787597656,-39.07247924804688
220286,-0.1998443603515625,0.4228057861328125,0.186859130859375,0.1703243255615234,-0.2669608592987061,0.0490117520093917,37.1627197265625,93.47552490234376,-39.37185668945312
220287,-0.1998443603515625,0.4228057861328125,0.186859130859375,0.1703243255615234,-0.2669608592987061,0.0490117520093917,37.1627197265625,93.47552490234376,-39.37185668945312
220288,-0.1738739013671875,0.749786376953125,0.3425140380859375,-0.7802638411521912,0.2501232922077179,0.1575209200382233,36.89410400390625,93.50131225585938,-39.71437072753906
220289,-0.199310302734375,0.851287841796875,0.3608551025390625,-0.7802638411521912,0.2501232922077179,0.1575209200382233,36.80229187011719,93.6474609375,-39.52578735351562
220290,-0.199310302734375,0.851287841796875,0.3608551025390625,-0.7802638411521912,0.2501232922077179,0.1575209200382233,36.80229187011719,93.6474609375,-39.52578735351562
220291,-0.236419677734375,0.8960418701171875,0.3467864990234375,-0.9135454893112184,0.3404579758644104,0.1607995331287384,36.89796447753906,93.76618957519533,-39.48936462402344
220292,-0.2498321533203125,0.93511962890625,0.3101043701171875,-0.9400716423988342,0.3356802761554718,0.2271053194999695,37.12469482421875,94.20965576171876,-38.88102722167969
220293,-0.2033233642578125,0.9453277587890624,0.3097686767578125,-0.9122304320335388,0.3012384176254272,0.2601511478424072,37.29823303222656,94.52033996582033,-38.4732666015625
220294,-0.2033233642578125,0.9453277587890624,0.3097686767578125,-0.9122304320335388,0.3012384176254272,0.2601511478424072,37.29823303222656,94.52033996582033,-38.4732666015625
220295,-0.1449127197265625,0.947540283203125,0.32177734375,-0.9008824229240416,0.2675387561321259,0.2729108929634094,37.419189453125,94.75880432128906,-38.19683837890625
220296,-0.0541534423828125,0.9457855224609376,0.3826751708984375,-0.9094279408454896,0.1296291053295135,0.1980172097682953,37.48704528808594,95.309814453125,-37.46665954589844
220297,-0.03082275390625,0.954376220703125,0.4259796142578125,-0.9403278231620787,0.075684905052185,0.1033141389489174,37.56855773925781,95.50875854492188,-37.06523132324219
220298,-0.03082275390625,0.954376220703125,0.4259796142578125,-0.9403278231620787,0.075684905052185,0.1033141389489174,37.56855773925781,95.50875854492188,-37.06523132324219
220299,-0.021240234375,0.980194091796875,0.4533843994140625,-1.032325863838196,0.0709724426269531,-0.0112252235412597,37.6837158203125,95.68704223632812,-36.64494323730469
220300,-0.01947021484375,1.039413452148438,0.2791595458984375,-1.311220407485962,-0.1461769193410873,-0.2223800718784332,37.67982482910156,96.12786865234376,-35.726806640625
220301,-0.01824951171875,1.102767944335938,0.0776214599609375,-1.283388257026672,-0.5411064028739929,-0.2974527180194855,37.56475830078125,96.43699645996094,-35.25381469726562
220302,-0.01824951171875,1.102767944335938,0.0776214599609375,-1.283388257026672,-0.5411064028739929,-0.2974527180194855,37.56475830078125,96.43699645996094,-35.25381469726562
220303,0.0164794921875,1.179855346679688,-0.08251953125,-0.6052328944206238,-0.8052980899810791,-0.3262833058834076,37.09046936035156,96.97607421875,-33.99461364746094
220304,0.01287841796875,1.20208740234375,-0.093109130859375,-0.2132395803928375,-0.1561634987592697,-0.3339569270610809,36.68569946289062,97.29542541503906,-33.38104248046875
220305,0.0084991455078125,1.145431518554688,-0.2141876220703125,-0.0011435613268986,0.5289046168327332,-0.365327388048172,36.16664123535156,97.50689697265624,-32.90261840820312
220306,0.0084991455078125,1.145431518554688,-0.2141876220703125,-0.0011435613268986,0.5289046168327332,-0.365327388048172,36.16664123535156,97.50689697265624,-32.90261840820312
220307,0.0106658935546875,1.0328369140625,-0.398101806640625,-0.3728204369544983,0.1076140776276588,-0.3318863213062286,35.4979248046875,97.53990173339844,-32.51834106445312
220308,0.016876220703125,1.048049926757812,-0.4410552978515625,-0.3728204369544983,0.1076140776276588,-0.3318863213062286,35.35252380371094,97.6002197265625,-32.66806030273438
220309,0.0453643798828125,1.096694946289062,-0.4585113525390625,-0.4362907707691193,-0.0757480263710022,-0.2026780098676682,35.15721130371094,97.51019287109376,-32.527587890625
220310,0.0377655029296875,1.183746337890625,-0.4701690673828125,-0.3136886954307556,-0.0348533205687999,-0.0629938766360282,34.91436767578125,97.60113525390624,-32.45286560058594
220311,0.0377655029296875,1.183746337890625,-0.4701690673828125,-0.3136886954307556,-0.0348533205687999,-0.0629938766360282,34.91436767578125,97.60113525390624,-32.45286560058594
220312,0.0106353759765625,1.374801635742188,-0.5652313232421875,0.2221441119909286,0.3600865304470062,0.2202905565500259,34.566650390625,97.81588745117188,-32.0322265625
220313,0.0168609619140625,1.43670654296875,-0.6624603271484375,0.4478624761104584,0.5571703314781189,0.3928591310977936,34.5794677734375,97.80238342285156,-31.89422607421875
220314,0.0168609619140625,1.43670654296875,-0.6624603271484375,0.4478624761104584,0.5571703314781189,0.3928591310977936,34.5794677734375,97.80238342285156,-31.89422607421875
220315,0.0247955322265625,1.501068115234375,-0.6988067626953125,0.5681012868881226,0.6648033261299133,0.472780853509903,34.721435546875,97.81764221191406,-31.84068298339844
220316,0.050750732421875,1.4693603515625,-0.53125,0.5847577452659607,0.7923402190208435,0.4555369019508362,35.22724914550781,97.82991027832033,-32.34730529785156
220317,0.0580902099609375,1.400543212890625,-0.4651641845703125,0.6263142228126526,0.864480197429657,0.4730285406112671,35.54006958007812,97.73332214355467,-32.70567321777344
220318,0.0580902099609375,1.400543212890625,-0.4651641845703125,0.6263142228126526,0.864480197429657,0.4730285406112671,35.54006958007812,97.73332214355467,-32.70567321777344
220319,0.0650177001953125,1.343032836914062,-0.4260406494140625,0.6765233278274536,0.9264868497848512,0.4992865025997162,35.84028625488281,97.57716369628906,-32.99974060058594
220320,0.0627899169921875,1.254241943359375,-0.34173583984375,0.6503825783729553,0.8520607948303223,0.4686060845851898,36.63803100585938,97.57223510742188,-33.93315124511719
220321,0.0518951416015625,1.21875,-0.27581787109375,0.5395969152450562,0.6938890218734741,0.4054454863071442,37.11253356933594,97.540283203125,-34.47343444824219
220322,0.0209503173828125,1.193695068359375,-0.1808624267578125,0.3526190519332886,0.5165699124336243,0.3342607915401459,37.5653076171875,97.55921936035156,-34.99884033203125
220323,0.0209503173828125,1.193695068359375,-0.1808624267578125,0.3526190519332886,0.5165699124336243,0.3342607915401459,37.5653076171875,97.55921936035156,-34.99884033203125
220324,-0.0085296630859375,1.156890869140625,-0.0976715087890625,0.1100804284214973,0.2962689399719238,0.2964510917663574,37.98838806152344,97.4471435546875,-35.35145568847656
220325,-0.0261383056640625,1.123886108398438,0.0423583984375,-0.076768547296524,-0.4684484302997589,0.35796719789505,38.76226806640625,97.43421936035156,-36.008056640625
220326,-0.0073089599609375,1.099929809570312,0.14312744140625,-0.076768547296524,-0.4684484302997589,0.35796719789505,38.95112609863281,97.40266418457033,-35.90396118164062
220327,0.021026611328125,1.0540771484375,0.1912841796875,0.1209943294525146,-0.5954617857933044,0.524598240852356,39.10777282714844,97.42759704589844,-35.7303466796875
220328,0.047943115234375,1.013015747070312,0.1698760986328125,0.1209943294525146,-0.5954617857933044,0.524598240852356,39.33026123046875,97.31137084960938,-35.63453674316406
220329,0.0754241943359375,0.972564697265625,0.1115875244140625,0.2767834067344666,-0.7720575928688049,0.5864019393920898,39.53688049316406,97.19923400878906,-35.29219055175781
220330,0.0754241943359375,0.972564697265625,0.1115875244140625,0.2767834067344666,-0.7720575928688049,0.5864019393920898,39.53688049316406,97.19923400878906,-35.29219055175781
220331,0.113006591796875,0.8761749267578125,0.096832275390625,0.6423384547233582,-1.175182700157166,0.5146569609642029,39.81025695800781,97.21617126464844,-35.58853149414062
220332,0.1291046142578125,0.8007354736328125,0.127288818359375,0.666399359703064,-1.163947582244873,0.4038302898406982,39.91920471191406,97.23300170898438,-35.88624572753906
220333,0.1559295654296875,0.750946044921875,0.159088134765625,0.5309469699859619,-0.9646922945976256,0.2888997197151184,39.92550659179688,97.13020324707033,-36.07008361816406
220334,0.1559295654296875,0.750946044921875,0.159088134765625,0.5309469699859619,-0.9646922945976256,0.2888997197151184,39.92550659179688,97.13020324707033,-36.07008361816406
220335,0.1181640625,0.8517303466796875,0.150909423828125,0.1677120327949524,-0.2840794026851654,0.2322793155908585,39.80912780761719,96.707763671875,-36.31733703613281
220336,0.0131683349609375,0.9361724853515624,0.091705322265625,0.1189335808157921,-0.1824041604995728,0.2288179993629456,39.81358337402344,96.58802795410156,-36.47705078125
220337,-0.0401153564453125,0.92523193359375,0.065887451171875,0.1504528820514679,-0.2413284629583359,0.2288608700037003,39.83926391601562,96.4681396484375,-36.51052856445312
220338,-0.0401153564453125,0.92523193359375,0.065887451171875,0.1504528820514679,-0.2413284629583359,0.2288608700037003,39.83926391601562,96.4681396484375,-36.51052856445312
220339,-0.0878448486328125,0.8045806884765625,0.0412139892578125,0.2036420702934265,-0.239674374461174,0.2269154340028763,40.07769775390625,96.3597412109375,-36.61079406738281
220340,-0.109771728515625,0.76226806640625,0.0889434814453125,0.2036420702934265,-0.239674374461174,0.2269154340028763,40.155029296875,96.40348815917967,-36.65382385253906
220341,-0.1370086669921875,0.7212371826171875,0.1197357177734375,0.1574839055538177,-0.108033262193203,0.2043057382106781,40.25819396972656,96.19178771972656,-36.62466430664062
220342,-0.1656951904296875,0.70458984375,0.1225738525390625,0.1003039702773094,0.0040245689451694,0.1677581071853638,40.32972717285156,96.16622924804688,-36.85337829589844
220343,-0.1656951904296875,0.70458984375,0.1225738525390625,0.1003039702773094,0.0040245689451694,0.1677581071853638,40.32972717285156,96.16622924804688,-36.85337829589844
220344,-0.1913299560546875,0.72637939453125,0.180145263671875,-0.0587706379592418,0.2597673833370209,0.0113418707624077,40.45252990722656,96.30622863769533,-36.83860778808594
220345,-0.1872406005859375,0.7455596923828125,0.206634521484375,-0.1318855881690979,0.3997745513916016,-0.0769600272178649,40.54270935058594,96.26632690429688,-36.74024963378906
220346,-0.1872406005859375,0.7455596923828125,0.206634521484375,-0.1318855881690979,0.3997745513916016,-0.0769600272178649,40.54270935058594,96.26632690429688,-36.74024963378906
220347,-0.1240692138671875,0.8614959716796875,0.2789306640625,-0.2570658922195435,0.5579738020896912,-0.2271793633699417,40.55079650878906,96.31813049316406,-36.6658935546875
220348,-0.07464599609375,0.9276275634765624,0.3260650634765625,-0.3216682970523834,0.5818386673927307,-0.2388104498386383,40.52061462402344,96.54302978515624,-36.71781921386719
220349,-0.0633392333984375,0.9231109619140624,0.3574981689453125,-0.3833841383457184,0.5765975117683411,-0.2619876861572266,40.55790710449219,96.5580596923828,-36.71762084960938
220350,-0.0633392333984375,0.9231109619140624,0.3574981689453125,-0.3833841383457184,0.5765975117683411,-0.2619876861572266,40.55790710449219,96.5580596923828,-36.71762084960938
220351,-0.0929718017578125,0.81231689453125,0.36126708984375,-0.5049933791160583,0.4854961335659027,-0.3328477442264557,40.59280395507812,96.67678833007812,-36.71754455566406
220352,-0.1292877197265625,0.776885986328125,0.355499267578125,-0.5670847296714783,0.4231429994106293,-0.3930213153362274,40.59797668457031,96.80482482910156,-36.56134033203125
220353,-0.16650390625,0.7501373291015625,0.35107421875,-0.642728865146637,0.3525338172912598,-0.4660997986793518,40.58625793457031,96.93382263183594,-36.31773376464844
220354,-0.16650390625,0.7501373291015625,0.35107421875,-0.642728865146637,0.3525338172912598,-0.4660997986793518,40.58625793457031,96.93382263183594,-36.31773376464844
220355,-0.22613525390625,0.711639404296875,0.3013153076171875,-0.9047173857688904,0.1533211171627045,-0.6078864932060242,40.31005859375,97.08554077148438,-35.91950988769531
220356,-0.2343292236328125,0.7081451416015625,0.241729736328125,-1.096182346343994,0.0011395666515454,-0.6510576605796814,40.056396484375,97.27767944335938,-35.60801696777344
220357,-0.2207183837890625,0.71795654296875,0.1607666015625,-1.294040322303772,-0.2433921545743942,-0.6621185541152954,39.74526977539062,97.551513671875,-35.17852783203125
220358,-0.2207183837890625,0.71795654296875,0.1607666015625,-1.294040322303772,-0.2433921545743942,-0.6621185541152954,39.74526977539062,97.551513671875,-35.17852783203125
220359,-0.1743011474609375,0.774169921875,0.0719146728515625,-1.432117581367493,-0.607673168182373,-0.6621156334877014,39.40126037597656,97.70603942871094,-34.63070678710938
220360,0.003021240234375,0.9761505126953124,0.0787506103515625,-1.526675462722778,-1.114894032478333,-0.6469576954841614,38.51829528808594,98.14996337890624,-33.32109069824219
220361,0.09259033203125,1.114273071289062,0.0182647705078125,-1.359528064727783,-0.7401883602142334,-0.6111046671867371,37.85282897949219,98.41497802734376,-32.25212097167969
220362,0.09259033203125,1.114273071289062,0.0182647705078125,-1.359528064727783,-0.7401883602142334,-0.6111046671867371,37.85282897949219,98.41497802734376,-32.25212097167969
220363,0.15362548828125,1.246307373046875,-0.1330108642578125,-1.359528064727783,-0.7401883602142334,-0.6111046671867371,37.32673645019531,98.69808959960938,-31.37345886230469
220364,0.1766357421875,1.383026123046875,-0.2171478271484375,-0.8110670447349548,-0.103433184325695,-0.4991781115531921,36.30294799804688,98.98890686035156,-29.56416320800781
220365,0.1522064208984375,1.378875732421875,-0.19024658203125,-0.701590895652771,-0.0698043778538703,-0.4220364689826965,35.96623229980469,99.1322784423828,-29.0255126953125
220366,0.1522064208984375,1.378875732421875,-0.19024658203125,-0.701590895652771,-0.0698043778538703,-0.4220364689826965,35.96623229980469,99.1322784423828,-29.0255126953125
220367,0.148193359375,1.292037963867188,-0.1929168701171875,-0.4432812929153442,-0.3288188874721527,-0.2539515793323517,35.44609069824219,99.42507934570312,-28.30503845214844
220368,0.1433258056640625,1.210113525390625,-0.2149505615234375,-0.1114964336156845,-0.3669766783714294,-0.1708710789680481,35.14126586914062,99.41571044921876,-27.9610595703125
220369,0.1206207275390625,1.134109497070312,-0.242645263671875,0.2042077332735062,-0.3690275847911835,-0.1017679050564766,35.00440979003906,99.483154296875,-27.81515502929688
220370,0.0684967041015625,1.10797119140625,-0.3178863525390625,0.4132432341575623,-0.3410316109657288,-0.0571548976004123,34.92243957519531,99.49859619140624,-27.73716735839844
220371,0.0684967041015625,1.10797119140625,-0.3178863525390625,0.4132432341575623,-0.3410316109657288,-0.0571548976004123,34.92243957519531,99.49859619140624,-27.73716735839844
220372,-0.01654052734375,1.16729736328125,-0.4434967041015625,0.5900827050209045,-0.2035914659500122,-0.0088057424873113,34.82304382324219,99.2509307861328,-27.73197937011719
220373,-0.021575927734375,1.198394775390625,-0.4425811767578125,0.6325622797012329,-0.0775677636265754,-0.0280169863253831,34.84538269042969,99.2017822265625,-27.96426391601562
220374,-0.021575927734375,1.198394775390625,-0.4425811767578125,0.6325622797012329,-0.0775677636265754,-0.0280169863253831,34.84538269042969,99.2017822265625,-27.96426391601562
220375,-0.00390625,1.226455688476562,-0.396697998046875,0.6459246873855591,0.0774290114641189,-0.0431405454874038,34.79939270019531,99.22779846191406,-28.20187377929688
220376,0.050384521484375,1.23907470703125,-0.3137664794921875,0.6968733668327332,0.2203813791275024,0.022539397701621,34.94050598144531,98.95423889160156,-28.8946533203125
220377,0.0754547119140625,1.23114013671875,-0.24566650390625,0.7350044846534729,0.2073419988155365,0.0893549099564552,34.97151184082031,98.87066650390624,-29.13481140136719
220378,0.0754547119140625,1.23114013671875,-0.24566650390625,0.7350044846534729,0.2073419988155365,0.0893549099564552,34.97151184082031,98.87066650390624,-29.13481140136719
220379,0.0932464599609375,1.242294311523438,-0.192779541015625,0.7316739559173584,0.1755920648574829,0.1512401252985001,35.14149475097656,98.8115234375,-29.58277893066406
220380,0.115753173828125,1.28875732421875,-0.0453033447265625,0.6125789880752563,0.0046155243180692,0.2341903895139694,35.40443420410156,98.58670043945312,-30.39811706542969
220381,0.1016998291015625,1.328628540039062,0.07952880859375,0.5138524174690247,-0.0828906223177909,0.2559217810630798,35.54690551757812,98.5041046142578,-30.77899169921875
220382,0.1016998291015625,1.328628540039062,0.07952880859375,0.5138524174690247,-0.0828906223177909,0.2559217810630798,35.54690551757812,98.5041046142578,-30.77899169921875
220383,0.052703857421875,1.371429443359375,0.2033843994140625,0.4177168011665344,-0.1446637064218521,0.2463005930185318,35.70405578613281,98.3388671875,-31.08949279785156
220384,-0.0467987060546875,1.460281372070312,0.30010986328125,0.2690439820289612,-0.2968742847442627,0.1115715354681015,36.00819396972656,98.29598999023438,-31.57723999023438
220385,-0.0993499755859375,1.471481323242188,0.2694549560546875,0.2619876861572266,-0.3940016329288483,-0.0447821170091629,36.22172546386719,98.3114776611328,-31.60980224609375
220386,-0.0993499755859375,1.471481323242188,0.2694549560546875,0.2619876861572266,-0.3940016329288483,-0.0447821170091629,36.22172546386719,98.3114776611328,-31.60980224609375
220387,-0.1469268798828125,1.27813720703125,0.1662139892578125,0.482301652431488,-0.5903767347335815,-0.2698120474815369,36.29817199707031,98.0748291015625,-31.86573791503906
220388,-0.12750244140625,1.164627075195312,0.1066741943359375,0.6883531212806702,-0.6911147832870483,-0.3106473386287689,36.27667236328125,98.06637573242188,-31.86300659179688
220389,-0.0788726806640625,1.052261352539062,0.0485992431640625,0.8481816649436951,-0.7568615674972534,-0.3455592691898346,36.07438659667969,97.8726043701172,-31.84271240234375
220390,-0.0788726806640625,1.052261352539062,0.0485992431640625,0.8481816649436951,-0.7568615674972534,-0.3455592691898346,36.07438659667969,97.8726043701172,-31.84271240234375
220391,-0.0446624755859375,0.9657440185546876,0.0086517333984375,0.921190083026886,-0.8028604984283447,-0.3620026707649231,35.99253845214844,97.73786926269533,-32.13760375976562
220392,-0.027313232421875,0.8531494140625,0.0027008056640625,0.8067428469657898,-0.8845612406730652,-0.3791755437850952,35.54579162597656,97.17909240722656,-32.75706481933594
220393,-0.064178466796875,0.810302734375,0.015960693359375,0.8067428469657898,-0.8845612406730652,-0.3791755437850952,35.40925598144531,96.82315063476562,-33.02546691894531
220394,-0.064178466796875,0.810302734375,0.015960693359375,0.8067428469657898,-0.8845612406730652,-0.3791755437850952,35.40925598144531,96.82315063476562,-33.02546691894531
220395,-0.0941619873046875,0.7918853759765625,0.0050506591796875,0.7422078251838684,-0.9237655997276306,-0.3446042537689209,35.2357177734375,96.54783630371094,-33.26347351074219
220396,-0.200958251953125,0.7242279052734375,0.0731201171875,0.6835058927536011,-0.948244333267212,-0.3235975205898285,34.79054260253906,96.0370635986328,-33.57710266113281
220397,-0.2819366455078125,0.6964111328125,0.111968994140625,0.6741025447845459,-0.7832931876182556,-0.3169167041778564,34.59756469726562,95.884521484375,-33.78024291992188
220398,-0.2819366455078125,0.6964111328125,0.111968994140625,0.6741025447845459,-0.7832931876182556,-0.3169167041778564,34.59756469726562,95.884521484375,-33.78024291992188
220399,-0.3558349609375,0.676544189453125,0.120880126953125,0.6550252437591553,-0.5385982394218445,-0.3227295875549316,34.33389282226562,95.73820495605467,-33.96965026855469
220400,-0.4245147705078125,0.5697784423828125,0.131317138671875,0.5689979195594788,0.0328053496778011,-0.2287160009145737,34.11973571777344,95.22608947753906,-34.26539611816406
220401,-0.3980712890625,0.52618408203125,0.1260986328125,0.5232983827590942,0.298870861530304,-0.1028624624013901,34.0994873046875,94.95513916015624,-34.38031005859375
220402,-0.3980712890625,0.52618408203125,0.1260986328125,0.5232983827590942,0.298870861530304,-0.1028624624013901,34.0994873046875,94.95513916015624,-34.38031005859375
220403,-0.3360595703125,0.516265869140625,0.13580322265625,0.4601542949676514,0.4898799657821655,0.0278563983738422,33.99110412597656,94.85739135742188,-34.72288513183594
220404,-0.1694793701171875,0.62890625,0.211029052734375,0.1759294867515564,0.6116471290588379,0.2861678302288055,34.09925842285156,94.80606079101562,-35.19125366210938
220405,-0.123748779296875,0.7552490234375,0.2657470703125,-0.0262989811599254,0.5381689071655273,0.3662682771682739,34.248779296875,94.74107360839844,-35.40036010742188
220406,-0.123748779296875,0.7552490234375,0.2657470703125,-0.0262989811599254,0.5381689071655273,0.3662682771682739,34.248779296875,94.74107360839844,-35.40036010742188
220407,-0.1230316162109375,0.910491943359375,0.341583251953125,-0.192700207233429,0.4586053788661957,0.3743695914745331,34.4495849609375,94.82211303710938,-35.60820007324219
220408,-0.151397705078125,0.99267578125,0.4416046142578125,-0.3330232203006744,0.3169185519218445,0.2123167812824249,34.81886291503906,95.09187316894533,-35.70065307617188
220409,-0.1448516845703125,0.91986083984375,0.4464111328125,-0.3564784824848175,0.2069332003593445,0.1328922659158707,35.04551696777344,95.1641082763672,-35.70933532714844
220410,-0.1448516845703125,0.91986083984375,0.4464111328125,-0.3564784824848175,0.2069332003593445,0.1328922659158707,35.04551696777344,95.1641082763672,-35.70933532714844
220411,-0.070465087890625,0.8351287841796875,0.4319000244140625,-0.5035765767097473,-0.2562589347362518,0.0303903967142105,35.22393798828125,95.35935974121094,-35.60035705566406
220412,-0.02978515625,0.8312530517578125,0.4145965576171875,-0.5035765767097473,-0.2562589347362518,0.0303903967142105,35.11714172363281,95.5407257080078,-35.34085083007812
220413,-0.00177001953125,0.8390350341796875,0.3750457763671875,-0.6616408228874207,-0.6603882908821106,-0.0297517701983451,35.07649230957031,95.58792114257812,-35.0848388671875
220414,-0.00177001953125,0.8390350341796875,0.3750457763671875,-0.6616408228874207,-0.6603882908821106,-0.0297517701983451,35.07649230957031,95.58792114257812,-35.0848388671875
220415,0.0010223388671875,0.846221923828125,0.3301849365234375,-0.6616408228874207,-0.6603882908821106,-0.0297517701983451,35.04716491699219,95.86180114746094,-34.84547424316406
220416,-0.054779052734375,0.89117431640625,0.20831298828125,-0.6863986253738403,-0.7362045049667358,-0.1250806897878647,34.67803955078125,96.27072143554688,-34.16694641113281
220417,-0.099761962890625,0.908203125,0.0856475830078125,-0.5774092674255371,-0.6734684109687805,-0.2071952670812607,34.46484375,96.32594299316406,-33.72828674316406
220418,-0.099761962890625,0.908203125,0.0856475830078125,-0.5774092674255371,-0.6734684109687805,-0.2071952670812607,34.46484375,96.32594299316406,-33.72828674316406
220419,-0.14605712890625,0.913818359375,-0.036895751953125,-0.2701222896575928,-0.4457460641860962,-0.3341422975063324,34.09307861328125,96.52462768554688,-33.22010803222656
220420,-0.214630126953125,0.931243896484375,-0.1677703857421875,-0.1867858618497849,-0.0781190395355224,-0.3287424743175507,33.45736694335938,96.8065948486328,-32.55552673339844
220421,-0.229339599609375,0.939117431640625,-0.2539825439453125,-0.1801218390464783,0.0610556304454803,-0.3118058145046234,33.17100524902344,96.86515808105467,-32.31147766113281
220422,-0.229339599609375,0.939117431640625,-0.2539825439453125,-0.1801218390464783,0.0610556304454803,-0.3118058145046234,33.17100524902344,96.86515808105467,-32.31147766113281
220423,-0.23455810546875,0.9786529541015624,-0.252288818359375,-0.250264436006546,0.0055316518992185,-0.295922726392746,32.81666564941406,96.94586181640624,-32.33419799804688
220424,-0.21759033203125,1.148056030273438,-0.260009765625,-0.3382198512554169,0.120159700512886,-0.1135838180780411,32.53913879394531,96.90495300292967,-31.99598693847656
220425,-0.181060791015625,1.256622314453125,-0.302276611328125,-0.3382198512554169,0.120159700512886,-0.1135838180780411,32.35400390625,96.94352722167967,-31.59832763671875
220426,-0.1376190185546875,1.297348022460938,-0.330169677734375,-0.1882833540439606,0.1778134107589722,0.0027441212441772,32.22059631347656,97.0025634765625,-31.28350830078125
220427,-0.1376190185546875,1.297348022460938,-0.330169677734375,-0.1882833540439606,0.1778134107589722,0.0027441212441772,32.22059631347656,97.0025634765625,-31.28350830078125
220428,-0.082611083984375,1.226608276367188,-0.3562774658203125,0.1094617769122124,0.302685558795929,0.2725947797298431,32.09646606445312,97.03952026367188,-30.75341796875
220429,-0.0317535400390625,1.17364501953125,-0.4056854248046875,0.27391117811203,0.3760050535202026,0.4102658331394196,32.16731262207031,96.9753875732422,-30.64935302734375
220430,0.0369873046875,1.121627807617188,-0.4433441162109375,0.4401089251041412,0.4919188618659973,0.5359990000724792,32.27154541015625,96.96365356445312,-30.86967468261719
220431,0.0369873046875,1.121627807617188,-0.4433441162109375,0.4401089251041412,0.4919188618659973,0.5359990000724792,32.27154541015625,96.96365356445312,-30.86967468261719
220432,0.095184326171875,1.113388061523438,-0.46112060546875,0.5783352255821228,0.7083039283752441,0.6955095529556274,32.50956726074219,97.05751037597656,-31.30107116699219
220433,0.1689605712890625,1.211471557617188,-0.4136810302734375,0.4995413720607758,0.7256466746330261,0.6622426509857178,33.04264831542969,97.09962463378906,-31.99398803710938
220434,0.1689605712890625,1.211471557617188,-0.4136810302734375,0.4995413720607758,0.7256466746330261,0.6622426509857178,33.04264831542969,97.09962463378906,-31.99398803710938
220435,0.152252197265625,1.349411010742188,-0.3540191650390625,0.3509971797466278,0.6244683861732483,0.4686359167098999,33.77386474609375,97.0469970703125,-32.77580261230469
220436,0.111328125,1.3775634765625,-0.34478759765625,0.3763526082038879,0.5979806184768677,0.4156113266944885,34.24922180175781,96.99739074707033,-32.96405029296875
220437,0.0731658935546875,1.370697021484375,-0.32977294921875,0.4480108022689819,0.6005159020423889,0.401047557592392,34.64720153808594,97.00106811523438,-33.16990661621094
220438,0.0731658935546875,1.370697021484375,-0.32977294921875,0.4480108022689819,0.6005159020423889,0.401047557592392,34.64720153808594,97.00106811523438,-33.16990661621094
220439,0.0442657470703125,1.345001220703125,-0.311126708984375,0.5288662314414978,0.5918537378311157,0.4013010859489441,34.97251892089844,96.94944763183594,-33.43264770507812
220440,0.026611328125,1.23602294921875,-0.2461700439453125,0.592579185962677,0.5482466220855713,0.407805323600769,35.58879089355469,97.00656127929688,-34.21334838867188
220441,0.0349578857421875,1.180953979492188,-0.2032928466796875,0.5217910408973694,0.4427979290485382,0.3991369903087616,35.88409423828125,96.94757080078124,-34.39469909667969
220442,0.0409393310546875,1.092315673828125,-0.1541748046875,0.3606047928333282,0.284148633480072,0.3791377246379852,36.23403930664062,96.75668334960938,-34.83226013183594
220443,0.0409393310546875,1.092315673828125,-0.1541748046875,0.3606047928333282,0.284148633480072,0.3791377246379852,36.23403930664062,96.75668334960938,-34.83226013183594
220444,0.075469970703125,0.938629150390625,-0.149505615234375,0.0941893458366394,-0.2446997612714767,0.4394071996212006,36.7747802734375,96.45826721191406,-35.53952026367188
220445,0.111602783203125,0.872406005859375,-0.105072021484375,0.1329846829175949,-0.5183696746826172,0.5319216847419739,37.08999633789062,96.44622802734376,-35.5211181640625
220446,0.111602783203125,0.872406005859375,-0.105072021484375,0.1329846829175949,-0.5183696746826172,0.5319216847419739,37.08999633789062,96.44622802734376,-35.5211181640625
220447,0.1424713134765625,0.832061767578125,-0.051055908203125,0.3923395574092865,-0.6464825868606567,0.7078943252563477,37.28594970703125,96.3695068359375,-35.50212097167969
220448,0.185699462890625,0.832427978515625,-0.0419921875,0.5127567648887634,-0.6140567660331726,0.750985860824585,37.75677490234375,96.29104614257812,-35.73283386230469
220449,0.1957550048828125,0.8610382080078125,-0.061126708984375,0.5535851716995239,-0.583017110824585,0.7330942153930664,37.92506408691406,96.33763122558594,-35.73672485351562
220450,0.2064666748046875,0.903228759765625,-0.0617523193359375,0.4283015429973602,-0.5115748643875122,0.4971237480640411,38.13583374023438,96.08998107910156,-35.69822692871094
220451,0.2064666748046875,0.903228759765625,-0.0617523193359375,0.4283015429973602,-0.5115748643875122,0.4971237480640411,38.13583374023438,96.08998107910156,-35.69822692871094
220452,0.193511962890625,0.99322509765625,0.006195068359375,0.3618285059928894,-0.425258606672287,0.3316762149333954,38.60321044921875,95.99534606933594,-36.08460998535156
220453,0.116729736328125,0.98297119140625,0.046875,0.3583640158176422,-0.3169060349464417,0.2459932565689087,38.78619384765625,95.86929321289062,-36.304931640625
220454,0.0442657470703125,0.959197998046875,0.058135986328125,0.3900697529315948,-0.2308451980352402,0.2409825176000595,38.98817443847656,95.79884338378906,-36.41973876953125
220455,0.0442657470703125,0.959197998046875,0.058135986328125,0.3900697529315948,-0.2308451980352402,0.2409825176000595,38.98817443847656,95.79884338378906,-36.41973876953125
220456,-0.0367279052734375,0.924530029296875,0.067901611328125,0.3335870206356049,-0.1473335325717926,0.2498628348112106,39.25088500976562,95.42497253417967,-36.48269653320312
220457,-0.076446533203125,0.8932952880859375,0.081817626953125,0.2498926520347595,-0.0906348302960395,0.2323485463857651,39.34751892089844,95.4237823486328,-36.75079345703125
220458,-0.076446533203125,0.8932952880859375,0.081817626953125,0.2498926520347595,-0.0906348302960395,0.2323485463857651,39.34751892089844,95.4237823486328,-36.75079345703125
220459,-0.117034912109375,0.864715576171875,0.100006103515625,0.1641442030668259,-0.0364738553762435,0.1791553795337677,39.4412841796875,95.44636535644533,-36.79006958007812
220460,-0.1622772216796875,0.8379364013671875,0.1139678955078125,0.084134317934513,0.0144921233877539,0.0694304704666137,39.58096313476562,95.3986358642578,-36.93336486816406
220461,-0.2388763427734375,0.8123779296875,0.162994384765625,-0.0747312307357788,0.1004429832100868,-0.1567991971969604,39.5904541015625,95.38803100585938,-37.13130187988281
220462,-0.2572479248046875,0.8364105224609375,0.191680908203125,-0.1697538793087006,0.3281704187393188,-0.2334580272436142,39.65235900878906,95.33088684082033,-36.98184204101562
220463,-0.2572479248046875,0.8364105224609375,0.191680908203125,-0.1697538793087006,0.3281704187393188,-0.2334580272436142,39.65235900878906,95.33088684082033,-36.98184204101562
220464,-0.1915130615234375,0.96881103515625,0.206756591796875,-0.1868670880794525,0.3930570185184479,-0.2107772082090378,39.61715698242188,95.46224975585938,-37.36900329589844
220465,-0.14288330078125,1.005828857421875,0.2117919921875,-0.2076874077320099,0.3697175979614258,-0.205396831035614,39.4981689453125,95.4765625,-37.32455444335938
220466,-0.14288330078125,1.005828857421875,0.2117919921875,-0.2076874077320099,0.3697175979614258,-0.205396831035614,39.4981689453125,95.4765625,-37.32455444335938
220467,-0.125213623046875,0.9654693603515624,0.2203369140625,-0.2591018676757812,0.3007550537586212,-0.2618694305419922,39.491943359375,95.4971923828125,-37.31411743164062
220468,-0.1347808837890625,0.83941650390625,0.2118682861328125,-0.28377366065979,0.2751988172531128,-0.2989582121372223,39.41334533691406,95.5949249267578,-37.124755859375
220469,-0.1340789794921875,0.7833709716796875,0.197357177734375,-0.3040991723537445,0.235640212893486,-0.3368294239044189,39.38729858398438,95.54180908203124,-36.88958740234375
220470,-0.1340789794921875,0.7833709716796875,0.197357177734375,-0.3040991723537445,0.235640212893486,-0.3368294239044189,39.38729858398438,95.54180908203124,-36.88958740234375
220471,-0.1330718994140625,0.7176971435546875,0.211944580078125,-0.4181844592094421,0.2182228863239288,-0.4243912398815155,39.22097778320312,95.68124389648438,-36.96311950683594
220472,-0.1412353515625,0.70556640625,0.2218170166015625,-0.5420624613761902,0.2554474771022797,-0.4599066078662872,39.094482421875,95.81256103515624,-36.70851135253906
220473,-0.147308349609375,0.7029571533203125,0.1985626220703125,-0.6905912160873413,0.2600022852420807,-0.4907095432281494,38.92427062988281,95.87818908691406,-36.58692932128906
220474,-0.147308349609375,0.7029571533203125,0.1985626220703125,-0.6905912160873413,0.2600022852420807,-0.4907095432281494,38.92427062988281,95.87818908691406,-36.58692932128906
220475,-0.14947509765625,0.713134765625,0.141265869140625,-0.8315438032150269,0.1466719955205917,-0.5162332653999329,38.65304565429688,95.88787841796876,-36.416259765625
220476,-0.14483642578125,0.7301025390625,0.0958099365234375,-0.95929217338562,-0.0505643747746944,-0.5268680453300476,38.51640319824219,96.08834838867188,-36.30831909179688
220477,-0.0830078125,0.79498291015625,0.034423828125,-1.170678734779358,-0.4318853616714478,-0.5031576752662659,38.07194519042969,96.33140563964844,-35.51759338378906
220478,-0.0830078125,0.79498291015625,0.034423828125,-1.170678734779358,-0.4318853616714478,-0.5031576752662659,38.07194519042969,96.33140563964844,-35.51759338378906
220479,-0.0202484130859375,0.842376708984375,0.0178985595703125,-1.227309226989746,-0.5523971319198608,-0.4631498157978058,37.84764099121094,96.46180725097656,-34.949462890625
220480,0.0785064697265625,1.008926391601562,-0.04681396484375,-1.129183173179626,-0.3347529470920563,-0.3379910886287689,37.06195068359375,96.88932800292967,-33.7626953125
220481,0.0886993408203125,1.098876953125,-0.1392974853515625,-0.9927271008491516,-0.1291531920433044,-0.3448346257209778,36.59768676757812,97.16671752929688,-33.01878356933594
220482,0.1091461181640625,1.18695068359375,-0.2240142822265625,-0.7383971214294434,-0.0174085516482591,-0.3449501991271973,36.17732238769531,97.47468566894533,-32.41923522949219
220483,0.1091461181640625,1.18695068359375,-0.2240142822265625,-0.7383971214294434,-0.0174085516482591,-0.3449501991271973,36.17732238769531,97.47468566894533,-32.41923522949219
220484,0.143157958984375,1.271942138671875,-0.2553863525390625,-0.7383971214294434,-0.0174085516482591,-0.3449501991271973,35.94926452636719,97.7333526611328,-31.92555236816406
220485,0.10760498046875,1.385604858398438,-0.2606353759765625,-0.539232075214386,-0.144558772444725,-0.3231218755245209,35.33876037597656,97.92678833007812,-30.9190673828125
220486,0.10760498046875,1.385604858398438,-0.2606353759765625,-0.539232075214386,-0.144558772444725,-0.3231218755245209,35.33876037597656,97.92678833007812,-30.9190673828125
220487,0.1217498779296875,1.35595703125,-0.3590240478515625,-0.1050601080060005,-0.3033726513385773,-0.1848449558019638,34.93290710449219,98.1352996826172,-30.21664428710938
220488,0.1443939208984375,1.267181396484375,-0.4403839111328125,0.2491051554679871,-0.3216624557971954,-0.0793595388531684,34.72636413574219,98.2302703857422,-29.87783813476562
220489,0.1443939208984375,1.267181396484375,-0.4403839111328125,0.2491051554679871,-0.3216624557971954,-0.0793595388531684,34.72636413574219,98.2302703857422,-29.87783813476562
220490,0.1685028076171875,1.156661987304688,-0.4987030029296875,0.5903109312057495,-0.2972607016563416,0.0117525300011038,34.60855102539062,98.1769561767578,-29.72860717773438
220491,0.178497314453125,1.063369750976562,-0.5474090576171875,0.9232425689697266,-0.1276921778917313,0.1516124308109283,34.60835266113281,97.9643096923828,-29.65043640136719
220492,0.1960296630859375,0.9886932373046876,-0.5690155029296875,0.8978312015533447,-0.0301640275865793,0.1724063903093338,34.61470031738281,97.79435729980467,-29.92266845703125
220493,0.2188720703125,0.996673583984375,-0.523162841796875,0.7126837372779846,0.0241173207759857,0.1862292587757111,34.59602355957031,97.65290832519533,-30.29603576660156
220494,0.2188720703125,0.996673583984375,-0.523162841796875,0.7126837372779846,0.0241173207759857,0.1862292587757111,34.59602355957031,97.65290832519533,-30.29603576660156
220495,0.2563018798828125,1.060333251953125,-0.4239349365234375,0.6475154161453247,-0.0360743813216686,0.2495049089193344,34.85870361328125,97.32180786132812,-30.60595703125
220496,0.2554168701171875,1.118377685546875,-0.3883514404296875,0.6475154161453247,-0.0360743813216686,0.2495049089193344,34.95120239257812,97.19099426269533,-31.03913879394531
220497,0.237457275390625,1.194931030273438,-0.3389434814453125,0.5989579558372498,-0.1073560193181038,0.2591724395751953,35.09294128417969,97.1453094482422,-31.56062316894531
220498,0.237457275390625,1.194931030273438,-0.3389434814453125,0.5989579558372498,-0.1073560193181038,0.2591724395751953,35.09294128417969,97.1453094482422,-31.56062316894531
220499,0.2048187255859375,1.293060302734375,-0.274932861328125,0.5183597803115845,-0.1960643082857132,0.2277633845806122,35.1947021484375,96.97537231445312,-31.83740234375
220500,0.1253814697265625,1.498611450195312,-0.113616943359375,0.3671777546405792,-0.5207752585411072,0.0029473204631358,35.54495239257812,96.97926330566406,-32.6478271484375
220501,0.0798797607421875,1.608123779296875,-0.02728271484375,0.3671777546405792,-0.5207752585411072,0.0029473204631358,35.66157531738281,96.97233581542967,-32.8983154296875
220502,0.0798797607421875,1.608123779296875,-0.02728271484375,0.3671777546405792,-0.5207752585411072,0.0029473204631358,35.66157531738281,96.97233581542967,-32.8983154296875
220503,0.0174713134765625,1.709442138671875,0.0454864501953125,0.6643041968345642,-0.6941390633583069,-0.2067859321832657,35.67857360839844,96.89498901367188,-33.06881713867188
220504,-0.0459136962890625,1.731903076171875,0.1123809814453125,0.6643041968345642,-0.6941390633583069,-0.2067859321832657,35.68212890625,96.81085205078124,-33.14630126953125
220505,-0.17156982421875,1.46844482421875,0.1703338623046875,1.101877808570862,-0.9080297946929932,-0.2319112569093704,35.73196411132812,96.40055847167967,-33.30905151367188
220506,-0.17156982421875,1.46844482421875,0.1703338623046875,1.101877808570862,-0.9080297946929932,-0.2319112569093704,35.73196411132812,96.40055847167967,-33.30905151367188
220507,-0.204376220703125,1.268524169921875,0.1732177734375,1.340265154838562,-1.120078444480896,-0.1432727426290512,35.65150451660156,96.17807006835938,-33.2822265625
220508,-0.182159423828125,0.89520263671875,0.1201934814453125,1.247443079948425,-1.289007782936096,-0.0985912904143333,35.41314697265625,95.53736877441406,-33.94071960449219
220509,-0.1891326904296875,0.7706451416015625,0.1194915771484375,1.142424941062927,-1.431322336196899,-0.0651616901159286,35.30946350097656,95.14170837402344,-34.13473510742188
220510,-0.183746337890625,0.695465087890625,0.092254638671875,1.103043794631958,-1.527026176452637,-0.0591589286923408,35.12272644042969,94.47006225585938,-34.5533447265625
220511,-0.183746337890625,0.695465087890625,0.092254638671875,1.103043794631958,-1.527026176452637,-0.0591589286923408,35.12272644042969,94.47006225585938,-34.5533447265625
220512,-0.26947021484375,0.68389892578125,0.0706329345703125,1.189854860305786,-1.273728132247925,-0.1093752235174179,34.66810607910156,93.79119873046876,-35.13945007324219
220513,-0.26947021484375,0.68389892578125,0.0706329345703125,1.189854860305786,-1.273728132247925,-0.1093752235174179,34.66810607910156,93.79119873046876,-35.13945007324219
220514,-0.3353424072265625,0.7066497802734375,0.040313720703125,1.174866318702698,-0.90437912940979,-0.1235517635941505,34.39366149902344,93.61697387695312,-35.43707275390625
220515,-0.3353424072265625,0.7066497802734375,0.040313720703125,1.174866318702698,-0.90437912940979,-0.1235517635941505,34.39366149902344,93.61697387695312,-35.43707275390625
220516,-0.3353424072265625,0.7066497802734375,0.040313720703125,1.174866318702698,-0.90437912940979,-0.1235517635941505,34.39366149902344,93.61697387695312,-35.43707275390625
220517,-0.1128997802734375,0.697723388671875,0.1558990478515625,0.4883968532085419,-0.2838197350502014,-0.0235756337642669,33.64337158203125,92.56105041503906,-36.70059204101562
220518,-0.0152587890625,0.6694488525390625,0.293426513671875,-0.1236175447702408,-0.087489366531372,0.0673177912831306,33.51739501953125,92.5089111328125,-36.79411315917969
220519,-0.0152587890625,0.6694488525390625,0.293426513671875,-0.1236175447702408,-0.087489366531372,0.0673177912831306,33.51739501953125,92.5089111328125,-36.79411315917969
220520,0.0070037841796875,0.682586669921875,0.30419921875,-0.3425975739955902,-0.1023263707756996,0.1203892603516579,33.5533447265625,92.42294311523438,-36.78294372558594
220521,0.0070037841796875,0.682586669921875,0.30419921875,-0.3425975739955902,-0.1023263707756996,0.1203892603516579,33.5533447265625,92.42294311523438,-36.78294372558594
220522,-0.0320892333984375,0.7829742431640625,0.323638916015625,-0.4535136818885803,-0.0802623480558395,0.1679330766201019,33.54890441894531,92.44796752929688,-36.59480285644531
220523,-0.088409423828125,0.849761962890625,0.28790283203125,-0.3897578716278076,0.2240552008152008,0.1666041612625122,33.57830810546875,92.41903686523438,-36.4710693359375
220524,-0.1142578125,0.8222808837890625,0.1632843017578125,-0.3137320876121521,0.2570962309837341,0.1892237216234207,33.69384765625,92.5707550048828,-36.30657958984375
220525,-0.076507568359375,0.73101806640625,0.0054168701171875,-0.4129963517189026,0.1853320449590683,0.2296941727399826,33.94140625,92.80072021484376,-35.75393676757812
220526,-0.03045654296875,0.7227783203125,0.0474700927734375,-0.6065740585327148,0.1368460059165955,0.1922583878040314,33.984619140625,92.85720825195312,-35.637939453125
220527,-0.03045654296875,0.7227783203125,0.0474700927734375,-0.6065740585327148,0.1368460059165955,0.1922583878040314,33.984619140625,92.85720825195312,-35.637939453125
220528,0.026641845703125,0.7772674560546875,0.1380462646484375,-0.8248305320739746,0.1120802015066147,0.1111038848757744,34.12692260742188,93.26502990722656,-35.57742309570312
220529,0.0271148681640625,0.8429107666015625,0.1471710205078125,-1.013288021087646,0.0927570983767509,0.0103138899430632,34.21241760253906,93.43704223632812,-35.26576232910156
220530,0.0271148681640625,0.8429107666015625,0.1471710205078125,-1.013288021087646,0.0927570983767509,0.0103138899430632,34.21241760253906,93.43704223632812,-35.26576232910156
220531,-0.0233001708984375,1.014801025390625,0.080780029296875,-1.158157110214233,-0.098750814795494,-0.3075639307498932,34.18157958984375,93.92103576660156,-34.81341552734375
220532,-0.044769287109375,1.08612060546875,0.0455169677734375,-1.158157110214233,-0.098750814795494,-0.3075639307498932,34.0726318359375,94.31350708007812,-34.31221008300781
220533,-0.0633697509765625,1.149703979492188,0.0153656005859375,-1.101593375205994,-0.126030370593071,-0.3930650055408478,33.86038208007812,94.6341552734375,-33.85513305664062
220534,-0.0633697509765625,1.149703979492188,0.0153656005859375,-1.101593375205994,-0.126030370593071,-0.3930650055408478,33.86038208007812,94.6341552734375,-33.85513305664062
220535,-0.0733642578125,1.156707763671875,-0.0288238525390625,-0.9901278614997864,-0.1038092225790024,-0.4455415308475494,33.57841491699219,94.86782836914062,-33.17526245117188
220536,-0.0816497802734375,1.086380004882812,-0.116729736328125,-0.6476970314979553,-0.0210240595042705,-0.4179394543170929,33.00955200195312,95.31076049804688,-32.59426879882812
220537,-0.08837890625,1.04925537109375,-0.1567535400390625,-0.5318534970283508,0.0195481348782777,-0.3721442818641663,32.82817077636719,95.3067626953125,-32.24931335449219
220538,-0.08837890625,1.04925537109375,-0.1567535400390625,-0.5318534970283508,0.0195481348782777,-0.3721442818641663,32.82817077636719,95.3067626953125,-32.24931335449219
220539,-0.097320556640625,1.06298828125,-0.2194976806640625,-0.4813442528247833,0.1163021102547646,-0.3650906085968018,32.37129211425781,95.53173828125,-31.52629089355469
220540,-0.1003265380859375,1.10858154296875,-0.256622314453125,-0.5020465850830078,0.1274130791425705,-0.3917629718780518,32.068359375,95.63577270507812,-31.25587463378906
220541,-0.0913543701171875,1.139129638671875,-0.2613677978515625,-0.5093569755554199,0.0973342731595039,-0.4074838757514954,31.98883056640625,95.68109130859376,-30.88735961914062
220542,-0.0859375,1.129226684570312,-0.2572479248046875,-0.5024500489234924,0.0563892386853694,-0.3963372111320496,31.7362060546875,95.73985290527344,-30.85894775390625
220543,-0.0569305419921875,1.085647583007812,-0.278228759765625,-0.4507847428321838,-0.0144324684515595,-0.302679717540741,31.49424743652344,95.92811584472656,-30.74041748046875
220544,-0.013336181640625,1.05072021484375,-0.3379364013671875,-0.3216414153575897,-0.026283536106348,-0.175674095749855,31.21096801757812,95.9395751953125,-30.43119812011719
220545,0.0385284423828125,1.010208129882812,-0.4177703857421875,-0.1134501323103905,0.0328524895012378,-0.0286060776561498,31.08334350585938,96.00022888183594,-30.18482971191406
220546,0.0385284423828125,1.010208129882812,-0.4177703857421875,-0.1134501323103905,0.0328524895012378,-0.0286060776561498,31.08334350585938,96.00022888183594,-30.18482971191406
220547,0.0659027099609375,1.0035400390625,-0.4925384521484375,0.2032543122768402,0.2288808524608612,0.2017291188240051,31.06001281738281,95.9239501953125,-30.40444946289062
220548,0.072509765625,1.0242919921875,-0.5372467041015625,0.2032543122768402,0.2288808524608612,0.2017291188240051,30.96809387207031,95.99501037597656,-30.44364929199219
220549,0.015716552734375,1.146041870117188,-0.4908599853515625,0.2260437905788422,0.3246864676475525,0.2359249144792557,31.28057861328125,95.97975158691406,-30.51847839355469
220550,-0.0244140625,1.188583374023438,-0.4676513671875,0.2484681308269501,0.3857207894325256,0.2096874415874481,31.35475158691406,95.9058837890625,-30.5797119140625
220551,-0.0572509765625,1.215225219726562,-0.452789306640625,0.3049878776073456,0.4447447061538696,0.1843131184577942,31.58222961425781,95.9190673828125,-30.6717529296875
220552,-0.0974273681640625,1.232986450195312,-0.4060211181640625,0.348223477602005,0.5576699376106262,0.163479208946228,31.86489868164062,95.95709228515624,-30.8359375
220553,-0.129852294921875,1.25439453125,-0.3421783447265625,0.3190842568874359,0.6833586096763611,0.1261856257915497,31.963134765625,96.05247497558594,-31.11494445800781
220554,-0.129852294921875,1.25439453125,-0.3421783447265625,0.3190842568874359,0.6833586096763611,0.1261856257915497,31.963134765625,96.05247497558594,-31.11494445800781
220555,-0.1371612548828125,1.20013427734375,-0.2455291748046875,0.1298860907554626,0.7249119281768799,0.0802447721362114,32.26261901855469,95.92994689941406,-31.69915771484375
220556,-0.1045074462890625,1.12908935546875,-0.1502685546875,0.0362448245286941,0.5393111705780029,0.1805189102888107,32.53982543945312,95.89300537109376,-31.97111511230469
220557,-0.07763671875,1.068313598632812,-0.03997802734375,0.0362448245286941,0.5393111705780029,0.1805189102888107,32.73722839355469,95.93663024902344,-32.23185729980469
220558,-0.07763671875,1.068313598632812,-0.03997802734375,0.0362448245286941,0.5393111705780029,0.1805189102888107,32.73722839355469,95.93663024902344,-32.23185729980469
220559,-0.0421600341796875,1.03778076171875,0.1383056640625,-0.0619509853422641,0.2387814223766327,0.4596666693687439,33.12710571289062,96.02882385253906,-32.56448364257812
220560,-0.0204925537109375,1.049636840820312,0.1714324951171875,-0.0619509853422641,0.2387814223766327,0.4596666693687439,33.40234375,96.01815795898438,-32.55908203125
220561,0.012115478515625,1.061416625976562,0.1733245849609375,-0.149395614862442,0.0629896149039268,0.551715075969696,33.73185729980469,95.9868621826172,-32.4267578125
220562,0.012115478515625,1.061416625976562,0.1733245849609375,-0.149395614862442,0.0629896149039268,0.551715075969696,33.73185729980469,95.9868621826172,-32.4267578125
220563,0.036834716796875,1.058883666992188,0.17291259765625,-0.149395614862442,0.0629896149039268,0.551715075969696,33.83767700195312,96.07118225097656,-33.15425109863281
220564,0.0701446533203125,1.05255126953125,0.165985107421875,0.0151153029873967,-0.093450590968132,0.4590149819850922,34.25433349609375,96.43988037109376,-33.40087890625
220565,0.0950927734375,1.035720825195312,0.14105224609375,0.0148077085614204,-0.1840457320213318,0.3900558948516846,34.53135681152344,96.45700073242188,-33.22752380371094
220566,0.0950927734375,1.035720825195312,0.14105224609375,0.0148077085614204,-0.1840457320213318,0.3900558948516846,34.53135681152344,96.45700073242188,-33.22752380371094
220567,0.1392364501953125,1.010284423828125,0.1502685546875,-0.0358573347330093,-0.2417559027671814,0.3196419179439545,34.9605712890625,96.61428833007812,-33.41119384765625
220568,0.141937255859375,0.993927001953125,0.171112060546875,-0.1085642948746681,-0.2396352291107178,0.2243984788656235,35.14627075195312,96.47177124023438,-33.32949829101562
220569,0.142913818359375,0.9731292724609376,0.1485443115234375,-0.1085642948746681,-0.2396352291107178,0.2243984788656235,35.29966735839844,96.45469665527344,-33.11698913574219
220570,0.142913818359375,0.9731292724609376,0.1485443115234375,-0.1085642948746681,-0.2396352291107178,0.2243984788656235,35.29966735839844,96.45469665527344,-33.11698913574219
220571,0.12750244140625,0.959747314453125,0.0651397705078125,-0.0379601642489433,-0.3137070536613464,0.0994341820478439,35.38473510742188,96.3629150390625,-32.91218566894531
220572,0.0846710205078125,0.946685791015625,0.0256195068359375,0.0103714140132069,-0.3274319171905518,-0.0167060084640979,35.44876098632812,96.5487060546875,-32.72355651855469
220573,0.01727294921875,0.8937530517578125,-0.00250244140625,0.034563835710287,-0.2759405076503754,-0.2678828537464142,35.48823547363281,96.58308410644533,-32.81964111328125
220574,-0.0808563232421875,0.812255859375,-0.0114898681640625,-0.0056240637786686,-0.2285719215869904,-0.3388571441173553,35.49839782714844,96.66110229492188,-32.86515808105469
220575,-0.0808563232421875,0.812255859375,-0.0114898681640625,-0.0056240637786686,-0.2285719215869904,-0.3388571441173553,35.49839782714844,96.66110229492188,-32.86515808105469
220576,-0.221527099609375,0.709442138671875,-0.0236968994140625,-0.0494421161711216,-0.2134065479040146,-0.3959385454654694,35.23648071289062,96.55807495117188,-32.87034606933594
220577,-0.2702789306640625,0.677886962890625,-0.015106201171875,-0.0842158123850822,-0.2251681387424469,-0.4464826881885529,35.07081604003906,96.60763549804688,-32.930908203125
220578,-0.3076629638671875,0.66168212890625,0.0081024169921875,-0.1301060765981674,-0.2380160242319107,-0.4742040634155273,34.92544555664062,96.52268981933594,-32.74362182617188
220579,-0.328277587890625,0.66937255859375,0.0373382568359375,-0.1844803690910339,-0.2345070391893387,-0.4765641391277313,34.86172485351562,96.42213439941406,-32.78817749023438
220580,-0.326446533203125,0.6794586181640625,0.0522308349609375,-0.2829675078392029,-0.2766284048557281,-0.4287106096744537,34.60304260253906,96.34815979003906,-32.7215576171875
220581,-0.309722900390625,0.694549560546875,0.0644378662109375,-0.2944265604019165,-0.3130598962306976,-0.4174009561538696,34.38529968261719,96.28065490722656,-32.61006164550781
220582,-0.2833404541015625,0.72442626953125,0.0757598876953125,-0.2912225127220154,-0.3234281241893768,-0.4197013974189758,34.15257263183594,96.38493347167967,-32.47044372558594
220583,-0.2549591064453125,0.73980712890625,0.08380126953125,-0.3070768415927887,-0.3166977763175964,-0.4212282001972198,33.88069152832031,96.38612365722656,-32.15455627441406
220584,-0.237091064453125,0.7382965087890625,0.087188720703125,-0.3070768415927887,-0.3166977763175964,-0.4212282001972198,33.67559814453125,96.29867553710938,-31.95994567871094
220585,-0.234405517578125,0.7251739501953125,0.0867462158203125,-0.3541117310523987,-0.3240073621273041,-0.4240652620792389,33.49739074707031,96.32701110839844,-31.79029846191406
220586,-0.2337799072265625,0.7101287841796875,0.1007537841796875,-0.4234854876995087,-0.3401748836040497,-0.4371059536933899,33.23171997070312,96.38224792480467,-31.64938354492188
220587,-0.23272705078125,0.71246337890625,0.1261444091796875,-0.5192471742630005,-0.3310359716415405,-0.4605308473110199,33.04656982421875,96.43002319335938,-31.5860595703125
220588,-0.2398681640625,0.7434539794921875,0.149810791015625,-0.6539471745491028,-0.2864781022071838,-0.484463095664978,32.76821899414062,96.45033264160156,-31.27651977539062
220589,-0.2404937744140625,0.807403564453125,0.167633056640625,-0.8191201686859131,-0.2504551112651825,-0.5253878831863403,32.37962341308594,96.47122192382812,-30.93028259277344
220590,-0.2404937744140625,0.807403564453125,0.167633056640625,-0.8191201686859131,-0.2504551112651825,-0.5253878831863403,32.37962341308594,96.47122192382812,-30.93028259277344
220591,-0.2442474365234375,0.9788055419921876,0.2083892822265625,-1.185775637626648,-0.3071924448013306,-0.6078915596008301,31.70002746582031,96.70851135253906,-30.35675048828125
220592,-0.25079345703125,1.16595458984375,0.207061767578125,-1.323028326034546,-0.3590393960475922,-0.5860685110092163,31.34550476074219,96.83663940429688,-29.85061645507812
220593,-0.2050933837890625,1.21893310546875,0.19110107421875,-1.335348129272461,-0.6389123201370239,-0.505391538143158,31.03350830078125,96.89077758789062,-29.21107482910156
220594,-0.0811004638671875,1.218276977539062,0.1938629150390625,-1.142393350601196,-0.5172388553619385,-0.322740763425827,30.65289306640625,97.03854370117188,-28.72305297851562
220595,-0.017822265625,1.332534790039062,0.178436279296875,-0.8000617623329163,-0.4414288103580475,-0.256202757358551,30.23049926757812,97.15617370605467,-27.92878723144531
220596,-0.02752685546875,1.35992431640625,0.0392303466796875,-0.4859523177146912,-0.5167757272720337,-0.1884308904409409,29.85655212402344,97.26754760742188,-27.22866821289062
220597,-0.0155792236328125,1.275375366210938,0.0147857666015625,-0.4859523177146912,-0.5167757272720337,-0.1884308904409409,29.54228210449219,97.4796142578125,-26.50244140625
220598,-0.0155792236328125,1.275375366210938,0.0147857666015625,-0.4859523177146912,-0.5167757272720337,-0.1884308904409409,29.54228210449219,97.4796142578125,-26.50244140625
220599,0.003082275390625,1.10284423828125,0.032379150390625,-0.1324419230222702,-0.5381119251251221,-0.1709712147712708,29.22111511230469,97.48953247070312,-25.38359069824219
220600,0.01531982421875,0.98583984375,-0.0433502197265625,0.0607653446495533,-0.6440500617027283,-0.1714609712362289,29.07542419433594,97.45895385742188,-24.93252563476562
220601,0.0389862060546875,0.90374755859375,-0.145355224609375,0.0607653446495533,-0.6440500617027283,-0.1714609712362289,28.8963623046875,97.54795837402344,-24.96267700195312
220602,0.0389862060546875,0.90374755859375,-0.145355224609375,0.0607653446495533,-0.6440500617027283,-0.1714609712362289,28.8963623046875,97.54795837402344,-24.96267700195312
220603,0.0799102783203125,0.913604736328125,-0.2440032958984375,0.1527980715036392,-0.7260118126869202,-0.0991659983992576,28.5919189453125,97.57412719726562,-24.84674072265625
220604,0.0758209228515625,0.96026611328125,-0.2610931396484375,0.3361268937587738,-0.6643742918968201,0.0080904169008135,28.44601440429688,97.46656799316406,-24.70500183105469
220605,0.0780487060546875,1.021133422851562,-0.2630615234375,0.3361268937587738,-0.6643742918968201,0.0080904169008135,28.50299072265625,97.37922668457033,-24.49012756347656
220606,0.0780487060546875,1.021133422851562,-0.2630615234375,0.3361268937587738,-0.6643742918968201,0.0080904169008135,28.50299072265625,97.37922668457033,-24.49012756347656
220607,0.0362701416015625,1.124298095703125,-0.197967529296875,0.5336138606071472,-0.4611854553222656,0.0521601401269435,28.40040588378906,97.2510986328125,-24.30451965332031
220608,-0.0027923583984375,1.153732299804688,-0.150848388671875,0.5336138606071472,-0.4611854553222656,0.0521601401269435,28.37071228027344,97.2641143798828,-24.46353149414062
220609,-0.0243072509765625,1.184967041015625,-0.09613037109375,0.4774349927902222,-0.4429348111152649,0.0347984619438648,28.33209228515625,97.18537902832033,-24.6590576171875
220610,-0.0385589599609375,1.229095458984375,-0.026519775390625,0.4230207800865173,-0.3839340806007385,0.0160402189940214,28.32835388183594,97.10122680664062,-24.85774230957031
220611,-0.0385589599609375,1.229095458984375,-0.026519775390625,0.4230207800865173,-0.3839340806007385,0.0160402189940214,28.32835388183594,97.10122680664062,-24.85774230957031
220612,-0.0616912841796875,1.355941772460938,0.122894287109375,0.3504270017147064,-0.2440238445997238,-0.002821619156748,28.44082641601562,97.01068115234376,-25.37477111816406
220613,-0.102020263671875,1.445587158203125,0.1979522705078125,0.3056744337081909,-0.2387934029102325,-0.0298796016722917,28.40231323242188,96.89610290527344,-25.43190002441406
220614,-0.102020263671875,1.445587158203125,0.1979522705078125,0.3056744337081909,-0.2387934029102325,-0.0298796016722917,28.40231323242188,96.89610290527344,-25.43190002441406
220615,-0.122467041015625,1.600509643554688,0.3248138427734375,0.2827997505664825,-0.2680343687534332,-0.0793707221746444,28.53167724609375,96.82485961914062,-25.5849609375
220616,-0.1194915771484375,1.671188354492188,0.35589599609375,0.2997917830944061,-0.3388137519359589,-0.0618777498602867,28.490234375,96.82681274414062,-25.70539855957031
220617,-0.133880615234375,1.679275512695312,0.3458404541015625,0.3772916197776794,-0.3377045392990112,-0.0673236474394798,28.46821594238281,96.76882934570312,-25.72550964355469
220618,-0.133880615234375,1.679275512695312,0.3458404541015625,0.3772916197776794,-0.3377045392990112,-0.0673236474394798,28.46821594238281,96.76882934570312,-25.72550964355469
220619,-0.1282806396484375,1.4984130859375,0.260467529296875,0.5593053698539734,-0.2550834119319916,-0.007022222969681,28.50247192382812,96.6765594482422,-25.81405639648438
220620,-0.218109130859375,1.138900756835938,0.0329437255859375,0.8509953022003174,-0.3146301209926605,0.0489816591143608,28.56248474121094,96.6396026611328,-26.10877990722656
220621,-0.2075042724609375,0.9841461181640624,0.0141448974609375,0.7710959315299988,-0.4716434180736542,0.0374352559447288,28.64442443847656,96.55192565917967,-26.37077331542969
220622,-0.2075042724609375,0.9841461181640624,0.0141448974609375,0.7710959315299988,-0.4716434180736542,0.0374352559447288,28.64442443847656,96.55192565917967,-26.37077331542969
220623,-0.1866912841796875,0.863677978515625,0.00128173828125,0.7710959315299988,-0.4716434180736542,0.0374352559447288,28.81706237792969,96.38270568847656,-26.50308227539062
220624,-0.1518707275390625,0.693756103515625,-0.0949554443359375,0.6684574484825134,-0.4651370644569397,0.0129901003092527,28.83251953125,96.05085754394533,-26.98808288574219
220625,-0.1464691162109375,0.66668701171875,-0.14923095703125,0.7405062913894653,-0.4500433206558228,-0.0239535365253686,28.80084228515625,96.01033020019533,-27.23690795898438
220626,-0.157135009765625,0.6709136962890625,-0.198516845703125,0.7405062913894653,-0.4500433206558228,-0.0239535365253686,28.9000244140625,95.86418151855467,-27.18916320800781
220627,-0.157135009765625,0.6709136962890625,-0.198516845703125,0.7405062913894653,-0.4500433206558228,-0.0239535365253686,28.9000244140625,95.86418151855467,-27.18916320800781
220628,-0.1731719970703125,0.653076171875,-0.21343994140625,0.8849862813949585,-0.5035579800605774,-0.074271835386753,28.95187377929688,95.42681884765624,-27.54147338867188
220629,-0.169097900390625,0.6396942138671875,-0.1831512451171875,0.8876885771751404,-0.4822548031806946,-0.0976104438304901,28.88522338867188,95.24656677246094,-27.60800170898438
220630,-0.15093994140625,0.6228485107421875,-0.1433868408203125,0.8178719282150269,-0.4154099822044373,-0.1076255291700363,28.80168151855469,95.09782409667967,-28.10432434082031
220631,-0.15093994140625,0.6228485107421875,-0.1433868408203125,0.8178719282150269,-0.4154099822044373,-0.1076255291700363,28.80168151855469,95.09782409667967,-28.10432434082031
220632,-0.1312713623046875,0.610137939453125,-0.093353271484375,0.473254382610321,-0.313219428062439,-0.0454740077257156,28.74949645996094,95.18753051757812,-28.76498413085938
220633,-0.09063720703125,0.653228759765625,0.082244873046875,0.2255670726299286,-0.2527941763401031,0.0212629437446594,28.66085815429688,94.88142395019533,-29.251708984375
220634,-0.0741424560546875,0.69696044921875,0.1925048828125,-0.1805434077978134,0.0930351316928863,0.1461010128259659,28.50205993652344,94.80209350585938,-29.49012756347656
220635,-0.0590362548828125,0.730682373046875,0.2635498046875,-0.1805434077978134,0.0930351316928863,0.1461010128259659,28.47688293457031,94.83657836914062,-29.4312744140625
220636,-0.07110595703125,0.7620697021484375,0.2978057861328125,-0.2927463948726654,0.228169783949852,0.1780975610017776,28.56233215332031,94.87454223632812,-29.44609069824219
220637,-0.1171722412109375,0.7719268798828125,0.330078125,-0.3213732242584229,0.305076539516449,0.183415099978447,28.61006164550781,94.87478637695312,-29.40119934082031
220638,-0.1171722412109375,0.7719268798828125,0.330078125,-0.3213732242584229,0.305076539516449,0.183415099978447,28.61006164550781,94.87478637695312,-29.40119934082031
220639,-0.184906005859375,0.77484130859375,0.35711669921875,-0.3234702050685883,0.3368083834648132,0.1758746206760406,28.72087097167969,95.03013610839844,-29.37887573242188
220640,-0.2667999267578125,0.7138824462890625,0.341278076171875,-0.4089371562004089,0.1489806920289993,0.141065239906311,28.91743469238281,95.2953643798828,-29.09963989257812
220641,-0.2526092529296875,0.69012451171875,0.3280792236328125,-0.4784209132194519,-0.0824173763394355,0.165069654583931,29.02163696289062,95.33869934082033,-29.10728454589844
220642,-0.2526092529296875,0.69012451171875,0.3280792236328125,-0.4784209132194519,-0.0824173763394355,0.165069654583931,29.02163696289062,95.33869934082033,-29.10728454589844
220643,-0.1797332763671875,0.72625732421875,0.321380615234375,-0.5627437829971313,-0.3385958969593048,0.1642038524150848,29.0899658203125,95.41436767578124,-28.98545837402344
220644,-0.0959014892578125,0.778961181640625,0.327850341796875,-0.697409451007843,-0.53579181432724,0.1295947432518005,29.15280151367188,95.56614685058594,-28.82148742675781
220645,0.0252685546875,0.9117431640625,0.3319854736328125,-0.9813703298568726,-0.6275091767311096,0.021393971517682,29.01068115234375,95.78965759277344,-28.27630615234375
220646,0.0252685546875,0.9117431640625,0.3319854736328125,-0.9813703298568726,-0.6275091767311096,0.021393971517682,29.01068115234375,95.78965759277344,-28.27630615234375
220647,0.0633392333984375,1.118499755859375,0.313812255859375,-1.202292084693909,-0.384722113609314,-0.2890515029430389,28.80503845214844,96.21823120117188,-27.233642578125
220648,0.0315093994140625,1.238296508789062,0.296661376953125,-1.202292084693909,-0.384722113609314,-0.2890515029430389,28.67974853515625,96.21603393554688,-26.57675170898438
220649,-0.0272979736328125,1.313186645507812,0.2725372314453125,-1.252797603607178,-0.3705450296401978,-0.4023983180522919,28.60807800292969,96.20556640625,-25.94769287109375
220650,-0.0272979736328125,1.313186645507812,0.2725372314453125,-1.252797603607178,-0.3705450296401978,-0.4023983180522919,28.60807800292969,96.20556640625,-25.94769287109375
220651,-0.0991363525390625,1.42218017578125,0.171173095703125,-1.242777109146118,-0.4513554573059082,-0.4652427732944489,28.43020629882812,96.40289306640624,-25.31919860839844
220652,-0.0699920654296875,1.293975830078125,0.08746337890625,-0.4568554162979126,-0.1338680535554886,-0.3711594343185425,27.83293151855469,96.60272216796876,-24.25419616699219
220653,-0.097930908203125,1.2132568359375,0.0667266845703125,-0.4568554162979126,-0.1338680535554886,-0.3711594343185425,27.4957275390625,96.7133331298828,-23.59718322753906
220654,-0.097930908203125,1.2132568359375,0.0667266845703125,-0.4568554162979126,-0.1338680535554886,-0.3711594343185425,27.4957275390625,96.7133331298828,-23.59718322753906
220655,-0.1784515380859375,1.138671875,-0.0272216796875,-0.2039893567562103,0.0388491302728653,-0.2850032448768616,27.33985900878906,96.447265625,-22.89295959472656
220656,-0.2879486083984375,0.9697113037109376,0.00750732421875,-0.1177444756031036,0.1262157261371613,-0.1252055913209915,26.81031799316406,96.49668884277344,-22.27456665039062
220657,-0.294219970703125,0.9298858642578124,-0.05487060546875,-0.0984759703278541,0.2050615400075912,-0.036856286227703,26.7242431640625,96.58230590820312,-22.18830871582031
220658,-0.294219970703125,0.9298858642578124,-0.05487060546875,-0.0984759703278541,0.2050615400075912,-0.036856286227703,26.7242431640625,96.58230590820312,-22.18830871582031
220659,-0.265960693359375,0.9122772216796876,-0.1176605224609375,-0.0022061625495553,0.3319385349750519,0.1149023473262787,26.63508605957031,96.52799987792967,-22.14501953125
220660,-0.2430267333984375,0.9322509765625,-0.1642913818359375,0.0338069647550582,0.4366422891616821,0.1856124699115753,26.624267578125,96.64877319335938,-22.15592956542969
220661,-0.139556884765625,1.039382934570312,-0.2010650634765625,0.0845279321074485,0.5330314040184021,0.2301240116357803,26.59477233886719,96.76687622070312,-22.21278381347656
220662,-0.0815887451171875,1.0926513671875,-0.18951416015625,0.1288924664258957,0.6288996338844299,0.2701225578784943,26.64915466308594,96.73544311523438,-22.18539428710938
220663,-0.0815887451171875,1.0926513671875,-0.18951416015625,0.1288924664258957,0.6288996338844299,0.2701225578784943,26.64915466308594,96.73544311523438,-22.18539428710938
220664,-0.0840606689453125,1.226287841796875,-0.1365814208984375,0.2216538339853287,0.746123731136322,0.2743079960346222,26.92742919921875,96.5684814453125,-22.68574523925781
220665,-0.1151123046875,1.24334716796875,-0.0841064453125,0.2387276291847229,0.7645282745361328,0.2269125133752823,27.10928344726562,96.55691528320312,-22.74757385253906
220666,-0.1151123046875,1.24334716796875,-0.0841064453125,0.2387276291847229,0.7645282745361328,0.2269125133752823,27.10928344726562,96.55691528320312,-22.74757385253906
220667,-0.165863037109375,1.242156982421875,-0.0243988037109375,0.2321767807006836,0.7887265682220459,0.1888173222541809,27.26829528808594,96.61839294433594,-22.98501586914062
220668,-0.286773681640625,1.28424072265625,0.0644989013671875,0.1451353579759598,0.8622428774833679,0.0816075131297111,27.65135192871094,96.83203125,-23.59706115722656
220669,-0.3180084228515625,1.2862548828125,0.09246826171875,0.1354595571756363,0.827416181564331,0.09284258633852,27.75852966308594,96.8895263671875,-23.96086120605469
220670,-0.3180084228515625,1.2862548828125,0.09246826171875,0.1354595571756363,0.827416181564331,0.09284258633852,27.75852966308594,96.8895263671875,-23.96086120605469
220671,-0.237884521484375,1.2607421875,0.135345458984375,0.179136723279953,0.7803754210472107,0.1256711035966873,27.99757385253906,96.8686065673828,-24.48843383789062
220672,-0.15997314453125,1.222320556640625,0.1538848876953125,0.2577196955680847,0.7271865010261536,0.1777257919311523,28.11546325683594,96.8419952392578,-24.77255249023438
220673,-0.100860595703125,1.165115356445312,0.1545867919921875,0.3189939558506012,0.6664621829986572,0.2570288777351379,28.30131530761719,96.80125427246094,-24.92730712890625
220674,-0.0805206298828125,1.115463256835938,0.119354248046875,0.3353764116764069,0.4921614825725555,0.3436156809329987,28.44363403320312,96.9176025390625,-25.28302001953125
220675,-0.0773162841796875,1.054412841796875,0.1297760009765625,0.2779639661312103,0.1749081611633301,0.4045163094997406,28.51448059082031,96.90736389160156,-25.6424560546875
220676,-0.0560150146484375,0.9707183837890624,0.1627960205078125,0.2779639661312103,0.1749081611633301,0.4045163094997406,28.80970764160156,96.84001159667967,-25.94686889648438
220677,-0.046478271484375,0.9076690673828124,0.18414306640625,0.2507025301456451,0.1258545964956284,0.4443787932395935,29.28102111816406,96.769775390625,-26.33415222167969
220678,-0.051239013671875,0.872772216796875,0.1907196044921875,0.217501699924469,0.1430588811635971,0.4560199975967407,29.48336791992188,96.67887878417967,-26.52127075195312
220679,-0.051239013671875,0.872772216796875,0.1907196044921875,0.217501699924469,0.1430588811635971,0.4560199975967407,29.48336791992188,96.67887878417967,-26.52127075195312
220680,-0.0242462158203125,0.86639404296875,0.1086273193359375,0.1117957755923271,0.2523395717144012,0.4082532823085785,30.10002136230469,96.62156677246094,-26.78782653808594
220681,0.02264404296875,0.89453125,0.0628204345703125,0.0766907855868339,0.2420754879713058,0.3890252411365509,30.17994689941406,96.67556762695312,-26.88841247558594
220682,0.02264404296875,0.89453125,0.0628204345703125,0.0766907855868339,0.2420754879713058,0.3890252411365509,30.17994689941406,96.67556762695312,-26.88841247558594
220683,0.06866455078125,0.90380859375,0.054779052734375,0.0570102892816066,0.2139088213443756,0.3672307431697845,30.33717346191406,96.77780151367188,-26.98826599121094
220684,0.1259613037109375,0.8758392333984375,0.0533905029296875,0.040018256753683,0.2096301913261414,0.348707377910614,30.74288940429688,96.74591064453124,-27.02532958984375
220685,0.1305084228515625,0.885894775390625,0.0547332763671875,0.0516048707067966,0.2110986560583115,0.3200834691524506,30.863525390625,96.600830078125,-27.01304626464844
220686,0.1305084228515625,0.885894775390625,0.0547332763671875,0.0516048707067966,0.2110986560583115,0.3200834691524506,30.863525390625,96.600830078125,-27.01304626464844
220687,0.1038055419921875,0.9020843505859376,0.0690765380859375,0.0751959532499313,0.2135255932807922,0.2643219232559204,31.11177062988281,96.63075256347656,-27.03688049316406
