time_idx,accelerometerAccelerationX(G),accelerometerAccelerationY(G),accelerometerAccelerationZ(G),gyroRotationX(rad/s),gyroRotationY(rad/s),gyroRotationZ(rad/s),magnetometerX(µT),magnetometerY(µT),magnetometerZ(µT)
290000,0.3200531005859375,0.3609466552734375,-0.6548614501953125,-0.8761366009712219,-2.696010589599609,0.0974205657839775,63.35804748535156,100.2781524658203,-17.52569580078125
290001,0.3200531005859375,0.3609466552734375,-0.6548614501953125,-0.8761366009712219,-2.696010589599609,0.0974205657839775,63.35804748535156,100.2781524658203,-17.52569580078125
290002,0.26995849609375,0.3654327392578125,0.0763702392578125,0.0865053310990333,-1.864235401153564,0.2828125357627869,62.827392578125,100.2716979980469,-16.82388305664062
290003,0.2766571044921875,0.319427490234375,0.0626220703125,0.3625046908855438,-0.9668651819229126,0.3525588512420654,62.62760925292969,100.4467010498047,-16.67335510253906
290004,0.2822265625,0.3055877685546875,-0.025909423828125,0.478115975856781,-0.2729566991329193,0.4170603454113007,62.57516479492188,100.4253234863281,-16.59846496582031
290005,0.271697998046875,0.30615234375,-0.1509552001953125,0.4877821803092957,0.008780175819993,0.4184345304965973,62.5682373046875,100.4346618652344,-16.63908386230469
290006,0.2663116455078125,0.289886474609375,-0.2389678955078125,0.4191253483295441,-0.1093504577875137,0.3898191452026367,62.70584106445312,100.4584197998047,-16.84616088867188
290007,0.2570648193359375,0.2666473388671875,-0.276763916015625,0.3354195356369019,-0.4663040637969971,0.3531790971755981,62.9840087890625,100.2756195068359,-16.76956176757812
290008,0.2353363037109375,0.2623748779296875,-0.275970458984375,0.2960156798362732,-0.8648802042007446,0.2928995192050934,63.24028015136719,99.9834442138672,-16.61038208007812
290009,0.203643798828125,0.272247314453125,-0.25830078125,0.3496690392494202,-1.128690242767334,0.1713970452547073,63.47096252441406,99.93247985839844,-16.91806030273438
290010,0.166046142578125,0.26043701171875,-0.256134033203125,0.6525823473930359,-1.234442591667175,-0.147532731294632,63.54066467285156,99.96882629394533,-17.27772521972656
290011,0.1053924560546875,0.22943115234375,-0.26837158203125,0.6525823473930359,-1.234442591667175,-0.147532731294632,63.54208374023438,99.93240356445312,-17.58319091796875
290012,0.0410614013671875,0.233062744140625,-0.2702484130859375,0.8131661415100098,-1.212401390075684,-0.2588848173618317,63.47673034667969,99.90666198730467,-17.83370971679688
290013,0.0410614013671875,0.233062744140625,-0.2702484130859375,0.8131661415100098,-1.212401390075684,-0.2588848173618317,63.47673034667969,99.90666198730467,-17.83370971679688
290014,-0.0493927001953125,0.359527587890625,-0.2437896728515625,0.883161723613739,-1.094516038894653,-0.7656524181365967,63.22052001953125,100.016845703125,-18.96299743652344
290015,-0.0776214599609375,0.474365234375,-0.2570648193359375,0.883161723613739,-1.094516038894653,-0.7656524181365967,63.00985717773438,100.1179809570312,-19.49533081054688
290016,-0.09326171875,0.6255340576171875,-0.2559661865234375,0.7455058693885803,-1.126587152481079,-1.135780096054077,62.65382385253906,100.2979431152344,-20.01266479492188
290017,-0.0964508056640625,0.819854736328125,-0.16455078125,0.5214868783950806,-1.086787581443787,-1.615189909934998,62.10749816894531,100.5993194580078,-20.65802001953125
290018,-0.082733154296875,1.084197998046875,0.011871337890625,-0.3408699631690979,-0.2514998912811279,-2.565691471099854,61.34326171875,100.9008026123047,-21.29835510253906
290019,-0.07806396484375,1.40972900390625,0.188995361328125,-0.3408699631690979,-0.2514998912811279,-2.565691471099854,60.39842224121094,101.3083038330078,-21.82020568847656
290020,-0.07666015625,1.74853515625,0.2926025390625,-0.9202856421470642,0.2432195693254471,-2.717522382736206,59.13471984863281,101.62890625,-22.12590026855469
290021,-0.16070556640625,2.271087646484375,0.32464599609375,-1.485759496688843,0.2906395494937897,-2.669057130813599,57.77951049804688,102.0179748535156,-22.21812438964844
290022,-0.4033966064453125,3.105072021484375,0.414459228515625,-2.376862287521362,-0.7127886414527893,-2.193693876266479,56.22477722167969,102.4696197509766,-21.84513854980469
290023,-0.4033966064453125,3.105072021484375,0.414459228515625,-2.376862287521362,-0.7127886414527893,-2.193693876266479,56.22477722167969,102.4696197509766,-21.84513854980469
290024,-1.041946411132812,4.10028076171875,1.730178833007812,-2.2997887134552,-1.808005094528198,-0.1782336533069611,53.54148864746094,103.2488708496094,-20.52690124511719
290025,-0.7956390380859375,3.292633056640625,1.960617065429688,-1.166845679283142,-0.6066521406173706,-0.1329332888126373,52.62760925292969,103.4335784912109,-19.48603820800781
290026,-0.4435882568359375,1.66339111328125,1.333328247070312,0.2119913548231125,-0.1463625431060791,-0.3502362966537476,52.25611877441406,103.6757049560547,-17.6138916015625
290027,-0.4435882568359375,1.66339111328125,1.333328247070312,0.2119913548231125,-0.1463625431060791,-0.3502362966537476,52.25611877441406,103.6757049560547,-17.6138916015625
290028,-0.4185638427734375,1.705459594726562,0.8981475830078125,0.7163258790969849,-0.09208545088768,-0.327299565076828,52.23649597167969,103.6856079101562,-16.96015930175781
290029,-0.3619232177734375,2.068588256835938,0.3328704833984375,1.23460578918457,-0.219034880399704,0.2710834443569183,52.20111083984375,103.5081329345703,-16.66546630859375
290030,-0.243743896484375,2.280014038085938,-0.08062744140625,1.23460578918457,-0.219034880399704,0.2710834443569183,52.20512390136719,103.4544372558594,-16.81452941894531
290031,-0.203125,2.217529296875,-0.24664306640625,1.062885999679565,0.2127101421356201,0.4869166612625122,52.17544555664062,103.2947998046875,-17.33956909179688
290032,-0.0986785888671875,1.836395263671875,-0.451934814453125,0.8071175813674927,0.5868477821350098,0.6517716646194458,52.4775390625,103.1321563720703,-17.95661926269531
290033,-0.0986785888671875,1.836395263671875,-0.451934814453125,0.8071175813674927,0.5868477821350098,0.6517716646194458,52.4775390625,103.1321563720703,-17.95661926269531
290034,-0.014068603515625,1.463348388671875,-0.420928955078125,0.6850955486297607,0.2906038761138916,0.7215014696121216,52.81973266601562,102.7726593017578,-18.52337646484375
290035,-0.0019073486328125,0.894134521484375,-0.0616455078125,0.5361499786376953,0.3755477964878082,0.6322323083877563,53.91184997558594,102.4390869140625,-19.4544677734375
290036,-0.0467376708984375,0.700775146484375,-0.0853729248046875,0.5272006988525391,0.4533094167709351,0.5655217170715332,54.53756713867188,102.2361602783203,-19.68788146972656
290037,-0.0467376708984375,0.700775146484375,-0.0853729248046875,0.5272006988525391,0.4533094167709351,0.5655217170715332,54.53756713867188,102.2361602783203,-19.68788146972656
290038,-0.11688232421875,0.5350189208984375,-0.118621826171875,0.5438150763511658,0.4046430885791779,0.498809814453125,55.05516052246094,102.0870666503906,-19.94166564941406
290039,-0.1811981201171875,0.3165435791015625,-0.149749755859375,0.4741159081459045,0.0970586389303207,0.3637110888957977,56.14810180664062,101.6146697998047,-20.41848754882812
290040,-0.16009521484375,0.2155609130859375,-0.1434326171875,0.3346842527389526,-0.0870339646935463,0.3377306461334229,56.62385559082031,101.2790374755859,-20.6617431640625
290041,-0.128326416015625,0.1105499267578125,-0.1292266845703125,0.1762368083000183,-0.2324795871973038,0.3468791246414185,56.92379760742188,101.1869201660156,-21.0306396484375
290042,-0.0955810546875,0.0197906494140625,-0.1194915771484375,0.0304234195500612,-0.3286332786083221,0.3627188205718994,57.28215026855469,101.0561828613281,-21.42912292480469
290043,-0.0637969970703125,-0.0524139404296875,-0.1125335693359375,-0.0989662632346153,-0.3517785370349884,0.379300445318222,57.58448791503906,101.0574645996094,-21.7247314453125
290044,-0.02783203125,-0.1219940185546875,-0.162200927734375,-0.138577327132225,-0.3438918590545654,0.4142182171344757,57.8983154296875,100.7354431152344,-21.72804260253906
290045,0.0490875244140625,-0.2537841796875,-0.47235107421875,0.2101886570453644,-0.7214250564575195,0.6352187991142273,58.4285888671875,100.4171295166016,-21.68467712402344
290046,0.0490875244140625,-0.2537841796875,-0.47235107421875,0.2101886570453644,-0.7214250564575195,0.6352187991142273,58.4285888671875,100.4171295166016,-21.68467712402344
290047,0.0579986572265625,-0.264862060546875,-0.4481201171875,0.5249958634376526,-0.7563385367393494,0.7842748165130615,58.62210083007812,100.3353729248047,-21.75181579589844
290048,0.034698486328125,-0.1477203369140625,-0.3299560546875,0.7661064863204956,-0.2601330578327179,0.7857363820075989,58.906005859375,100.3644866943359,-21.93472290039062
290049,0.034698486328125,-0.1477203369140625,-0.3299560546875,0.7661064863204956,-0.2601330578327179,0.7857363820075989,58.906005859375,100.3644866943359,-21.93472290039062
290050,0.0456695556640625,0.175628662109375,-0.4000244140625,1.070654392242432,0.1284916698932648,0.5186588764190674,59.34951782226562,100.1467590332031,-22.34989929199219
290051,0.046112060546875,0.19561767578125,-0.353973388671875,1.070654392242432,0.1284916698932648,0.5186588764190674,59.63055419921875,100.0310211181641,-22.71214294433594
290052,0.0323944091796875,0.221221923828125,-0.245361328125,1.024139046669006,0.051996886730194,0.5608177781105042,59.82965087890625,99.91921997070312,-23.2213134765625
290053,0.0323944091796875,0.221221923828125,-0.245361328125,1.024139046669006,0.051996886730194,0.5608177781105042,59.82965087890625,99.91921997070312,-23.2213134765625
290054,0.030059814453125,0.380126953125,0.06695556640625,0.832875669002533,0.6521967053413391,0.5714933276176453,60.2532958984375,99.73252868652344,-24.45034790039062
290055,0.035888671875,0.628753662109375,0.2133941650390625,0.6671159863471985,1.253230810165405,0.6058624982833862,60.42381286621094,99.5542449951172,-24.87384033203125
290056,-0.0066070556640625,0.882843017578125,0.34130859375,0.4241861701011658,1.895474791526794,0.6179559230804443,60.84512329101562,99.54566955566406,-25.32884216308594
290057,-0.0837554931640625,1.133941650390625,0.479034423828125,0.1540351063013077,2.556998729705811,0.4853539168834686,61.2607421875,99.50950622558594,-25.79544067382812
290058,-0.144287109375,1.367843627929688,0.5699615478515625,-0.2188945263624191,2.846948862075806,-0.0135517613962292,61.77815246582031,99.22193908691406,-25.84150695800781
290059,-0.2069091796875,1.592254638671875,0.5586700439453125,-0.2188945263624191,2.846948862075806,-0.0135517613962292,62.31919860839844,99.16416931152344,-25.74270629882812
290060,-0.294921875,1.785430908203125,0.6463470458984375,-0.0405133366584777,2.181453466415405,-0.084599569439888,62.94931030273438,98.97161865234376,-25.36543273925781
290061,-0.349945068359375,1.954010009765625,0.813873291015625,0.3084467947483063,1.424702525138855,0.0608540289103984,63.46965026855469,98.90232849121094,-25.02033996582031
290062,-0.3457489013671875,2.145599365234375,1.018692016601562,0.72206711769104,0.8109940886497498,0.3615675270557404,63.70173645019531,98.88180541992188,-24.56694030761719
290063,-0.3457489013671875,2.145599365234375,1.018692016601562,0.72206711769104,0.8109940886497498,0.3615675270557404,63.70173645019531,98.88180541992188,-24.56694030761719
290064,-0.2874755859375,2.45880126953125,1.315704345703125,1.225911855697632,0.2384815514087677,0.7314241528511047,64.13905334472656,98.85092163085938,-24.84439086914062
290065,-0.3985595703125,2.28875732421875,1.45733642578125,0.6997221112251282,0.516002357006073,0.4812513291835785,64.44145202636719,98.74989318847656,-25.19183349609375
290066,-0.578887939453125,1.977935791015625,1.48468017578125,-0.247629776597023,1.286435961723328,0.0200259052217006,64.81190490722656,98.6593780517578,-25.70429992675781
290067,-0.578887939453125,1.977935791015625,1.48468017578125,-0.247629776597023,1.286435961723328,0.0200259052217006,64.81190490722656,98.6593780517578,-25.70429992675781
290068,-0.69708251953125,1.447021484375,0.943939208984375,-1.450253367424011,2.24689507484436,-0.4837051630020142,65.32060241699219,98.38233947753906,-25.89598083496094
290069,-0.620635986328125,1.224349975585938,0.57366943359375,-1.477694034576416,1.94358241558075,-0.4476243853569031,65.47737121582031,98.3867645263672,-25.36456298828125
290070,-0.4740142822265625,1.07373046875,0.257965087890625,-1.137362599372864,0.6102021336555481,-0.2912963032722473,65.63531494140625,98.49746704101562,-24.38270568847656
290071,-0.4740142822265625,1.07373046875,0.257965087890625,-1.137362599372864,0.6102021336555481,-0.2912963032722473,65.63531494140625,98.49746704101562,-24.38270568847656
290072,-0.1920928955078125,0.8943023681640625,-0.00982666015625,-1.031673431396484,0.1414287686347961,-0.3009633123874664,65.58053588867188,99.09840393066406,-22.18875122070312
290073,-0.1920928955078125,0.8943023681640625,-0.00982666015625,-1.031673431396484,0.1414287686347961,-0.3009633123874664,65.58053588867188,99.09840393066406,-22.18875122070312
290074,-0.0446929931640625,0.6108245849609375,-0.2417144775390625,-1.15751314163208,-0.3461307883262634,-0.4647319912910461,65.08760070800781,99.82232666015624,-21.02850341796875
290075,0.0440826416015625,0.410858154296875,-0.5903472900390625,-1.287487626075745,-1.264452934265137,-0.500449001789093,64.78773498535156,100.05224609375,-20.450439453125
290076,0.0739898681640625,0.29412841796875,-0.5047760009765625,-1.321413636207581,-2.189645528793335,-0.5261165499687195,64.41590881347656,100.2305145263672,-19.99205017089844
290077,0.0675506591796875,0.227813720703125,-0.236663818359375,-1.269871950149536,-2.494724035263062,-0.5439493060112,64.04843139648438,100.3850860595703,-19.53025817871094
290078,0.0872802734375,0.168365478515625,-0.08062744140625,-1.178246855735779,-2.243879556655884,-0.4980753064155579,63.66929626464844,100.5295867919922,-19.08010864257812
290079,0.0872802734375,0.168365478515625,-0.08062744140625,-1.178246855735779,-2.243879556655884,-0.4980753064155579,63.66929626464844,100.5295867919922,-19.08010864257812
290080,0.158905029296875,0.176971435546875,-0.1380157470703125,-0.7564157843589783,-1.219896554946899,-0.180551141500473,62.73356628417969,100.7825622558594,-18.37953186035156
290081,0.1965484619140625,0.2958831787109375,-0.1575469970703125,-0.4772965312004089,-0.7073363661766052,-0.0332050919532775,62.33346557617188,100.7894439697266,-18.08822631835938
290082,0.239776611328125,0.4014739990234375,-0.16064453125,-0.1982859224081039,-0.1792115718126297,0.113180086016655,62.05049133300781,100.8595886230469,-17.85087585449219
290083,0.239776611328125,0.4014739990234375,-0.16064453125,-0.1982859224081039,-0.1792115718126297,0.113180086016655,62.05049133300781,100.8595886230469,-17.85087585449219
290084,0.2034759521484375,0.4643402099609375,-0.2260284423828125,0.197798028588295,-0.0160356909036636,0.0686690732836723,61.78178405761719,100.8928985595703,-17.29008483886719
290085,0.2034759521484375,0.4643402099609375,-0.2260284423828125,0.197798028588295,-0.0160356909036636,0.0686690732836723,61.78178405761719,100.8928985595703,-17.29008483886719
290086,0.2451019287109375,0.3600921630859375,-0.1422576904296875,0.5786042213439941,-0.3831420540809631,-0.1506331861019135,61.83468627929688,100.7130126953125,-17.13227844238281
290087,0.2451019287109375,0.3600921630859375,-0.1422576904296875,0.5786042213439941,-0.3831420540809631,-0.1506331861019135,61.83468627929688,100.7130126953125,-17.13227844238281
290088,0.176544189453125,0.422882080078125,-0.3588714599609375,0.8225948214530945,-0.8398739099502563,-0.0226893331855535,61.63136291503906,100.5238952636719,-17.56575012207031
290089,0.176544189453125,0.422882080078125,-0.3588714599609375,0.8225948214530945,-0.8398739099502563,-0.0226893331855535,61.63136291503906,100.5238952636719,-17.56575012207031
290090,0.176544189453125,0.422882080078125,-0.3588714599609375,0.8225948214530945,-0.8398739099502563,-0.0226893331855535,61.63136291503906,100.5238952636719,-17.56575012207031
290091,0.0837860107421875,0.28955078125,-0.3466644287109375,0.914619505405426,-0.8379252552986145,-0.2080261707305908,61.54508972167969,100.6130523681641,-17.92253112792969
290092,0.0149993896484375,0.267364501953125,-0.2239227294921875,0.914619505405426,-0.8379252552986145,-0.2080261707305908,61.40280151367188,100.6639709472656,-18.6583251953125
290093,-0.0472869873046875,0.36065673828125,-0.1545562744140625,0.7593154311180115,-0.7834183573722839,-0.3668105006217957,61.26643371582031,100.7125396728516,-19.36924743652344
290094,-0.106689453125,0.514007568359375,-0.1111297607421875,0.5406121015548706,-0.7567755579948425,-0.6256268620491028,60.94660949707031,100.8880615234375,-19.99488830566406
290095,-0.106689453125,0.514007568359375,-0.1111297607421875,0.5406121015548706,-0.7567755579948425,-0.6256268620491028,60.94660949707031,100.8880615234375,-19.99488830566406
290096,-0.204742431640625,0.9575042724609376,-0.0670013427734375,0.061688132584095,-0.7529134750366211,-1.557244300842285,60.05221557617188,101.58349609375,-20.82662963867188
290097,-0.204742431640625,0.9575042724609376,-0.0670013427734375,0.061688132584095,-0.7529134750366211,-1.557244300842285,60.05221557617188,101.58349609375,-20.82662963867188
290098,-0.39849853515625,1.531173706054688,0.205413818359375,-0.5346647500991821,-0.3132641613483429,-2.321065187454224,58.20513916015625,102.4328002929688,-21.32307434082031
290099,-0.6412200927734375,1.9066162109375,0.262542724609375,-1.991517663002014,-0.8365646600723267,-1.718690752983093,57.01072692871094,102.8453369140625,-21.22743225097656
290100,-0.700225830078125,2.313674926757812,0.471466064453125,-1.991517663002014,-0.8365646600723267,-1.718690752983093,55.7977294921875,103.2944793701172,-21.00173950195312
290101,-0.700225830078125,2.313674926757812,0.471466064453125,-1.991517663002014,-0.8365646600723267,-1.718690752983093,55.7977294921875,103.2944793701172,-21.00173950195312
290102,-0.5212860107421875,3.319869995117188,1.338119506835938,-2.187569856643677,-2.305691957473755,0.1452258974313736,53.84339904785156,103.6876373291016,-19.677734375
290103,-0.3704681396484375,2.873367309570312,1.77142333984375,-1.268545627593994,-1.331746220588684,0.0412236042320728,53.50691223144531,103.5859832763672,-18.47760009765625
290104,-0.2382049560546875,2.2415771484375,1.61053466796875,-0.5217734575271606,-0.6476224660873413,-0.1521216183900833,53.30747985839844,103.5777282714844,-17.65080261230469
290105,-0.3714141845703125,1.837982177734375,1.377349853515625,0.1439936608076096,-0.08687125146389,-0.236964613199234,53.18533325195312,103.7858123779297,-17.23699951171875
290106,-0.5114288330078125,1.632431030273438,1.0826416015625,0.5673475861549377,0.3125744163990021,-0.3147435486316681,53.10203552246094,103.7686614990234,-17.12571716308594
290107,-0.5448760986328125,1.649246215820312,0.70074462890625,0.6444810032844543,0.1280288100242615,-0.6112101078033447,52.97543334960938,103.8309631347656,-17.11390686035156
290108,-0.430877685546875,1.834869384765625,0.357208251953125,0.4500968456268311,-0.6578689813613892,-0.7665024995803833,52.76869201660156,103.9134674072266,-17.21063232421875
290109,-0.2625579833984375,2.166336059570312,0.1322021484375,0.3069663345813751,-1.265633463859558,-0.6352661848068237,52.51950073242188,103.7196502685547,-17.10391235351562
290110,-0.2625579833984375,2.166336059570312,0.1322021484375,0.3069663345813751,-1.265633463859558,-0.6352661848068237,52.51950073242188,103.7196502685547,-17.10391235351562
290111,0.1303863525390625,2.402908325195312,-0.121734619140625,0.5855087637901306,-0.7782928347587585,0.2018124759197235,52.00704956054688,103.3035278320312,-17.09085083007812
290112,0.122467041015625,1.965118408203125,-0.1542510986328125,0.5759506821632385,0.0367319136857986,0.3204880058765411,51.94572448730469,103.09716796875,-17.21647644042969
290113,0.122467041015625,1.965118408203125,-0.1542510986328125,0.5759506821632385,0.0367319136857986,0.3204880058765411,51.94572448730469,103.09716796875,-17.21647644042969
290114,0.029998779296875,1.159271240234375,-0.2357635498046875,0.3936468958854675,0.1332552582025528,0.3762617707252502,52.58477783203125,102.7015533447266,-17.86080932617188
290115,-0.0250244140625,0.9849395751953124,-0.1783294677734375,0.3936468958854675,0.1332552582025528,0.3762617707252502,53.07835388183594,102.4453430175781,-18.26858520507812
290116,-0.063720703125,0.8302764892578125,-0.1341552734375,0.3990440666675568,0.0830133929848671,0.4512398838996887,53.5819091796875,102.3142395019531,-18.56024169921875
290117,-0.063720703125,0.8302764892578125,-0.1341552734375,0.3990440666675568,0.0830133929848671,0.4512398838996887,53.5819091796875,102.3142395019531,-18.56024169921875
290118,-0.0999755859375,0.64862060546875,-0.1212921142578125,0.4204452335834503,0.0719420984387397,0.5130542516708374,54.05825805664062,102.208251953125,-18.79350280761719
290119,-0.159759521484375,0.3602294921875,-0.1551055908203125,0.5521491765975952,-0.2559106051921844,0.5369006991386414,54.99630737304688,101.7908782958984,-19.40614318847656
290120,-0.1540985107421875,0.2711181640625,-0.1164398193359375,0.5638779997825623,-0.393569141626358,0.540798544883728,55.53451538085938,101.5525360107422,-19.62335205078125
290121,-0.1297454833984375,0.204681396484375,-0.074798583984375,0.5264014601707458,-0.4861408770084381,0.5368993878364563,56.02552795410156,101.2893829345703,-20.1036376953125
290122,-0.10992431640625,0.1320953369140625,-0.0345001220703125,0.4412189424037933,-0.4784065186977386,0.5287277698516846,56.45655822753906,101.1228637695312,-20.45330810546875
290123,-0.102294921875,0.060943603515625,-0.013946533203125,0.3117733299732208,-0.3650290966033936,0.5070429444313049,56.83184814453125,100.9394226074219,-20.86201477050781
290124,-0.088897705078125,-0.021209716796875,-0.040313720703125,0.0503955297172069,-0.1146184578537941,0.5264691114425659,57.21713256835938,100.8442535400391,-21.09529113769531
290125,-0.0643768310546875,-0.1266021728515625,-0.17083740234375,0.0503955297172069,-0.1146184578537941,0.5264691114425659,57.47169494628906,100.8224639892578,-21.24931335449219
290126,-0.025299072265625,-0.25054931640625,-0.45867919921875,0.1535101979970932,-0.2954609394073486,0.6542702317237854,57.8101806640625,100.6545257568359,-21.38536071777344
290127,-0.0096588134765625,-0.3220672607421875,-0.6660919189453125,0.479462742805481,-0.6670174598693848,0.8545282483100891,58.13481140136719,100.5797119140625,-21.48905944824219
290128,-0.0220184326171875,-0.2387237548828125,-0.5147705078125,0.8204799890518188,-0.5441674590110779,0.9568074345588684,58.42955017089844,100.4412841796875,-21.57574462890625
290129,-0.0220184326171875,-0.2387237548828125,-0.5147705078125,0.8204799890518188,-0.5441674590110779,0.9568074345588684,58.42955017089844,100.4412841796875,-21.57574462890625
290130,0.0024261474609375,0.118072509765625,-0.3581390380859375,1.255785346031189,0.3680475354194641,0.6169196367263794,58.96589660644531,100.3661956787109,-22.34223937988281
290131,0.021636962890625,0.169525146484375,-0.32147216796875,1.279513359069824,0.2868959605693817,0.5607970356941223,59.26121520996094,100.1309661865234,-22.82814025878906
290132,0.000335693359375,0.193603515625,-0.196746826171875,1.16971492767334,0.1916543841362,0.5570003986358643,59.60748291015625,99.9553680419922,-23.498046875
290133,-0.0184173583984375,0.2327880859375,-0.027862548828125,0.9857003688812256,0.3386861681938171,0.5199006795883179,59.86427307128906,99.8923797607422,-24.26313781738281
290134,-0.035858154296875,0.31475830078125,0.1523590087890625,0.7654127478599548,0.8010815382003784,0.4872045516967773,60.12350463867188,99.71253967285156,-24.57493591308594
290135,-0.035858154296875,0.31475830078125,0.1523590087890625,0.7654127478599548,0.8010815382003784,0.4872045516967773,60.12350463867188,99.71253967285156,-24.57493591308594
290136,-0.1165924072265625,0.8548431396484375,0.540496826171875,0.1947934478521347,2.378140449523926,0.3376078605651855,60.86769104003906,99.46858215332033,-25.04096984863281
290137,-0.1165924072265625,0.8548431396484375,0.540496826171875,0.1947934478521347,2.378140449523926,0.3376078605651855,60.86769104003906,99.46858215332033,-25.04096984863281
290138,-0.200347900390625,1.217361450195312,0.6688079833984375,-0.2041211724281311,3.233819246292114,0.0782631114125251,61.24798583984375,99.32371520996094,-25.1328125
290139,-0.340362548828125,1.522247314453125,0.6276397705078125,-0.5027041435241699,3.367703199386597,-0.2217015027999878,61.76826477050781,99.21041870117188,-25.0650634765625
290140,-0.6879730224609375,1.89923095703125,0.7856597900390625,0.5802769660949707,1.112931847572327,0.0685569569468498,62.61488342285156,99.11653137207033,-24.32719421386719
290141,-0.6879730224609375,1.89923095703125,0.7856597900390625,0.5802769660949707,1.112931847572327,0.0685569569468498,62.61488342285156,99.11653137207033,-24.32719421386719
290142,-0.6864013671875,1.934722900390625,1.020965576171875,1.051202178001404,0.9693008661270142,0.5464862585067749,62.81716918945312,99.1242218017578,-24.01075744628906
290143,-0.5457611083984375,2.049453735351562,1.24560546875,1.051202178001404,0.9693008661270142,0.5464862585067749,62.8651123046875,99.12228393554688,-23.84283447265625
290144,-0.326995849609375,2.2584228515625,1.3482666015625,1.145700693130493,1.437327742576599,0.8344301581382751,63.08222961425781,99.32386779785156,-24.5113525390625
290145,-0.326995849609375,2.2584228515625,1.3482666015625,1.145700693130493,1.437327742576599,0.8344301581382751,63.08222961425781,99.32386779785156,-24.5113525390625
290146,-0.32867431640625,2.16046142578125,1.275436401367188,0.6031354069709778,1.693362474441528,0.5354272127151489,63.47537231445312,99.1953125,-25.07879638671875
290147,-0.49420166015625,1.47723388671875,0.994354248046875,-1.358917117118835,1.675455093383789,-0.341574102640152,64.29702758789062,98.952880859375,-25.33978271484375
290148,-0.5230560302734375,1.201507568359375,0.758392333984375,-1.358917117118835,1.675455093383789,-0.341574102640152,64.60110473632812,98.96043395996094,-24.97109985351562
290149,-0.5230560302734375,1.201507568359375,0.758392333984375,-1.358917117118835,1.675455093383789,-0.341574102640152,64.60110473632812,98.96043395996094,-24.97109985351562
290150,-0.3734893798828125,0.9527130126953124,0.2791290283203125,-1.332648754119873,0.5252078771591187,-0.3892931640148163,64.84501647949219,99.35986328125,-23.23231506347656
290151,-0.2745819091796875,0.8968505859375,0.16619873046875,-1.204861760139465,-0.1117060258984566,-0.4551078677177429,64.79153442382812,99.46745300292967,-22.459228515625
290152,-0.199951171875,0.8135833740234375,0.118682861328125,-1.184244871139526,-0.5911179184913635,-0.5111314654350281,64.60829162597656,99.52371215820312,-21.75611877441406
290153,-0.199951171875,0.8135833740234375,0.118682861328125,-1.184244871139526,-0.5911179184913635,-0.5111314654350281,64.60829162597656,99.52371215820312,-21.75611877441406
290154,-0.13531494140625,0.7271575927734375,0.0999298095703125,-1.275535583496094,-0.865225076675415,-0.5578957796096802,64.45526123046875,99.69815063476562,-21.1573486328125
290155,-0.0862884521484375,0.6408233642578125,0.076141357421875,-1.427659392356873,-0.9765912890434264,-0.6050251722335815,64.14013671875,99.81307983398438,-20.61441040039062
290156,-0.012939453125,0.47222900390625,0.02423095703125,-1.698813676834106,-0.9310701489448548,-0.6464090943336487,63.33554077148438,100.0674438476562,-19.46897888183594
290157,0.0128021240234375,0.4120025634765625,-0.0338897705078125,-1.733706116676331,-0.8997218012809753,-0.646682620048523,62.77937316894531,100.3492431640625,-18.84312438964844
290158,0.0128021240234375,0.4120025634765625,-0.0338897705078125,-1.733706116676331,-0.8997218012809753,-0.646682620048523,62.77937316894531,100.3492431640625,-18.84312438964844
290159,0.1978302001953125,0.309722900390625,-0.449920654296875,-1.314857721328735,-1.317960381507874,-0.4468933343887329,61.89581298828125,100.5337829589844,-17.34713745117188
290160,0.3566436767578125,0.2842559814453125,-0.7315521240234375,-0.6320948600769043,-2.250592470169067,-0.05631760135293,61.48312377929688,100.6553649902344,-16.70890808105469
290161,0.3566436767578125,0.2842559814453125,-0.7315521240234375,-0.6320948600769043,-2.250592470169067,-0.05631760135293,61.48312377929688,100.6553649902344,-16.70890808105469
290162,0.3778228759765625,0.3301239013671875,-0.3281402587890625,0.2611282765865326,-2.490401029586792,0.3825223445892334,61.02445983886719,100.8785400390625,-16.31085205078125
290163,0.2496185302734375,0.4046783447265625,0.0417938232421875,1.16168475151062,0.1798675060272217,0.6414127349853516,60.44172668457031,101.2219390869141,-16.26889038085938
290164,0.223114013671875,0.40679931640625,-0.137298583984375,1.024199247360229,0.5747807621955872,0.572939395904541,60.52574157714844,101.1737060546875,-16.52912902832031
290165,0.223114013671875,0.40679931640625,-0.137298583984375,1.024199247360229,0.5747807621955872,0.572939395904541,60.52574157714844,101.1737060546875,-16.52912902832031
290166,0.19873046875,0.3909454345703125,-0.274993896484375,0.3715373277664185,-0.176760658621788,0.1987839341163635,61.07975769042969,100.9874420166016,-17.20541381835938
290167,0.193115234375,0.388885498046875,-0.2450408935546875,0.1099826917052269,-0.5958484411239624,0.0315968096256256,61.19113159179688,100.9245452880859,-17.55865478515625
290168,0.1524200439453125,0.40887451171875,-0.2333221435546875,0.0693881288170814,-0.7721425294876099,-0.0457107611000537,61.33708190917969,100.7427062988281,-17.67703247070312
290169,0.0999298095703125,0.4028472900390625,-0.22332763671875,0.2087468206882477,-0.8051335215568542,-0.0492120198905468,61.35311889648438,100.6358795166016,-17.83906555175781
290170,0.0999298095703125,0.4028472900390625,-0.22332763671875,0.2087468206882477,-0.8051335215568542,-0.0492120198905468,61.35311889648438,100.6358795166016,-17.83906555175781
290171,0.0729522705078125,0.38250732421875,-0.15618896484375,0.5995931625366211,-0.7373270392417908,-0.0969830080866813,61.25270080566406,100.7324066162109,-18.06768798828125
290172,0.0740814208984375,0.3786468505859375,-0.138336181640625,0.6917121410369873,-0.7667310237884521,-0.2131863087415695,61.24957275390625,100.7747955322266,-18.433349609375
290173,0.0740814208984375,0.3786468505859375,-0.138336181640625,0.6917121410369873,-0.7667310237884521,-0.2131863087415695,61.24957275390625,100.7747955322266,-18.433349609375
290174,0.0525665283203125,0.38848876953125,-0.1504669189453125,0.7075004577636719,-0.8771153092384338,-0.3789126873016357,61.1072998046875,100.7795257568359,-18.64230346679688
290175,-0.0233917236328125,0.5855255126953125,-0.1989593505859375,0.6631414890289307,-1.258246183395386,-0.8703311681747437,60.6474609375,101.1893463134766,-19.51664733886719
290176,-0.0551605224609375,0.7654876708984375,-0.1619110107421875,0.623214840888977,-1.353686690330505,-1.224624752998352,60.26469421386719,101.4573211669922,-19.9747314453125
290177,-0.0551605224609375,0.7654876708984375,-0.1619110107421875,0.623214840888977,-1.353686690330505,-1.224624752998352,60.26469421386719,101.4573211669922,-19.9747314453125
290178,-0.0706787109375,0.9882659912109376,-0.0309600830078125,0.2080352306365967,-0.7713931202888489,-1.916682362556458,59.61421203613281,101.8289489746094,-20.46145629882812
290179,-0.11114501953125,1.652114868164062,0.4469451904296875,-0.6092564463615417,-0.5462760925292969,-2.073522329330444,57.85882568359375,102.5482330322266,-21.41311645507812
290180,-0.2227935791015625,2.2127685546875,0.8199920654296875,-2.103366374969482,-0.3673116862773895,-1.681817650794983,56.74049377441406,102.9996185302734,-21.7513427734375
290181,-0.2227935791015625,2.2127685546875,0.8199920654296875,-2.103366374969482,-0.3673116862773895,-1.681817650794983,56.74049377441406,102.9996185302734,-21.7513427734375
290182,-0.91644287109375,3.497909545898438,1.2735595703125,-3.673524618148804,-0.6397560238838196,-0.2846921980381012,54.63505554199219,103.7403717041016,-21.31710815429688
290183,-1.190658569335938,3.418594360351562,1.32550048828125,-2.69720458984375,-1.404317021369934,-0.7048189043998718,54.04301452636719,103.9789428710938,-20.29034423828125
290184,-0.2681427001953125,1.658416748046875,1.462448120117188,-1.104981422424316,-1.309177756309509,-0.302760124206543,53.85247802734375,104.0175628662109,-18.72061157226562
290185,-0.2681427001953125,1.658416748046875,1.462448120117188,-1.104981422424316,-1.309177756309509,-0.302760124206543,53.85247802734375,104.0175628662109,-18.72061157226562
290186,-0.2366180419921875,1.288818359375,1.50396728515625,0.7398090958595276,-0.147528737783432,0.0148053113371133,53.48501586914062,104.2055969238281,-17.27311706542969
290187,-0.561065673828125,1.763198852539062,1.290756225585938,0.4313303530216217,0.3833804130554199,-0.7118592262268066,53.50898742675781,104.0007781982422,-16.19757080078125
290188,-0.5663909912109375,1.990447998046875,0.747589111328125,0.316872239112854,-0.6389815807342529,-0.8823369741439819,53.58685302734375,103.9408111572266,-16.32206726074219
290189,-0.5663909912109375,1.990447998046875,0.747589111328125,0.316872239112854,-0.6389815807342529,-0.8823369741439819,53.58685302734375,103.9408111572266,-16.32206726074219
290190,-0.3448486328125,2.109283447265625,0.0898895263671875,0.316872239112854,-0.6389815807342529,-0.8823369741439819,53.521728515625,103.8219757080078,-16.34138488769531
290191,0.072357177734375,2.462158203125,-0.1182861328125,1.218254566192627,-1.466161727905273,-0.3502735793590546,52.64900207519531,103.8047485351562,-15.71165466308594
290192,0.16082763671875,2.473358154296875,-0.107421875,1.639240384101868,0.1770629286766052,0.1930341720581055,52.30644226074219,103.6570739746094,-15.752197265625
290193,0.16082763671875,2.473358154296875,-0.107421875,1.639240384101868,0.1770629286766052,0.1930341720581055,52.30644226074219,103.6570739746094,-15.752197265625
290194,0.061553955078125,1.533935546875,-0.5494842529296875,0.4272938072681427,0.3918511271476746,0.471016526222229,52.16163635253906,103.3178100585938,-17.25593566894531
290195,0.0176544189453125,1.140777587890625,-0.3383941650390625,0.4272938072681427,0.3918511271476746,0.471016526222229,52.48983764648438,103.168212890625,-18.04664611816406
290196,-0.0633544921875,0.9460906982421876,-0.184783935546875,0.0751898288726806,0.2211217284202576,0.3451824188232422,53.1214599609375,102.926513671875,-18.64971923828125
290197,-0.14373779296875,0.814422607421875,-0.1267547607421875,0.0508695729076862,0.0418672896921634,0.2173624187707901,53.67347717285156,102.6543273925781,-18.95086669921875
290198,-0.14373779296875,0.814422607421875,-0.1267547607421875,0.0508695729076862,0.0418672896921634,0.2173624187707901,53.67347717285156,102.6543273925781,-18.95086669921875
290199,-0.2426605224609375,0.5986328125,0.02166748046875,0.4249616861343384,-0.2614830136299133,0.0998637452721595,54.65109252929688,102.1918487548828,-19.26104736328125
290200,-0.199493408203125,0.473388671875,0.079864501953125,0.5464260578155518,-0.1856161952018738,0.1292376071214676,55.02699279785156,102.1497497558594,-19.47491455078125
290201,-0.199493408203125,0.473388671875,0.079864501953125,0.5464260578155518,-0.1856161952018738,0.1292376071214676,55.02699279785156,102.1497497558594,-19.47491455078125
290202,-0.15972900390625,0.341888427734375,0.0941314697265625,0.5999939441680908,-0.0244108010083437,0.1769974082708359,55.19947814941406,101.9204864501953,-19.74322509765625
290203,-0.115386962890625,0.106231689453125,0.0693511962890625,0.4206691980361938,0.5206136107444763,0.2496843934059143,55.53564453125,101.6400146484375,-20.45942687988281
290204,-0.0885467529296875,-0.016815185546875,-0.0491180419921875,0.2886541783809662,0.7040550708770752,0.2893873453140259,55.735595703125,101.3504180908203,-20.79034423828125
290205,-0.0885467529296875,-0.016815185546875,-0.0491180419921875,0.2886541783809662,0.7040550708770752,0.2893873453140259,55.735595703125,101.3504180908203,-20.79034423828125
290206,-0.0380096435546875,-0.1563262939453125,-0.327056884765625,0.5616438984870911,-0.2355877608060837,0.6440391540527344,56.03782653808594,101.2266845703125,-21.04273986816406
290207,0.04388427734375,-0.3101654052734375,-0.5303192138671875,0.8955312967300415,-0.7619503736495972,0.9224305748939514,56.59432983398438,100.9587097167969,-21.26467895507812
290208,0.0474700927734375,-0.2779998779296875,-0.3319854736328125,1.094355940818787,-0.4074159860610962,1.078335523605347,56.93045043945312,100.8663940429688,-21.51350402832031
290209,0.0474700927734375,-0.2779998779296875,-0.3319854736328125,1.094355940818787,-0.4074159860610962,1.078335523605347,56.93045043945312,100.8663940429688,-21.51350402832031
290210,0.0957183837890625,-0.1116790771484375,-0.5364990234375,1.108365297317505,0.4344366788864136,0.9682878255844116,57.68191528320312,100.5057220458984,-22.53318786621094
290211,0.108154296875,0.07110595703125,-0.4550628662109375,0.9963766932487488,0.2392221689224243,0.7560876607894897,58.05233764648438,100.5047149658203,-23.11430358886719
290212,0.08837890625,0.1866607666015625,-0.2805938720703125,0.8220328688621521,0.1286929994821548,0.6189036965370178,58.38449096679688,100.3760528564453,-23.47309875488281
290213,0.08837890625,0.1866607666015625,-0.2805938720703125,0.8220328688621521,0.1286929994821548,0.6189036965370178,58.38449096679688,100.3760528564453,-23.47309875488281
290214,0.0494232177734375,0.231658935546875,-0.1669921875,0.6550742387771606,0.0886896550655365,0.537143886089325,58.7945556640625,100.0879058837891,-23.90380859375
290215,0.0385894775390625,0.2562713623046875,-0.0545196533203125,0.5617424249649048,0.1313814520835876,0.4583441317081451,59.256591796875,99.86529541015624,-24.31558227539062
290216,0.0785675048828125,0.4714508056640625,0.25787353515625,0.5753818154335022,0.6993389129638672,0.2763966917991638,59.80953979492188,99.84465026855467,-25.084716796875
290217,0.1551361083984375,0.8755340576171875,0.5202789306640625,0.5894968509674072,1.451830506324768,0.500680148601532,59.92227172851562,99.75946044921876,-25.44847106933594
290218,0.1551361083984375,0.8755340576171875,0.5202789306640625,0.5894968509674072,1.451830506324768,0.500680148601532,59.92227172851562,99.75946044921876,-25.44847106933594
290219,0.1012115478515625,1.5390625,0.71728515625,0.4195954203605652,2.891249179840088,0.9854023456573486,60.56900024414062,99.44929504394533,-26.11201477050781
290220,0.0403289794921875,1.79541015625,0.7355804443359375,0.5250076055526733,2.508317470550537,0.7822556495666504,61.29470825195312,99.2333526611328,-26.17645263671875
290221,0.0403289794921875,1.79541015625,0.7355804443359375,0.5250076055526733,2.508317470550537,0.7822556495666504,61.29470825195312,99.2333526611328,-26.17645263671875
290222,-0.0369873046875,1.9967041015625,0.8704376220703125,0.6077322959899902,1.586457848548889,0.4846242070198059,62.03248596191406,99.0626983642578,-26.01329040527344
290223,-0.126617431640625,2.143936157226562,1.114303588867188,0.5634157061576843,-0.183706983923912,0.2497738748788834,62.7769775390625,98.9783172607422,-25.96861267089844
290224,-0.5156402587890625,2.360015869140625,1.858993530273438,0.5117000341415405,-0.0947230458259582,0.2277253121137619,63.66798400878906,98.66014099121094,-26.11961364746094
290225,-0.5156402587890625,2.360015869140625,1.858993530273438,0.5117000341415405,-0.0947230458259582,0.2277253121137619,63.66798400878906,98.66014099121094,-26.11961364746094
290226,-0.8076629638671875,2.193572998046875,2.13330078125,0.1879187673330307,0.9219229817390442,-0.0028423918411135,63.92680358886719,98.67391967773438,-26.31895446777344
290227,-1.00384521484375,1.626419067382812,1.6116943359375,-0.9133393168449402,2.983388662338257,-0.784529447555542,64.42727661132812,98.36833190917967,-26.63285827636719
290228,-0.9537353515625,1.332351684570312,1.041671752929688,-1.159914493560791,2.950516700744629,-0.8749166131019592,64.67338562011719,98.47122192382812,-26.08847045898438
290229,-0.8018341064453125,1.129562377929688,0.517974853515625,-1.163078904151917,2.334316253662109,-0.6983000040054321,64.70198059082031,98.63284301757812,-25.37843322753906
290230,-0.8018341064453125,1.129562377929688,0.517974853515625,-1.163078904151917,2.334316253662109,-0.6983000040054321,64.70198059082031,98.63284301757812,-25.37843322753906
290231,-0.4681854248046875,1.091567993164062,0.0049896240234375,-0.9652060270309448,0.9188441038131714,-0.3098803758621216,64.48202514648438,99.32820129394533,-23.70001220703125
290232,-0.3193817138671875,1.143386840820312,-0.144683837890625,-0.9689930081367492,0.2676924169063568,-0.3354595005512238,64.29678344726562,99.71148681640624,-23.07487487792969
290233,-0.3193817138671875,1.143386840820312,-0.144683837890625,-0.9689930081367492,0.2676924169063568,-0.3354595005512238,64.29678344726562,99.71148681640624,-23.07487487792969
290234,0.040771484375,1.0582275390625,-0.8583831787109375,-1.401755332946777,-2.292749166488647,-0.786928117275238,63.76913452148438,100.4465942382812,-22.18000793457031
290235,0.064788818359375,0.816558837890625,-0.4093780517578125,-1.597614884376526,-3.317680835723877,-0.875243604183197,63.39106750488281,100.5666351318359,-21.69108581542969
290236,0.0591583251953125,0.628692626953125,0.0787811279296875,-1.664766192436218,-3.084140300750732,-0.7417409420013428,62.91116333007812,100.7947692871094,-21.2139892578125
290237,0.0591583251953125,0.628692626953125,0.0787811279296875,-1.664766192436218,-3.084140300750732,-0.7417409420013428,62.91116333007812,100.7947692871094,-21.2139892578125
290238,0.1055145263671875,0.481964111328125,0.2210845947265625,-1.630089998245239,-1.135792374610901,-0.1162877306342125,62.22091674804688,100.8829956054688,-20.85615539550781
290239,0.165008544921875,0.326995849609375,0.071868896484375,-1.465727210044861,-0.3477648794651031,0.1197762042284012,61.06344604492188,101.2776947021484,-20.12205505371094
290240,0.268218994140625,0.323089599609375,-0.1245880126953125,-1.121285080909729,-0.0283429585397243,0.3632887303829193,60.75434875488281,101.1942138671875,-19.34812927246094
290241,0.268218994140625,0.323089599609375,-0.1245880126953125,-1.121285080909729,-0.0283429585397243,0.3632887303829193,60.75434875488281,101.1942138671875,-19.34812927246094
290242,0.3615264892578125,0.39398193359375,-0.391387939453125,-0.5113333463668823,-0.2692495882511139,0.6506839990615845,60.49760437011719,101.1239624023438,-18.48361206054688
290243,0.276763916015625,0.6764373779296875,-0.26824951171875,0.9857240915298462,-0.894960343837738,0.3538307845592499,60.53071594238281,101.0003662109375,-17.21237182617188
290244,0.2664947509765625,0.6014404296875,-0.1250152587890625,1.415244817733765,-0.4406892359256744,0.0258619580417871,60.67434692382812,100.9994659423828,-17.02671813964844
290245,0.2664947509765625,0.6014404296875,-0.1250152587890625,1.415244817733765,-0.4406892359256744,0.0258619580417871,60.67434692382812,100.9994659423828,-17.02671813964844
290246,0.275177001953125,0.4804840087890625,-0.1779632568359375,1.524511337280273,-0.0721783265471458,-0.163636326789856,60.7510986328125,100.8825836181641,-17.15031433105469
290247,0.2417144775390625,0.281982421875,-0.3250885009765625,1.045175671577454,-0.2931024432182312,-0.1048720851540565,60.6180419921875,100.8792114257812,-18.51506042480469
290248,0.1768035888671875,0.2005462646484375,-0.28948974609375,0.6622411012649536,-0.6095003485679626,-0.0246182605624198,60.47213745117188,100.8654632568359,-19.22665405273438
290249,0.1768035888671875,0.2005462646484375,-0.28948974609375,0.6622411012649536,-0.6095003485679626,-0.0246182605624198,60.47213745117188,100.8654632568359,-19.22665405273438
290250,0.118621826171875,0.1699066162109375,-0.1354827880859375,0.1091272830963135,-0.8682065010070801,-0.2248027473688126,60.2674560546875,100.8217163085938,-20.06375122070312
290251,0.1067657470703125,0.1782684326171875,-0.1236419677734375,0.1091272830963135,-0.8682065010070801,-0.2248027473688126,60.29776000976562,100.776611328125,-20.3511962890625
290252,0.101776123046875,0.2261810302734375,-0.1368560791015625,0.2345499247312546,-0.9371655583381652,-0.3661809265613556,60.1878662109375,100.6841125488281,-20.52076721191406
290253,0.101776123046875,0.2261810302734375,-0.1368560791015625,0.2345499247312546,-0.9371655583381652,-0.3661809265613556,60.1878662109375,100.6841125488281,-20.52076721191406
290254,0.0359649658203125,0.3671112060546875,-0.1215667724609375,0.5619011521339417,-1.149089813232422,-0.5969083905220032,59.94114685058594,100.8042297363281,-20.75242614746094
290255,0.0359649658203125,0.3671112060546875,-0.1215667724609375,0.5619011521339417,-1.149089813232422,-0.5969083905220032,59.94114685058594,100.8042297363281,-20.75242614746094
290256,-0.026458740234375,0.5707244873046875,-0.109405517578125,0.5819187760353088,-1.345027685165405,-1.010275483131409,59.35813903808594,100.9257202148438,-21.2811279296875
290257,-0.026458740234375,0.5707244873046875,-0.109405517578125,0.5819187760353088,-1.345027685165405,-1.010275483131409,59.35813903808594,100.9257202148438,-21.2811279296875
290258,-0.083282470703125,0.9038238525390624,-0.048553466796875,0.2828255891799927,-1.463923096656799,-2.250948190689087,58.33859252929688,101.3724517822266,-22.14599609375
290259,-0.1195068359375,1.1558837890625,0.0890960693359375,0.2828255891799927,-1.463923096656799,-2.250948190689087,56.58503723144531,101.8286437988281,-22.99116516113281
290260,-0.161590576171875,1.406570434570312,0.2506256103515625,0.0942354202270507,-1.130360841751099,-2.670846939086914,55.43901062011719,102.1300048828125,-23.3590087890625
290261,-0.161590576171875,1.406570434570312,0.2506256103515625,0.0942354202270507,-1.130360841751099,-2.670846939086914,55.43901062011719,102.1300048828125,-23.3590087890625
290262,-0.27850341796875,1.629425048828125,0.4232940673828125,-0.2589908242225647,-0.7865601181983948,-2.83872652053833,54.01930236816406,102.3505401611328,-23.6009521484375
290263,-0.6361083984375,2.508331298828125,0.5358123779296875,-1.686228632926941,-1.302056789398193,-1.653374791145325,51.14122009277344,102.8597412109375,-23.53721618652344
290264,-0.506103515625,3.048919677734375,0.570281982421875,-1.791090846061707,-2.468944072723389,-0.7273348569869995,50.03732299804688,102.9519348144531,-23.03231811523438
290265,-0.506103515625,3.048919677734375,0.570281982421875,-1.791090846061707,-2.468944072723389,-0.7273348569869995,50.03732299804688,102.9519348144531,-23.03231811523438
290266,-0.2395477294921875,2.313186645507812,1.575668334960938,0.043559193611145,-1.490598440170288,-0.4545161128044128,48.27632141113281,103.1071319580078,-21.07221984863281
290267,-0.2395477294921875,2.313186645507812,1.575668334960938,0.043559193611145,-1.490598440170288,-0.4545161128044128,48.27632141113281,103.1071319580078,-21.07221984863281
290268,-0.371856689453125,2.192779541015625,1.208404541015625,0.3401685059070587,-0.6228049993515015,-0.545733630657196,48.08241271972656,103.1543579101562,-20.62995910644531
290269,-0.4372406005859375,2.316543579101562,0.6525726318359375,0.6897051930427551,-0.3529087901115417,-0.5800202488899231,47.9757080078125,103.1444396972656,-20.39735412597656
290270,-0.4372406005859375,2.316543579101562,0.6525726318359375,0.6897051930427551,-0.3529087901115417,-0.5800202488899231,47.9757080078125,103.1444396972656,-20.39735412597656
290271,-0.2766571044921875,2.3524169921875,0.0827484130859375,1.055975556373596,-0.7239422798156738,-0.2469453364610672,47.45732116699219,102.8850402832031,-20.44139099121094
290272,-0.17236328125,2.09002685546875,-0.0242767333984375,0.974695920944214,-0.3601928055286407,0.0050229881890118,47.24186706542969,102.7600250244141,-20.933349609375
290273,-0.041778564453125,1.75836181640625,-0.134490966796875,0.8014194965362549,-0.1331932097673416,0.1887632608413696,47.22860717773438,102.5681304931641,-21.40803527832031
290274,-0.041778564453125,1.75836181640625,-0.134490966796875,0.8014194965362549,-0.1331932097673416,0.1887632608413696,47.22860717773438,102.5681304931641,-21.40803527832031
290275,0.0288848876953125,1.274398803710938,-0.2060546875,0.543048620223999,-0.0207196585834026,0.2329232692718506,47.63815307617188,102.1767120361328,-22.27545166015625
290276,-0.0293426513671875,1.099441528320312,-0.1669921875,0.4703925549983978,0.116317018866539,0.216923788189888,47.95976257324219,102.0965728759766,-22.66981506347656
290277,-0.0293426513671875,1.099441528320312,-0.1669921875,0.4703925549983978,0.116317018866539,0.216923788189888,47.95976257324219,102.0965728759766,-22.66981506347656
290278,-0.1274566650390625,0.9134979248046876,-0.148468017578125,0.4097310602664948,0.2833696603775024,0.2265556454658508,48.32902526855469,102.1324310302734,-22.89817810058594
290279,-0.2933349609375,0.601959228515625,-0.144287109375,0.3090542554855347,0.3384520709514618,0.3703586161136627,48.99476623535156,101.8604278564453,-23.50932312011719
290280,-0.3195343017578125,0.51959228515625,-0.109619140625,0.3110625445842743,0.1443731635808945,0.4283404350280762,49.34736633300781,101.88037109375,-23.75553894042969
290281,-0.3195343017578125,0.51959228515625,-0.109619140625,0.3110625445842743,0.1443731635808945,0.4283404350280762,49.34736633300781,101.88037109375,-23.75553894042969
290282,-0.3123626708984375,0.476806640625,-0.040008544921875,0.2914819121360779,-0.0337270721793174,0.4511405527591705,49.78099060058594,101.7819366455078,-24.0439453125
290283,-0.230560302734375,0.36370849609375,-0.0122222900390625,0.1540654599666595,-0.2808753550052643,0.3786913752555847,50.61416625976562,101.536376953125,-24.39971923828125
290284,-0.1978302001953125,0.2671356201171875,0.0087432861328125,0.0563146695494651,-0.2627235054969788,0.3102915585041046,50.91001892089844,101.2326202392578,-24.499267578125
290285,-0.1978302001953125,0.2671356201171875,0.0087432861328125,0.0563146695494651,-0.2627235054969788,0.3102915585041046,50.91001892089844,101.2326202392578,-24.499267578125
290286,-0.1262359619140625,0.0216217041015625,-0.060333251953125,-0.1016667038202286,-0.0813025757670402,0.240274652838707,51.43751525878906,100.9762878417969,-24.80865478515625
290287,-0.0531768798828125,-0.140045166015625,-0.3029937744140625,0.3597208857536316,-0.7580363154411316,0.535646378993988,51.64952087402344,100.7874603271484,-24.82070922851562
290288,0.069732666015625,-0.29071044921875,-0.651458740234375,0.3597208857536316,-0.7580363154411316,0.535646378993988,51.74996948242188,100.6500549316406,-24.77679443359375
290289,0.069732666015625,-0.29071044921875,-0.651458740234375,0.3597208857536316,-0.7580363154411316,0.535646378993988,51.74996948242188,100.6500549316406,-24.77679443359375
290290,0.1318817138671875,-0.2912139892578125,-0.550201416015625,1.226552367210388,-0.2979078590869904,0.9131172299385072,52.00752258300781,100.5975189208984,-24.7156982421875
290291,0.057464599609375,0.029266357421875,-0.2920074462890625,1.397432804107666,0.3149678111076355,0.8020104169845581,52.31427001953125,100.5645904541016,-25.16566467285156
290292,0.0725555419921875,0.1309814453125,-0.3480224609375,1.342900276184082,0.33384108543396,0.6746029257774353,52.52223205566406,100.4537658691406,-25.69834899902344
290293,0.0725555419921875,0.1309814453125,-0.3480224609375,1.342900276184082,0.33384108543396,0.6746029257774353,52.52223205566406,100.4537658691406,-25.69834899902344
290294,-0.0063018798828125,0.2205963134765625,-0.169189453125,0.9381831884384156,0.0848507061600685,0.5670186877250671,53.27508544921875,100.1643524169922,-27.35820007324219
290295,-0.0063018798828125,0.2205963134765625,-0.169189453125,0.9381831884384156,0.0848507061600685,0.5670186877250671,53.27508544921875,100.1643524169922,-27.35820007324219
290296,-0.05841064453125,0.2999267578125,0.0611572265625,0.6243440508842468,0.5388935804367065,0.4735326766967773,53.8193359375,99.82383728027344,-28.46296691894531
290297,-0.0728607177734375,0.480926513671875,0.2015228271484375,0.4818603694438934,0.950106918811798,0.4388545751571655,54.14079284667969,99.73281860351562,-28.92034912109375
290298,-0.0728607177734375,0.480926513671875,0.2015228271484375,0.4818603694438934,0.950106918811798,0.4388545751571655,54.14079284667969,99.73281860351562,-28.92034912109375
290299,-0.1251068115234375,1.039260864257812,0.4787445068359375,0.0837231278419494,1.977198719978333,0.3240371942520142,54.88682556152344,99.59295654296876,-29.66133117675781
290300,-0.1685333251953125,1.29638671875,0.604461669921875,-0.0951715260744094,2.374080419540405,0.2316012680530548,55.26336669921875,99.36428833007812,-29.71168518066406
290301,-0.1685333251953125,1.29638671875,0.604461669921875,-0.0951715260744094,2.374080419540405,0.2316012680530548,55.26336669921875,99.36428833007812,-29.71168518066406
290302,-0.239227294921875,1.53472900390625,0.627838134765625,0.0387007892131805,2.149222373962402,0.1791260838508606,55.78567504882812,99.20281982421876,-29.70578002929688
290303,-0.2852630615234375,1.808929443359375,0.800689697265625,0.5739394426345825,0.8794447779655457,0.2049800455570221,56.84341430664062,99.14549255371094,-29.53396606445312
290304,-0.2323455810546875,1.966522216796875,0.9777069091796876,0.6967734694480896,0.1900796592235565,0.3054613769054413,57.19810485839844,99.09178161621094,-29.434814453125
290305,-0.2323455810546875,1.966522216796875,0.9777069091796876,0.6967734694480896,0.1900796592235565,0.3054613769054413,57.19810485839844,99.09178161621094,-29.434814453125
290306,-0.228668212890625,2.180953979492188,1.187911987304688,0.7164624929428101,-0.3680419325828552,0.4609583020210266,57.41468811035156,99.06088256835938,-29.702392578125
290307,-0.454132080078125,2.275588989257812,1.545791625976562,0.2322031408548355,-0.1376103311777115,0.27387735247612,57.76980590820312,98.73828125,-30.42735290527344
290308,-0.63275146484375,1.985427856445312,1.554092407226562,-0.5375249981880188,0.690839946269989,-0.1072612106800079,58.0040283203125,98.53236389160156,-30.61067199707031
290309,-0.63275146484375,1.985427856445312,1.554092407226562,-0.5375249981880188,0.690839946269989,-0.1072612106800079,58.0040283203125,98.53236389160156,-30.61067199707031
290310,-0.64703369140625,1.652603149414062,1.235382080078125,-1.190797567367554,1.272979855537415,-0.3100928962230682,58.23396301269531,98.47721862792967,-30.66751098632812
290311,-0.457855224609375,1.289627075195312,0.470977783203125,-1.338351607322693,0.9488922953605652,-0.2391433417797089,58.50302124023438,98.697509765625,-29.79866027832031
290312,-0.35540771484375,1.219528198242188,0.221771240234375,-1.135287404060364,0.4423002004623413,-0.2141889929771423,58.61466979980469,98.86192321777344,-28.96417236328125
290313,-0.35540771484375,1.219528198242188,0.221771240234375,-1.135287404060364,0.4423002004623413,-0.2141889929771423,58.61466979980469,98.86192321777344,-28.96417236328125
290314,-0.211822509765625,1.038070678710938,0.0126953125,-1.027961492538452,-0.5512754321098328,-0.4232993423938751,58.48011779785156,99.6127471923828,-27.83444213867188
290315,-0.1546783447265625,0.91217041015625,-0.0705718994140625,-1.027961492538452,-0.5512754321098328,-0.4232993423938751,58.20526123046875,99.86415100097656,-27.44941711425781
290316,-0.0799713134765625,0.7517852783203125,-0.3959197998046875,-1.17651903629303,-1.056166052818298,-0.5488916039466858,57.92741394042969,100.0175323486328,-26.8349609375
290317,-0.0009307861328125,0.60089111328125,-0.634307861328125,-1.314507484436035,-2.226953983306885,-0.648327648639679,57.60470581054688,100.2275695800781,-26.33535766601562
290318,-0.0009307861328125,0.60089111328125,-0.634307861328125,-1.314507484436035,-2.226953983306885,-0.648327648639679,57.60470581054688,100.2275695800781,-26.33535766601562
290319,0.0142059326171875,0.4428558349609375,-0.0213623046875,-1.22874391078949,-2.291139364242554,-0.6351026892662048,56.56452941894531,100.6716918945312,-25.524658203125
290320,0.0358428955078125,0.323944091796875,0.01544189453125,-1.030125617980957,-1.439017295837402,-0.4727989733219147,55.81771850585938,100.9327850341797,-25.1097412109375
290321,0.0762176513671875,0.230804443359375,-0.057647705078125,-0.7022547721862793,-0.7133535146713257,-0.2722360491752625,55.18864440917969,101.1579437255859,-24.46890258789062
290322,0.0762176513671875,0.230804443359375,-0.057647705078125,-0.7022547721862793,-0.7133535146713257,-0.2722360491752625,55.18864440917969,101.1579437255859,-24.46890258789062
290323,0.1130523681640625,0.1967315673828125,-0.17047119140625,-0.2785645127296448,-0.3114660084247589,-0.0656501129269599,54.68461608886719,101.3271026611328,-24.02676391601562
290324,0.0913848876953125,0.317626953125,-0.217071533203125,0.3976134061813354,-0.3730060756206512,0.0494722127914428,54.17585754394531,101.5839538574219,-23.253173828125
290325,0.0913848876953125,0.317626953125,-0.217071533203125,0.3976134061813354,-0.3730060756206512,0.0494722127914428,54.17585754394531,101.5839538574219,-23.253173828125
290326,0.0893707275390625,0.352203369140625,-0.16082763671875,0.5052514672279358,-0.5162239670753479,-0.0481914989650249,54.19593811035156,101.5189361572266,-22.96023559570312
290327,0.1071014404296875,0.3336639404296875,-0.1327667236328125,0.4277545213699341,-0.677841067314148,-0.2638348340988159,53.96505737304688,101.4942474365234,-23.24974060058594
290328,0.1192779541015625,0.3151092529296875,-0.1677093505859375,0.37765833735466,-0.7303058505058289,-0.315754234790802,53.80476379394531,101.5482025146484,-23.42745971679688
290329,0.1192779541015625,0.3151092529296875,-0.1677093505859375,0.37765833735466,-0.7303058505058289,-0.315754234790802,53.80476379394531,101.5482025146484,-23.42745971679688
290330,0.1163330078125,0.3123779296875,-0.2209930419921875,0.3809649348258972,-0.776534378528595,-0.3345763981342316,53.64372253417969,101.3983306884766,-23.46475219726562
290331,0.0756988525390625,0.3043670654296875,-0.260406494140625,0.5337259769439697,-0.9889129400253296,-0.3118883967399597,53.22117614746094,101.4263305664062,-24.00556945800781
290332,0.061798095703125,0.30596923828125,-0.2338104248046875,0.6383216381072998,-1.096097707748413,-0.2662031948566437,52.96563720703125,101.3544006347656,-24.19454956054688
290333,0.061798095703125,0.30596923828125,-0.2338104248046875,0.6383216381072998,-1.096097707748413,-0.2662031948566437,52.96563720703125,101.3544006347656,-24.19454956054688
290334,0.0562896728515625,0.3186187744140625,-0.210693359375,0.7389150857925415,-1.184270739555359,-0.2423282116651535,52.67066955566406,101.4130859375,-24.62568664550781
290335,0.0382537841796875,0.3641510009765625,-0.157073974609375,0.8745221495628357,-1.332380294799805,-0.3646506667137146,52.11758422851562,101.2737121582031,-25.15780639648438
290336,0.0016326904296875,0.44879150390625,-0.119293212890625,0.8427514433860779,-1.435474395751953,-0.4923071563243866,51.93942260742188,101.2401885986328,-25.58782958984375
290337,0.0016326904296875,0.44879150390625,-0.119293212890625,0.8427514433860779,-1.435474395751953,-0.4923071563243866,51.93942260742188,101.2401885986328,-25.58782958984375
290338,-0.059539794921875,0.584381103515625,-0.0403289794921875,0.7352609634399414,-1.487473964691162,-0.6956352591514587,51.58802795410156,101.228759765625,-25.89013671875
290339,-0.171630859375,0.9324493408203124,0.222503662109375,0.2343302071094513,-1.140607357025146,-1.314037799835205,50.48988342285156,101.552490234375,-26.91036987304688
290340,-0.24041748046875,1.206771850585938,0.37774658203125,-0.1791399270296097,-0.5503843426704407,-1.514022469520569,49.72030639648438,101.6839904785156,-27.13092041015625
290341,-0.2958221435546875,1.661773681640625,0.4628753662109375,-1.030024170875549,-0.3960586488246918,-1.62864363193512,48.91238403320312,101.9133911132812,-27.18157958984375
290342,-0.2958221435546875,1.661773681640625,0.4628753662109375,-1.030024170875549,-0.3960586488246918,-1.62864363193512,48.91238403320312,101.9133911132812,-27.18157958984375
290343,-0.436309814453125,3.123748779296875,0.8009033203125,-2.80104923248291,-0.8028730154037476,-0.7509920001029968,47.02299499511719,102.5910949707031,-26.80322265625
290344,-0.6037750244140625,3.719406127929688,1.147537231445312,-2.333916902542114,-1.622950077056885,-0.0931642949581146,46.33065795898438,102.8165740966797,-26.27903747558594
290345,-0.6037750244140625,3.719406127929688,1.147537231445312,-2.333916902542114,-1.622950077056885,-0.0931642949581146,46.33065795898438,102.8165740966797,-26.27903747558594
290346,-0.231964111328125,2.231033325195312,1.469329833984375,-0.4606488347053528,-1.046803116798401,-0.3328426778316498,45.32948303222656,103.42724609375,-24.31687927246094
290347,-0.2444305419921875,1.641372680664062,1.293899536132812,0.4074095785617828,-0.6296112537384033,-0.2966130375862122,44.9178466796875,103.5581207275391,-23.39216613769531
290348,-0.4034576416015625,1.551040649414062,1.16558837890625,0.8770048022270203,-0.1546284556388855,-0.3862150907516479,44.68238830566406,103.6298065185547,-22.75642395019531
290349,-0.4522247314453125,1.682952880859375,0.842132568359375,0.9046401381492616,-0.1590511649847031,-0.6429696679115295,44.50593566894531,103.4699096679688,-22.43524169921875
290350,-0.4522247314453125,1.682952880859375,0.842132568359375,0.9046401381492616,-0.1590511649847031,-0.6429696679115295,44.50593566894531,103.4699096679688,-22.43524169921875
290351,-0.20965576171875,2.218536376953125,0.00885009765625,0.6342999935150146,-1.272553682327271,-0.7551193237304688,43.98457336425781,103.42724609375,-22.63531494140625
290352,-0.0608673095703125,2.527923583984375,-0.1124725341796875,0.9685067534446716,-0.9260460734367372,-0.2541824877262115,43.4368896484375,103.383056640625,-22.60948181152344
290353,-0.0608673095703125,2.527923583984375,-0.1124725341796875,0.9685067534446716,-0.9260460734367372,-0.2541824877262115,43.4368896484375,103.383056640625,-22.60948181152344
290354,-0.031982421875,2.059051513671875,-0.5131378173828125,1.000115036964417,0.368470162153244,0.323419600725174,42.80824279785156,102.8443908691406,-23.0047607421875
290355,-0.0657501220703125,1.44390869140625,-0.3019866943359375,0.7164912819862366,0.2123588621616364,0.3204911947250366,43.089599609375,102.6619415283203,-23.55693054199219
290356,-0.1195220947265625,1.125686645507812,-0.117218017578125,0.4812017679214478,0.2231734246015549,0.3266350924968719,43.44003295898438,102.2996063232422,-24.11029052734375
290357,-0.1596221923828125,0.920166015625,-0.125579833984375,0.3805513381958008,0.2428872138261795,0.3325617015361786,43.92828369140625,101.9752960205078,-24.44688415527344
290358,-0.1596221923828125,0.920166015625,-0.125579833984375,0.3805513381958008,0.2428872138261795,0.3325617015361786,43.92828369140625,101.9752960205078,-24.44688415527344
290359,-0.2015228271484375,0.62481689453125,-0.2170257568359375,0.5855236649513245,-0.0268843453377485,0.3392180204391479,44.96675109863281,101.4346771240234,-25.02029418945312
290360,-0.2247161865234375,0.5093994140625,-0.172119140625,0.6377983093261719,-0.142355814576149,0.3573357760906219,45.50447082519531,101.159423828125,-25.36343383789062
290361,-0.2247161865234375,0.5093994140625,-0.172119140625,0.6377983093261719,-0.142355814576149,0.3573357760906219,45.50447082519531,101.159423828125,-25.36343383789062
290362,-0.229034423828125,0.4076690673828125,-0.126251220703125,0.5218927264213562,-0.2918166816234589,0.4162099957466125,45.92396545410156,100.9259033203125,-25.61766052246094
290363,-0.168701171875,0.225799560546875,0.009674072265625,0.4765090346336365,-0.254042387008667,0.4040787518024445,46.73548889160156,100.4962921142578,-26.42308044433594
290364,-0.134521484375,0.1221466064453125,0.0549468994140625,0.3969867825508118,-0.1134930029511452,0.3450135886669159,46.94279479980469,100.371826171875,-26.8314208984375
290365,-0.134521484375,0.1221466064453125,0.0549468994140625,0.3969867825508118,-0.1134930029511452,0.3450135886669159,46.94279479980469,100.371826171875,-26.8314208984375
290366,-0.099273681640625,0.012298583984375,0.031524658203125,0.2794367074966431,0.0448822528123855,0.2797879874706268,47.18434143066406,100.2144317626953,-27.0797119140625
290367,0.003082275390625,-0.226348876953125,-0.38604736328125,0.2623575925827026,-0.2095827907323837,0.3661329746246338,47.6102294921875,99.96549987792967,-27.59234619140625
290368,0.067535400390625,-0.3355255126953125,-0.615478515625,0.4927093088626862,-0.8742454648017883,0.6014509797096252,47.78959655761719,99.80804443359376,-27.80960083007812
290369,0.067535400390625,-0.3355255126953125,-0.615478515625,0.4927093088626862,-0.8742454648017883,0.6014509797096252,47.78959655761719,99.80804443359376,-27.80960083007812
290370,0.096923828125,-0.335845947265625,-0.4510040283203125,0.7550767660140991,-0.9679772853851318,0.8311858773231506,47.90760803222656,99.71136474609376,-27.93949890136719
290371,0.150360107421875,-0.1105804443359375,-0.3551177978515625,1.06486976146698,0.3481608927249908,0.8544491529464722,48.17399597167969,99.68948364257812,-28.27598571777344
290372,0.177581787109375,0.07257080078125,-0.4174652099609375,1.151014447212219,0.1952238231897354,0.7211952209472656,48.42784118652344,99.60006713867188,-28.61174011230469
290373,0.177581787109375,0.07257080078125,-0.4174652099609375,1.151014447212219,0.1952238231897354,0.7211952209472656,48.42784118652344,99.60006713867188,-28.61174011230469
290374,0.1249542236328125,0.2170257568359375,-0.277069091796875,0.9413952231407166,0.1406974643468857,0.6702992916107178,49.22779846191406,99.27287292480467,-29.68486022949219
290375,0.0977783203125,0.2589569091796875,-0.1684417724609375,0.9413952231407166,0.1406974643468857,0.6702992916107178,49.52789306640625,99.07119750976562,-30.22111511230469
290376,0.0744171142578125,0.30078125,-0.0717315673828125,0.8061537742614746,0.2726930379867554,0.6010685563087463,49.80831909179688,98.85765075683594,-30.78768920898438
290377,0.0698394775390625,0.3891143798828125,0.0382232666015625,0.713705837726593,0.4863451421260834,0.5046588778495789,50.17385864257812,98.50900268554688,-31.33836364746094
290378,0.0698394775390625,0.3891143798828125,0.0382232666015625,0.713705837726593,0.4863451421260834,0.5046588778495789,50.17385864257812,98.50900268554688,-31.33836364746094
290379,0.145111083984375,1.13751220703125,0.4290771484375,0.6084244251251221,1.511161804199219,0.8289024829864502,50.87161254882812,98.49061584472656,-32.51416015625
290380,0.1255035400390625,1.425323486328125,0.6115875244140625,0.482901930809021,2.232390403747559,1.061113119125366,51.25100708007812,98.39303588867188,-32.98268127441406
290381,0.123291015625,1.668304443359375,0.68243408203125,0.4734669029712677,2.477189302444458,1.037331342697144,51.78352355957031,98.42335510253906,-33.34126281738281
290382,0.123291015625,1.668304443359375,0.68243408203125,0.4734669029712677,2.477189302444458,1.037331342697144,51.78352355957031,98.42335510253906,-33.34126281738281
290383,0.099609375,2.015487670898438,0.7555694580078125,0.7744557857513428,0.8939142227172852,0.7244855165481567,53.67227172851562,97.89532470703124,-33.61338806152344
290384,0.0429534912109375,2.207931518554688,0.992584228515625,0.839533805847168,-0.242441400885582,0.6444857716560364,54.56581115722656,97.71212768554688,-33.66316223144531
290385,0.0429534912109375,2.207931518554688,0.992584228515625,0.839533805847168,-0.242441400885582,0.6444857716560364,54.56581115722656,97.71212768554688,-33.66316223144531
290386,-0.3738555908203125,2.51611328125,1.810394287109375,0.4846074283123016,-0.5430057644844055,0.4195038080215454,55.73095703125,97.2645263671875,-34.38972473144531
290387,-0.7037506103515625,2.462890625,2.129257202148438,-0.1153380423784256,0.9117560982704164,0.0055457665584981,55.92619323730469,97.11392211914062,-34.78353881835938
290388,-0.87469482421875,2.250717163085938,2.010711669921875,-0.7918608784675598,2.654821395874023,-0.4917601346969604,56.14643859863281,96.804931640625,-35.10977172851562
290389,-0.87469482421875,2.250717163085938,2.010711669921875,-0.7918608784675598,2.654821395874023,-0.4917601346969604,56.14643859863281,96.804931640625,-35.10977172851562
290390,-0.9482574462890624,1.934249877929688,1.55615234375,-1.199609994888306,3.743694305419922,-0.8203004598617554,56.48648071289062,96.7570343017578,-34.91839599609375
290391,-0.820831298828125,1.374008178710938,0.428436279296875,-0.986268937587738,3.354833841323853,-0.6962922215461731,57.39888000488281,97.09918212890624,-33.59498596191406
290392,-0.6598663330078125,1.205886840820312,0.08392333984375,-0.7615436911582947,2.528998374938965,-0.4956254661083221,57.73652648925781,97.68685913085938,-32.84048461914062
290393,-0.6598663330078125,1.205886840820312,0.08392333984375,-0.7615436911582947,2.528998374938965,-0.4956254661083221,57.73652648925781,97.68685913085938,-32.84048461914062
290394,-0.5020751953125,1.07965087890625,-0.3144378662109375,-0.6757086515426636,1.63064181804657,-0.3883461356163025,57.9324951171875,98.16067504882812,-32.14089965820312
290395,-0.2526092529296875,0.8718719482421875,-0.8491668701171875,-1.687387347221375,-4.092302322387695,-0.5568640232086182,57.85505676269531,99.33827209472656,-31.67417907714844
290396,-0.238983154296875,0.919647216796875,0.369781494140625,-1.899657845497131,-3.112505435943604,-0.9414548873901368,57.34487915039062,99.77755737304688,-31.395751953125
290397,-0.238983154296875,0.919647216796875,0.369781494140625,-1.899657845497131,-3.112505435943604,-0.9414548873901368,57.34487915039062,99.77755737304688,-31.395751953125
290398,-0.1226348876953125,0.640838623046875,0.4842987060546875,-2.109804630279541,-1.092131972312927,-0.8682166337966919,56.34992980957031,100.4260711669922,-30.98912048339844
290399,0.08648681640625,0.2724151611328125,-0.2790679931640625,-1.585415959358215,0.8123416304588318,-0.5603245496749878,54.48655700683594,101.1591796875,-29.59130859375
290400,0.1907196044921875,0.1749420166015625,-0.563018798828125,-0.9119044542312622,-0.2137216031551361,-0.4362961053848267,54.09086608886719,101.0654754638672,-28.50466918945312
290401,0.1907196044921875,0.1749420166015625,-0.563018798828125,-0.9119044542312622,-0.2137216031551361,-0.4362961053848267,54.09086608886719,101.0654754638672,-28.50466918945312
290402,0.191375732421875,0.2628631591796875,-0.14703369140625,0.2537995278835297,-1.195503354072571,-0.2713135182857513,53.85110473632812,100.8570098876953,-26.86247253417969
290403,0.2006683349609375,0.273101806640625,-0.077239990234375,0.4946406185626984,-1.09663462638855,-0.1792256832122803,53.529296875,100.6602020263672,-26.50227355957031
290404,0.26202392578125,0.228118896484375,-0.0712890625,0.5394570827484131,-1.005444765090942,-0.0030719563364982,53.11221313476562,100.5118255615234,-26.39866638183594
290405,0.26202392578125,0.228118896484375,-0.0712890625,0.5394570827484131,-1.005444765090942,-0.0030719563364982,53.11221313476562,100.5118255615234,-26.39866638183594
290406,0.354888916015625,0.179229736328125,-0.11553955078125,0.4477080106735229,-1.048725724220276,0.3201047778129578,52.75558471679688,100.4704132080078,-26.545166015625
290407,0.497833251953125,0.2817230224609375,-0.2894287109375,0.1963013410568237,-1.665297508239746,1.022914290428162,51.98834228515625,100.5978698730469,-26.76536560058594
290408,0.55841064453125,0.3936767578125,-0.2645263671875,0.1261960119009018,-1.828050494194031,1.256393313407898,51.93296813964844,100.6034851074219,-26.64558410644531
290409,0.6197052001953125,0.4781646728515625,-0.3101348876953125,0.1413435488939285,-1.683916449546814,1.361338973045349,52.02888488769531,100.5903625488281,-26.59912109375
290410,0.6197052001953125,0.4781646728515625,-0.3101348876953125,0.1413435488939285,-1.683916449546814,1.361338973045349,52.02888488769531,100.5903625488281,-26.59912109375
290411,0.609222412109375,0.50128173828125,-0.4802093505859375,0.5163110494613647,-1.54600203037262,1.325077414512634,52.67637634277344,100.4242401123047,-26.37541198730469
290412,0.5204010009765625,0.4608154296875,-0.4597625732421875,0.8457648158073425,-1.674792170524597,1.101911664009094,53.13461303710938,100.1566925048828,-26.278076171875
290413,0.5204010009765625,0.4608154296875,-0.4597625732421875,0.8457648158073425,-1.674792170524597,1.101911664009094,53.13461303710938,100.1566925048828,-26.278076171875
290414,0.31561279296875,0.3074188232421875,-0.2572021484375,1.203985571861267,-1.940441489219666,0.4358827769756317,54.07521057128906,99.66075134277344,-26.59197998046875
290415,0.19976806640625,0.3179168701171875,-0.114959716796875,1.10447895526886,-1.882034301757812,0.0028037759475409,54.31501770019531,99.62539672851562,-27.02362060546875
290416,0.04705810546875,0.3672027587890625,-0.005279541015625,0.8287290930747986,-1.758577704429626,-0.4609585702419281,54.40841674804688,99.57302856445312,-27.52731323242188
290417,0.04705810546875,0.3672027587890625,-0.005279541015625,0.8287290930747986,-1.758577704429626,-0.4609585702419281,54.40841674804688,99.57302856445312,-27.52731323242188
290418,-0.0364227294921875,0.601898193359375,0.15283203125,0.0865775048732757,-1.400578498840332,-1.276843309402466,53.73745727539062,99.52005004882812,-28.615966796875
290419,-0.0278167724609375,0.8043670654296875,0.209930419921875,-0.3185383081436157,-1.332387447357178,-1.852232575416565,53.2918701171875,99.54168701171876,-28.94398498535156
290420,0.010894775390625,1.084609985351562,0.3380584716796875,-0.7090389132499695,-1.209272980690002,-2.546261072158813,52.56109619140625,99.6664581298828,-29.09869384765625
290421,0.010894775390625,1.084609985351562,0.3380584716796875,-0.7090389132499695,-1.209272980690002,-2.546261072158813,52.56109619140625,99.6664581298828,-29.09869384765625
290422,0.1617279052734375,2.149459838867188,0.42254638671875,-2.100851535797119,-1.973976850509644,-4.050371170043945,50.27792358398438,100.4042358398438,-29.20198059082031
290423,0.2609405517578125,3.26593017578125,0.5065155029296875,-2.100851535797119,-1.973976850509644,-4.050371170043945,48.57994079589844,100.75927734375,-29.05424499511719
290424,0.02093505859375,4.108062744140625,0.9813690185546876,-2.8693528175354,-3.297813415527344,-3.424234628677368,46.59353637695312,101.0540161132812,-28.7252197265625
290425,0.02093505859375,4.108062744140625,0.9813690185546876,-2.8693528175354,-3.297813415527344,-3.424234628677368,46.59353637695312,101.0540161132812,-28.7252197265625
290426,-0.6500701904296875,3.922805786132812,1.823898315429688,-2.358937501907349,-2.985583543777466,-2.677376747131348,44.36907958984375,101.3155212402344,-28.57026672363281
290427,-1.065475463867188,2.96697998046875,2.111053466796875,-0.9645612239837646,-0.953786075115204,-1.888004660606384,40.2479248046875,101.9557495117188,-27.02958679199219
290428,-0.953125,1.243865966796875,1.152374267578125,0.8086425065994263,-0.236949160695076,-0.6596596837043762,38.52940368652344,101.9290924072266,-25.60107421875
290429,-0.9656829833984376,1.14129638671875,0.9212188720703124,0.9844585061073304,-1.033707618713379,-0.5343624949455261,38.34585571289062,101.8068389892578,-25.50160217285156
290430,-0.9656829833984376,1.14129638671875,0.9212188720703124,0.9844585061073304,-1.033707618713379,-0.5343624949455261,38.34585571289062,101.8068389892578,-25.50160217285156
290431,-0.669769287109375,1.721420288085938,0.239288330078125,0.3321039080619812,-1.409922957420349,-0.6100420355796814,37.48106384277344,101.7006988525391,-25.4384765625
290432,-0.2567596435546875,2.110916137695312,-0.445343017578125,0.4023639559745789,-1.714617133140564,-0.1655602008104324,36.96199035644531,101.4986419677734,-25.06181335449219
290433,-0.2567596435546875,2.110916137695312,-0.445343017578125,0.4023639559745789,-1.714617133140564,-0.1655602008104324,36.96199035644531,101.4986419677734,-25.06181335449219
290434,0.053985595703125,2.4794921875,-0.496795654296875,0.8020514249801636,-1.532443642616272,0.3529790937900543,36.59620666503906,101.2438201904297,-24.85578918457031
290435,0.1816253662109375,2.335342407226562,-0.2705230712890625,1.09407365322113,-0.2118504643440247,0.6107048988342285,36.56056213378906,100.9596710205078,-24.82666015625
290436,0.1346588134765625,1.21563720703125,-0.2988128662109375,0.7575559020042419,0.3407194912433624,0.5564520359039307,37.30180358886719,100.3982849121094,-25.33390808105469
290437,0.0279388427734375,0.9414825439453124,-0.1807098388671875,0.3994640409946442,0.2683028280735016,0.4288301765918732,37.95765686035156,100.1021881103516,-25.83529663085938
290438,-0.0821990966796875,0.7584991455078125,-0.1949005126953125,0.226393461227417,0.2685196101665497,0.3039167523384094,38.50247192382812,99.8771514892578,-26.34808349609375
290439,-0.1714019775390625,0.5872955322265625,-0.2683563232421875,0.2789565324783325,0.1084431186318398,0.2124312967061996,39.020751953125,99.74143981933594,-26.67292785644531
290440,-0.192535400390625,0.415283203125,-0.266937255859375,0.4294493794441223,-0.112021341919899,0.2174625545740128,39.51763916015625,99.5732879638672,-26.99349975585938
290441,-0.2029876708984375,0.2927703857421875,-0.2084808349609375,0.5433410406112671,-0.2527254521846771,0.3017483949661255,39.90086364746094,99.39509582519533,-27.20719909667969
290442,-0.2029876708984375,0.2927703857421875,-0.2084808349609375,0.5433410406112671,-0.2527254521846771,0.3017483949661255,39.90086364746094,99.39509582519533,-27.20719909667969
290443,-0.1656036376953125,0.1507110595703125,-0.09393310546875,0.5580451488494873,-0.2403225898742676,0.387219101190567,40.41041564941406,98.98348999023438,-27.75653076171875
290444,-0.1269073486328125,0.0796356201171875,-0.0307159423828125,0.4773204922676086,-0.0533582977950573,0.4116421341896057,40.74951171875,98.78318786621094,-28.16012573242188
290445,-0.1269073486328125,0.0796356201171875,-0.0307159423828125,0.4773204922676086,-0.0533582977950573,0.4116421341896057,40.74951171875,98.78318786621094,-28.16012573242188
290446,-0.0595703125,-0.085693359375,-0.0861358642578125,0.1844878196716309,0.6657868027687073,0.4183557033538818,41.31724548339844,98.55381774902344,-28.59159851074219
290447,-0.0062713623046875,-0.1865997314453125,-0.3887786865234375,0.1639937311410904,0.6257762908935547,0.4852641522884369,41.61688232421875,98.42691040039062,-28.70533752441406
290448,0.0437469482421875,-0.2614898681640625,-0.7162017822265625,0.3904095590114594,0.0009390306076966,0.6364829540252686,41.94700622558594,98.35885620117188,-28.85606384277344
290449,0.0437469482421875,-0.2614898681640625,-0.7162017822265625,0.3904095590114594,0.0009390306076966,0.6364829540252686,41.94700622558594,98.35885620117188,-28.85606384277344
290450,0.0688629150390625,-0.170257568359375,-0.647918701171875,0.7150797843933105,-0.4859789609909058,0.7445284724235535,42.19242858886719,98.32518005371094,-28.90362548828125
290451,0.1056365966796875,0.1750335693359375,-0.3280792236328125,1.155774831771851,0.156642347574234,0.6143742203712463,42.70106506347656,98.3318328857422,-29.62287902832031
290452,0.12060546875,0.2045745849609375,-0.2675323486328125,1.25279700756073,0.2066091001033783,0.6610602140426636,42.95468139648438,98.2815399169922,-30.11503601074219
290453,0.12060546875,0.2045745849609375,-0.2675323486328125,1.25279700756073,0.2066091001033783,0.6610602140426636,42.95468139648438,98.2815399169922,-30.11503601074219
290454,0.111053466796875,0.2322540283203125,-0.1662750244140625,1.262458205223083,0.222978487610817,0.7097079157829285,43.19119262695312,98.08438110351562,-30.62576293945312
290455,0.0857391357421875,0.259368896484375,-0.097442626953125,1.211461305618286,0.307540237903595,0.7200207710266113,43.48007202148438,97.9984893798828,-31.22358703613281
290456,0.016387939453125,0.366058349609375,0.018157958984375,0.9933825135231018,0.5646585822105408,0.6871210932731628,44.25253295898438,97.68675231933594,-32.506103515625
290457,0.016387939453125,0.366058349609375,0.018157958984375,0.9933825135231018,0.5646585822105408,0.6871210932731628,44.25253295898438,97.68675231933594,-32.506103515625
290458,0.01434326171875,0.483795166015625,0.096405029296875,0.8400813937187195,0.714745044708252,0.7028923630714417,44.56637573242188,97.49978637695312,-33.05751037597656
290459,0.0326690673828125,0.9124298095703124,0.4856109619140625,0.4375744163990021,1.58586311340332,0.7096917033195496,45.37422180175781,97.37214660644533,-34.13458251953125
290460,0.0498504638671875,1.175018310546875,0.6168212890625,0.209411546587944,2.239142179489136,0.7209576368331909,45.95777893066406,97.49104309082033,-34.56326293945312
290461,0.0498504638671875,1.175018310546875,0.6168212890625,0.209411546587944,2.239142179489136,0.7209576368331909,45.95777893066406,97.49104309082033,-34.56326293945312
290462,0.061676025390625,1.495697021484375,0.6151275634765625,0.1161748096346855,2.311798095703125,0.70076984167099,46.65292358398438,97.3664093017578,-34.74636840820312
290463,0.0068511962890625,2.021316528320312,0.7686920166015625,0.4896261692047119,0.8305217027664185,0.4983301758766174,48.21035766601562,97.24235534667967,-34.93144226074219
290464,-0.03680419921875,2.196762084960938,0.983734130859375,0.614317774772644,-0.0985433533787727,0.4477836489677429,48.7911376953125,97.01296997070312,-35.14324951171875
290465,-0.1421051025390625,2.404281616210938,1.311233520507812,0.7018577456474304,-0.6295193433761597,0.470534473657608,49.26496887207031,96.88458251953124,-35.4088134765625
290466,-0.1421051025390625,2.404281616210938,1.311233520507812,0.7018577456474304,-0.6295193433761597,0.470534473657608,49.26496887207031,96.88458251953124,-35.4088134765625
290467,-0.6421356201171875,2.344619750976562,1.853042602539062,0.1286639720201492,0.5856744050979614,0.1807096004486084,49.70411682128906,96.794677734375,-36.00942993164062
290468,-0.786529541015625,2.09173583984375,1.673202514648438,-0.5330178141593933,1.933498024940491,-0.2819571197032928,50.08908081054688,96.68533325195312,-36.19035339355469
290469,-0.8181304931640625,1.76507568359375,1.238250732421875,-1.077982902526855,2.658303737640381,-0.6430894732475281,50.33830261230469,96.69668579101562,-36.17816162109375
290470,-0.8181304931640625,1.76507568359375,1.238250732421875,-1.077982902526855,2.658303737640381,-0.6430894732475281,50.33830261230469,96.69668579101562,-36.17816162109375
290471,-0.742340087890625,1.229034423828125,0.410186767578125,-1.120346069335938,2.159817695617676,-0.6679924130439758,51.1004638671875,97.15187072753906,-35.41204833984375
290472,-0.640167236328125,1.082229614257812,0.17034912109375,-0.8687037229537964,1.525614142417908,-0.528478741645813,51.16127014160156,97.6323699951172,-35.02255249023438
290473,-0.640167236328125,1.082229614257812,0.17034912109375,-0.8687037229537964,1.525614142417908,-0.528478741645813,51.16127014160156,97.6323699951172,-35.02255249023438
290474,-0.4077911376953125,0.9324188232421876,-0.1408843994140625,-0.6275931000709534,0.3822219371795654,-0.4935170412063599,51.19931030273438,98.62843322753906,-34.13845825195312
290475,-0.2916717529296875,0.8344573974609375,-0.7038726806640625,-0.7821954488754272,-0.6878036856651306,-0.5906848907470703,51.05288696289062,98.95486450195312,-33.89407348632812
290476,-0.13934326171875,0.796295166015625,-0.9275360107421876,-1.147081255912781,-2.651847362518311,-0.7942020297050476,50.63117980957031,99.3172607421875,-33.64291381835938
290477,-0.0889129638671875,0.7860107421875,-0.249267578125,-1.375561356544495,-3.253095388412476,-1.059730410575867,49.9267578125,99.59921264648438,-33.31719970703125
290478,-0.0889129638671875,0.7860107421875,-0.249267578125,-1.375561356544495,-3.253095388412476,-1.059730410575867,49.9267578125,99.59921264648438,-33.31719970703125
290479,-0.0077056884765625,0.582916259765625,0.056427001953125,-1.712932467460632,-2.218121767044067,-0.9065730571746826,47.78564453125,100.0997772216797,-31.97975158691406
290480,0.04168701171875,0.533111572265625,-0.1231536865234375,-1.784991979598999,-1.60640013217926,-0.7058253288269043,46.75732421875,100.1802368164062,-31.07717895507812
290481,0.1247711181640625,0.499237060546875,-0.3985748291015625,-1.738843083381653,-1.611848115921021,-0.5525766015052795,45.97357177734375,100.2527923583984,-30.17924499511719
290482,0.1247711181640625,0.499237060546875,-0.3985748291015625,-1.738843083381653,-1.611848115921021,-0.5525766015052795,45.97357177734375,100.2527923583984,-30.17924499511719
290483,0.3331146240234375,0.4259796142578125,-0.3266143798828125,-0.7556203007698059,-2.292110919952393,-0.156776562333107,44.82597351074219,100.2212524414062,-28.0545654296875
290484,0.49237060546875,0.4181365966796875,-0.096038818359375,-0.0002292981662321,-1.868155002593994,0.3620737791061401,44.22918701171875,100.2184143066406,-27.20164489746094
290485,0.49237060546875,0.4181365966796875,-0.096038818359375,-0.0002292981662321,-1.868155002593994,0.3620737791061401,44.22918701171875,100.2184143066406,-27.20164489746094
290486,0.499603271484375,0.5158538818359375,-0.0388641357421875,1.029235601425171,-0.5451618432998657,1.005495429039001,43.74162292480469,100.3240966796875,-26.50852966308594
290487,0.358184814453125,0.6056365966796875,-0.3690643310546875,1.137671828269958,-0.6995591521263123,0.8311818838119507,43.73405456542969,100.4778442382812,-26.29368591308594
290488,0.3070831298828125,0.42431640625,-0.365509033203125,1.061353325843811,-0.996794044971466,0.5899378657341003,44.14157104492188,100.2012023925781,-26.46357727050781
290489,0.3070831298828125,0.42431640625,-0.365509033203125,1.061353325843811,-0.996794044971466,0.5899378657341003,44.14157104492188,100.2012023925781,-26.46357727050781
290490,0.2387542724609375,0.2614288330078125,-0.3249664306640625,0.882631242275238,-1.125096082687378,0.3827484548091888,44.35975646972656,100.0282135009766,-26.57049560546875
290491,0.0413665771484375,0.1764678955078125,-0.443267822265625,0.6551663875579834,-1.242542862892151,0.0140673490241169,44.65797424316406,99.67918395996094,-27.01814270019531
290492,-0.0128936767578125,0.2440185546875,-0.3822021484375,0.7041549682617188,-1.357714653015137,-0.0303373988717794,44.60226440429688,99.52961730957033,-27.24472045898438
290493,-0.0128936767578125,0.2440185546875,-0.3822021484375,0.7041549682617188,-1.357714653015137,-0.0303373988717794,44.60226440429688,99.52961730957033,-27.24472045898438
290494,-0.0200042724609375,0.2996673583984375,-0.2722320556640625,0.7781714200973511,-1.352978229522705,-0.1109632700681686,44.51974487304688,99.59292602539062,-27.71075439453125
290495,-0.0246429443359375,0.3371429443359375,-0.188995361328125,0.7754419445991516,-1.24126124382019,-0.4653424024581909,44.32382202148438,99.60871887207033,-28.15849304199219
290496,-0.037322998046875,0.468719482421875,-0.06927490234375,0.6695823669433594,-1.239029049873352,-0.73940110206604,43.76434326171875,99.55210876464844,-28.73406982421875
290497,-0.037322998046875,0.468719482421875,-0.06927490234375,0.6695823669433594,-1.239029049873352,-0.73940110206604,43.76434326171875,99.55210876464844,-28.73406982421875
290498,-0.0081024169921875,0.583709716796875,-0.0071258544921875,0.342990905046463,-1.330605864524841,-1.418137311935425,43.37020874023438,99.62800598144533,-28.98628234863281
290499,0.045501708984375,0.9578094482421876,0.2279205322265625,0.1027002781629562,-1.251592993736267,-1.719614505767822,42.04200744628906,99.693359375,-29.36174011230469
290500,0.0478668212890625,1.185943603515625,0.34490966796875,-0.215728834271431,-1.086099147796631,-1.911259651184082,41.22319030761719,99.6732940673828,-29.58329772949219
290501,0.0478668212890625,1.185943603515625,0.34490966796875,-0.215728834271431,-1.086099147796631,-1.911259651184082,41.22319030761719,99.6732940673828,-29.58329772949219
290502,0.016845703125,1.880935668945312,0.486175537109375,-1.753497958183289,-1.387067437171936,-1.539113759994507,39.07084655761719,99.80599975585938,-29.52677917480469
290503,-0.013519287109375,2.518478393554688,0.624053955078125,-1.753497958183289,-1.387067437171936,-1.539113759994507,38.03489685058594,99.9825439453125,-29.24000549316406
290504,-0.040557861328125,3.421157836914062,0.860687255859375,-2.195717811584473,-2.213144540786743,-1.116555094718933,37.02272033691406,100.1756286621094,-28.71507263183594
290505,-0.040557861328125,3.421157836914062,0.860687255859375,-2.195717811584473,-2.213144540786743,-1.116555094718933,37.02272033691406,100.1756286621094,-28.71507263183594
290506,-0.2978973388671875,3.785186767578125,1.359237670898438,-1.793913602828979,-2.760669946670532,-0.6102415323257446,36.01515197753906,100.2491607666016,-27.97889709472656
290507,-0.4114227294921875,2.153701782226562,1.387588500976562,0.0419905930757522,-0.5869439244270325,-0.7654010057449341,34.62425231933594,100.5781707763672,-25.92019653320312
290508,-0.45343017578125,1.585235595703125,1.22003173828125,0.4254849851131439,-0.3724137842655182,-0.7706556916236877,34.32644653320312,100.5481414794922,-25.04058837890625
290509,-0.45343017578125,1.585235595703125,1.22003173828125,0.4254849851131439,-0.3724137842655182,-0.7706556916236877,34.32644653320312,100.5481414794922,-25.04058837890625
290510,-0.5617828369140625,1.4134521484375,1.005081176757812,0.5297192335128784,-0.3714363873004913,-0.8507845997810364,34.19032287597656,100.3674163818359,-24.61415100097656
290511,-0.58258056640625,1.800918579101562,0.2905120849609375,0.1297129839658737,-2.051500082015991,-1.1112459897995,33.68174743652344,99.75753784179688,-24.52691650390625
290512,-0.48883056640625,1.921798706054688,0.117401123046875,0.2627296149730682,-2.326734066009521,-0.6971058249473572,33.04148864746094,99.54847717285156,-24.44992065429688
290513,-0.48883056640625,1.921798706054688,0.117401123046875,0.2627296149730682,-2.326734066009521,-0.6971058249473572,33.04148864746094,99.54847717285156,-24.44992065429688
290514,-0.2264404296875,1.863571166992188,-0.44012451171875,1.047051310539246,0.479905366897583,0.4211110174655914,31.80621337890625,99.31925964355467,-23.88148498535156
290515,-0.0635223388671875,1.560592651367188,-0.6506500244140625,1.151646137237549,0.8737666606903076,0.6176751852035522,31.62554931640625,99.08123779296876,-23.91314697265625
290516,-0.0546417236328125,1.266937255859375,-0.4332275390625,0.7789319753646851,0.5365209579467773,0.5622414946556091,31.90362548828125,98.89620971679688,-24.30018615722656
290517,-0.0546417236328125,1.266937255859375,-0.4332275390625,0.7789319753646851,0.5365209579467773,0.5622414946556091,31.90362548828125,98.89620971679688,-24.30018615722656
290518,-0.097869873046875,0.9974517822265624,-0.21173095703125,-0.0142559008672833,0.1798413991928101,0.290094405412674,32.38298034667969,98.71424865722656,-25.01301574707031
290519,-0.209747314453125,0.686065673828125,-0.0791168212890625,-0.06707464158535,0.0696318075060844,0.3009076416492462,33.54350280761719,98.33120727539062,-25.83566284179688
290520,-0.2041473388671875,0.5723724365234375,-0.08050537109375,0.0678112730383873,-0.0328357107937336,0.3671441972255707,33.98281860351562,98.18373107910156,-25.97900390625
290521,-0.2041473388671875,0.5723724365234375,-0.08050537109375,0.0678112730383873,-0.0328357107937336,0.3671441972255707,33.98281860351562,98.18373107910156,-25.97900390625
290522,-0.1734161376953125,0.4789886474609375,-0.0811309814453125,0.5394624471664429,-0.2599338293075562,0.3954306840896606,34.42311096191406,98.0221710205078,-26.01165771484375
290523,-0.149139404296875,0.26141357421875,0.10748291015625,0.6163561344146729,-0.0581951290369033,0.3725040555000305,35.20318603515625,97.76486206054688,-26.30079650878906
290524,-0.1539306640625,0.160736083984375,0.1888275146484375,0.5062679648399353,0.3807806372642517,0.3234273195266724,35.45989990234375,97.46966552734376,-26.60627746582031
290525,-0.1539306640625,0.160736083984375,0.1888275146484375,0.5062679648399353,0.3807806372642517,0.3234273195266724,35.45989990234375,97.46966552734376,-26.60627746582031
290526,-0.09136962890625,-0.075164794921875,-0.08062744140625,0.1300876885652542,1.020951509475708,0.2206415683031082,35.96728515625,97.18865966796876,-27.46896362304688
290527,-0.029571533203125,-0.2327880859375,-0.5230712890625,0.2769868671894073,0.5040439963340759,0.3208291530609131,36.35714721679688,96.96681213378906,-27.74386596679688
290528,0.0260467529296875,-0.362030029296875,-0.87811279296875,0.7057307362556458,-0.7598163485527039,0.6107826828956604,36.63009643554688,96.80972290039062,-28.00839233398438
290529,0.0311431884765625,-0.335693359375,-0.552032470703125,1.330464959144592,-0.4586312174797058,1.073441386222839,36.86640930175781,96.83883666992188,-28.16079711914062
290530,0.0311431884765625,-0.335693359375,-0.552032470703125,1.330464959144592,-0.4586312174797058,1.073441386222839,36.86640930175781,96.83883666992188,-28.16079711914062
290531,0.1097259521484375,-0.058319091796875,-0.3878631591796875,1.463243007659912,0.2295727431774139,1.034050822257996,37.10073852539062,96.81936645507812,-28.72306823730469
290532,0.1862335205078125,0.0735626220703125,-0.4362945556640625,1.536166667938232,0.1767840981483459,0.9468427300453186,37.3614501953125,96.77964782714844,-29.05520629882812
290533,0.1862335205078125,0.0735626220703125,-0.4362945556640625,1.536166667938232,0.1767840981483459,0.9468427300453186,37.3614501953125,96.77964782714844,-29.05520629882812
290534,0.177093505859375,0.145263671875,-0.2930908203125,1.449244856834412,0.0066893277689814,0.8943720459938049,37.63934326171875,96.84367370605467,-29.77055358886719
290535,0.110137939453125,0.2495880126953125,-0.0648040771484375,0.9650408625602722,0.0938806906342506,0.7388277053833008,38.39094543457031,96.62956237792967,-31.14302062988281
290536,0.0931243896484375,0.3296661376953125,0.0820770263671875,0.7513059377670288,0.3057378232479095,0.608051598072052,38.70684814453125,96.58287048339844,-31.74496459960938
290537,0.129150390625,0.626922607421875,0.2846832275390625,0.431191623210907,1.693444967269897,0.723412811756134,39.03663635253906,96.55021667480467,-32.16049194335938
290538,0.15399169921875,1.058090209960938,0.521148681640625,0.1949266195297241,2.65549898147583,0.7736400365829468,39.33442687988281,96.620849609375,-32.63504028320312
290539,0.0925750732421875,1.459808349609375,0.66387939453125,0.1949266195297241,2.65549898147583,0.7736400365829468,39.76104736328125,96.65286254882812,-33.25335693359375
290540,0.0303192138671875,1.80072021484375,0.663970947265625,0.0470468699932098,3.040046215057373,0.5716067552566528,40.37078857421875,96.67100524902344,-33.70210266113281
290541,0.0303192138671875,1.80072021484375,0.663970947265625,0.0470468699932098,3.040046215057373,0.5716067552566528,40.37078857421875,96.67100524902344,-33.70210266113281
290542,-0.0892486572265625,2.235610961914062,0.7383270263671875,0.4779801666736603,1.5744469165802,0.1305593401193619,42.04647827148438,96.48214721679688,-34.4298095703125
290543,-0.129638671875,2.382583618164062,0.9046478271484376,0.7578799724578857,0.6092529296875,0.2335877269506454,42.8134765625,96.46664428710938,-34.71089172363281
290544,-0.149932861328125,2.538726806640625,1.113906860351562,1.001858830451965,-0.0754138007760047,0.4382207691669464,43.26339721679688,96.33879089355467,-34.99998474121094
290545,-0.2147979736328125,2.57080078125,1.335800170898438,1.059883236885071,-0.3307552933692932,0.5005291104316711,43.59681701660156,96.28724670410156,-35.25906372070312
290546,-0.2147979736328125,2.57080078125,1.335800170898438,1.059883236885071,-0.3307552933692932,0.5005291104316711,43.59681701660156,96.28724670410156,-35.25906372070312
290547,-0.5251007080078125,1.955245971679688,1.475433349609375,-0.2303834110498428,0.6361445188522339,-0.0453616231679916,44.03144836425781,96.08505249023438,-36.27250671386719
290548,-0.637451171875,1.71234130859375,1.259963989257812,-0.9081177115440368,1.277326941490173,-0.327897697687149,44.16740417480469,95.90736389160156,-36.52481079101562
290549,-0.637451171875,1.71234130859375,1.259963989257812,-0.9081177115440368,1.277326941490173,-0.327897697687149,44.16740417480469,95.90736389160156,-36.52481079101562
290550,-0.65618896484375,1.515060424804688,0.88848876953125,-1.234180450439453,1.407119512557983,-0.4034459888935089,44.35536193847656,95.95884704589844,-36.56936645507812
290551,-0.5625457763671875,1.259933471679688,0.29449462890625,-1.026153564453125,0.4799767136573792,-0.2578794658184052,44.84239196777344,96.29310607910156,-36.0408935546875
290552,-0.45220947265625,1.119415283203125,0.1490325927734375,-0.89362633228302,-0.0617339387536048,-0.2657043933868408,44.98170471191406,96.6150360107422,-35.57279968261719
290553,-0.45220947265625,1.119415283203125,0.1490325927734375,-0.89362633228302,-0.0617339387536048,-0.2657043933868408,44.98170471191406,96.6150360107422,-35.57279968261719
290554,-0.35736083984375,0.9758453369140624,0.0821533203125,-0.9412796497344972,-0.6534417271614075,-0.5118523836135864,45.03057861328125,96.95939636230467,-34.9814453125
290555,-0.2454833984375,0.7089385986328125,-0.0051116943359375,-1.066443085670471,-0.7543337345123291,-0.7063329219818115,44.46994018554688,97.50181579589844,-34.24632263183594
290556,-0.1981353759765625,0.547149658203125,-0.1753692626953125,-1.207837581634521,-0.923951268196106,-0.8615152835845947,44.09117126464844,97.82942199707033,-33.68516540527344
290557,-0.1981353759765625,0.547149658203125,-0.1753692626953125,-1.207837581634521,-0.923951268196106,-0.8615152835845947,44.09117126464844,97.82942199707033,-33.68516540527344
290558,-0.0942230224609375,0.2877349853515625,-0.61492919921875,-1.335101008415222,-2.735472440719604,-0.9382390975952148,43.01901245117188,98.21687316894533,-32.61746215820312
290559,-0.1220245361328125,0.264312744140625,-0.37579345703125,-1.218159675598145,-2.669158220291138,-0.8367699980735779,42.23788452148438,98.41880798339844,-31.83804321289062
290560,-0.040496826171875,0.2953643798828125,-0.302032470703125,-0.989787757396698,-1.578051328659058,-0.6061535477638245,41.30955505371094,98.51454162597656,-30.96952819824219
290561,0.1739349365234375,0.350799560546875,-0.4129486083984375,-0.481631338596344,-0.4557361006736755,-0.3222075998783112,40.415283203125,98.65521240234376,-30.26774597167969
290562,0.1739349365234375,0.350799560546875,-0.4129486083984375,-0.481631338596344,-0.4557361006736755,-0.3222075998783112,40.415283203125,98.65521240234376,-30.26774597167969
290563,0.2823638916015625,0.352020263671875,-0.40313720703125,0.7044228911399841,-0.0489086881279945,0.2956992983818054,39.70172119140625,98.47506713867188,-29.51422119140625
290564,0.1469879150390625,0.363037109375,0.0130462646484375,0.899226188659668,0.1247099712491035,0.303322046995163,39.0986328125,98.4552764892578,-28.70283508300781
290565,0.1469879150390625,0.363037109375,0.0130462646484375,0.899226188659668,0.1247099712491035,0.303322046995163,39.0986328125,98.4552764892578,-28.70283508300781
290566,0.138153076171875,0.2901458740234375,0.0177459716796875,0.7677563428878784,0.2000763714313507,0.2915564775466919,39.12222290039062,98.40830993652344,-28.82135009765625
290567,0.2241363525390625,0.15924072265625,-0.1024322509765625,0.579946756362915,-0.1071983575820923,0.4249544739723206,39.29592895507812,98.34236145019533,-29.66459655761719
290568,0.27142333984375,0.1770782470703125,-0.1313629150390625,0.3888801038265228,-0.5599245429039001,0.6154853105545044,39.4427490234375,98.16075134277344,-29.97059631347656
290569,0.27142333984375,0.1770782470703125,-0.1313629150390625,0.3888801038265228,-0.5599245429039001,0.6154853105545044,39.4427490234375,98.16075134277344,-29.97059631347656
290570,0.303314208984375,0.237335205078125,-0.1368255615234375,0.255011260509491,-0.9757094979286194,0.803652286529541,39.49736022949219,98.18470764160156,-30.18321228027344
290571,0.2354583740234375,0.2961273193359375,-0.231842041015625,0.4690489768981934,-1.196933269500732,0.7480393052101135,39.8729248046875,98.05647277832033,-30.14546203613281
290572,0.2001190185546875,0.181060791015625,-0.28887939453125,0.6947824954986572,-1.165250420570374,0.5507987141609192,39.99485778808594,98.15968322753906,-30.05523681640625
290573,0.2001190185546875,0.181060791015625,-0.28887939453125,0.6947824954986572,-1.165250420570374,0.5507987141609192,39.99485778808594,98.15968322753906,-30.05523681640625
290574,0.1342010498046875,0.1824493408203125,-0.2722320556640625,0.700626015663147,-1.009923100471497,-0.3086529076099396,40.23799133300781,98.25245666503906,-29.95405578613281
290575,0.1198883056640625,0.32196044921875,-0.2894287109375,0.700626015663147,-1.009923100471497,-0.3086529076099396,40.2239990234375,98.27273559570312,-30.132568359375
290576,0.07562255859375,0.472503662109375,-0.30877685546875,0.5170316696166992,-1.265410542488098,-0.5420259833335876,40.13227844238281,98.12693786621094,-30.28904724121094
290577,0.07562255859375,0.472503662109375,-0.30877685546875,0.5170316696166992,-1.265410542488098,-0.5420259833335876,40.13227844238281,98.12693786621094,-30.28904724121094
290578,0.04833984375,0.6266326904296875,-0.26104736328125,0.1805474013090134,-1.672281622886658,-1.114040970802307,39.86172485351562,98.15382385253906,-30.51101684570312
290579,0.0514678955078125,1.228713989257812,0.1767578125,-0.025187112390995,-1.362297177314758,-1.508170247077942,38.88011169433594,98.34666442871094,-30.75163269042969
290580,0.04351806640625,1.59002685546875,0.3346710205078125,-0.2950010001659393,-0.959145724773407,-1.844922661781311,38.07582092285156,98.33413696289062,-30.80657958984375
290581,0.04351806640625,1.59002685546875,0.3346710205078125,-0.2950010001659393,-0.959145724773407,-1.844922661781311,38.07582092285156,98.33413696289062,-30.80657958984375
290582,0.0062103271484375,1.97509765625,0.46844482421875,-0.6112785339355469,-0.7203879952430725,-2.180656909942627,37.17083740234375,98.23551940917967,-30.68995666503906
290583,-0.088348388671875,3.242630004882812,0.6767730712890625,-1.483867764472961,-1.367758750915527,-2.915613174438477,35.04637145996094,98.34683227539062,-30.32984924316406
290584,-0.4344635009765625,3.909042358398438,0.979736328125,-2.19219446182251,-1.745371580123901,-3.170965671539307,33.79574584960938,98.2866668701172,-29.93232727050781
290585,-1.025604248046875,3.812240600585938,1.233749389648438,-2.177548885345459,-2.167410373687744,-2.492175817489624,32.32122802734375,98.17546081542967,-29.1827392578125
290586,-1.025604248046875,3.812240600585938,1.233749389648438,-2.177548885345459,-2.167410373687744,-2.492175817489624,32.32122802734375,98.17546081542967,-29.1827392578125
290587,-1.379287719726562,3.05548095703125,1.531112670898438,-0.9768407940864564,-0.963922083377838,-1.492281556129456,30.67608642578125,98.08462524414062,-28.24563598632812
290588,-0.7369232177734375,1.972122192382812,0.863433837890625,0.7534226179122925,0.0754737183451652,-0.3278548419475555,28.37081909179688,97.65065002441406,-25.58949279785156
290589,-0.7369232177734375,1.972122192382812,0.863433837890625,0.7534226179122925,0.0754737183451652,-0.3278548419475555,28.37081909179688,97.65065002441406,-25.58949279785156
290590,-0.6539764404296875,2.12750244140625,0.395263671875,1.124260663986206,-0.0790713801980018,-0.0469999983906745,27.87185668945312,97.26165771484376,-24.69198608398438
290591,-0.46630859375,2.405319213867188,-0.12506103515625,1.196596622467041,0.0918170064687728,0.3662962317466736,27.72268676757812,96.6674346923828,-24.95877075195312
290592,-0.349090576171875,2.147018432617188,-0.4824981689453125,1.097159266471863,0.4020704627037048,0.4766392409801483,27.83485412597656,96.5651397705078,-25.8614501953125
290593,-0.349090576171875,2.147018432617188,-0.4824981689453125,1.097159266471863,0.4020704627037048,0.4766392409801483,27.83485412597656,96.5651397705078,-25.8614501953125
290594,-0.1521453857421875,1.523162841796875,-0.3984527587890625,0.9687514901161194,0.0780231654644012,0.730803370475769,28.6297607421875,96.24624633789062,-27.61363220214844
290595,-0.0994415283203125,1.225845336914062,-0.2730255126953125,0.8918074369430542,0.1577653884887695,0.8495957851409912,29.16572570800781,95.92312622070312,-28.04371643066406
290596,-0.0807952880859375,0.9479522705078124,-0.2733612060546875,0.8773605823516846,0.2792670726776123,0.8576595783233643,29.78692626953125,95.781005859375,-28.59072875976562
290597,-0.0831451416015625,0.7056732177734375,-0.3218841552734375,0.9275060296058656,0.2416581660509109,0.79416424036026,30.38113403320312,95.56573486328124,-29.072509765625
290598,-0.0831451416015625,0.7056732177734375,-0.3218841552734375,0.9275060296058656,0.2416581660509109,0.79416424036026,30.38113403320312,95.56573486328124,-29.072509765625
290599,-0.1075439453125,0.3781585693359375,-0.2841033935546875,0.8134481906890869,-0.057999387383461,0.6518741846084595,31.53836059570312,95.31163024902344,-30.24307250976562
290600,-0.1041412353515625,0.282867431640625,-0.216400146484375,0.641758143901825,-0.2498063743114471,0.5776374936103821,31.93629455566406,95.15249633789062,-30.60401916503906
290601,-0.1041412353515625,0.282867431640625,-0.216400146484375,0.641758143901825,-0.2498063743114471,0.5776374936103821,31.93629455566406,95.15249633789062,-30.60401916503906
290602,-0.0713348388671875,0.1742706298828125,-0.125701904296875,0.4319564700126648,-0.4179778099060059,0.5148223042488098,32.31634521484375,94.90567016601562,-31.02046203613281
290603,-0.023834228515625,-0.013275146484375,0.073638916015625,-0.2386139035224915,0.0876201316714286,0.3507148623466492,32.92304992675781,94.75460815429688,-31.37773132324219
290604,0.00421142578125,-0.080474853515625,0.0081939697265625,-0.2386139035224915,0.0876201316714286,0.3507148623466492,33.08409118652344,94.72840881347656,-31.41485595703125
290605,0.00421142578125,-0.080474853515625,0.0081939697265625,-0.2386139035224915,0.0876201316714286,0.3507148623466492,33.08409118652344,94.72840881347656,-31.41485595703125
290606,0.0846099853515625,-0.231689453125,-0.48748779296875,0.0182740781456232,0.0591309629380703,0.3905270099639893,33.4854736328125,94.7422332763672,-31.02188110351562
290607,0.1163330078125,-0.280120849609375,-0.655303955078125,0.4221666753292084,-0.4434661269187927,0.4891206920146942,33.74807739257812,94.7335205078125,-30.90069580078125
290608,0.094451904296875,-0.213653564453125,-0.453338623046875,0.7422003746032715,-0.4766983687877655,0.4964174926280975,33.81088256835938,94.75408935546876,-30.87641906738281
290609,0.094451904296875,-0.213653564453125,-0.453338623046875,0.7422003746032715,-0.4766983687877655,0.4964174926280975,33.81088256835938,94.75408935546876,-30.87641906738281
290610,0.1217041015625,-0.0004730224609375,-0.2618255615234375,0.8565237522125244,0.015155516564846,0.2286832481622696,33.96505737304688,94.76319885253906,-31.42446899414062
290611,0.15350341796875,0.0047607421875,-0.2704315185546875,0.7491618394851685,-0.1489993333816528,0.2971667051315308,34.11979675292969,94.69497680664062,-31.78182983398438
290612,0.172210693359375,-0.0019073486328125,-0.26556396484375,0.6529996395111084,-0.278395414352417,0.3736470937728882,34.19435119628906,94.48085021972656,-32.03076171875
290613,0.172210693359375,-0.0019073486328125,-0.26556396484375,0.6529996395111084,-0.278395414352417,0.3736470937728882,34.19435119628906,94.48085021972656,-32.03076171875
290614,0.197540283203125,0.0047760009765625,-0.28497314453125,0.6562289595603943,-0.3000916540622711,0.4380702972412109,34.18415832519531,94.43675231933594,-32.47909545898438
290615,0.1948089599609375,0.13470458984375,-0.2030029296875,0.706985354423523,-0.2843598127365112,0.4964388012886047,34.37837219238281,94.43008422851562,-33.05764770507812
290616,0.13555908203125,0.23968505859375,-0.0532073974609375,0.6093091368675232,-0.168472096323967,0.4571068286895752,34.56782531738281,94.33894348144533,-33.25010681152344
290617,0.0718231201171875,0.3181304931640625,0.1160430908203125,0.4485564827919006,0.0777619034051895,0.3649066090583801,34.70608520507812,94.24217224121094,-33.51741027832031
290618,0.0685272216796875,0.480316162109375,0.2566986083984375,0.2727899849414825,0.4434685111045837,0.2168769240379333,34.84632873535156,94.3161163330078,-33.84161376953125
290619,0.1154632568359375,1.028732299804688,0.5056915283203125,0.1125731468200684,1.142307281494141,0.1724814921617508,34.89382934570312,94.38182067871094,-34.0955810546875
290620,0.0761566162109375,1.605422973632812,0.8376922607421875,-0.1029740497469902,2.188461780548096,0.2961568236351013,35.15338134765625,94.53306579589844,-34.57318115234375
290621,0.0761566162109375,1.605422973632812,0.8376922607421875,-0.1029740497469902,2.188461780548096,0.2961568236351013,35.15338134765625,94.53306579589844,-34.57318115234375
290622,-0.0820770263671875,2.016677856445312,0.974395751953125,-0.3083144128322601,3.017988920211792,0.2793240547180176,35.55455017089844,94.49159240722656,-34.92611694335938
290623,-0.532989501953125,2.282012939453125,0.8990631103515625,-0.0300452504307031,1.665117263793945,-0.066500999033451,37.11306762695312,94.35923767089844,-35.5234375
290624,-0.6316070556640625,2.26007080078125,1.026153564453125,0.2489062249660492,0.392976313829422,-0.0283088702708482,37.82038879394531,94.32278442382812,-35.78727722167969
290625,-0.6316070556640625,2.26007080078125,1.026153564453125,0.2489062249660492,0.392976313829422,-0.0283088702708482,37.82038879394531,94.32278442382812,-35.78727722167969
290626,-0.6947174072265625,2.2598876953125,1.289031982421875,0.5399465560913086,-0.4124144613742828,0.1374587863683701,38.25424194335938,94.30793762207033,-36.026611328125
290627,-0.8945465087890625,2.232376098632812,1.61224365234375,0.3577573299407959,0.5511792898178101,0.0474095940589904,38.37030029296875,94.31167602539062,-36.46340942382812
290628,-0.907440185546875,2.067672729492188,1.384994506835938,-0.2569681406021118,1.20916485786438,-0.2318494766950607,38.44895935058594,94.20596313476562,-36.63249206542969
290629,-0.907440185546875,2.067672729492188,1.384994506835938,-0.2569681406021118,1.20916485786438,-0.2318494766950607,38.44895935058594,94.20596313476562,-36.63249206542969
290630,-0.8030548095703125,1.56524658203125,0.7084503173828125,-1.3095942735672,1.227766036987305,-0.524596631526947,38.79269409179688,94.38224792480467,-36.96484375
290631,-0.7148590087890625,1.3387451171875,0.4161834716796875,-1.437408685684204,0.7696221470832825,-0.5013922452926636,38.82731628417969,94.60752868652344,-36.58541870117188
290632,-0.5882568359375,1.168914794921875,0.1712188720703125,-1.370591640472412,0.1988545060157776,-0.4068428575992584,38.8583984375,94.9814453125,-36.15267944335938
290633,-0.4410247802734375,1.082382202148438,-0.1943817138671875,-1.251063585281372,-0.5345611572265625,-0.3059466183185577,38.69021606445312,95.4591064453125,-35.78269958496094
290634,-0.4410247802734375,1.082382202148438,-0.1943817138671875,-1.251063585281372,-0.5345611572265625,-0.3059466183185577,38.69021606445312,95.4591064453125,-35.78269958496094
290635,-0.1303863525390625,0.9788818359375,-0.3090667724609375,-1.305621147155762,-2.676375389099121,-0.3725120425224304,38.04890441894531,96.0060577392578,-34.66056823730469
290636,-0.1138153076171875,0.7740478515625,0.052215576171875,-1.277710676193237,-2.050299644470215,-0.3290596604347229,37.47183227539062,96.27488708496094,-33.84808349609375
290637,-0.062286376953125,0.613311767578125,0.0423126220703125,-1.230330586433411,-1.034143567085266,-0.2384658306837082,36.85939025878906,96.39906311035156,-32.86265563964844
290638,-0.062286376953125,0.613311767578125,0.0423126220703125,-1.230330586433411,-1.034143567085266,-0.2384658306837082,36.85939025878906,96.39906311035156,-32.86265563964844
290639,0.037200927734375,0.3017578125,-0.319793701171875,-0.924550712108612,-0.619477391242981,-0.2004918158054352,36.23849487304688,96.54725646972656,-31.31393432617188
290640,0.055694580078125,0.2071685791015625,-0.355194091796875,-0.6222896575927734,-0.9228976964950562,-0.2139849960803986,36.09214782714844,96.45011901855467,-30.57887268066406
290641,0.1057586669921875,0.139373779296875,-0.3492889404296875,-0.2752789855003357,-1.096766471862793,-0.1689093858003616,36.01504516601562,96.3711395263672,-29.95477294921875
290642,0.1057586669921875,0.139373779296875,-0.3492889404296875,-0.2752789855003357,-1.096766471862793,-0.1689093858003616,36.01504516601562,96.3711395263672,-29.95477294921875
290643,0.1394195556640625,0.253082275390625,-0.3724517822265625,0.2571572363376617,-0.8650610446929932,0.0451584234833717,35.39649963378906,96.40667724609376,-29.07418823242188
290644,0.1279296875,0.3876953125,-0.3399200439453125,0.3212512731552124,-0.6253554821014404,0.0247048139572143,35.1290283203125,96.49838256835938,-28.88096618652344
290645,0.1279296875,0.3876953125,-0.3399200439453125,0.3212512731552124,-0.6253554821014404,0.0247048139572143,35.1290283203125,96.49838256835938,-28.88096618652344
290646,0.1861724853515625,0.4513702392578125,-0.2968597412109375,0.2803208827972412,-0.4203301668167114,0.0130015527829527,34.75285339355469,96.64730834960938,-28.76739501953125
290647,0.21337890625,0.4483184814453125,-0.2322998046875,0.2816543281078339,-0.4805543720722198,0.0560504868626594,34.64793395996094,96.77732849121094,-28.74371337890625
290648,0.2256622314453125,0.4154205322265625,-0.1540985107421875,0.3397093713283539,-0.522574782371521,0.0786647200584411,34.58534240722656,96.66322326660156,-28.76380920410156
290649,0.237884521484375,0.3518829345703125,-0.0892791748046875,0.4197804927825928,-0.5555708408355713,0.117281086742878,34.52275085449219,96.6297607421875,-28.74073791503906
290650,0.237884521484375,0.3518829345703125,-0.0892791748046875,0.4197804927825928,-0.5555708408355713,0.117281086742878,34.52275085449219,96.6297607421875,-28.74073791503906
290651,0.2394866943359375,0.300750732421875,-0.0626678466796875,0.4986369609832764,-0.6252569556236267,0.1736365109682083,34.55287170410156,96.55642700195312,-28.78724670410156
290652,0.1661376953125,0.205841064453125,-0.1000518798828125,0.6925872564315796,-0.730519711971283,0.182251825928688,34.61299133300781,96.39244079589844,-28.75765991210938
290653,0.1661376953125,0.205841064453125,-0.1000518798828125,0.6925872564315796,-0.730519711971283,0.182251825928688,34.61299133300781,96.39244079589844,-28.75765991210938
290654,0.070953369140625,0.103759765625,-0.2705230712890625,0.9018725752830504,-0.7707939147949219,-0.0664027258753776,34.50813293457031,96.17323303222656,-28.92628479003906
290655,0.0645294189453125,0.2330780029296875,-0.347015380859375,0.8782170414924622,-0.8392113447189331,-0.2517893612384796,34.50059509277344,96.1670379638672,-29.14840698242188
290656,0.0098114013671875,0.419647216796875,-0.440582275390625,0.5992602705955505,-1.364799499511719,-0.4957104027271271,34.24908447265625,96.15823364257812,-29.42204284667969
290657,-0.066680908203125,0.5923004150390625,-0.4672393798828125,0.4515996873378754,-1.521625876426697,-0.6844819188117981,34.00086975097656,96.16462707519533,-29.67819213867188
290658,-0.066680908203125,0.5923004150390625,-0.4672393798828125,0.4515996873378754,-1.521625876426697,-0.6844819188117981,34.00086975097656,96.16462707519533,-29.67819213867188
290659,-0.1673126220703125,1.090408325195312,-0.1536865234375,0.1545056849718094,-0.9007734656333924,-1.15553867816925,33.13175964355469,96.09686279296876,-29.87026977539062
290660,-0.212158203125,1.40850830078125,0.2020416259765625,0.1545056849718094,-0.9007734656333924,-1.15553867816925,32.56266784667969,96.11257934570312,-29.80824279785156
290661,-0.2426300048828125,1.687149047851562,0.53955078125,-0.0427248254418373,-0.2374101579189301,-1.369956135749817,32.05125427246094,96.06805419921876,-29.62338256835938
290662,-0.2426300048828125,1.687149047851562,0.53955078125,-0.0427248254418373,-0.2374101579189301,-1.369956135749817,32.05125427246094,96.06805419921876,-29.62338256835938
290663,-0.4320220947265625,2.252532958984375,0.705078125,-0.744714617729187,0.5372291207313538,-1.343806624412537,31.04266357421875,95.83338928222656,-29.66445922851562
290664,-0.6912384033203125,2.540496826171875,0.7923126220703125,-1.214057326316833,-0.7150619626045227,-0.982294738292694,30.53009033203125,95.81681823730467,-29.72859191894531
290665,-0.6912384033203125,2.540496826171875,0.7923126220703125,-1.214057326316833,-0.7150619626045227,-0.982294738292694,30.53009033203125,95.81681823730467,-29.72859191894531
290666,-0.684722900390625,2.67803955078125,1.430145263671875,-1.05538010597229,-1.879358649253845,-0.2297628968954086,29.62132263183594,96.19358825683594,-28.95234680175781
290667,-0.443328857421875,2.355117797851562,1.4971923828125,-0.5281839370727539,-1.157326221466064,-0.1697405725717545,29.10615539550781,96.30184936523438,-28.08685302734375
290668,-0.430145263671875,1.944549560546875,1.303573608398438,-0.2633996903896332,-0.4106535911560059,-0.4055395126342773,28.54937744140625,96.54461669921876,-27.27464294433594
290669,-0.5323333740234375,1.765411376953125,0.9846954345703124,-0.36476731300354,-0.0363569408655166,-0.7133482098579407,28.12181091308594,96.78678894042967,-26.64155578613281
290670,-0.5323333740234375,1.765411376953125,0.9846954345703124,-0.36476731300354,-0.0363569408655166,-0.7133482098579407,28.12181091308594,96.78678894042967,-26.64155578613281
290671,-0.481719970703125,2.125473022460938,-0.0738983154296875,-0.2392269670963287,-0.7313207983970642,-0.6905595064163208,27.60354614257812,96.57867431640624,-25.78463745117188
290672,-0.319091796875,2.36767578125,-0.430694580078125,0.3096105754375458,-1.675236940383911,-0.3473678231239319,27.40693664550781,96.21568298339844,-25.27775573730469
290673,-0.1824493408203125,2.641510009765625,-0.2247314453125,0.8697042465209961,-1.634925007820129,0.2378431856632233,27.09088134765625,95.8895263671875,-24.78392028808594
290674,-0.1824493408203125,2.641510009765625,-0.2247314453125,0.8697042465209961,-1.634925007820129,0.2378431856632233,27.09088134765625,95.8895263671875,-24.78392028808594
290675,-0.062957763671875,2.421417236328125,-0.1142120361328125,1.214864015579224,0.3021702468395233,0.4243624806404114,26.77391052246094,95.35182189941406,-24.29090881347656
290676,-0.1883392333984375,1.916244506835938,-0.2539215087890625,1.225450158119202,0.5431394577026367,0.44188392162323,26.82984924316406,95.0048370361328,-24.57315063476562
290677,-0.1408233642578125,1.226898193359375,-0.1753387451171875,1.490828275680542,0.5643019676208496,0.581449031829834,27.57135009765625,94.44775390625,-25.88223266601562
290678,-0.1408233642578125,1.226898193359375,-0.1753387451171875,1.490828275680542,0.5643019676208496,0.581449031829834,27.57135009765625,94.44775390625,-25.88223266601562
290679,-0.084625244140625,0.9449615478515624,-0.2358551025390625,1.586115837097168,0.5291005969047546,0.6015191078186035,28.05133056640625,94.21371459960938,-26.78143310546875
290680,-0.0372772216796875,0.6453094482421875,-0.2745819091796875,1.612163782119751,0.4387786984443665,0.6450093388557434,28.55276489257812,94.00157165527344,-27.62005615234375
290681,-0.0372772216796875,0.6453094482421875,-0.2745819091796875,1.612163782119751,0.4387786984443665,0.6450093388557434,28.55276489257812,94.00157165527344,-27.62005615234375
290682,0.034576416015625,0.1824951171875,-0.18377685546875,1.449400663375854,0.318299412727356,0.7524250149726868,29.60678100585938,93.57630920410156,-29.43569946289062
290683,0.0508575439453125,0.0526123046875,-0.1129608154296875,1.316820740699768,0.2830005586147308,0.7436459064483643,30.10125732421875,93.2545166015625,-30.16030883789062
290684,0.0644683837890625,-0.02740478515625,-0.0213165283203125,1.166635751724243,0.2647392451763153,0.6873142123222351,30.52238464355469,93.072021484375,-30.85614013671875
290685,0.0644683837890625,-0.02740478515625,-0.0213165283203125,1.166635751724243,0.2647392451763153,0.6873142123222351,30.52238464355469,93.072021484375,-30.85614013671875
290686,0.035552978515625,-0.1396331787109375,0.0528564453125,0.6002365350723267,0.531608521938324,0.4957719445228577,31.19898986816406,92.74240112304688,-32.02915954589844
290687,0.047821044921875,-0.1735382080078125,-0.0404052734375,0.4357253611087799,0.4372364580631256,0.4853903949260712,31.57717895507812,92.71389770507812,-32.35670471191406
290688,0.0649871826171875,-0.2143402099609375,-0.153045654296875,0.4357253611087799,0.4372364580631256,0.4853903949260712,31.95285034179688,92.6317138671875,-32.45100402832031
