time_idx,accelerometerAccelerationX(G),accelerometerAccelerationY(G),accelerometerAccelerationZ(G)
280000,-0.075592041015625,0.8343353271484375,0.446746826171875
280001,-0.0671234130859375,0.8498382568359375,0.4375
280002,-0.0646820068359375,0.8598480224609375,0.423095703125
280003,-0.06451416015625,0.8659515380859375,0.419891357421875
280004,-0.059051513671875,0.871551513671875,0.4266204833984375
280005,-0.0512542724609375,0.8740234375,0.4257049560546875
280006,-0.0423736572265625,0.8795623779296875,0.419036865234375
280007,-0.03814697265625,0.8786163330078125,0.432586669921875
280008,-0.05279541015625,0.8725738525390625,0.4661712646484375
280009,-0.0782012939453125,0.861602783203125,0.5048065185546875
280010,-0.09954833984375,0.8494110107421875,0.534454345703125
280011,-0.1151275634765625,0.8658905029296875,0.5465240478515625
280012,-0.127349853515625,0.9055023193359376,0.5202789306640625
280013,-0.14801025390625,0.9584808349609376,0.469970703125
280014,-0.176300048828125,1.00714111328125,0.4367218017578125
280015,-0.2121734619140625,1.056121826171875,0.429534912109375
280016,-0.2452545166015625,1.129302978515625,0.415679931640625
280017,-0.258270263671875,1.216415405273438,0.3701934814453125
280018,-0.2579498291015625,1.292892456054688,0.3040924072265625
280019,-0.2520599365234375,1.343002319335938,0.25152587890625
280020,-0.2369537353515625,1.346969604492188,0.2219085693359375
280021,-0.21173095703125,1.294418334960938,0.1962738037109375
280022,-0.17962646484375,1.196929931640625,0.180450439453125
280023,-0.1461944580078125,1.085540771484375,0.173065185546875
280024,-0.1117095947265625,0.9896392822265624,0.1795654296875
280025,-0.091766357421875,0.9249267578125,0.1933441162109375
280026,-0.098052978515625,0.885406494140625,0.209869384765625
280027,-0.1151580810546875,0.85467529296875,0.225341796875
280028,-0.135833740234375,0.8371124267578125,0.2452239990234375
280029,-0.155853271484375,0.827972412109375,0.2765655517578125
280030,-0.1835479736328125,0.8299102783203125,0.31494140625
280031,-0.214324951171875,0.8342742919921875,0.36248779296875
280032,-0.2322998046875,0.8284912109375,0.412078857421875
280033,-0.239471435546875,0.81298828125,0.44464111328125
280034,-0.24468994140625,0.79925537109375,0.4673919677734375
280035,-0.2505645751953125,0.80279541015625,0.50177001953125
280036,-0.258453369140625,0.8190155029296875,0.5526275634765625
280037,-0.2692413330078125,0.8226470947265625,0.5850372314453125
280038,-0.2625579833984375,0.8021392822265625,0.5637359619140625
280039,-0.24493408203125,0.785186767578125,0.513397216796875
280040,-0.21514892578125,0.756683349609375,0.49017333984375
280041,-0.190155029296875,0.722900390625,0.5203857421875
280042,-0.17962646484375,0.6810150146484375,0.5664825439453125
280043,-0.1846771240234375,0.665496826171875,0.6133880615234375
280044,-0.1973724365234375,0.67486572265625,0.6756591796875
280045,-0.2112274169921875,0.71136474609375,0.7401123046875
280046,-0.2220916748046875,0.767608642578125,0.81329345703125
280047,-0.2194671630859375,0.8194122314453125,0.883087158203125
280048,-0.1964263916015625,0.841705322265625,0.93499755859375
280049,-0.15924072265625,0.8059539794921875,0.9547882080078124
280050,-0.13250732421875,0.724395751953125,0.9239349365234376
280051,-0.1296234130859375,0.6427001953125,0.88134765625
280052,-0.1326446533203125,0.5914154052734375,0.84637451171875
280053,-0.148345947265625,0.587005615234375,0.8087615966796875
280054,-0.1779632568359375,0.611541748046875,0.7543182373046875
280055,-0.1981201171875,0.67388916015625,0.6946258544921875
280056,-0.2226715087890625,0.7759857177734375,0.641571044921875
280057,-0.232147216796875,0.8803253173828125,0.591217041015625
280058,-0.2459564208984375,0.964813232421875,0.5594635009765625
280059,-0.2498626708984375,1.023681640625,0.5305938720703125
280060,-0.2168731689453125,1.033767700195312,0.5062408447265625
280061,-0.1688232421875,0.971405029296875,0.4801025390625
280062,-0.1645965576171875,0.8969268798828125,0.445037841796875
280063,-0.2183074951171875,0.8622283935546875,0.4055023193359375
280064,-0.2706451416015625,0.8435821533203125,0.3541717529296875
280065,-0.31451416015625,0.81707763671875,0.29364013671875
280066,-0.3484649658203125,0.797454833984375,0.2407073974609375
280067,-0.35198974609375,0.7885284423828125,0.224517822265625
280068,-0.3472442626953125,0.76373291015625,0.2434539794921875
280069,-0.340423583984375,0.7413330078125,0.3089447021484375
280070,-0.34600830078125,0.7175445556640625,0.4185791015625
280071,-0.3517608642578125,0.71356201171875,0.503662109375
280072,-0.3409576416015625,0.75714111328125,0.51605224609375
280073,-0.306488037109375,0.83709716796875,0.4550933837890625
280074,-0.237335205078125,0.942657470703125,0.36737060546875
280075,-0.15423583984375,1.038619995117188,0.3314056396484375
280076,-0.0779571533203125,1.113433837890625,0.3621673583984375
280077,-0.0102081298828125,1.17657470703125,0.4090118408203125
280078,0.06793212890625,1.229721069335938,0.40673828125
280079,0.13739013671875,1.27740478515625,0.3408355712890625
280080,0.183197021484375,1.319931030273438,0.245208740234375
280081,0.2095184326171875,1.331222534179688,0.1507568359375
280082,0.2070465087890625,1.278823852539062,0.0964813232421875
280083,0.1463775634765625,1.155685424804688,0.0854644775390625
280084,0.048675537109375,1.017929077148438,0.1044158935546875
280085,-0.0339813232421875,0.938201904296875,0.1179656982421875
280086,-0.078094482421875,0.89971923828125,0.1484527587890625
280087,-0.09033203125,0.880035400390625,0.2080078125
280088,-0.090728759765625,0.8638153076171875,0.2864837646484375
280089,-0.0818023681640625,0.8460693359375,0.36492919921875
280090,-0.0740966796875,0.8302154541015625,0.4375762939453125
280091,-0.0814208984375,0.8122711181640625,0.5016937255859375
280092,-0.10638427734375,0.802703857421875,0.5473785400390625
280093,-0.1458282470703125,0.80120849609375,0.5496978759765625
280094,-0.1886749267578125,0.8108062744140625,0.530731201171875
280095,-0.2158203125,0.8187255859375,0.51824951171875
280096,-0.237060546875,0.8392181396484375,0.5004425048828125
280097,-0.2420501708984375,0.8554840087890625,0.5138092041015625
280098,-0.2407989501953125,0.853179931640625,0.53466796875
280099,-0.2339935302734375,0.842315673828125,0.5422210693359375
280100,-0.225128173828125,0.817169189453125,0.5563201904296875
280101,-0.2208099365234375,0.7831268310546875,0.57989501953125
280102,-0.2315521240234375,0.7558746337890625,0.612091064453125
280103,-0.2569427490234375,0.731536865234375,0.65216064453125
280104,-0.284759521484375,0.7271270751953125,0.6930999755859375
280105,-0.31781005859375,0.7474212646484375,0.73504638671875
280106,-0.3432769775390625,0.767242431640625,0.780517578125
280107,-0.3681488037109375,0.77764892578125,0.807037353515625
280108,-0.3905487060546875,0.75537109375,0.7946929931640625
280109,-0.412567138671875,0.70166015625,0.7694854736328125
280110,-0.4221649169921875,0.6357574462890625,0.731903076171875
280111,-0.3981170654296875,0.5825653076171875,0.7130279541015625
280112,-0.3681793212890625,0.552459716796875,0.702301025390625
280113,-0.3461761474609375,0.565765380859375,0.668914794921875
280114,-0.33221435546875,0.6180572509765625,0.6227264404296875
280115,-0.31689453125,0.692779541015625,0.5940093994140625
280116,-0.3016510009765625,0.75885009765625,0.5775146484375
280117,-0.280029296875,0.8028106689453125,0.5416107177734375
280118,-0.255859375,0.83984375,0.49334716796875
280119,-0.219451904296875,0.87353515625,0.4512176513671875
280120,-0.16888427734375,0.8945465087890625,0.4173583984375
280121,-0.116912841796875,0.9242706298828124,0.382568359375
280122,-0.0830078125,0.948333740234375,0.3683624267578125
280123,-0.0697174072265625,0.977264404296875,0.3601226806640625
280124,-0.06805419921875,0.99908447265625,0.3531036376953125
280125,-0.0751800537109375,1.003646850585938,0.3572235107421875
280126,-0.0905303955078125,0.9897003173828124,0.38580322265625
280127,-0.096893310546875,0.974517822265625,0.4217529296875
280128,-0.09173583984375,0.94677734375,0.4536285400390625
280129,-0.0813751220703125,0.9190521240234376,0.4700775146484375
280130,-0.0648193359375,0.902801513671875,0.4779052734375
280131,-0.0567626953125,0.902313232421875,0.479217529296875
280132,-0.0462188720703125,0.92626953125,0.475067138671875
280133,-0.0380096435546875,0.9555511474609376,0.4690704345703125
280134,-0.04339599609375,1.001266479492188,0.441619873046875
280135,-0.0610504150390625,1.062179565429688,0.3840179443359375
280136,-0.083282470703125,1.111480712890625,0.310546875
280137,-0.1079559326171875,1.159469604492188,0.2494964599609375
280138,-0.1573333740234375,1.2001953125,0.232025146484375
280139,-0.22674560546875,1.235260009765625,0.229461669921875
280140,-0.27203369140625,1.2677001953125,0.19189453125
280141,-0.2958984375,1.282180786132812,0.12762451171875
280142,-0.304412841796875,1.28643798828125,0.0583953857421875
280143,-0.292755126953125,1.282470703125,0.0105438232421875
280144,-0.2628173828125,1.266586303710938,-0.013916015625
280145,-0.220458984375,1.242782592773438,-0.0056610107421875
280146,-0.14605712890625,1.18292236328125,-0.020599365234375
280147,-0.079010009765625,1.08526611328125,-0.0448455810546875
280148,-0.03045654296875,1.007904052734375,-0.0273284912109375
280149,-0.0005950927734375,0.9702606201171876,0.0214996337890625
280150,0.0069122314453125,0.9517364501953124,0.1112060546875
280151,0.0059814453125,0.944000244140625,0.2371368408203125
280152,-0.00518798828125,0.929229736328125,0.346649169921875
280153,-0.036041259765625,0.918792724609375,0.4082183837890625
280154,-0.079864501953125,0.9131011962890624,0.422149658203125
280155,-0.106781005859375,0.88348388671875,0.4234619140625
280156,-0.129364013671875,0.8498992919921875,0.423797607421875
280157,-0.154937744140625,0.83941650390625,0.4181671142578125
280158,-0.1837005615234375,0.8456573486328125,0.4196319580078125
280159,-0.20025634765625,0.8403778076171875,0.448822021484375
280160,-0.19659423828125,0.806854248046875,0.47198486328125
280161,-0.18853759765625,0.755828857421875,0.487518310546875
280162,-0.19036865234375,0.6955718994140625,0.5105133056640625
280163,-0.1944732666015625,0.648895263671875,0.5318603515625
280164,-0.201446533203125,0.6102294921875,0.5311431884765625
280165,-0.22161865234375,0.5836181640625,0.52001953125
280166,-0.240753173828125,0.5768280029296875,0.521881103515625
280167,-0.2561492919921875,0.5882568359375,0.541961669921875
280168,-0.2748260498046875,0.6001129150390625,0.577056884765625
280169,-0.2956695556640625,0.607635498046875,0.6142578125
280170,-0.3158721923828125,0.6253814697265625,0.64599609375
280171,-0.33001708984375,0.644256591796875,0.6717071533203125
280172,-0.3365631103515625,0.6731414794921875,0.699920654296875
280173,-0.33233642578125,0.7042388916015625,0.7256622314453125
280174,-0.3206787109375,0.7357025146484375,0.736236572265625
280175,-0.3116607666015625,0.7670135498046875,0.74005126953125
280176,-0.3032073974609375,0.7892608642578125,0.7414703369140625
280177,-0.2928009033203125,0.811737060546875,0.73681640625
280178,-0.272247314453125,0.8548126220703125,0.7289581298828125
280179,-0.240997314453125,0.9032440185546876,0.696746826171875
280180,-0.2027130126953125,0.9483795166015624,0.6488800048828125
280181,-0.17095947265625,0.9837188720703124,0.591033935546875
280182,-0.1481781005859375,1.005462646484375,0.5287933349609375
280183,-0.134185791015625,1.005050659179688,0.49456787109375
280184,-0.134552001953125,1.005935668945312,0.4575042724609375
280185,-0.1411895751953125,1.0048828125,0.4176025390625
280186,-0.1668853759765625,1.007461547851562,0.3858642578125
280187,-0.2097930908203125,1.015487670898438,0.3458099365234375
280188,-0.2426300048828125,1.034072875976562,0.2960968017578125
280189,-0.260498046875,1.025619506835938,0.2448272705078125
280190,-0.2682342529296875,0.9839935302734376,0.2277069091796875
280191,-0.26885986328125,0.9488525390625,0.244842529296875
280192,-0.2707977294921875,0.9151153564453124,0.2821502685546875
280193,-0.2833709716796875,0.9069671630859376,0.318634033203125
280194,-0.2918548583984375,0.9272613525390624,0.33740234375
280195,-0.29217529296875,0.9519805908203124,0.3313140869140625
280196,-0.2958984375,0.966796875,0.3159332275390625
280197,-0.294189453125,0.9795074462890624,0.30047607421875
280198,-0.2707672119140625,0.983734130859375,0.2958526611328125
280199,-0.2205352783203125,1.001083374023438,0.30047607421875
280200,-0.1457672119140625,1.014846801757812,0.296783447265625
280201,-0.0489044189453125,1.047103881835938,0.2738037109375
280202,0.062255859375,1.102203369140625,0.259063720703125
280203,0.1702423095703125,1.154159545898438,0.2472686767578125
280204,0.252166748046875,1.179428100585938,0.209564208984375
280205,0.2917633056640625,1.179534912109375,0.1620635986328125
280206,0.2927093505859375,1.151214599609375,0.1200408935546875
280207,0.246124267578125,1.099609375,0.10174560546875
280208,0.1685638427734375,1.048187255859375,0.1190185546875
280209,0.0885162353515625,0.9910125732421876,0.109771728515625
280210,0.0192413330078125,0.94464111328125,0.12884521484375
280211,-0.02783203125,0.9050750732421876,0.2032012939453125
280212,-0.0708160400390625,0.8785552978515625,0.2665863037109375
280213,-0.099365234375,0.864715576171875,0.286468505859375
280214,-0.12744140625,0.8575439453125,0.2762298583984375
280215,-0.1595001220703125,0.8683624267578125,0.259307861328125
280216,-0.1849365234375,0.89227294921875,0.257843017578125
280217,-0.2100830078125,0.9037322998046876,0.2921295166015625
280218,-0.2300872802734375,0.89959716796875,0.3403167724609375
280219,-0.241973876953125,0.88787841796875,0.383880615234375
280220,-0.255950927734375,0.87255859375,0.4099578857421875
280221,-0.2587738037109375,0.84466552734375,0.43011474609375
280222,-0.26458740234375,0.821990966796875,0.42474365234375
280223,-0.272125244140625,0.8084716796875,0.394439697265625
280224,-0.2828369140625,0.7985382080078125,0.3711395263671875
280225,-0.295928955078125,0.7981414794921875,0.35723876953125
280226,-0.2948150634765625,0.79718017578125,0.35260009765625
280227,-0.2847442626953125,0.8045806884765625,0.3603363037109375
280228,-0.2641448974609375,0.8162384033203125,0.3824615478515625
280229,-0.2498779296875,0.8418121337890625,0.4201507568359375
280230,-0.2386016845703125,0.8824462890625,0.48382568359375
280231,-0.2429656982421875,0.9328155517578124,0.5565185546875
280232,-0.280242919921875,0.972442626953125,0.6240997314453125
280233,-0.3479766845703125,0.9828643798828124,0.670867919921875
280234,-0.413665771484375,0.9720916748046876,0.6728973388671875
280235,-0.43084716796875,0.92584228515625,0.6318206787109375
280236,-0.4054107666015625,0.87060546875,0.5823211669921875
280237,-0.3692169189453125,0.836181640625,0.54449462890625
280238,-0.3360748291015625,0.8346710205078125,0.5231170654296875
280239,-0.3054046630859375,0.8446807861328125,0.494720458984375
280240,-0.28436279296875,0.8563995361328125,0.435760498046875
280241,-0.2625732421875,0.88055419921875,0.3660888671875
280242,-0.237335205078125,0.9024810791015624,0.309234619140625
280243,-0.2110137939453125,0.92718505859375,0.25750732421875
280244,-0.1793060302734375,0.9457855224609376,0.216949462890625
280245,-0.14886474609375,0.9585113525390624,0.207916259765625
280246,-0.1291046142578125,0.9693145751953124,0.23004150390625
280247,-0.1142730712890625,0.9781951904296876,0.2601165771484375
280248,-0.10821533203125,0.9901580810546876,0.2802734375
280249,-0.1147308349609375,0.9995880126953124,0.303558349609375
280250,-0.130126953125,1.00543212890625,0.3300323486328125
280251,-0.1450347900390625,1.00390625,0.369781494140625
280252,-0.1443634033203125,0.992431640625,0.4019622802734375
280253,-0.138519287109375,0.96875,0.4371185302734375
280254,-0.129150390625,0.94207763671875,0.461151123046875
280255,-0.1143341064453125,0.9181365966796876,0.4773406982421875
280256,-0.0981292724609375,0.9054412841796876,0.491302490234375
280257,-0.0825347900390625,0.910614013671875,0.4983673095703125
280258,-0.0670013427734375,0.9294586181640624,0.4793548583984375
280259,-0.0566253662109375,0.9593505859375,0.4133453369140625
280260,-0.0619354248046875,0.98651123046875,0.329071044921875
280261,-0.0907745361328125,0.987335205078125,0.280853271484375
280262,-0.136749267578125,0.9939422607421876,0.278472900390625
280263,-0.1851348876953125,1.028717041015625,0.3017730712890625
280264,-0.2214508056640625,1.087905883789062,0.313812255859375
280265,-0.2329254150390625,1.15130615234375,0.2815704345703125
280266,-0.2292327880859375,1.206802368164062,0.21551513671875
280267,-0.18927001953125,1.228302001953125,0.133941650390625
280268,-0.141937255859375,1.213638305664062,0.0709991455078125
280269,-0.0952911376953125,1.16357421875,0.0397491455078125
280270,-0.0538482666015625,1.089599609375,0.0261077880859375
280271,-0.0466156005859375,1.013076782226562,0.0274200439453125
280272,-0.0536041259765625,0.9402618408203124,0.0525665283203125
280273,-0.0748748779296875,0.8849639892578125,0.08770751953125
280274,-0.0988922119140625,0.84820556640625,0.15008544921875
280275,-0.1204376220703125,0.8380889892578125,0.2241668701171875
280276,-0.1397552490234375,0.822418212890625,0.3061981201171875
280277,-0.161163330078125,0.809173583984375,0.386322021484375
280278,-0.183074951171875,0.7908935546875,0.4348602294921875
280279,-0.2016143798828125,0.77777099609375,0.4403533935546875
280280,-0.207916259765625,0.7802581787109375,0.40673828125
280281,-0.204254150390625,0.785308837890625,0.367156982421875
280282,-0.1997833251953125,0.8091583251953125,0.34515380859375
280283,-0.188629150390625,0.82977294921875,0.3574981689453125
280284,-0.1800994873046875,0.83587646484375,0.39703369140625
280285,-0.1632537841796875,0.828399658203125,0.4273223876953125
280286,-0.1417388916015625,0.8079833984375,0.4539337158203125
280287,-0.1189117431640625,0.7783966064453125,0.4833526611328125
280288,-0.0985870361328125,0.7520294189453125,0.5003509521484375
280289,-0.0865478515625,0.738311767578125,0.4941253662109375
280290,-0.08416748046875,0.735931396484375,0.49639892578125
280291,-0.096405029296875,0.7435455322265625,0.5284881591796875
280292,-0.1114044189453125,0.7628173828125,0.57666015625
280293,-0.136444091796875,0.7775726318359375,0.62286376953125
280294,-0.165802001953125,0.77960205078125,0.6512603759765625
280295,-0.1895599365234375,0.79339599609375,0.68255615234375
280296,-0.20587158203125,0.82080078125,0.7266693115234375
280297,-0.2065277099609375,0.8424835205078125,0.7689971923828125
280298,-0.199432373046875,0.860687255859375,0.7934722900390625
280299,-0.19744873046875,0.87969970703125,0.7727203369140625
280300,-0.2037353515625,0.9152374267578124,0.724395751953125
280301,-0.200714111328125,0.9298858642578124,0.67059326171875
280302,-0.19427490234375,0.964630126953125,0.612396240234375
280303,-0.1791839599609375,1.027175903320312,0.551971435546875
280304,-0.145965576171875,1.088455200195312,0.475189208984375
280305,-0.1251068115234375,1.119552612304688,0.391510009765625
280306,-0.1103973388671875,1.115386962890625,0.3138885498046875
280307,-0.0973663330078125,1.075454711914062,0.2529449462890625
280308,-0.1009979248046875,1.006134033203125,0.2082977294921875
280309,-0.1234130859375,0.92987060546875,0.2021026611328125
280310,-0.162139892578125,0.88140869140625,0.2274017333984375
280311,-0.2106781005859375,0.868682861328125,0.254974365234375
280312,-0.246307373046875,0.8765411376953125,0.2829742431640625
280313,-0.265106201171875,0.8845977783203125,0.2923126220703125
280314,-0.2799835205078125,0.8844757080078125,0.2822418212890625
280315,-0.2987518310546875,0.85675048828125,0.2817535400390625
280316,-0.3184967041015625,0.8193817138671875,0.3036346435546875
280317,-0.33660888671875,0.79669189453125,0.335418701171875
280318,-0.3416595458984375,0.7899169921875,0.3734130859375
280319,-0.329681396484375,0.7897491455078125,0.4031982421875
280320,-0.29754638671875,0.8115692138671875,0.4015655517578125
280321,-0.249603271484375,0.8369293212890625,0.385040283203125
280322,-0.192138671875,0.86175537109375,0.370330810546875
280323,-0.1287078857421875,0.90576171875,0.376190185546875
280324,-0.065155029296875,0.9501495361328124,0.3902130126953125
280325,-0.0232086181640625,1.000152587890625,0.3986358642578125
280326,-0.0059051513671875,1.065933227539062,0.391326904296875
280327,0.0110015869140625,1.148727416992188,0.3545989990234375
280328,0.034881591796875,1.232391357421875,0.285064697265625
280329,0.0636444091796875,1.276275634765625,0.1860504150390625
280330,0.0790557861328125,1.263626098632812,0.0870361328125
280331,0.0924530029296875,1.188674926757812,0.0236358642578125
280332,0.0903167724609375,1.091171264648438,0.0236358642578125
280333,0.0565643310546875,0.9893646240234376,0.0675048828125
280334,0.0186767578125,0.9051666259765624,0.1450347900390625
280335,-0.0153350830078125,0.855133056640625,0.2298736572265625
280336,-0.0356597900390625,0.8264312744140625,0.30859375
280337,-0.053680419921875,0.8107147216796875,0.3692779541015625
280338,-0.064422607421875,0.812713623046875,0.39208984375
280339,-0.0720672607421875,0.81982421875,0.390899658203125
280340,-0.0977325439453125,0.8349609375,0.3682098388671875
280341,-0.1266632080078125,0.8641815185546875,0.3455352783203125
280342,-0.1506500244140625,0.8924102783203125,0.3408966064453125
280343,-0.1671142578125,0.918548583984375,0.3582611083984375
280344,-0.1938323974609375,0.9286956787109376,0.396881103515625
280345,-0.2126922607421875,0.917633056640625,0.44195556640625
280346,-0.2187347412109375,0.88922119140625,0.47320556640625
280347,-0.243927001953125,0.8527069091796875,0.4709625244140625
280348,-0.2846527099609375,0.8069305419921875,0.4600372314453125
280349,-0.3110504150390625,0.7894134521484375,0.4720458984375
280350,-0.333709716796875,0.7957763671875,0.4932098388671875
280351,-0.3519134521484375,0.8080291748046875,0.5139007568359375
280352,-0.378997802734375,0.828887939453125,0.540618896484375
280353,-0.39971923828125,0.8459625244140625,0.5708160400390625
280354,-0.4021148681640625,0.8556976318359375,0.617645263671875
280355,-0.40118408203125,0.8448638916015625,0.6735992431640625
280356,-0.4189605712890625,0.8274078369140625,0.6997222900390625
280357,-0.438018798828125,0.773651123046875,0.6918487548828125
280358,-0.46612548828125,0.701202392578125,0.672119140625
280359,-0.4727325439453125,0.6351776123046875,0.668701171875
280360,-0.4434661865234375,0.5865325927734375,0.70074462890625
280361,-0.4056854248046875,0.5694122314453125,0.7248382568359375
280362,-0.38104248046875,0.5974578857421875,0.7226715087890625
280363,-0.3682403564453125,0.66546630859375,0.71014404296875
280364,-0.35760498046875,0.7391204833984375,0.684906005859375
280365,-0.3402862548828125,0.7867431640625,0.6485443115234375
280366,-0.3257904052734375,0.820892333984375,0.597503662109375
280367,-0.2989959716796875,0.8485260009765625,0.5431060791015625
280368,-0.2576141357421875,0.889678955078125,0.4921722412109375
280369,-0.193695068359375,0.9250946044921876,0.4393157958984375
280370,-0.1450042724609375,0.9598236083984376,0.423583984375
280371,-0.1160888671875,1.014144897460938,0.4164886474609375
280372,-0.097930908203125,1.060714721679688,0.3809051513671875
280373,-0.10296630859375,1.070144653320312,0.3473663330078125
280374,-0.11676025390625,1.047210693359375,0.3770294189453125
280375,-0.14215087890625,0.999755859375,0.4205474853515625
280376,-0.1686859130859375,0.9537811279296876,0.46551513671875
280377,-0.184814453125,0.932159423828125,0.5096893310546875
280378,-0.20062255859375,0.9231719970703124,0.529266357421875
280379,-0.21661376953125,0.9262542724609376,0.522125244140625
280380,-0.2386474609375,0.945526123046875,0.50726318359375
280381,-0.2378387451171875,0.9915924072265624,0.4557952880859375
280382,-0.2262115478515625,1.047317504882812,0.362091064453125
280383,-0.197265625,1.1185302734375,0.2761383056640625
280384,-0.17071533203125,1.176071166992188,0.2408447265625
280385,-0.163330078125,1.225738525390625,0.2540435791015625
280386,-0.157562255859375,1.287979125976562,0.2457733154296875
280387,-0.15423583984375,1.346832275390625,0.226409912109375
280388,-0.1404876708984375,1.381088256835938,0.1999359130859375
280389,-0.1322021484375,1.371536254882812,0.1632232666015625
280390,-0.115020751953125,1.31268310546875,0.1134033203125
280391,-0.08935546875,1.227874755859375,0.071807861328125
280392,-0.074676513671875,1.129104614257812,0.0473480224609375
280393,-0.076812744140625,1.044662475585938,0.0472564697265625
280394,-0.08709716796875,0.9702911376953124,0.05474853515625
280395,-0.1039886474609375,0.92919921875,0.076629638671875
280396,-0.1208343505859375,0.9041290283203124,0.1063690185546875
280397,-0.1407012939453125,0.88421630859375,0.148590087890625
280398,-0.1496429443359375,0.8581390380859375,0.2028656005859375
280399,-0.150115966796875,0.817626953125,0.272369384765625
280400,-0.153289794921875,0.7786407470703125,0.3586578369140625
280401,-0.1630096435546875,0.743316650390625,0.443450927734375
280402,-0.1773681640625,0.7210693359375,0.51263427734375
280403,-0.195770263671875,0.6943817138671875,0.5468902587890625
280404,-0.2061309814453125,0.66265869140625,0.55645751953125
280405,-0.2140960693359375,0.6487579345703125,0.5470733642578125
280406,-0.2180023193359375,0.6687164306640625,0.53070068359375
280407,-0.209930419921875,0.68853759765625,0.5084075927734375
280408,-0.2019500732421875,0.70916748046875,0.49444580078125
280409,-0.183746337890625,0.7152099609375,0.5079803466796875
280410,-0.15728759765625,0.708984375,0.534149169921875
280411,-0.1311798095703125,0.69525146484375,0.55938720703125
280412,-0.11114501953125,0.6696929931640625,0.5855865478515625
280413,-0.1042327880859375,0.650177001953125,0.6221160888671875
280414,-0.1251220703125,0.651092529296875,0.6644287109375
280415,-0.1588897705078125,0.6680145263671875,0.718505859375
280416,-0.1943511962890625,0.69976806640625,0.769134521484375
280417,-0.21759033203125,0.7344818115234375,0.8006744384765625
280418,-0.22607421875,0.7659759521484375,0.81170654296875
280419,-0.21697998046875,0.7807464599609375,0.812164306640625
280420,-0.1981964111328125,0.7767181396484375,0.7985382080078125
280421,-0.1797943115234375,0.7767486572265625,0.7540283203125
280422,-0.1616973876953125,0.805084228515625,0.697906494140625
280423,-0.150665283203125,0.847808837890625,0.640899658203125
280424,-0.130645751953125,0.891448974609375,0.5457611083984375
280425,-0.1132659912109375,0.9581756591796876,0.5038299560546875
280426,-0.1235504150390625,1.044815063476562,0.4856414794921875
280427,-0.1304473876953125,1.10577392578125,0.48199462890625
280428,-0.0523834228515625,1.161041259765625,0.4501953125
280429,0.055328369140625,1.205123901367188,0.394866943359375
280430,0.072052001953125,1.19744873046875,0.34381103515625
280431,-0.020721435546875,1.095565795898438,0.3139495849609375
280432,-0.1412811279296875,0.96734619140625,0.292449951171875
280433,-0.2241973876953125,0.8834228515625,0.286590576171875
280434,-0.2739410400390625,0.833892822265625,0.2819671630859375
280435,-0.306304931640625,0.8036956787109375,0.2736358642578125
280436,-0.3324737548828125,0.7960357666015625,0.2692108154296875
280437,-0.3711700439453125,0.794952392578125,0.2867431640625
280438,-0.41607666015625,0.7847747802734375,0.3299407958984375
280439,-0.4457244873046875,0.77276611328125,0.3838043212890625
280440,-0.4683990478515625,0.801116943359375,0.4321746826171875
280441,-0.476715087890625,0.8377685546875,0.45733642578125
280442,-0.448760986328125,0.900299072265625,0.430755615234375
280443,-0.3922576904296875,0.9776611328125,0.3560333251953125
280444,-0.3285369873046875,1.051925659179688,0.279937744140625
280445,-0.257781982421875,1.103317260742188,0.2626800537109375
280446,-0.1729583740234375,1.153289794921875,0.2838592529296875
280447,-0.0804443359375,1.194931030273438,0.2823028564453125
280448,0.011810302734375,1.216705322265625,0.2354736328125
280449,0.0958099365234375,1.231552124023438,0.15362548828125
280450,0.1505584716796875,1.218994140625,0.0631103515625
280451,0.1753387451171875,1.17047119140625,-0.0099639892578125
280452,0.181732177734375,1.102020263671875,-0.04559326171875
280453,0.1780853271484375,1.02587890625,-0.0352630615234375
280454,0.180816650390625,0.955474853515625,0.01361083984375
280455,0.179443359375,0.8919677734375,0.1029205322265625
280456,0.1629791259765625,0.8430023193359375,0.22088623046875
280457,0.1220550537109375,0.81402587890625,0.331878662109375
280458,0.060882568359375,0.8027496337890625,0.401947021484375
280459,0.0048675537109375,0.8106842041015625,0.403106689453125
280460,-0.0552978515625,0.817047119140625,0.357818603515625
280461,-0.108184814453125,0.8249664306640625,0.322784423828125
280462,-0.155120849609375,0.835540771484375,0.3322906494140625
280463,-0.2045135498046875,0.836395263671875,0.35101318359375
280464,-0.24359130859375,0.8348541259765625,0.396331787109375
280465,-0.2591552734375,0.837493896484375,0.4306640625
280466,-0.2612762451171875,0.8415679931640625,0.4483795166015625
280467,-0.2526397705078125,0.85369873046875,0.4561309814453125
280468,-0.21893310546875,0.8444671630859375,0.4578399658203125
280469,-0.2022705078125,0.834930419921875,0.4453277587890625
280470,-0.1922149658203125,0.808319091796875,0.448974609375
280471,-0.1881866455078125,0.76800537109375,0.453857421875
280472,-0.182037353515625,0.726776123046875,0.443511962890625
280473,-0.1864013671875,0.693206787109375,0.437652587890625
280474,-0.1969146728515625,0.6675872802734375,0.4387359619140625
280475,-0.212188720703125,0.6519775390625,0.4488983154296875
280476,-0.2265625,0.65008544921875,0.4700164794921875
280477,-0.2385406494140625,0.669097900390625,0.4929656982421875
280478,-0.2627105712890625,0.7144012451171875,0.5279693603515625
280479,-0.2965240478515625,0.7751007080078125,0.5648193359375
280480,-0.3399505615234375,0.8474273681640625,0.609588623046875
280481,-0.37744140625,0.91845703125,0.655029296875
280482,-0.4024810791015625,0.9892578125,0.6884307861328125
280483,-0.415771484375,1.062454223632812,0.7049102783203125
280484,-0.4080810546875,1.12652587890625,0.68988037109375
280485,-0.3844757080078125,1.170318603515625,0.6256561279296875
280486,-0.344818115234375,1.180755615234375,0.52398681640625
280487,-0.2958221435546875,1.152755737304688,0.42730712890625
280488,-0.244873046875,1.09539794921875,0.363433837890625
280489,-0.2025146484375,1.038284301757812,0.333526611328125
280490,-0.17919921875,0.9897613525390624,0.319580078125
280491,-0.15264892578125,0.9662322998046876,0.31011962890625
280492,-0.12432861328125,0.9465179443359376,0.3263397216796875
280493,-0.088775634765625,0.9380035400390624,0.3704376220703125
280494,-0.0654296875,0.9498443603515624,0.426971435546875
280495,-0.05389404296875,0.95318603515625,0.4859466552734375
280496,-0.0461273193359375,0.9313201904296876,0.5370941162109375
280497,-0.0500640869140625,0.8995819091796875,0.5640411376953125
280498,-0.0771636962890625,0.866363525390625,0.5750274658203125
280499,-0.0927886962890625,0.845855712890625,0.56072998046875
280500,-0.1032562255859375,0.8296356201171875,0.5579376220703125
280501,-0.1147613525390625,0.8033447265625,0.5943603515625
280502,-0.10321044921875,0.77154541015625,0.627960205078125
280503,-0.084075927734375,0.756988525390625,0.634796142578125
280504,-0.0665283203125,0.7681884765625,0.5995330810546875
280505,-0.0510406494140625,0.8175506591796875,0.5153961181640625
280506,-0.071197509765625,0.8593902587890625,0.4403839111328125
280507,-0.120452880859375,0.865325927734375,0.3879241943359375
280508,-0.16497802734375,0.880401611328125,0.3333587646484375
280509,-0.22454833984375,0.9288787841796876,0.293060302734375
280510,-0.279266357421875,1.030654907226562,0.2729644775390625
280511,-0.31597900390625,1.1981201171875,0.265228271484375
280512,-0.32940673828125,1.377487182617188,0.226226806640625
280513,-0.3245697021484375,1.515045166015625,0.150238037109375
280514,-0.291229248046875,1.5780029296875,0.0523681640625
280515,-0.2552337646484375,1.540802001953125,-0.03753662109375
280516,-0.1993865966796875,1.444168090820312,-0.1048431396484375
280517,-0.1515655517578125,1.3167724609375,-0.12384033203125
280518,-0.0952301025390625,1.174163818359375,-0.14923095703125
280519,-0.0745697021484375,1.074371337890625,-0.1738128662109375
280520,-0.0594635009765625,0.980987548828125,-0.1101226806640625
280521,-0.0463104248046875,0.8895416259765625,-0.0304718017578125
280522,-0.038360595703125,0.797637939453125,0.0364227294921875
280523,-0.0487060546875,0.7082977294921875,0.055084228515625
280524,-0.0785980224609375,0.617095947265625,0.0483551025390625
280525,-0.0928497314453125,0.5594940185546875,0.3467559814453125
280526,-0.1377716064453125,0.564056396484375,0.5901947021484375
280527,-0.1865692138671875,0.6104278564453125,0.5067291259765625
280528,-0.19390869140625,0.67437744140625,0.4365386962890625
280529,-0.2381439208984375,0.731201171875,0.355926513671875
280530,-0.319091796875,0.759124755859375,0.374908447265625
280531,-0.3920135498046875,0.7545166015625,0.458526611328125
280532,-0.4240570068359375,0.7456817626953125,0.5210113525390625
280533,-0.427276611328125,0.7243499755859375,0.534423828125
280534,-0.4135284423828125,0.720794677734375,0.4963531494140625
280535,-0.3065338134765625,0.6826019287109375,0.4846954345703125
280536,-0.176025390625,0.6002960205078125,0.5218658447265625
280537,-0.1101226806640625,0.5902099609375,0.557342529296875
280538,-0.0641937255859375,0.61492919921875,0.5419769287109375
280539,-0.028228759765625,0.658538818359375,0.5037384033203125
280540,0.0113525390625,0.7013397216796875,0.504730224609375
280541,-0.0771026611328125,0.7991943359375,0.534271240234375
280542,-0.209442138671875,0.885040283203125,0.5883636474609375
280543,-0.2977142333984375,0.94659423828125,0.6439056396484375
280544,-0.341705322265625,1.015228271484375,0.6790008544921875
280545,-0.3275604248046875,1.098434448242188,0.696502685546875
280546,-0.2854156494140625,1.186813354492188,0.697296142578125
280547,-0.228912353515625,1.247085571289062,0.642822265625
280548,-0.1656951904296875,1.279815673828125,0.5633392333984375
280549,-0.1527252197265625,1.294998168945312,0.4145050048828125
280550,-0.0987701416015625,1.302413940429688,0.2739105224609375
280551,0.0153656005859375,1.274856567382812,0.2147674560546875
280552,0.105499267578125,1.2344970703125,0.195556640625
280553,0.129913330078125,1.152099609375,0.2039947509765625
280554,0.09100341796875,1.02935791015625,0.23138427734375
280555,-0.0366363525390625,0.9002685546875,0.26861572265625
280556,-0.1949310302734375,0.831787109375,0.2619781494140625
280557,-0.33355712890625,0.8197784423828125,0.2358245849609375
280558,-0.444000244140625,0.8078765869140625,0.2266082763671875
280559,-0.522308349609375,0.7708587646484375,0.21990966796875
280560,-0.5585174560546875,0.7351837158203125,0.2457275390625
280561,-0.57330322265625,0.6905364990234375,0.2856597900390625
280562,-0.5611724853515625,0.647674560546875,0.3195343017578125
280563,-0.5166015625,0.640167236328125,0.3633880615234375
280564,-0.4445648193359375,0.67864990234375,0.4187469482421875
280565,-0.3803558349609375,0.71356201171875,0.4277801513671875
280566,-0.325958251953125,0.74591064453125,0.3996734619140625
280567,-0.260345458984375,0.7952423095703125,0.380950927734375
280568,-0.1844024658203125,0.8607635498046875,0.3737945556640625
280569,-0.1086273193359375,0.9300079345703124,0.3914947509765625
280570,-0.0475921630859375,0.9849700927734376,0.4010162353515625
280571,0.0019989013671875,1.061676025390625,0.3720703125
280572,0.05181884765625,1.138046264648438,0.307464599609375
280573,0.09228515625,1.202804565429688,0.2297821044921875
280574,0.1313629150390625,1.238616943359375,0.1506195068359375
280575,0.163055419921875,1.229507446289062,0.0824127197265625
280576,0.1808929443359375,1.177764892578125,0.03302001953125
280577,0.1685333251953125,1.101715087890625,-0.00762939453125
280578,0.0860443115234375,1.042007446289062,0.0089263916015625
280579,0.010162353515625,0.992828369140625,0.05810546875
280580,-0.019195556640625,0.927703857421875,0.0833587646484375
280581,-0.01483154296875,0.8831329345703125,0.1568603515625
280582,-0.00555419921875,0.8548126220703125,0.242431640625
280583,-0.013946533203125,0.8321990966796875,0.2968597412109375
280584,-0.0322113037109375,0.8395233154296875,0.3060302734375
280585,-0.0561370849609375,0.8735809326171875,0.3082733154296875
280586,-0.0854644775390625,0.9286041259765624,0.3407440185546875
280587,-0.11572265625,0.9811859130859376,0.3917083740234375
280588,-0.160919189453125,1.0113525390625,0.435943603515625
280589,-0.1975555419921875,1.010360717773438,0.4701690673828125
280590,-0.222320556640625,0.9695587158203124,0.493743896484375
280591,-0.2412872314453125,0.9290771484375,0.497589111328125
280592,-0.2664642333984375,0.9071197509765624,0.4658966064453125
280593,-0.2723846435546875,0.9048004150390624,0.4270172119140625
280594,-0.2850799560546875,0.9012908935546876,0.4083709716796875
280595,-0.3126983642578125,0.8904571533203125,0.416473388671875
280596,-0.34039306640625,0.8923797607421875,0.4651947021484375
280597,-0.339447021484375,0.8910369873046875,0.5386810302734375
280598,-0.2987518310546875,0.877960205078125,0.5869293212890625
280599,-0.29736328125,0.8059844970703125,0.5850067138671875
280600,-0.31744384765625,0.7430267333984375,0.604156494140625
280601,-0.345489501953125,0.6873931884765625,0.6181640625
280602,-0.391998291015625,0.644683837890625,0.6414031982421875
280603,-0.431488037109375,0.621551513671875,0.672607421875
280604,-0.4493865966796875,0.63970947265625,0.6748504638671875
280605,-0.4416046142578125,0.6482086181640625,0.631072998046875
280606,-0.424530029296875,0.6656036376953125,0.5532073974609375
280607,-0.4055633544921875,0.7276153564453125,0.5006256103515625
280608,-0.392181396484375,0.8187408447265625,0.4833526611328125
280609,-0.3690185546875,0.908477783203125,0.470947265625
280610,-0.3529510498046875,0.995452880859375,0.44317626953125
280611,-0.3209381103515625,1.076400756835938,0.3748016357421875
280612,-0.262298583984375,1.146316528320312,0.2931671142578125
280613,-0.1914215087890625,1.183837890625,0.2346649169921875
280614,-0.1280364990234375,1.187728881835938,0.19195556640625
280615,-0.0789794921875,1.162185668945312,0.163482666015625
280616,-0.0398712158203125,1.099884033203125,0.1390533447265625
280617,-0.0352325439453125,1.014358520507812,0.130706787109375
280618,-0.042205810546875,0.9232330322265624,0.1911468505859375
280619,-0.0552215576171875,0.8740081787109375,0.2611083984375
280620,-0.0696563720703125,0.8897247314453125,0.343048095703125
280621,-0.0800628662109375,0.9273223876953124,0.4104766845703125
280622,-0.0984344482421875,0.9683685302734376,0.4458465576171875
280623,-0.1213226318359375,1.037063598632812,0.44873046875
280624,-0.1209564208984375,1.132614135742188,0.4053192138671875
280625,-0.095611572265625,1.2215576171875,0.334197998046875
280626,-0.0873565673828125,1.304458618164062,0.259185791015625
280627,-0.0706787109375,1.3311767578125,0.137939453125
280628,-0.07672119140625,1.361801147460938,9.1552734375e-05
280629,-0.104827880859375,1.396942138671875,0.0316162109375
280630,-0.1390228271484375,1.395401000976562,0.0951995849609375
280631,-0.1669464111328125,1.330123901367188,0.084686279296875
280632,-0.1701812744140625,1.231475830078125,0.04351806640625
280633,-0.1391143798828125,1.1190185546875,0.0810394287109375
280634,-0.164337158203125,1.02532958984375,0.0975341796875
280635,-0.1712646484375,0.9261322021484376,0.129852294921875
280636,-0.1788787841796875,0.837799072265625,0.143218994140625
280637,-0.1912384033203125,0.7906036376953125,0.1405029296875
280638,-0.2021026611328125,0.770965576171875,0.159088134765625
280639,-0.226409912109375,0.785491943359375,0.1980438232421875
280640,-0.2387237548828125,0.8197021484375,0.2504425048828125
280641,-0.2227935791015625,0.8337860107421875,0.2990570068359375
280642,-0.1904296875,0.8314666748046875,0.3275146484375
280643,-0.15838623046875,0.811859130859375,0.34466552734375
280644,-0.1328125,0.7946319580078125,0.341400146484375
280645,-0.108795166015625,0.778289794921875,0.32745361328125
280646,-0.0852813720703125,0.7593536376953125,0.3284759521484375
280647,-0.0776519775390625,0.7659149169921875,0.340850830078125
280648,-0.0791015625,0.794677734375,0.357574462890625
280649,-0.0863189697265625,0.829254150390625,0.378387451171875
280650,-0.0857696533203125,0.8709564208984375,0.413604736328125
280651,-0.082061767578125,0.9086761474609376,0.4592742919921875
280652,-0.0730438232421875,0.9250335693359376,0.49066162109375
280653,-0.05169677734375,0.9203033447265624,0.481719970703125
280654,-0.02410888671875,0.8728179931640625,0.4563140869140625
280655,-0.0010833740234375,0.8135223388671875,0.4373321533203125
280656,0.020904541015625,0.7422027587890625,0.43780517578125
280657,0.0328521728515625,0.6912689208984375,0.4418487548828125
280658,0.0285797119140625,0.6811676025390625,0.450927734375
280659,-0.0017852783203125,0.7097930908203125,0.459991455078125
280660,-0.040557861328125,0.74041748046875,0.47991943359375
280661,-0.0785369873046875,0.7618865966796875,0.489593505859375
280662,-0.106414794921875,0.7748260498046875,0.5044097900390625
280663,-0.12554931640625,0.782806396484375,0.5199127197265625
280664,-0.14642333984375,0.795166015625,0.524749755859375
280665,-0.1644744873046875,0.818328857421875,0.5252532958984375
280666,-0.1710052490234375,0.85174560546875,0.53387451171875
280667,-0.1737213134765625,0.896942138671875,0.5446929931640625
280668,-0.1761627197265625,0.9413604736328124,0.5365753173828125
280669,-0.1778564453125,0.981964111328125,0.5131683349609375
280670,-0.1727752685546875,1.019210815429688,0.4721832275390625
280671,-0.165313720703125,1.05328369140625,0.42803955078125
280672,-0.1625213623046875,1.081771850585938,0.3931884765625
280673,-0.16455078125,1.088790893554688,0.3657379150390625
280674,-0.184967041015625,1.078338623046875,0.3271026611328125
280675,-0.206329345703125,1.048065185546875,0.300445556640625
280676,-0.2263946533203125,1.018157958984375,0.2767486572265625
280677,-0.25091552734375,0.98785400390625,0.2600250244140625
280678,-0.2806854248046875,0.9497833251953124,0.2448272705078125
280679,-0.30804443359375,0.9138946533203124,0.2347869873046875
280680,-0.3248138427734375,0.8944091796875,0.2375030517578125
280681,-0.323638916015625,0.8683319091796875,0.263641357421875
280682,-0.304351806640625,0.851806640625,0.295989990234375
280683,-0.297027587890625,0.846649169921875,0.32977294921875
280684,-0.3033447265625,0.85052490234375,0.3585357666015625
280685,-0.3182525634765625,0.8668060302734375,0.3727264404296875
280686,-0.324188232421875,0.894256591796875,0.3659515380859375
280687,-0.3190460205078125,0.9352874755859376,0.3518829345703125
280688,-0.3073577880859375,0.9725494384765624,0.339447021484375
280689,-0.2849884033203125,1.002243041992188,0.3368988037109375
280690,-0.2393341064453125,1.038436889648438,0.3282318115234375
280691,-0.17694091796875,1.073348999023438,0.3115692138671875
280692,-0.1025543212890625,1.112167358398438,0.28741455078125
280693,-0.03643798828125,1.15167236328125,0.2675933837890625
280694,0.0358123779296875,1.1912841796875,0.2769012451171875
280695,0.094146728515625,1.1822509765625,0.1290435791015625
280696,0.13165283203125,1.165740966796875,0.0117340087890625
280697,0.15576171875,1.14434814453125,0.02276611328125
280698,0.1282958984375,1.099502563476562,0.0427093505859375
280699,0.08453369140625,1.036773681640625,0.0606842041015625
280700,0.050140380859375,0.9780120849609376,0.108306884765625
280701,0.02911376953125,0.9290008544921876,0.180145263671875
280702,0.0222320556640625,0.896453857421875,0.256744384765625
280703,0.0088653564453125,0.86724853515625,0.306060791015625
280704,-0.02435302734375,0.848175048828125,0.3039093017578125
280705,-0.04949951171875,0.848663330078125,0.2823028564453125
280706,-0.080657958984375,0.84954833984375,0.2598114013671875
280707,-0.12017822265625,0.879974365234375,0.278778076171875
280708,-0.171844482421875,0.9156951904296876,0.3094329833984375
280709,-0.2150421142578125,0.9149627685546876,0.3030242919921875
280710,-0.2589874267578125,0.9216766357421876,0.3559722900390625
280711,-0.29736328125,0.9189910888671876,0.4219970703125
280712,-0.340576171875,0.8915252685546875,0.4329833984375
280713,-0.3631591796875,0.856201171875,0.4068603515625
280714,-0.3641204833984375,0.8419189453125,0.38201904296875
280715,-0.352447509765625,0.82666015625,0.3776092529296875
280716,-0.340667724609375,0.813995361328125,0.3831634521484375
280717,-0.32177734375,0.8109130859375,0.398590087890625
280718,-0.302978515625,0.8144683837890625,0.403076171875
280719,-0.289825439453125,0.8181304931640625,0.41796875
280720,-0.2816314697265625,0.820037841796875,0.445343017578125
280721,-0.2826080322265625,0.8090057373046875,0.4713287353515625
280722,-0.3035736083984375,0.792236328125,0.5021820068359375
280723,-0.33746337890625,0.786041259765625,0.53643798828125
280724,-0.393829345703125,0.795623779296875,0.55560302734375
280725,-0.422760009765625,0.800262451171875,0.5950164794921875
280726,-0.4214019775390625,0.8281707763671875,0.6092071533203125
280727,-0.402008056640625,0.8772735595703125,0.5897674560546875
280728,-0.3799591064453125,0.9208984375,0.5479736328125
280729,-0.363525390625,0.9668426513671876,0.485565185546875
280730,-0.347381591796875,1.036102294921875,0.4163665771484375
280731,-0.28509521484375,1.0777587890625,0.3468475341796875
280732,-0.2439117431640625,1.136703491210938,0.220489501953125
280733,-0.1862640380859375,1.172149658203125,0.1549072265625
280734,-0.1124267578125,1.18109130859375,0.106964111328125
280735,-0.063262939453125,1.164077758789062,0.066375732421875
280736,-0.02960205078125,1.13421630859375,0.0807647705078125
280737,-0.0352783203125,1.060882568359375,0.1386566162109375
280738,-0.069091796875,0.98809814453125,0.17327880859375
280739,-0.1124420166015625,0.9339447021484376,0.2054595947265625
280740,-0.1378936767578125,0.9049530029296876,0.262481689453125
280741,-0.1423797607421875,0.88140869140625,0.3114166259765625
280742,-0.1285552978515625,0.8607177734375,0.3133392333984375
280743,-0.1148834228515625,0.8373870849609375,0.329132080078125
280744,-0.1075439453125,0.808685302734375,0.383392333984375
280745,-0.0996856689453125,0.7940216064453125,0.4305267333984375
280746,-0.0841064453125,0.801361083984375,0.446746826171875
280747,-0.0617523193359375,0.8336639404296875,0.4326171875
280748,-0.0444793701171875,0.886810302734375,0.3996429443359375
280749,-0.0308990478515625,0.9444122314453124,0.34295654296875
280750,-0.03179931640625,0.9833221435546876,0.26300048828125
280751,-0.056915283203125,1.01300048828125,0.191253662109375
280752,-0.095245361328125,1.042617797851562,0.157928466796875
280753,-0.1522674560546875,1.106292724609375,0.1429290771484375
280754,-0.2086334228515625,1.212356567382812,0.1311492919921875
280755,-0.260711669921875,1.36767578125,0.1142425537109375
280756,-0.2456817626953125,1.432022094726562,0.018707275390625
280757,-0.2143096923828125,1.406463623046875,-0.191986083984375
280758,-0.1714019775390625,1.322952270507812,-0.141571044921875
280759,-0.1620025634765625,1.201980590820312,-0.055999755859375
280760,-0.1461181640625,1.069564819335938,-0.026580810546875
280761,-0.1272735595703125,0.9744110107421876,-0.0164642333984375
280762,-0.1183013916015625,0.9219207763671876,-0.0037689208984375
280763,-0.1216278076171875,0.8830108642578125,0.004730224609375
280764,-0.126983642578125,0.827789306640625,0.0009613037109375
280765,-0.1550750732421875,0.7929840087890625,0.017333984375
280766,-0.1934967041015625,0.807525634765625,0.05517578125
280767,-0.2271575927734375,0.85491943359375,0.1259613037109375
280768,-0.244781494140625,0.8919525146484375,0.2630615234375
280769,-0.2575531005859375,0.9116058349609376,0.4220733642578125
280770,-0.250701904296875,0.871429443359375,0.51934814453125
280771,-0.2198944091796875,0.7977447509765625,0.5136260986328125
280772,-0.189971923828125,0.771484375,0.4586639404296875
280773,-0.1764068603515625,0.7826995849609375,0.42510986328125
280774,-0.16900634765625,0.80419921875,0.4387054443359375
280775,-0.1566314697265625,0.8289642333984375,0.4523162841796875
280776,-0.14422607421875,0.850799560546875,0.4525146484375
280777,-0.1222686767578125,0.8650360107421875,0.452880859375
280778,-0.106170654296875,0.8639984130859375,0.44903564453125
280779,-0.09454345703125,0.8466644287109375,0.4433135986328125
280780,-0.1027679443359375,0.837158203125,0.4490966796875
280781,-0.12109375,0.8386688232421875,0.4786376953125
280782,-0.14593505859375,0.852142333984375,0.524993896484375
280783,-0.1851959228515625,0.8681182861328125,0.587188720703125
280784,-0.222808837890625,0.8658599853515625,0.6219635009765625
280785,-0.25006103515625,0.8562164306640625,0.6485137939453125
280786,-0.246826171875,0.8522796630859375,0.694976806640625
280787,-0.2385101318359375,0.856048583984375,0.73529052734375
280788,-0.221160888671875,0.8477935791015625,0.7413177490234375
280789,-0.203033447265625,0.843658447265625,0.708160400390625
280790,-0.1888275146484375,0.8631134033203125,0.6514434814453125
280791,-0.1677398681640625,0.9004058837890625,0.5879058837890625
280792,-0.1350250244140625,0.91876220703125,0.528350830078125
280793,-0.1102447509765625,0.9695892333984376,0.47528076171875
280794,-0.0880889892578125,1.03662109375,0.422210693359375
280795,-0.068756103515625,1.10089111328125,0.366363525390625
280796,-0.059478759765625,1.144973754882812,0.308135986328125
280797,-0.069000244140625,1.17401123046875,0.2486724853515625
280798,-0.0943450927734375,1.164230346679688,0.1887664794921875
280799,-0.13818359375,1.129501342773438,0.096099853515625
280800,-0.181640625,1.077789306640625,0.009307861328125
280801,-0.212890625,1.016708374023438,-0.0105133056640625
280802,-0.225372314453125,0.964996337890625,-0.0152435302734375
280803,-0.215606689453125,0.908477783203125,0.009674072265625
280804,-0.2131805419921875,0.840728759765625,0.0515899658203125
280805,-0.2493896484375,0.7675628662109375,0.11737060546875
280806,-0.31829833984375,0.7400360107421875,0.2147216796875
280807,-0.3815460205078125,0.7525634765625,0.3056640625
280808,-0.413330078125,0.7908782958984375,0.336578369140625
280809,-0.411651611328125,0.842071533203125,0.316162109375
280810,-0.39068603515625,0.9038238525390624,0.282958984375
280811,-0.3363037109375,0.9569854736328124,0.276031494140625
280812,-0.237518310546875,0.9901885986328124,0.296630859375
280813,-0.1381988525390625,1.0169677734375,0.3240814208984375
280814,-0.0405120849609375,1.048797607421875,0.330078125
280815,0.0422821044921875,1.085723876953125,0.282867431640625
280816,0.1114501953125,1.14251708984375,0.2060089111328125
280817,0.1878814697265625,1.197341918945312,0.143707275390625
280818,0.2487335205078125,1.23248291015625,0.09161376953125
280819,0.2690582275390625,1.204681396484375,0.042388916015625
280820,0.2515869140625,1.099334716796875,0.0861663818359375
280821,0.1759033203125,0.9860992431640624,0.15911865234375
280822,0.077911376953125,0.896026611328125,0.2382965087890625
280823,-0.00286865234375,0.8375091552734375,0.311798095703125
280824,-0.0613250732421875,0.8124847412109375,0.3577423095703125
280825,-0.0944061279296875,0.8154449462890625,0.355560302734375
280826,-0.1174774169921875,0.8338470458984375,0.31109619140625
280827,-0.1400146484375,0.862274169921875,0.263916015625
280828,-0.1566162109375,0.89447021484375,0.25677490234375
280829,-0.1618804931640625,0.89996337890625,0.26654052734375
280830,-0.151763916015625,0.891265869140625,0.307891845703125
280831,-0.1446533203125,0.8803863525390625,0.383148193359375
280832,-0.1441497802734375,0.878814697265625,0.4501953125
280833,-0.1602935791015625,0.87884521484375,0.4838714599609375
280834,-0.1834869384765625,0.88037109375,0.4525909423828125
280835,-0.2055206298828125,0.8770294189453125,0.384552001953125
280836,-0.2263946533203125,0.869903564453125,0.3244171142578125
280837,-0.2496337890625,0.8578033447265625,0.28204345703125
280838,-0.271240234375,0.8424835205078125,0.2752685546875
280839,-0.294769287109375,0.845489501953125,0.313720703125
280840,-0.299346923828125,0.864898681640625,0.390533447265625
280841,-0.30609130859375,0.8870697021484375,0.4514923095703125
280842,-0.3260955810546875,0.926177978515625,0.49554443359375
280843,-0.2988128662109375,0.94183349609375,0.54498291015625
280844,-0.2859649658203125,0.9520721435546876,0.5847015380859375
280845,-0.3072967529296875,0.9718475341796876,0.6155853271484375
280846,-0.332611083984375,0.9567108154296876,0.60943603515625
280847,-0.3564453125,0.8954620361328125,0.59979248046875
280848,-0.3556671142578125,0.82904052734375,0.6072998046875
280849,-0.3576202392578125,0.8006439208984375,0.607269287109375
280850,-0.3615875244140625,0.8025665283203125,0.57940673828125
280851,-0.3645477294921875,0.8264312744140625,0.529693603515625
280852,-0.365570068359375,0.8663482666015625,0.4713897705078125
280853,-0.356536865234375,0.91448974609375,0.425872802734375
280854,-0.3364715576171875,0.9591522216796876,0.390472412109375
280855,-0.3070526123046875,1.00653076171875,0.3553466796875
280856,-0.254547119140625,1.054244995117188,0.317230224609375
280857,-0.1827545166015625,1.087493896484375,0.284149169921875
280858,-0.1070556640625,1.101776123046875,0.2725067138671875
280859,-0.03857421875,1.097564697265625,0.2722015380859375
280860,0.00836181640625,1.070846557617188,0.268035888671875
280861,0.03338623046875,1.028594970703125,0.259185791015625
280862,0.0252227783203125,0.9707489013671876,0.2461090087890625
280863,0.011993408203125,0.91064453125,0.2465362548828125
280864,-0.0272216796875,0.8577117919921875,0.260345458984375
280865,-0.0753021240234375,0.814727783203125,0.2790985107421875
280866,-0.10089111328125,0.783111572265625,0.30609130859375
280867,-0.1407012939453125,0.77423095703125,0.353759765625
280868,-0.164886474609375,0.76708984375,0.409759521484375
280869,-0.1682586669921875,0.7594757080078125,0.4574127197265625
280870,-0.164306640625,0.7676849365234375,0.489898681640625
280871,-0.142974853515625,0.8115234375,0.500946044921875
280872,-0.1021728515625,0.889739990234375,0.4743194580078125
280873,-0.070343017578125,0.9916229248046876,0.4120635986328125
280874,-0.1043701171875,1.0863037109375,0.350830078125
280875,-0.1804046630859375,1.14764404296875,0.2867584228515625
280876,-0.25323486328125,1.180831909179688,0.20074462890625
280877,-0.302001953125,1.188629150390625,0.129486083984375
280878,-0.321929931640625,1.212677001953125,0.090545654296875
280879,-0.333587646484375,1.262527465820312,0.0907745361328125
280880,-0.33111572265625,1.312179565429688,0.1000823974609375
280881,-0.3221282958984375,1.334365844726562,0.0923614501953125
280882,-0.27288818359375,1.297149658203125,0.0596771240234375
280883,-0.2072296142578125,1.197021484375,-0.0112152099609375
280884,-0.154296875,1.06646728515625,-0.0328826904296875
280885,-0.1020660400390625,0.9689483642578124,-0.003021240234375
280886,-0.06866455078125,0.9127197265625,0.0254364013671875
280887,-0.025360107421875,0.8711700439453125,0.08074951171875
280888,0.0031585693359375,0.8396148681640625,0.1584014892578125
280889,-0.0025482177734375,0.82171630859375,0.235504150390625
280890,-0.033935546875,0.810272216796875,0.3144073486328125
280891,-0.0672454833984375,0.7828369140625,0.3668212890625
280892,-0.097412109375,0.741180419921875,0.402923583984375
280893,-0.1149444580078125,0.7117919921875,0.4111328125
280894,-0.134521484375,0.70263671875,0.4256134033203125
280895,-0.171173095703125,0.73358154296875,0.4531097412109375
280896,-0.2195892333984375,0.80517578125,0.49053955078125
280897,-0.26666259765625,0.858856201171875,0.52325439453125
280898,-0.290252685546875,0.9073486328125,0.54254150390625
280899,-0.2928924560546875,0.9274139404296876,0.547149658203125
280900,-0.2714080810546875,0.8611602783203125,0.571685791015625
280901,-0.2441253662109375,0.7530975341796875,0.6099395751953125
280902,-0.2411956787109375,0.7034454345703125,0.64141845703125
280903,-0.2425689697265625,0.6933746337890625,0.6664886474609375
280904,-0.2542877197265625,0.7110748291015625,0.6884765625
280905,-0.26220703125,0.736785888671875,0.6941680908203125
280906,-0.2605743408203125,0.756866455078125,0.679840087890625
280907,-0.2563018798828125,0.7591705322265625,0.6486663818359375
280908,-0.24444580078125,0.7474365234375,0.6075286865234375
280909,-0.227447509765625,0.7324676513671875,0.57818603515625
280910,-0.209136962890625,0.7372283935546875,0.5745391845703125
280911,-0.1907501220703125,0.785369873046875,0.586334228515625
280912,-0.169158935546875,0.871795654296875,0.59014892578125
280913,-0.153564453125,0.9847259521484376,0.57464599609375
280914,-0.1421051025390625,1.08160400390625,0.4794769287109375
280915,-0.1285247802734375,1.179336547851562,0.412811279296875
280916,-0.09576416015625,1.22747802734375,0.3714599609375
280917,-0.082916259765625,1.257949829101562,0.270355224609375
280918,-0.1097564697265625,1.264297485351562,0.16583251953125
280919,-0.1514892578125,1.24542236328125,0.0965576171875
280920,-0.17999267578125,1.205612182617188,0.05352783203125
280921,-0.1728057861328125,1.105010986328125,0.0464630126953125
280922,-0.165618896484375,0.989654541015625,0.0609283447265625
280923,-0.21783447265625,0.9391937255859376,0.06732177734375
280924,-0.2963409423828125,0.908599853515625,0.0573577880859375
280925,-0.3460540771484375,0.87335205078125,0.04571533203125
280926,-0.3560638427734375,0.8229522705078125,0.11138916015625
280927,-0.387451171875,0.81878662109375,0.1712188720703125
280928,-0.4167633056640625,0.8175048828125,0.2491607666015625
280929,-0.4512481689453125,0.7695159912109375,0.3570556640625
280930,-0.4733734130859375,0.7153778076171875,0.471282958984375
280931,-0.4718170166015625,0.6501617431640625,0.53741455078125
280932,-0.4574737548828125,0.6009063720703125,0.5057830810546875
280933,-0.44140625,0.6043243408203125,0.4699859619140625
280934,-0.407196044921875,0.6453857421875,0.4498138427734375
280935,-0.36285400390625,0.7088165283203125,0.4276580810546875
280936,-0.3235321044921875,0.784088134765625,0.4032440185546875
280937,-0.2653961181640625,0.9100799560546876,0.3653106689453125
280938,-0.206390380859375,1.071975708007812,0.33441162109375
280939,-0.143768310546875,1.222808837890625,0.2959136962890625
280940,-0.05743408203125,1.342620849609375,0.2690277099609375
280941,0.042999267578125,1.346878051757812,0.153472900390625
280942,0.1183929443359375,1.270599365234375,-0.111724853515625
280943,0.196929931640625,1.221588134765625,-0.16888427734375
280944,0.1552734375,1.171295166015625,-0.1075592041015625
280945,0.012359619140625,1.073318481445312,-0.021484375
280946,-0.0153045654296875,0.971649169921875,-0.0218963623046875
280947,0.0537109375,0.95159912109375,-0.006378173828125
280948,0.1234588623046875,0.97283935546875,0.0346527099609375
280949,0.1402435302734375,0.98199462890625,0.1003875732421875
280950,0.1246337890625,0.978607177734375,0.1606292724609375
280951,0.0908355712890625,0.954193115234375,0.2028350830078125
280952,0.043853759765625,0.9188079833984376,0.2523193359375
280953,-0.0134429931640625,0.8814849853515625,0.3142242431640625
280954,-0.0719146728515625,0.8558349609375,0.3812408447265625
280955,-0.113983154296875,0.8480682373046875,0.444549560546875
280956,-0.1576995849609375,0.8507843017578125,0.485504150390625
280957,-0.21881103515625,0.87200927734375,0.5054931640625
280958,-0.27337646484375,0.88128662109375,0.4995880126953125
280959,-0.2974853515625,0.87408447265625,0.470794677734375
280960,-0.3150482177734375,0.8519744873046875,0.4748992919921875
280961,-0.3458251953125,0.8282623291015625,0.50885009765625
280962,-0.3880157470703125,0.8309326171875,0.561065673828125
280963,-0.417633056640625,0.848297119140625,0.62445068359375
280964,-0.4468231201171875,0.8878173828125,0.6842803955078125
280965,-0.4569091796875,0.9340057373046876,0.7518463134765625
280966,-0.4513397216796875,0.9549407958984376,0.8079681396484375
280967,-0.44781494140625,0.9580535888671876,0.818603515625
280968,-0.4618682861328125,0.9356231689453124,0.78912353515625
280969,-0.4956512451171875,0.877838134765625,0.7488555908203125
280970,-0.524322509765625,0.821502685546875,0.7174835205078125
280971,-0.511505126953125,0.7742462158203125,0.6781158447265625
280972,-0.4849395751953125,0.7489166259765625,0.630523681640625
280973,-0.4765167236328125,0.746734619140625,0.57379150390625
280974,-0.46112060546875,0.7710113525390625,0.5166778564453125
280975,-0.4068603515625,0.81597900390625,0.4589080810546875
280976,-0.3313446044921875,0.8573150634765625,0.421661376953125
280977,-0.2688140869140625,0.8812713623046875,0.3853912353515625
280978,-0.2035064697265625,0.9120330810546876,0.32330322265625
280979,-0.1390228271484375,0.9441375732421876,0.2687225341796875
280980,-0.0893096923828125,0.96026611328125,0.253662109375
280981,-0.04241943359375,0.9573822021484376,0.2633819580078125
280982,-0.011749267578125,0.9527587890625,0.26385498046875
280983,-0.01458740234375,0.933685302734375,0.2442169189453125
280984,-0.0334320068359375,0.90875244140625,0.2191009521484375
280985,-0.0583648681640625,0.8883819580078125,0.1937255859375
280986,-0.0785369873046875,0.8812255859375,0.179840087890625
280987,-0.09466552734375,0.8671112060546875,0.2004852294921875
280988,-0.1067962646484375,0.8377685546875,0.245391845703125
280989,-0.103546142578125,0.807342529296875,0.309417724609375
280990,-0.088714599609375,0.7584381103515625,0.3766326904296875
280991,-0.0636444091796875,0.717498779296875,0.4319000244140625
280992,-0.033477783203125,0.708099365234375,0.4732666015625
280993,-0.0077362060546875,0.73455810546875,0.4949493408203125
280994,0.0043792724609375,0.8079376220703125,0.4750213623046875
280995,-0.0141754150390625,0.8943939208984375,0.4165496826171875
280996,-0.075042724609375,0.9881134033203124,0.3662567138671875
280997,-0.161376953125,1.109725952148438,0.3331146240234375
280998,-0.2490234375,1.265045166015625,0.2689056396484375
280999,-0.318023681640625,1.411392211914062,0.1838226318359375
281000,-0.3695526123046875,1.525634765625,0.1250152587890625
281001,-0.4024200439453125,1.608261108398438,0.0993804931640625
281002,-0.4116058349609375,1.634033203125,0.1306915283203125
281003,-0.3571929931640625,1.525070190429688,0.0772705078125
281004,-0.293243408203125,1.34808349609375,-0.05206298828125
281005,-0.2147674560546875,1.174041748046875,-0.0433807373046875
281006,-0.166168212890625,1.04388427734375,-0.0349578857421875
281007,-0.118560791015625,0.948822021484375,-0.0260772705078125
281008,-0.08099365234375,0.8435516357421875,-0.031402587890625
281009,-0.0652008056640625,0.814544677734375,0.0246124267578125
281010,-0.072418212890625,0.8499298095703125,0.14093017578125
281011,-0.091064453125,0.8265380859375,0.2371063232421875
281012,-0.1310882568359375,0.829864501953125,0.3122406005859375
281013,-0.156890869140625,0.833404541015625,0.3659515380859375
281014,-0.1528167724609375,0.7816925048828125,0.3914642333984375
281015,-0.166412353515625,0.745391845703125,0.3979339599609375
281016,-0.198577880859375,0.74749755859375,0.40753173828125
281017,-0.220001220703125,0.7666168212890625,0.4568023681640625
281018,-0.2383880615234375,0.7877655029296875,0.52923583984375
281019,-0.26458740234375,0.8087615966796875,0.58709716796875
281020,-0.27081298828125,0.8089141845703125,0.607513427734375
281021,-0.2601470947265625,0.8144378662109375,0.599639892578125
281022,-0.2364044189453125,0.80426025390625,0.5874481201171875
281023,-0.2136993408203125,0.7705078125,0.5901947021484375
281024,-0.1974029541015625,0.73797607421875,0.6041717529296875
281025,-0.1878509521484375,0.727081298828125,0.6101531982421875
281026,-0.1840057373046875,0.73486328125,0.6360321044921875
281027,-0.1878662109375,0.74365234375,0.681304931640625
281028,-0.2001190185546875,0.74468994140625,0.71636962890625
281029,-0.2202301025390625,0.7292022705078125,0.75262451171875
281030,-0.250091552734375,0.7150726318359375,0.7888641357421875
281031,-0.26715087890625,0.7180938720703125,0.8175201416015625
281032,-0.272216796875,0.7343292236328125,0.824493408203125
281033,-0.2713165283203125,0.7491607666015625,0.7744140625
281034,-0.2906341552734375,0.770538330078125,0.7171630859375
281035,-0.314788818359375,0.8050689697265625,0.6492767333984375
281036,-0.3137054443359375,0.8169097900390625,0.58563232421875
281037,-0.3625030517578125,0.80316162109375,0.5516357421875
281038,-0.320404052734375,0.8116455078125,0.52178955078125
281039,-0.213653564453125,0.918731689453125,0.449981689453125
281040,-0.074462890625,1.055328369140625,0.346405029296875
281041,0.0554046630859375,1.14813232421875,0.2667388916015625
281042,0.0668487548828125,1.177764892578125,0.2659912109375
281043,-0.0537109375,1.143325805664062,0.3007354736328125
281044,-0.19573974609375,1.091522216796875,0.293609619140625
281045,-0.30975341796875,1.006210327148438,0.26031494140625
281046,-0.405120849609375,0.921600341796875,0.224029541015625
281047,-0.4659423828125,0.8650665283203125,0.1985015869140625
281048,-0.48443603515625,0.8361968994140625,0.194305419921875
281049,-0.473175048828125,0.8128509521484375,0.2171173095703125
281050,-0.4485931396484375,0.7926177978515625,0.2617340087890625
281051,-0.4183502197265625,0.776031494140625,0.317901611328125
281052,-0.3878936767578125,0.792816162109375,0.35345458984375
281053,-0.3576202392578125,0.833465576171875,0.3339080810546875
281054,-0.3254852294921875,0.888763427734375,0.289947509765625
281055,-0.284088134765625,0.9322967529296876,0.271636962890625
281056,-0.214599609375,0.9925994873046876,0.2919921875
281057,-0.1260223388671875,1.059173583984375,0.3170166015625
281058,-0.0511474609375,1.103073120117188,0.3264312744140625
281059,0.0152740478515625,1.1204833984375,0.3017730712890625
281060,0.0915374755859375,1.139434814453125,0.2648468017578125
281061,0.1645965576171875,1.152969360351562,0.22113037109375
281062,0.2176361083984375,1.1583251953125,0.159027099609375
281063,0.2457427978515625,1.158660888671875,0.0963134765625
281064,0.2493133544921875,1.142959594726562,0.04339599609375
281065,0.185760498046875,1.118484497070312,0.0214691162109375
281066,0.0832061767578125,1.102798461914062,0.0636138916015625
281067,0.0062408447265625,1.0789794921875,0.1361846923828125
281068,-0.0413665771484375,1.003814697265625,0.16412353515625
281069,-0.0512542724609375,0.9298095703125,0.21148681640625
281070,-0.0428619384765625,0.899932861328125,0.3007354736328125
281071,-0.030059814453125,0.863494873046875,0.3849029541015625
281072,-0.0206298828125,0.8350982666015625,0.4378662109375
281073,-0.0263671875,0.825897216796875,0.437652587890625
281074,-0.049224853515625,0.832427978515625,0.402099609375
281075,-0.0913238525390625,0.86737060546875,0.368896484375
281076,-0.123687744140625,0.8961334228515625,0.360260009765625
281077,-0.160797119140625,0.9149627685546876,0.401763916015625
281078,-0.2126617431640625,0.9276885986328124,0.4792938232421875
281079,-0.260711669921875,0.9262542724609376,0.547454833984375
281080,-0.303070068359375,0.8725433349609375,0.5912322998046875
281081,-0.3395538330078125,0.8171234130859375,0.6108245849609375
281082,-0.36322021484375,0.79669189453125,0.610626220703125
281083,-0.375946044921875,0.7989349365234375,0.6114349365234375
281084,-0.38385009765625,0.81878662109375,0.61871337890625
281085,-0.371612548828125,0.846954345703125,0.6432952880859375
281086,-0.3576507568359375,0.8680572509765625,0.69329833984375
281087,-0.35528564453125,0.878509521484375,0.7563629150390625
281088,-0.367431640625,0.8619232177734375,0.8034210205078125
281089,-0.397674560546875,0.82855224609375,0.8060302734375
281090,-0.4226226806640625,0.7809295654296875,0.7629547119140625
281091,-0.399688720703125,0.718353271484375,0.70819091796875
281092,-0.3680572509765625,0.689239501953125,0.6593475341796875
281093,-0.354522705078125,0.697174072265625,0.61712646484375
281094,-0.344024658203125,0.7321319580078125,0.5755615234375
281095,-0.3265838623046875,0.7853546142578125,0.5322265625
281096,-0.3029632568359375,0.8481597900390625,0.4904022216796875
281097,-0.2797393798828125,0.88897705078125,0.4437713623046875
281098,-0.2734222412109375,0.90997314453125,0.4019775390625
281099,-0.242919921875,0.93572998046875,0.3601226806640625
281100,-0.18292236328125,0.9532928466796876,0.32269287109375
281101,-0.1318817138671875,0.974029541015625,0.28460693359375
281102,-0.0905609130859375,1.000106811523438,0.2729644775390625
281103,-0.05401611328125,1.025039672851562,0.2648468017578125
281104,-0.0336151123046875,1.017364501953125,0.2579498291015625
281105,-0.0368804931640625,0.988494873046875,0.2613372802734375
281106,-0.05303955078125,0.9429168701171876,0.2798004150390625
281107,-0.080902099609375,0.8978118896484375,0.293243408203125
281108,-0.100372314453125,0.8584747314453125,0.3158416748046875
281109,-0.108978271484375,0.82904052734375,0.33575439453125
281110,-0.108184814453125,0.8049774169921875,0.341949462890625
281111,-0.096038818359375,0.780120849609375,0.3482513427734375
281112,-0.0672607421875,0.75946044921875,0.3798980712890625
281113,-0.0171356201171875,0.753265380859375,0.4265289306640625
281114,0.0344696044921875,0.7879791259765625,0.4693450927734375
281115,0.0688018798828125,0.859130859375,0.4997711181640625
281116,0.061798095703125,0.960784912109375,0.4881134033203125
281117,0.0125274658203125,1.046798706054688,0.4150543212890625
281118,-0.057586669921875,1.10626220703125,0.3094329833984375
281119,-0.14794921875,1.164382934570312,0.24609375
281120,-0.2451019287109375,1.22271728515625,0.2568359375
281121,-0.2990875244140625,1.273468017578125,0.2668609619140625
281122,-0.31207275390625,1.317092895507812,0.2254180908203125
281123,-0.3003997802734375,1.331817626953125,0.1443634033203125
281124,-0.2673492431640625,1.302139282226562,0.0860595703125
281125,-0.2193145751953125,1.239181518554688,0.071563720703125
281126,-0.1679229736328125,1.154571533203125,0.08001708984375
281127,-0.123931884765625,1.067047119140625,0.0982208251953125
281128,-0.0923004150390625,0.99676513671875,0.1174163818359375
281129,-0.0671234130859375,0.9473876953125,0.1283111572265625
281130,-0.0627899169921875,0.908843994140625,0.1338043212890625
281131,-0.07403564453125,0.87060546875,0.1639556884765625
281132,-0.091278076171875,0.8372344970703125,0.2141265869140625
281133,-0.1107940673828125,0.8202056884765625,0.2695465087890625
281134,-0.11895751953125,0.8106536865234375,0.321807861328125
281135,-0.124176025390625,0.803558349609375,0.37640380859375
281136,-0.119873046875,0.7916107177734375,0.437713623046875
281137,-0.0986480712890625,0.7833709716796875,0.4886474609375
281138,-0.0806121826171875,0.7837371826171875,0.53363037109375
281139,-0.082672119140625,0.817108154296875,0.55609130859375
281140,-0.1052703857421875,0.8811798095703125,0.5710296630859375
281141,-0.129302978515625,0.917724609375,0.6006927490234375
281142,-0.1627960205078125,0.9219970703125,0.653411865234375
281143,-0.19329833984375,0.8797149658203125,0.7036285400390625
281144,-0.1934661865234375,0.8082122802734375,0.71331787109375
281145,-0.2001190185546875,0.7588958740234375,0.690032958984375
281146,-0.2085418701171875,0.73223876953125,0.65863037109375
281147,-0.2100067138671875,0.712249755859375,0.6486053466796875
281148,-0.215301513671875,0.710418701171875,0.6510009765625
281149,-0.228363037109375,0.6953887939453125,0.650604248046875
281150,-0.2567291259765625,0.6737213134765625,0.670440673828125
281151,-0.28594970703125,0.6654815673828125,0.710479736328125
281152,-0.308929443359375,0.6729888916015625,0.7422943115234375
281153,-0.33935546875,0.696533203125,0.7560272216796875
281154,-0.329925537109375,0.7121734619140625,0.735595703125
281155,-0.30816650390625,0.712677001953125,0.7031097412109375
281156,-0.288787841796875,0.7437896728515625,0.657623291015625
281157,-0.2613067626953125,0.7955780029296875,0.5893707275390625
281158,-0.220001220703125,0.8429412841796875,0.5105438232421875
281159,-0.1421051025390625,0.8858795166015625,0.4457855224609375
281160,-0.09222412109375,0.941009521484375,0.4094085693359375
281161,-0.079803466796875,1.002838134765625,0.386871337890625
281162,-0.1013336181640625,1.060546875,0.3594512939453125
281163,-0.1336669921875,1.1158447265625,0.3212432861328125
281164,-0.151824951171875,1.146148681640625,0.27716064453125
281165,-0.1688995361328125,1.137451171875,0.23736572265625
281166,-0.177978515625,1.087936401367188,0.2097015380859375
281167,-0.178802490234375,1.021331787109375,0.190277099609375
281168,-0.17364501953125,0.9462127685546876,0.1839599609375
281169,-0.174285888671875,0.8831024169921875,0.18048095703125
281170,-0.1940765380859375,0.8264617919921875,0.19195556640625
281171,-0.226226806640625,0.7899017333984375,0.2532501220703125
281172,-0.260894775390625,0.7979583740234375,0.3307647705078125
281173,-0.2759552001953125,0.82940673828125,0.387786865234375
281174,-0.2762451171875,0.8656005859375,0.413726806640625
281175,-0.254913330078125,0.9073638916015624,0.4123992919921875
281176,-0.19970703125,0.9595947265625,0.39678955078125
281177,-0.119903564453125,1.005538940429688,0.3697662353515625
281178,-0.045135498046875,1.041641235351562,0.340667724609375
281179,0.0091552734375,1.073654174804688,0.3143463134765625
281180,0.05303955078125,1.108474731445312,0.308380126953125
281181,0.0898895263671875,1.142135620117188,0.3119354248046875
281182,0.1112518310546875,1.167617797851562,0.3120880126953125
281183,0.11602783203125,1.173095703125,0.2853851318359375
281184,0.110504150390625,1.162109375,0.2276611328125
281185,0.0924224853515625,1.124847412109375,0.1677093505859375
281186,0.0485382080078125,1.05615234375,0.13946533203125
281187,-0.00262451171875,0.990386962890625,0.1602325439453125
281188,-0.0542755126953125,0.9328155517578124,0.21209716796875
281189,-0.1007843017578125,0.8738555908203125,0.257171630859375
281190,-0.1345977783203125,0.8334503173828125,0.2763671875
281191,-0.1432342529296875,0.8224029541015625,0.27288818359375
281192,-0.142974853515625,0.82098388671875,0.268768310546875
281193,-0.1474151611328125,0.829193115234375,0.30615234375
281194,-0.1519927978515625,0.840728759765625,0.3901214599609375
281195,-0.1667633056640625,0.8419647216796875,0.4650115966796875
281196,-0.1821441650390625,0.823760986328125,0.4947509765625
281197,-0.20159912109375,0.8199615478515625,0.4742431640625
281198,-0.1936798095703125,0.820404052734375,0.44061279296875
281199,-0.1760406494140625,0.8144989013671875,0.3967132568359375
281200,-0.1584930419921875,0.8105926513671875,0.3691253662109375
281201,-0.1469573974609375,0.79901123046875,0.353851318359375
281202,-0.1435089111328125,0.7997589111328125,0.368927001953125
281203,-0.1561279296875,0.8041839599609375,0.399200439453125
281204,-0.174468994140625,0.825775146484375,0.437408447265625
281205,-0.198760986328125,0.8525390625,0.4739837646484375
281206,-0.2236175537109375,0.8627166748046875,0.5137481689453125
281207,-0.24652099609375,0.8672637939453125,0.5509796142578125
281208,-0.2694854736328125,0.8689727783203125,0.589996337890625
281209,-0.310333251953125,0.8756103515625,0.63433837890625
281210,-0.3590850830078125,0.8860321044921875,0.6783599853515625
281211,-0.4207916259765625,0.896514892578125,0.70660400390625
281212,-0.47625732421875,0.896728515625,0.7098388671875
281213,-0.4879302978515625,0.8679962158203125,0.69085693359375
281214,-0.4576568603515625,0.833892822265625,0.654052734375
281215,-0.4124908447265625,0.820953369140625,0.6043243408203125
281216,-0.3666534423828125,0.8306884765625,0.5528717041015625
281217,-0.33184814453125,0.8548431396484375,0.5069122314453125
281218,-0.2994384765625,0.8829345703125,0.46893310546875
281219,-0.2725677490234375,0.915496826171875,0.440460205078125
281220,-0.245269775390625,0.948455810546875,0.4183197021484375
281221,-0.219970703125,0.979827880859375,0.382568359375
281222,-0.1865234375,1.005218505859375,0.3338623046875
281223,-0.1444549560546875,1.0198974609375,0.2958526611328125
281224,-0.10394287109375,1.02777099609375,0.272979736328125
281225,-0.071929931640625,1.032562255859375,0.2490386962890625
281226,-0.069244384765625,1.027587890625,0.2402496337890625
281227,-0.077362060546875,1.003799438476562,0.2512664794921875
281228,-0.0936279296875,0.96380615234375,0.2703704833984375
281229,-0.0947418212890625,0.9368743896484376,0.2992401123046875
281230,-0.0943756103515625,0.901580810546875,0.3229827880859375
281231,-0.09930419921875,0.859100341796875,0.3313751220703125
281232,-0.0972900390625,0.8276519775390625,0.330291748046875
281233,-0.076995849609375,0.7971649169921875,0.3318328857421875
281234,-0.0469207763671875,0.7742767333984375,0.3523406982421875
281235,-0.01312255859375,0.761627197265625,0.383026123046875
281236,0.026092529296875,0.7759246826171875,0.41552734375
281237,0.05328369140625,0.84161376953125,0.43231201171875
281238,0.037841796875,0.9638214111328124,0.4212188720703125
281239,-0.00274658203125,1.06475830078125,0.3858642578125
281240,-0.0818939208984375,1.143402099609375,0.3549041748046875
281241,-0.1943511962890625,1.212448120117188,0.3649139404296875
281242,-0.2910003662109375,1.279312133789062,0.338775634765625
281243,-0.33697509765625,1.353057861328125,0.2326812744140625
281244,-0.3414459228515625,1.412399291992188,0.1130218505859375
281245,-0.3163299560546875,1.408447265625,0.0348968505859375
281246,-0.278106689453125,1.340957641601562,0.0118865966796875
281247,-0.2222442626953125,1.25390625,0.0296630859375
281248,-0.1697235107421875,1.156021118164062,-0.0241546630859375
281249,-0.1317596435546875,1.057510375976562,-0.0488433837890625
281250,-0.0889892578125,0.9841156005859376,-0.0235748291015625
281251,-0.0608367919921875,0.9307098388671876,0.0065155029296875
281252,-0.0439453125,0.8955535888671875,0.0475311279296875
281253,-0.0438232421875,0.859161376953125,0.1030120849609375
281254,-0.0660858154296875,0.8483428955078125,0.184722900390625
281255,-0.097076416015625,0.84295654296875,0.277923583984375
281256,-0.1270599365234375,0.8222503662109375,0.3593597412109375
281257,-0.1654510498046875,0.804412841796875,0.41265869140625
281258,-0.2066192626953125,0.780303955078125,0.4511566162109375
281259,-0.2381591796875,0.758056640625,0.491180419921875
281260,-0.2539825439453125,0.738616943359375,0.5158233642578125
281261,-0.282623291015625,0.7494659423828125,0.5444183349609375
281262,-0.323455810546875,0.7820892333984375,0.5728759765625
281263,-0.33905029296875,0.796295166015625,0.60467529296875
281264,-0.3394622802734375,0.8063201904296875,0.5973968505859375
281265,-0.3167877197265625,0.822845458984375,0.550567626953125
281266,-0.2847900390625,0.8255615234375,0.52105712890625
281267,-0.2498931884765625,0.8410797119140625,0.528411865234375
281268,-0.2244110107421875,0.8685302734375,0.548187255859375
281269,-0.208770751953125,0.8894805908203125,0.5595855712890625
281270,-0.1973419189453125,0.8859405517578125,0.5737152099609375
281271,-0.20281982421875,0.8664093017578125,0.57794189453125
281272,-0.222503662109375,0.8341217041015625,0.5727386474609375
281273,-0.2399749755859375,0.798675537109375,0.5888671875
281274,-0.2476654052734375,0.76617431640625,0.63330078125
281275,-0.2411041259765625,0.738189697265625,0.67694091796875
281276,-0.2353515625,0.7166748046875,0.696136474609375
281277,-0.22882080078125,0.7050933837890625,0.6890869140625
281278,-0.2122039794921875,0.709686279296875,0.6559295654296875
281279,-0.1884307861328125,0.7356109619140625,0.6032562255859375
281280,-0.1739501953125,0.7781524658203125,0.551605224609375
281281,-0.1651458740234375,0.8174591064453125,0.505645751953125
281282,-0.1541748046875,0.8645477294921875,0.4689483642578125
281283,-0.1188812255859375,0.9268951416015624,0.4283294677734375
281284,-0.094268798828125,0.9989166259765624,0.387542724609375
281285,-0.0865325927734375,1.057510375976562,0.352386474609375
281286,-0.0816802978515625,1.087982177734375,0.3169403076171875
281287,-0.091033935546875,1.089614868164062,0.2771148681640625
281288,-0.109100341796875,1.07928466796875,0.2346343994140625
281289,-0.1345062255859375,1.061920166015625,0.1836090087890625
281290,-0.1641082763671875,1.034164428710938,0.14031982421875
281291,-0.19317626953125,1.0028076171875,0.1118621826171875
281292,-0.2200469970703125,0.96533203125,0.11578369140625
281293,-0.2512359619140625,0.9338531494140624,0.1745758056640625
281294,-0.2799835205078125,0.9013824462890624,0.2320709228515625
281295,-0.300689697265625,0.8709716796875,0.2762451171875
281296,-0.32080078125,0.832244873046875,0.32373046875
281297,-0.3448028564453125,0.7969970703125,0.3687286376953125
281298,-0.3701934814453125,0.7790985107421875,0.4064788818359375
281299,-0.3760528564453125,0.7823944091796875,0.4101409912109375
281300,-0.352264404296875,0.808685302734375,0.374603271484375
281301,-0.3020477294921875,0.84710693359375,0.33978271484375
281302,-0.2059783935546875,0.9154205322265624,0.3267822265625
281303,-0.1124725341796875,0.9839630126953124,0.3407745361328125
281304,-0.0384979248046875,1.040725708007812,0.36907958984375
281305,0.0204315185546875,1.085128784179688,0.3585968017578125
281306,0.0623321533203125,1.115768432617188,0.307891845703125
281307,0.0875396728515625,1.12713623046875,0.2319488525390625
281308,0.0937957763671875,1.124740600585938,0.159820556640625
281309,0.0823822021484375,1.10064697265625,0.123809814453125
281310,0.05267333984375,1.069473266601562,0.1179656982421875
281311,0.0135955810546875,1.042449951171875,0.1236114501953125
281312,-0.019287109375,1.008331298828125,0.141265869140625
281313,-0.0456390380859375,0.9667205810546876,0.176116943359375
281314,-0.06146240234375,0.936676025390625,0.22381591796875
281315,-0.070404052734375,0.9050140380859376,0.263427734375
281316,-0.0803985595703125,0.8762664794921875,0.3130645751953125
281317,-0.096771240234375,0.846160888671875,0.3823089599609375
281318,-0.137969970703125,0.82708740234375,0.431304931640625
281319,-0.1895751953125,0.8196258544921875,0.4160614013671875
281320,-0.2329254150390625,0.824554443359375,0.355224609375
281321,-0.2723236083984375,0.8291015625,0.3084869384765625
281322,-0.2917633056640625,0.8336334228515625,0.3044586181640625
281323,-0.300537109375,0.825439453125,0.3145599365234375
281324,-0.3064422607421875,0.8153839111328125,0.3653717041015625
281325,-0.3040924072265625,0.8149261474609375,0.4398040771484375
281326,-0.29180908203125,0.8592529296875,0.4874725341796875
281327,-0.2843475341796875,0.90057373046875,0.5157318115234375
281328,-0.28887939453125,0.932891845703125,0.5440673828125
281329,-0.299530029296875,0.953277587890625,0.5683135986328125
281330,-0.32464599609375,0.9603118896484376,0.599151611328125
281331,-0.353515625,0.96917724609375,0.630157470703125
281332,-0.3739166259765625,0.971588134765625,0.6450958251953125
281333,-0.38970947265625,0.9475555419921876,0.6416778564453125
281334,-0.39093017578125,0.921630859375,0.6266937255859375
281335,-0.3816070556640625,0.863983154296875,0.6211395263671875
281336,-0.3685302734375,0.78631591796875,0.6424713134765625
281337,-0.379150390625,0.7043304443359375,0.66668701171875
281338,-0.397674560546875,0.6489410400390625,0.6505279541015625
281339,-0.40325927734375,0.632843017578125,0.5990753173828125
281340,-0.3980712890625,0.6522064208984375,0.5355987548828125
281341,-0.3864898681640625,0.694976806640625,0.468963623046875
281342,-0.37860107421875,0.740234375,0.4200286865234375
281343,-0.3669281005859375,0.7773895263671875,0.3853607177734375
281344,-0.3471832275390625,0.815826416015625,0.3443603515625
281345,-0.3215484619140625,0.848297119140625,0.2984161376953125
281346,-0.2995147705078125,0.8718719482421875,0.2783966064453125
281347,-0.28204345703125,0.900543212890625,0.2864837646484375
281348,-0.270843505859375,0.94818115234375,0.2863922119140625
281349,-0.26165771484375,0.9853363037109376,0.260009765625
281350,-0.254302978515625,0.9957122802734376,0.22662353515625
281351,-0.2387847900390625,0.98016357421875,0.2140655517578125
281352,-0.22344970703125,0.9381561279296876,0.243621826171875
281353,-0.207427978515625,0.8791046142578125,0.284759521484375
281354,-0.1889801025390625,0.8191986083984375,0.3226776123046875
281355,-0.17095947265625,0.7744903564453125,0.361236572265625
281356,-0.1613922119140625,0.7661285400390625,0.393402099609375
281357,-0.153076171875,0.7817230224609375,0.4008941650390625
281358,-0.1427154541015625,0.8270111083984375,0.3929901123046875
281359,-0.1330718994140625,0.9034576416015624,0.37579345703125
281360,-0.145263671875,0.9940185546875,0.3348388671875
281361,-0.1819305419921875,1.097686767578125,0.2843170166015625
281362,-0.255950927734375,1.211151123046875,0.2495880126953125
281363,-0.3520660400390625,1.314773559570312,0.2055816650390625
281364,-0.3948822021484375,1.419296264648438,0.126953125
281365,-0.4029083251953125,1.54217529296875,0.037689208984375
281366,-0.421722412109375,1.658340454101562,0.0280609130859375
281367,-0.3777008056640625,1.67327880859375,-0.043975830078125
281368,-0.2861785888671875,1.588287353515625,-0.2193145751953125
281369,-0.195343017578125,1.480850219726562,-0.191650390625
281370,-0.1417236328125,1.359375,-0.15667724609375
281371,-0.0992431640625,1.21881103515625,-0.151397705078125
281372,-0.062591552734375,1.08319091796875,-0.1654815673828125
281373,-0.0640106201171875,0.99603271484375,-0.2048492431640625
281374,-0.07647705078125,0.9555816650390624,-0.1438140869140625
281375,-0.0693359375,0.9445037841796876,0.0262298583984375
281376,-0.06085205078125,0.9267425537109376,0.2532806396484375
281377,-0.0761871337890625,0.9100494384765624,0.47418212890625
281378,-0.1011810302734375,0.8961181640625,0.6082611083984375
281379,-0.1357421875,0.8192291259765625,0.5545196533203125
281380,-0.1576080322265625,0.7182159423828125,0.5047149658203125
281381,-0.1739959716796875,0.681396484375,0.4876251220703125
281382,-0.189483642578125,0.6768035888671875,0.51348876953125
281383,-0.216156005859375,0.72503662109375,0.57147216796875
281384,-0.2167816162109375,0.76959228515625,0.625701904296875
281385,-0.204132080078125,0.8171234130859375,0.6266937255859375
281386,-0.1829986572265625,0.8297271728515625,0.6034088134765625
281387,-0.1555328369140625,0.791717529296875,0.5814971923828125
281388,-0.133087158203125,0.747650146484375,0.5535430908203125
281389,-0.1223602294921875,0.707427978515625,0.53533935546875
281390,-0.1259002685546875,0.66766357421875,0.5479736328125
281391,-0.140899658203125,0.6460723876953125,0.580322265625
281392,-0.160858154296875,0.6304473876953125,0.6113739013671875
281393,-0.1812744140625,0.61907958984375,0.640411376953125
281394,-0.198974609375,0.612762451171875,0.6805419921875
281395,-0.210205078125,0.5994110107421875,0.72698974609375
281396,-0.2186737060546875,0.594085693359375,0.74578857421875
281397,-0.2270965576171875,0.605926513671875,0.72589111328125
281398,-0.2324371337890625,0.6289215087890625,0.6951141357421875
281399,-0.24224853515625,0.667510986328125,0.6545257568359375
281400,-0.2412567138671875,0.73052978515625,0.60968017578125
281401,-0.239959716796875,0.800384521484375,0.577911376953125
281402,-0.224609375,0.854827880859375,0.5517578125
281403,-0.1990203857421875,0.9102325439453124,0.5329437255859375
281404,-0.1573333740234375,0.9776611328125,0.5125732421875
281405,-0.11798095703125,1.04888916015625,0.497802734375
281406,-0.1069183349609375,1.111190795898438,0.4695587158203125
281407,-0.115692138671875,1.154144287109375,0.405059814453125
281408,-0.1522216796875,1.186325073242188,0.30914306640625
281409,-0.209197998046875,1.174407958984375,0.2085723876953125
281410,-0.258544921875,1.12237548828125,0.1337738037109375
281411,-0.2884521484375,1.051620483398438,0.09124755859375
281412,-0.312744140625,0.9953765869140624,0.085601806640625
281413,-0.335906982421875,0.9626007080078124,0.097564697265625
281414,-0.3563385009765625,0.947540283203125,0.1326904296875
281415,-0.3704833984375,0.9285125732421876,0.1928253173828125
281416,-0.386932373046875,0.9157257080078124,0.26153564453125
281417,-0.406280517578125,0.9047393798828124,0.3208465576171875
281418,-0.41070556640625,0.89251708984375,0.3501434326171875
281419,-0.4108734130859375,0.89697265625,0.3577117919921875
281420,-0.3943939208984375,0.896331787109375,0.3574066162109375
281421,-0.337890625,0.9015960693359376,0.372711181640625
281422,-0.2589111328125,0.9223175048828124,0.403900146484375
281423,-0.1693115234375,0.9360198974609376,0.4332733154296875
281424,-0.080352783203125,0.942169189453125,0.4368438720703125
281425,-0.0095672607421875,0.953094482421875,0.418060302734375
281426,0.062591552734375,0.9793853759765624,0.3877410888671875
281427,0.1287841796875,1.033966064453125,0.3368072509765625
281428,0.1695098876953125,1.095611572265625,0.278961181640625
281429,0.19378662109375,1.137405395507812,0.2154693603515625
281430,0.2064666748046875,1.15521240234375,0.1427764892578125
281431,0.1988525390625,1.152069091796875,0.07135009765625
281432,0.1688690185546875,1.129302978515625,0.0289154052734375
281433,0.12689208984375,1.0926513671875,0.01995849609375
281434,0.081390380859375,1.067596435546875,0.063812255859375
281435,0.029937744140625,1.044189453125,0.0687408447265625
281436,0.00128173828125,0.9953765869140624,0.1019744873046875
281437,-0.001129150390625,0.9646148681640624,0.1944122314453125
281438,-0.037689208984375,0.9542694091796876,0.2899169921875
281439,-0.076507568359375,0.92401123046875,0.369659423828125
281440,-0.1127777099609375,0.8676605224609375,0.4006805419921875
281441,-0.147491455078125,0.82891845703125,0.40667724609375
281442,-0.1761322021484375,0.8115386962890625,0.3635101318359375
281443,-0.1843414306640625,0.800201416015625,0.333465576171875
281444,-0.1953887939453125,0.797943115234375,0.3267669677734375
281445,-0.207305908203125,0.7917022705078125,0.3243255615234375
281446,-0.2113037109375,0.7737884521484375,0.3472137451171875
281447,-0.2200164794921875,0.765289306640625,0.3798370361328125
281448,-0.231536865234375,0.7627410888671875,0.407257080078125
281449,-0.248382568359375,0.758392333984375,0.4467620849609375
281450,-0.274749755859375,0.7607574462890625,0.50360107421875
281451,-0.3034515380859375,0.768341064453125,0.5724334716796875
281452,-0.328033447265625,0.7861328125,0.65264892578125
281453,-0.3491973876953125,0.8160552978515625,0.7203521728515625
281454,-0.3726348876953125,0.8586273193359375,0.75634765625
281455,-0.39923095703125,0.9073028564453124,0.7643280029296875
281456,-0.4221038818359375,0.94647216796875,0.7601318359375
281457,-0.4301300048828125,0.9580078125,0.7570037841796875
281458,-0.404998779296875,0.9559478759765624,0.751373291015625
281459,-0.3698577880859375,0.9295501708984376,0.7264404296875
281460,-0.3528594970703125,0.895599365234375,0.665069580078125
281461,-0.324188232421875,0.8719482421875,0.595611572265625
281462,-0.3057403564453125,0.85888671875,0.531646728515625
281463,-0.29486083984375,0.8707733154296875,0.4533843994140625
281464,-0.2646026611328125,0.88043212890625,0.3732452392578125
281465,-0.2200927734375,0.8991851806640625,0.2972259521484375
281466,-0.137237548828125,0.93463134765625,0.2377471923828125
281467,-0.07244873046875,0.9752044677734376,0.2229156494140625
281468,-0.0343780517578125,0.991455078125,0.2368621826171875
281469,-0.02197265625,0.9704742431640624,0.2701416015625
281470,-0.0356292724609375,0.938812255859375,0.291351318359375
281471,-0.063232421875,0.916534423828125,0.2943115234375
281472,-0.0806121826171875,0.9109954833984376,0.3017578125
281473,-0.0792694091796875,0.90753173828125,0.3249969482421875
281474,-0.0789642333984375,0.8951263427734375,0.3524169921875
281475,-0.0752716064453125,0.8704833984375,0.3832244873046875
281476,-0.06146240234375,0.837738037109375,0.42498779296875
281477,-0.0445709228515625,0.8058319091796875,0.4599151611328125
281478,-0.0267486572265625,0.7811279296875,0.4810943603515625
281479,-0.0031890869140625,0.769744873046875,0.500274658203125
281480,0.0177001953125,0.7845458984375,0.516571044921875
281481,0.027618408203125,0.834442138671875,0.513641357421875
281482,0.02435302734375,0.9120941162109376,0.4758148193359375
281483,0.0027618408203125,0.975067138671875,0.4013214111328125
281484,-0.0455474853515625,1.016586303710938,0.3267822265625
281485,-0.12286376953125,1.058746337890625,0.284576416015625
281486,-0.2073516845703125,1.129104614257812,0.2621307373046875
281487,-0.2749481201171875,1.232437133789062,0.2108917236328125
281488,-0.314971923828125,1.325836181640625,0.1160430908203125
281489,-0.319488525390625,1.369461059570312,0.0062255859375
281490,-0.2827301025390625,1.358901977539062,-0.0943450927734375
281491,-0.2091217041015625,1.312057495117188,-0.136199951171875
281492,-0.1242523193359375,1.252029418945312,-0.135040283203125
281493,-0.058258056640625,1.151321411132812,-0.1614990234375
281494,-0.0200653076171875,1.032440185546875,-0.1273040771484375
281495,-0.00592041015625,0.94329833984375,-0.0575103759765625
281496,-0.00555419921875,0.882781982421875,0.0189208984375
281497,-0.0051422119140625,0.8468170166015625,0.0966949462890625
281498,-0.016815185546875,0.82733154296875,0.1857147216796875
281499,-0.0399322509765625,0.82305908203125,0.2647552490234375
281500,-0.0628204345703125,0.82098388671875,0.2975921630859375
281501,-0.083587646484375,0.8367462158203125,0.3127899169921875
281502,-0.1014556884765625,0.87713623046875,0.3519287109375
281503,-0.115386962890625,0.924041748046875,0.436981201171875
281504,-0.1262969970703125,0.961761474609375,0.523956298828125
281505,-0.14801025390625,0.9724884033203124,0.56707763671875
281506,-0.1744842529296875,0.95660400390625,0.55419921875
281507,-0.176483154296875,0.926483154296875,0.5089874267578125
281508,-0.1650848388671875,0.9056549072265624,0.474822998046875
281509,-0.1415863037109375,0.8836212158203125,0.46514892578125
281510,-0.1178741455078125,0.8466033935546875,0.4880828857421875
281511,-0.1168060302734375,0.7966766357421875,0.5358428955078125
281512,-0.138336181640625,0.756134033203125,0.572235107421875
281513,-0.1605987548828125,0.739990234375,0.5830230712890625
281514,-0.1818084716796875,0.7549285888671875,0.5998687744140625
281515,-0.1928558349609375,0.789947509765625,0.633514404296875
281516,-0.192291259765625,0.830169677734375,0.683807373046875
281517,-0.1790771484375,0.868133544921875,0.7317352294921875
281518,-0.162109375,0.8878021240234375,0.7643280029296875
281519,-0.145050048828125,0.887969970703125,0.7595977783203125
281520,-0.1241912841796875,0.883758544921875,0.7158050537109375
281521,-0.0957794189453125,0.89251708984375,0.6661834716796875
281522,-0.0663604736328125,0.9086151123046876,0.6123199462890625
281523,-0.0383148193359375,0.948760986328125,0.5416412353515625
281524,-0.00811767578125,1.007080078125,0.475982666015625
281525,0.00982666015625,1.042739868164062,0.4069976806640625
281526,-0.003997802734375,1.043319702148438,0.341217041015625
281527,-0.041015625,1.02496337890625,0.2941436767578125
281528,-0.09515380859375,0.98382568359375,0.271728515625
281529,-0.15167236328125,0.92626953125,0.250030517578125
281530,-0.191497802734375,0.865142822265625,0.2403106689453125
281531,-0.2190704345703125,0.8085174560546875,0.261199951171875
281532,-0.2440032958984375,0.769134521484375,0.2807159423828125
281533,-0.2610931396484375,0.73004150390625,0.3044281005859375
281534,-0.2763214111328125,0.7047271728515625,0.320220947265625
281535,-0.2986907958984375,0.6865234375,0.3364410400390625
281536,-0.33074951171875,0.706634521484375,0.3571014404296875
281537,-0.375732421875,0.7397918701171875,0.3922119140625
281538,-0.4105987548828125,0.76177978515625,0.4253692626953125
281539,-0.429229736328125,0.7861480712890625,0.460845947265625
281540,-0.429473876953125,0.807281494140625,0.487640380859375
281541,-0.3921051025390625,0.8392791748046875,0.4753875732421875
281542,-0.3345489501953125,0.8802490234375,0.42364501953125
281543,-0.272674560546875,0.934661865234375,0.390777587890625
281544,-0.201141357421875,0.9862213134765624,0.394378662109375
281545,-0.1362762451171875,1.060272216796875,0.4093780517578125
281546,-0.0709381103515625,1.154510498046875,0.3997955322265625
281547,-0.0133056640625,1.255905151367188,0.34271240234375
281548,0.0426788330078125,1.32000732421875,0.2492218017578125
281549,0.098785400390625,1.341018676757812,0.1245880126953125
281550,0.14227294921875,1.3211669921875,0.0041351318359375
281551,0.178192138671875,1.255615234375,-0.0506591796875
281552,0.192779541015625,1.130523681640625,-0.1349945068359375
281553,0.1610107421875,1.036148071289062,-0.141021728515625
281554,0.1345367431640625,0.9744873046875,-0.027252197265625
281555,0.1037445068359375,0.942138671875,0.07061767578125
281556,0.0707244873046875,0.9266510009765624,0.1668243408203125
281557,0.035125732421875,0.9104461669921876,0.2494049072265625
281558,-0.00274658203125,0.881378173828125,0.3404388427734375
281559,-0.04071044921875,0.84307861328125,0.438446044921875
281560,-0.072052001953125,0.8087310791015625,0.497894287109375
281561,-0.1071319580078125,0.7844696044921875,0.509368896484375
281562,-0.14910888671875,0.7643280029296875,0.5155792236328125
281563,-0.190460205078125,0.742431640625,0.5238800048828125
281564,-0.213348388671875,0.7129364013671875,0.502166748046875
281565,-0.2448577880859375,0.70684814453125,0.4278564453125
281566,-0.2945098876953125,0.748321533203125,0.3323211669921875
281567,-0.32745361328125,0.777740478515625,0.2953643798828125
281568,-0.3674774169921875,0.8204345703125,0.293701171875
281569,-0.3932037353515625,0.8556060791015625,0.334625244140625
281570,-0.401275634765625,0.8759613037109375,0.4098358154296875
281571,-0.3745574951171875,0.883392333984375,0.4910125732421875
281572,-0.345062255859375,0.880157470703125,0.5704498291015625
281573,-0.327667236328125,0.8790435791015625,0.6293792724609375
281574,-0.3321533203125,0.8938140869140625,0.6656951904296875
281575,-0.3557891845703125,0.910736083984375,0.6882781982421875
281576,-0.39459228515625,0.912811279296875,0.69366455078125
281577,-0.45172119140625,0.892120361328125,0.6813812255859375
281578,-0.4909820556640625,0.8319244384765625,0.6522979736328125
281579,-0.4721221923828125,0.76275634765625,0.6223602294921875
281580,-0.4384918212890625,0.7391204833984375,0.6124114990234375
281581,-0.4090423583984375,0.765869140625,0.59375
281582,-0.387664794921875,0.82257080078125,0.605316162109375
281583,-0.3721923828125,0.888824462890625,0.639312744140625
281584,-0.3440704345703125,0.9401092529296876,0.6297607421875
281585,-0.31378173828125,0.9678955078125,0.56268310546875
281586,-0.2905120849609375,0.9699249267578124,0.478424072265625
281587,-0.263763427734375,0.949798583984375,0.41009521484375
281588,-0.261199951171875,0.9369354248046876,0.3705596923828125
281589,-0.2504119873046875,0.930633544921875,0.3372650146484375
281590,-0.23321533203125,0.9142608642578124,0.30255126953125
281591,-0.216400146484375,0.892669677734375,0.28302001953125
281592,-0.207427978515625,0.888214111328125,0.2778778076171875
281593,-0.2028045654296875,0.915618896484375,0.2754364013671875
281594,-0.196441650390625,0.9334716796875,0.2827911376953125
281595,-0.173919677734375,0.941680908203125,0.3012237548828125
281596,-0.13812255859375,0.943878173828125,0.3321380615234375
281597,-0.0955352783203125,0.92919921875,0.3550567626953125
281598,-0.0598297119140625,0.8957366943359375,0.3671722412109375
281599,-0.0254058837890625,0.8502044677734375,0.375823974609375
281600,0.0091552734375,0.794921875,0.399078369140625
281601,0.0358734130859375,0.743011474609375,0.430389404296875
281602,0.0598297119140625,0.7050933837890625,0.4693756103515625
281603,0.0705108642578125,0.698577880859375,0.5054779052734375
281604,0.05718994140625,0.7315216064453125,0.5140838623046875
281605,0.0097503662109375,0.798248291015625,0.4784698486328125
281606,-0.060028076171875,0.865997314453125,0.4299774169921875
281607,-0.1579132080078125,0.95880126953125,0.3924560546875
281608,-0.26568603515625,1.093460083007812,0.3496856689453125
281609,-0.343780517578125,1.248779296875,0.3056488037109375
281610,-0.384857177734375,1.389480590820312,0.2509765625
281611,-0.413421630859375,1.498565673828125,0.1568145751953125
281612,-0.4001312255859375,1.530624389648438,0.0406341552734375
281613,-0.34674072265625,1.466720581054688,-0.068572998046875
281614,-0.2725372314453125,1.340133666992188,-0.1372222900390625
281615,-0.202789306640625,1.219741821289062,-0.1765899658203125
281616,-0.1504669189453125,1.120162963867188,-0.2027587890625
281617,-0.1167449951171875,1.023406982421875,-0.200408935546875
281618,-0.09466552734375,0.953460693359375,-0.16448974609375
281619,-0.0867462158203125,0.9070892333984376,-0.1120452880859375
281620,-0.0847930908203125,0.8784942626953125,-0.0433349609375
281621,-0.0872039794921875,0.8542633056640625,0.070556640625
281622,-0.098236083984375,0.8446502685546875,0.260040283203125
281623,-0.10791015625,0.8314361572265625,0.476226806640625
281624,-0.1176605224609375,0.7857208251953125,0.569244384765625
281625,-0.1565093994140625,0.7646331787109375,0.5764007568359375
281626,-0.2293243408203125,0.78564453125,0.5623779296875
281627,-0.2921905517578125,0.8133392333984375,0.567291259765625
281628,-0.3255767822265625,0.83905029296875,0.56390380859375
281629,-0.3297119140625,0.87103271484375,0.527313232421875
281630,-0.320556640625,0.8791961669921875,0.4522705078125
281631,-0.2731475830078125,0.8502197265625,0.4051055908203125
281632,-0.1858367919921875,0.7653656005859375,0.4192047119140625
281633,-0.13604736328125,0.6973724365234375,0.4505767822265625
281634,-0.1024322509765625,0.6490631103515625,0.4871368408203125
281635,-0.0819244384765625,0.6225738525390625,0.5308074951171875
281636,-0.09088134765625,0.6376495361328125,0.5831451416015625
281637,-0.1188507080078125,0.6765594482421875,0.6369171142578125
281638,-0.15643310546875,0.72174072265625,0.682220458984375
281639,-0.185333251953125,0.7641754150390625,0.7221221923828125
281640,-0.1908111572265625,0.7914886474609375,0.7432708740234375
281641,-0.1887969970703125,0.8044281005859375,0.7500457763671875
281642,-0.1771087646484375,0.825164794921875,0.7452545166015625
281643,-0.16412353515625,0.8599395751953125,0.7216644287109375
281644,-0.159698486328125,0.91021728515625,0.685546875
281645,-0.1562042236328125,0.974945068359375,0.6594390869140625
281646,-0.1497955322265625,1.041976928710938,0.60595703125
281647,-0.1648712158203125,1.106109619140625,0.48980712890625
281648,-0.18719482421875,1.143905639648438,0.3495635986328125
281649,-0.1809539794921875,1.164321899414062,0.252044677734375
281650,-0.1977996826171875,1.175247192382812,0.2350921630859375
281651,-0.242156982421875,1.152450561523438,0.235443115234375
281652,-0.275177001953125,1.108001708984375,0.207275390625
281653,-0.27886962890625,1.05743408203125,0.176727294921875
281654,-0.2422332763671875,0.9854888916015624,0.165283203125
281655,-0.198272705078125,0.8894500732421875,0.173309326171875
281656,-0.2001800537109375,0.80462646484375,0.2025146484375
281657,-0.24188232421875,0.7490692138671875,0.2403411865234375
281658,-0.301025390625,0.71331787109375,0.2851409912109375
281659,-0.3671722412109375,0.697174072265625,0.33319091796875
281660,-0.4447784423828125,0.703033447265625,0.3814544677734375
281661,-0.5231170654296875,0.7123870849609375,0.449859619140625
281662,-0.5637969970703125,0.7045135498046875,0.5207366943359375
281663,-0.5615692138671875,0.7198028564453125,0.5577239990234375
281664,-0.5100250244140625,0.783966064453125,0.550201416015625
281665,-0.4039306640625,0.88531494140625,0.491912841796875
281666,-0.3037567138671875,0.9642791748046876,0.4518585205078125
281667,-0.2292938232421875,1.025588989257812,0.4461212158203125
281668,-0.1595611572265625,1.07861328125,0.426025390625
281669,-0.083404541015625,1.138519287109375,0.3749847412109375
281670,-0.00244140625,1.193801879882812,0.2892913818359375
281671,0.063629150390625,1.24383544921875,0.204864501953125
281672,0.114410400390625,1.265625,0.11968994140625
281673,0.1413726806640625,1.2244873046875,0.0431976318359375
281674,0.138763427734375,1.151138305664062,-0.01458740234375
281675,0.126800537109375,1.073211669921875,-0.0524139404296875
281676,0.11578369140625,0.997711181640625,-0.0648956298828125
281677,0.119110107421875,0.9444122314453124,-0.056732177734375
281678,0.132049560546875,0.9016571044921876,-0.015106201171875
281679,0.1428680419921875,0.8714447021484375,0.0616455078125
281680,0.1359710693359375,0.8615570068359375,0.1612548828125
281681,0.1167449951171875,0.86407470703125,0.268798828125
281682,0.0760650634765625,0.87066650390625,0.3621978759765625
281683,0.0123291015625,0.8793182373046875,0.4128875732421875
281684,-0.0508270263671875,0.8760833740234375,0.4063873291015625
281685,-0.1013031005859375,0.8726043701171875,0.3778228759765625
281686,-0.1416015625,0.868927001953125,0.3910064697265625
281687,-0.1847076416015625,0.842742919921875,0.4338836669921875
281688,-0.2150421142578125,0.801239013671875,0.4438018798828125
281689,-0.25177001953125,0.7855987548828125,0.3813323974609375
281690,-0.3000335693359375,0.8042449951171875,0.3458404541015625
281691,-0.3360137939453125,0.8220367431640625,0.378265380859375
281692,-0.363922119140625,0.839019775390625,0.4024505615234375
281693,-0.37445068359375,0.8332977294921875,0.4292144775390625
281694,-0.3767547607421875,0.8120574951171875,0.4675140380859375
281695,-0.3654022216796875,0.7951202392578125,0.512847900390625
281696,-0.3538055419921875,0.782867431640625,0.564178466796875
281697,-0.362701416015625,0.7877197265625,0.625885009765625
281698,-0.385955810546875,0.8015594482421875,0.692840576171875
281699,-0.4152679443359375,0.8128662109375,0.742156982421875
281700,-0.4349822998046875,0.821197509765625,0.7481842041015625
281701,-0.43878173828125,0.829376220703125,0.7081756591796875
281702,-0.4298858642578125,0.84503173828125,0.6452484130859375
281703,-0.41009521484375,0.856536865234375,0.5684051513671875
281704,-0.3864288330078125,0.8824005126953125,0.492645263671875
281705,-0.3553466796875,0.9027862548828124,0.4343109130859375
281706,-0.3162078857421875,0.9131011962890624,0.3923187255859375
281707,-0.274505615234375,0.925506591796875,0.3451385498046875
281708,-0.2202301025390625,0.9286651611328124,0.3065338134765625
281709,-0.1734619140625,0.9322967529296876,0.3029632568359375
281710,-0.163665771484375,0.931915283203125,0.319854736328125
281711,-0.16680908203125,0.9305267333984376,0.3313751220703125
281712,-0.164154052734375,0.9175262451171876,0.3215484619140625
281713,-0.16571044921875,0.9066009521484376,0.299346923828125
281714,-0.174835205078125,0.89276123046875,0.31329345703125
281715,-0.1819000244140625,0.8824462890625,0.345611572265625
281716,-0.181182861328125,0.87603759765625,0.393951416015625
281717,-0.182586669921875,0.8709259033203125,0.4645843505859375
281718,-0.171600341796875,0.866912841796875,0.533599853515625
281719,-0.16229248046875,0.8511962890625,0.575775146484375
281720,-0.15386962890625,0.8156280517578125,0.584686279296875
281721,-0.1392364501953125,0.75872802734375,0.595703125
281722,-0.1256256103515625,0.7008514404296875,0.6152191162109375
281723,-0.1213836669921875,0.6744537353515625,0.6373443603515625
281724,-0.1216278076171875,0.6824951171875,0.6563262939453125
281725,-0.1249542236328125,0.73394775390625,0.646514892578125
281726,-0.1344757080078125,0.82855224609375,0.6161956787109375
281727,-0.16363525390625,0.9413604736328124,0.5931243896484375
281728,-0.228485107421875,1.060455322265625,0.576751708984375
281729,-0.30718994140625,1.174667358398438,0.5071868896484375
281730,-0.3758392333984375,1.281402587890625,0.364654541015625
281731,-0.3956756591796875,1.379547119140625,0.2153167724609375
281732,-0.391632080078125,1.458328247070312,0.12249755859375
281733,-0.3674163818359375,1.484024047851562,0.1126861572265625
281734,-0.3059539794921875,1.4447021484375,0.1077880859375
281735,-0.25213623046875,1.336807250976562,0.0755615234375
281736,-0.1884002685546875,1.19305419921875,0.0452423095703125
281737,-0.146881103515625,1.08642578125,0.020416259765625
281738,-0.1202392578125,0.9995880126953124,0.02178955078125
281739,-0.1070709228515625,0.9286956787109376,0.0361480712890625
281740,-0.110321044921875,0.8913421630859375,0.05926513671875
281741,-0.1148834228515625,0.8631591796875,0.0921783447265625
281742,-0.124420166015625,0.8464508056640625,0.1212615966796875
281743,-0.137298583984375,0.8570709228515625,0.1475982666015625
281744,-0.1370849609375,0.8841094970703125,0.197509765625
281745,-0.11968994140625,0.91094970703125,0.2826690673828125
281746,-0.102752685546875,0.932220458984375,0.3940277099609375
281747,-0.1065521240234375,0.9293670654296876,0.4986114501953125
281748,-0.1167144775390625,0.884613037109375,0.566162109375
281749,-0.134857177734375,0.8091278076171875,0.5821685791015625
281750,-0.161041259765625,0.73260498046875,0.5464019775390625
281751,-0.18438720703125,0.6573028564453125,0.50799560546875
281752,-0.198333740234375,0.6050567626953125,0.49163818359375
281753,-0.2147216796875,0.6083221435546875,0.4951171875
281754,-0.2130889892578125,0.6465301513671875,0.53631591796875
281755,-0.1898651123046875,0.70697021484375,0.5784454345703125
281756,-0.150726318359375,0.755462646484375,0.6028900146484375
281757,-0.1194305419921875,0.765899658203125,0.6209564208984375
281758,-0.1044769287109375,0.76165771484375,0.6441497802734375
281759,-0.1087799072265625,0.7536773681640625,0.6934967041015625
281760,-0.1240081787109375,0.735198974609375,0.745452880859375
281761,-0.1474151611328125,0.718994140625,0.7821197509765625
281762,-0.1722259521484375,0.7017974853515625,0.784393310546875
281763,-0.193817138671875,0.6896209716796875,0.7657318115234375
281764,-0.2010040283203125,0.7017822265625,0.749603271484375
281765,-0.202972412109375,0.7162628173828125,0.728973388671875
281766,-0.21209716796875,0.74798583984375,0.6861114501953125
281767,-0.2150115966796875,0.799163818359375,0.6183013916015625
281768,-0.21673583984375,0.8468170166015625,0.5118255615234375
281769,-0.2071533203125,0.896240234375,0.393035888671875
281770,-0.18145751953125,0.9573516845703124,0.3061981201171875
281771,-0.156585693359375,1.032089233398438,0.268585205078125
281772,-0.1270904541015625,1.106781005859375,0.2723846435546875
281773,-0.109771728515625,1.155181884765625,0.2704315185546875
281774,-0.1065521240234375,1.1624755859375,0.264312744140625
281775,-0.113128662109375,1.1202392578125,0.26055908203125
281776,-0.14373779296875,1.04833984375,0.2564697265625
281777,-0.19256591796875,0.9799346923828124,0.243133544921875
281778,-0.2344818115234375,0.9208831787109376,0.222747802734375
281779,-0.2713165283203125,0.8812408447265625,0.212799072265625
281780,-0.3015899658203125,0.865692138671875,0.23284912109375
281781,-0.3302154541015625,0.86285400390625,0.26336669921875
281782,-0.343414306640625,0.86529541015625,0.3126068115234375
281783,-0.333709716796875,0.88916015625,0.3736419677734375
281784,-0.300048828125,0.9323272705078124,0.411285400390625
281785,-0.2494964599609375,0.9837646484375,0.40838623046875
281786,-0.1954803466796875,1.032546997070312,0.3890533447265625
281787,-0.1298370361328125,1.06201171875,0.36676025390625
281788,-0.042236328125,1.08062744140625,0.350341796875
281789,0.0357666015625,1.101318359375,0.336181640625
281790,0.085906982421875,1.116134643554688,0.3006439208984375
281791,0.1077728271484375,1.136276245117188,0.230560302734375
281792,0.1081085205078125,1.163818359375,0.13812255859375
281793,0.092437744140625,1.1763916015625,0.057464599609375
281794,0.0685882568359375,1.15643310546875,0.0058746337890625
281795,0.0394287109375,1.101806640625,-0.0058441162109375
281796,0.00714111328125,1.045318603515625,0.010650634765625
281797,-0.01580810546875,0.989532470703125,0.056488037109375
281798,-0.03240966796875,0.936859130859375,0.1315155029296875
281799,-0.0414276123046875,0.903472900390625,0.213714599609375
281800,-0.040740966796875,0.884185791015625,0.2691650390625
281801,-0.0442657470703125,0.8677978515625,0.2887725830078125
281802,-0.0546112060546875,0.859649658203125,0.2757720947265625
281803,-0.0662994384765625,0.8439483642578125,0.25616455078125
281804,-0.0716400146484375,0.8301239013671875,0.242462158203125
281805,-0.0830230712890625,0.8255462646484375,0.2400054931640625
281806,-0.092926025390625,0.826385498046875,0.253143310546875
281807,-0.09521484375,0.833038330078125,0.2816619873046875
281808,-0.0995330810546875,0.8461151123046875,0.3153076171875
281809,-0.105865478515625,0.8731842041015625,0.3527679443359375
281810,-0.1163330078125,0.8876495361328125,0.38238525390625
281811,-0.129608154296875,0.8982086181640625,0.3744049072265625
281812,-0.163116455078125,0.9102783203125,0.343780517578125
281813,-0.2085113525390625,0.9233245849609376,0.3568878173828125
281814,-0.2328338623046875,0.9398040771484376,0.3916778564453125
281815,-0.2492828369140625,0.9414215087890624,0.4159698486328125
281816,-0.248077392578125,0.929290771484375,0.4315032958984375
281817,-0.22991943359375,0.9136962890625,0.4285430908203125
281818,-0.221343994140625,0.88629150390625,0.4101409912109375
281819,-0.223114013671875,0.8611297607421875,0.408905029296875
281820,-0.234344482421875,0.84210205078125,0.4266357421875
281821,-0.2640533447265625,0.822662353515625,0.45526123046875
281822,-0.291015625,0.81658935546875,0.4652557373046875
281823,-0.3086700439453125,0.8179779052734375,0.463165283203125
281824,-0.3179779052734375,0.8157958984375,0.4638671875
281825,-0.32000732421875,0.81256103515625,0.47833251953125
281826,-0.3183441162109375,0.8227081298828125,0.49749755859375
281827,-0.3189544677734375,0.84967041015625,0.5039520263671875
281828,-0.319061279296875,0.8919219970703125,0.49554443359375
281829,-0.3121185302734375,0.9445037841796876,0.4660491943359375
281830,-0.303619384765625,0.99139404296875,0.419677734375
281831,-0.2860870361328125,1.050445556640625,0.3629913330078125
281832,-0.247406005859375,1.116836547851562,0.3103790283203125
281833,-0.1930999755859375,1.170364379882812,0.23101806640625
281834,-0.11712646484375,1.184417724609375,0.1332550048828125
281835,-0.0768280029296875,1.19244384765625,0.040496826171875
281836,-0.030487060546875,1.169784545898438,0.0365142822265625
281837,-0.019561767578125,1.082672119140625,0.082061767578125
281838,-0.0332794189453125,1.0196533203125,0.117889404296875
281839,-0.0514678955078125,0.982879638671875,0.1742095947265625
281840,-0.075592041015625,0.9656219482421876,0.257720947265625
281841,-0.0885467529296875,0.956390380859375,0.3317413330078125
281842,-0.101837158203125,0.951995849609375,0.3964385986328125
281843,-0.1136474609375,0.9535369873046876,0.439117431640625
281844,-0.11383056640625,0.9411468505859376,0.4645843505859375
281845,-0.1031494140625,0.9064178466796876,0.46527099609375
281846,-0.070037841796875,0.860382080078125,0.457489013671875
281847,-0.027862548828125,0.82025146484375,0.4551849365234375
281848,-0.00115966796875,0.801483154296875,0.4615020751953125
281849,0.0011444091796875,0.8006744384765625,0.465545654296875
281850,-0.01409912109375,0.8120269775390625,0.4570770263671875
281851,-0.0432586669921875,0.8184051513671875,0.4385986328125
281852,-0.084564208984375,0.8294525146484375,0.4218292236328125
281853,-0.1368408203125,0.8438262939453125,0.40509033203125
281854,-0.2057342529296875,0.8875274658203125,0.40142822265625
281855,-0.2675628662109375,0.977447509765625,0.3975372314453125
281856,-0.3078155517578125,1.082672119140625,0.348175048828125
281857,-0.3393402099609375,1.17987060546875,0.261627197265625
281858,-0.3366241455078125,1.269607543945312,0.1455841064453125
281859,-0.302215576171875,1.329986572265625,0.0402984619140625
281860,-0.2506103515625,1.339950561523438,-0.0414886474609375
281861,-0.17852783203125,1.292129516601562,-0.10394287109375
281862,-0.105072021484375,1.2103271484375,-0.1222076416015625
281863,-0.0536041259765625,1.129623413085938,-0.0965728759765625
281864,-0.00103759765625,1.05352783203125,-0.0651092529296875
281865,0.029571533203125,0.9647064208984376,-0.0658111572265625
281866,0.0269927978515625,0.909332275390625,-0.0159912109375
281867,-0.0006256103515625,0.8938446044921875,0.0770416259765625
281868,-0.04632568359375,0.8946533203125,0.2005462646484375
281869,-0.0995025634765625,0.9014739990234376,0.352508544921875
281870,-0.151580810546875,0.89776611328125,0.44189453125
281871,-0.1988525390625,0.8951416015625,0.43170166015625
281872,-0.2432708740234375,0.9067230224609376,0.402252197265625
281873,-0.297393798828125,0.93988037109375,0.4071044921875
281874,-0.344970703125,0.956512451171875,0.46502685546875
281875,-0.3617401123046875,0.9495697021484376,0.523651123046875
281876,-0.353515625,0.8979339599609375,0.527008056640625
281877,-0.3018035888671875,0.8065032958984375,0.47930908203125
281878,-0.2552490234375,0.7232208251953125,0.45196533203125
281879,-0.221038818359375,0.6879119873046875,0.4486846923828125
281880,-0.1953887939453125,0.6915435791015625,0.4661102294921875
281881,-0.1815643310546875,0.7174072265625,0.487457275390625
281882,-0.179229736328125,0.7454986572265625,0.492340087890625
281883,-0.1837005615234375,0.7713165283203125,0.5042266845703125
281884,-0.192138671875,0.7850341796875,0.533111572265625
281885,-0.2083740234375,0.8023834228515625,0.5768280029296875
281886,-0.217071533203125,0.8196258544921875,0.62689208984375
281887,-0.2187347412109375,0.82867431640625,0.666961669921875
281888,-0.212127685546875,0.825592041015625,0.669097900390625
281889,-0.2057342529296875,0.828216552734375,0.6444091796875
281890,-0.1937103271484375,0.845550537109375,0.60784912109375
281891,-0.192474365234375,0.8726959228515625,0.5710906982421875
281892,-0.1719512939453125,0.8997650146484375,0.525665283203125
281893,-0.1315460205078125,0.9303131103515624,0.4597625732421875
281894,-0.08856201171875,0.9777069091796876,0.3971710205078125
281895,-0.0541839599609375,1.012603759765625,0.3234710693359375
281896,-0.0302734375,1.024978637695312,0.242919921875
281897,-0.01763916015625,1.027618408203125,0.1811065673828125
281898,-0.0125885009765625,1.008956909179688,0.1507110595703125
281899,-0.025543212890625,0.97998046875,0.11419677734375
281900,-0.051177978515625,0.9522552490234376,0.088043212890625
281901,-0.089752197265625,0.9272613525390624,0.1013031005859375
281902,-0.12384033203125,0.91070556640625,0.117645263671875
281903,-0.1574859619140625,0.8994598388671875,0.1222686767578125
281904,-0.1866302490234375,0.8809661865234375,0.1386260986328125
281905,-0.216461181640625,0.8611907958984375,0.1734619140625
281906,-0.25872802734375,0.8478851318359375,0.2151947021484375
281907,-0.3103179931640625,0.8582611083984375,0.2821807861328125
281908,-0.350006103515625,0.9104156494140624,0.361053466796875
281909,-0.3719940185546875,0.9805145263671876,0.4058990478515625
281910,-0.3693084716796875,1.051361083984375,0.39642333984375
281911,-0.31671142578125,1.10205078125,0.347900390625
281912,-0.2220306396484375,1.123703002929688,0.2906646728515625
281913,-0.11480712890625,1.116470336914062,0.2822113037109375
281914,-0.01885986328125,1.104217529296875,0.290618896484375
281915,0.06805419921875,1.098373413085938,0.2985992431640625
281916,0.1360931396484375,1.098159790039062,0.2984466552734375
281917,0.1665496826171875,1.102294921875,0.27935791015625
281918,0.167938232421875,1.104934692382812,0.2437286376953125
281919,0.1308746337890625,1.107131958007812,0.1993865966796875
281920,0.0742340087890625,1.072799682617188,0.1693572998046875
281921,0.014373779296875,1.010818481445312,0.1793060302734375
281922,-0.04443359375,0.9567413330078124,0.230255126953125
281923,-0.0920257568359375,0.916412353515625,0.28411865234375
281924,-0.1210784912109375,0.8629302978515625,0.3055572509765625
281925,-0.1363983154296875,0.825836181640625,0.305145263671875
281926,-0.1429595947265625,0.8127899169921875,0.3044586181640625
281927,-0.132537841796875,0.810699462890625,0.308990478515625
281928,-0.1166229248046875,0.8062744140625,0.3292694091796875
281929,-0.1042327880859375,0.801971435546875,0.3598480224609375
281930,-0.0918426513671875,0.7992706298828125,0.3932342529296875
281931,-0.0772247314453125,0.7896881103515625,0.43280029296875
281932,-0.069427490234375,0.783111572265625,0.473907470703125
281933,-0.0771484375,0.7937469482421875,0.4944915771484375
281934,-0.105072021484375,0.8114013671875,0.492462158203125
281935,-0.139617919921875,0.846832275390625,0.477935791015625
281936,-0.1678009033203125,0.89459228515625,0.4552764892578125
281937,-0.1815643310546875,0.928863525390625,0.425750732421875
281938,-0.1926422119140625,0.9355316162109376,0.39520263671875
281939,-0.202545166015625,0.929290771484375,0.383636474609375
281940,-0.21484375,0.9056243896484376,0.3877105712890625
