time_idx,accelerometerAccelerationX(G),accelerometerAccelerationY(G),accelerometerAccelerationZ(G)
220000,-0.212127685546875,1.022476196289062,0.16583251953125
220001,-0.1989898681640625,0.9454345703125,0.2404632568359375
220002,-0.1776580810546875,0.878448486328125,0.31243896484375
220003,-0.149566650390625,0.816925048828125,0.3561553955078125
220004,-0.138580322265625,0.770111083984375,0.3805389404296875
220005,-0.1437835693359375,0.751251220703125,0.400146484375
220006,-0.1565093994140625,0.7618255615234375,0.4103851318359375
220007,-0.1684417724609375,0.7706146240234375,0.42962646484375
220008,-0.1792144775390625,0.790252685546875,0.4646453857421875
220009,-0.17901611328125,0.8091888427734375,0.4874267578125
220010,-0.1735992431640625,0.815216064453125,0.5036773681640625
220011,-0.1633148193359375,0.8120880126953125,0.5114288330078125
220012,-0.153472900390625,0.8214263916015625,0.5141448974609375
220013,-0.16253662109375,0.8306732177734375,0.52984619140625
220014,-0.1590118408203125,0.817718505859375,0.5330810546875
220015,-0.147491455078125,0.7921600341796875,0.515380859375
220016,-0.1332244873046875,0.7683258056640625,0.5021209716796875
220017,-0.116241455078125,0.7459564208984375,0.492431640625
220018,-0.10906982421875,0.721923828125,0.4801177978515625
220019,-0.109771728515625,0.7100372314453125,0.4676513671875
220020,-0.12322998046875,0.7191162109375,0.4758148193359375
220021,-0.1415557861328125,0.735015869140625,0.49761962890625
220022,-0.160552978515625,0.75750732421875,0.5180511474609375
220023,-0.2007293701171875,0.762847900390625,0.53515625
220024,-0.25628662109375,0.78021240234375,0.5556793212890625
220025,-0.3119354248046875,0.8081512451171875,0.5747833251953125
220026,-0.3640899658203125,0.8307952880859375,0.5718231201171875
220027,-0.390350341796875,0.856048583984375,0.5493927001953125
220028,-0.392852783203125,0.890594482421875,0.5115509033203125
220029,-0.37200927734375,0.947845458984375,0.4692230224609375
220030,-0.326568603515625,1.0274658203125,0.4303436279296875
220031,-0.25799560546875,1.115341186523438,0.40087890625
220032,-0.172607421875,1.170333862304688,0.381256103515625
220033,-0.1289520263671875,1.21551513671875,0.293975830078125
220034,-0.1121673583984375,1.239791870117188,0.2602386474609375
220035,-0.1120147705078125,1.210739135742188,0.253448486328125
220036,-0.150421142578125,1.154632568359375,0.2165985107421875
220037,-0.203369140625,1.093505859375,0.16339111328125
220038,-0.25347900390625,1.031417846679688,0.126953125
220039,-0.292022705078125,0.9821624755859376,0.1084442138671875
220040,-0.32373046875,0.955078125,0.0816497802734375
220041,-0.3520355224609375,0.9414825439453124,0.0814666748046875
220042,-0.37322998046875,0.9345855712890624,0.135498046875
220043,-0.4033966064453125,0.912322998046875,0.2099609375
220044,-0.4347686767578125,0.867645263671875,0.28656005859375
220045,-0.452667236328125,0.81298828125,0.355010986328125
220046,-0.45330810546875,0.7640838623046875,0.404632568359375
220047,-0.4260406494140625,0.7426300048828125,0.4097137451171875
220048,-0.3632659912109375,0.75628662109375,0.384429931640625
220049,-0.282745361328125,0.7878265380859375,0.3668670654296875
220050,-0.2082672119140625,0.82110595703125,0.3748626708984375
220051,-0.1399993896484375,0.84503173828125,0.395355224609375
220052,-0.0912322998046875,0.873748779296875,0.407440185546875
220053,-0.048187255859375,0.9066314697265624,0.4027252197265625
220054,-0.0146026611328125,0.9448394775390624,0.3828887939453125
220055,0.0061492919921875,0.9804229736328124,0.344268798828125
220056,0.0136566162109375,0.9981536865234376,0.3071746826171875
220057,0.0086517333984375,0.9986572265625,0.282684326171875
220058,0.001373291015625,0.977325439453125,0.2547760009765625
220059,-0.0023193359375,0.93634033203125,0.2217254638671875
220060,-0.0008392333984375,0.8992919921875,0.1936798095703125
220061,0.0061187744140625,0.8855743408203125,0.1804656982421875
220062,0.0178375244140625,0.8938446044921875,0.1779022216796875
220063,0.0384368896484375,0.905487060546875,0.18072509765625
220064,0.0538330078125,0.90753173828125,0.1821441650390625
220065,0.0446014404296875,0.9171600341796876,0.1801910400390625
220066,0.0138092041015625,0.92242431640625,0.1814422607421875
220067,-0.0282135009765625,0.9144134521484376,0.1827392578125
220068,-0.06591796875,0.9095001220703124,0.192169189453125
220069,-0.1037750244140625,0.91387939453125,0.2377471923828125
220070,-0.1486663818359375,0.9297943115234376,0.3326568603515625
220071,-0.2012939453125,0.9488525390625,0.4809417724609375
220072,-0.2586822509765625,0.953521728515625,0.5986480712890625
220073,-0.3100128173828125,0.9243927001953124,0.6073760986328125
220074,-0.3524932861328125,0.886322021484375,0.5331573486328125
220075,-0.39794921875,0.8632659912109375,0.4379425048828125
220076,-0.431396484375,0.846710205078125,0.392730712890625
220077,-0.43316650390625,0.820465087890625,0.382537841796875
220078,-0.4262542724609375,0.792510986328125,0.3931121826171875
220079,-0.4089813232421875,0.7476959228515625,0.4382476806640625
220080,-0.38275146484375,0.70452880859375,0.4815673828125
220081,-0.3488616943359375,0.6705474853515625,0.54241943359375
220082,-0.3048858642578125,0.65472412109375,0.605224609375
220083,-0.28082275390625,0.7017822265625,0.6514129638671875
220084,-0.310028076171875,0.8049163818359375,0.686279296875
220085,-0.3795318603515625,0.874481201171875,0.6881256103515625
220086,-0.4390869140625,0.9051055908203124,0.6635589599609375
220087,-0.4651641845703125,0.9024810791015624,0.619781494140625
220088,-0.475006103515625,0.904144287109375,0.56646728515625
220089,-0.4866790771484375,0.9322357177734376,0.5039520263671875
220090,-0.4941864013671875,0.987640380859375,0.420166015625
220091,-0.48956298828125,1.05902099609375,0.3251190185546875
220092,-0.46917724609375,1.129165649414062,0.2342529296875
220093,-0.418243408203125,1.17108154296875,0.1573944091796875
220094,-0.3382568359375,1.191940307617188,0.079376220703125
220095,-0.25,1.174041748046875,0.0238037109375
220096,-0.15386962890625,1.108078002929688,0.0100250244140625
220097,-0.07177734375,1.025390625,0.044097900390625
220098,-0.0125274658203125,0.9514007568359376,0.1216888427734375
220099,0.014739990234375,0.8845672607421875,0.2198638916015625
220100,0.0362091064453125,0.857696533203125,0.3125
220101,0.02801513671875,0.8329620361328125,0.38507080078125
220102,-0.0179901123046875,0.8347930908203125,0.43634033203125
220103,-0.08294677734375,0.8550872802734375,0.455535888671875
220104,-0.1397552490234375,0.8684844970703125,0.41552734375
220105,-0.17236328125,0.87799072265625,0.36737060546875
220106,-0.1879425048828125,0.906982421875,0.3189849853515625
220107,-0.18536376953125,0.9564208984375,0.2789764404296875
220108,-0.186798095703125,1.017684936523438,0.2546234130859375
220109,-0.20458984375,1.06536865234375,0.24224853515625
220110,-0.2476043701171875,1.123550415039062,0.2322845458984375
220111,-0.31304931640625,1.180572509765625,0.216796875
220112,-0.369659423828125,1.234024047851562,0.14959716796875
220113,-0.4033660888671875,1.26007080078125,0.0474090576171875
220114,-0.425323486328125,1.258193969726562,-0.044952392578125
220115,-0.436920166015625,1.2454833984375,-0.0721282958984375
220116,-0.4309844970703125,1.222915649414062,-0.03643798828125
220117,-0.407012939453125,1.19195556640625,0.0004730224609375
220118,-0.370880126953125,1.150527954101562,0.014495849609375
220119,-0.3303985595703125,1.10089111328125,0.01324462890625
220120,-0.2831878662109375,1.038909912109375,0.0179290771484375
220121,-0.230560302734375,0.973175048828125,0.0583343505859375
220122,-0.1872711181640625,0.9016876220703124,0.1234130859375
220123,-0.1573028564453125,0.8500213623046875,0.209991455078125
220124,-0.14263916015625,0.8468780517578125,0.3379669189453125
220125,-0.1342620849609375,0.85833740234375,0.49542236328125
220126,-0.13690185546875,0.85260009765625,0.6158294677734375
220127,-0.1416015625,0.832305908203125,0.5940704345703125
220128,-0.1492156982421875,0.8253173828125,0.5192413330078125
220129,-0.1591796875,0.8281707763671875,0.4494476318359375
220130,-0.1532745361328125,0.847442626953125,0.39080810546875
220131,-0.1455078125,0.8822784423828125,0.3644866943359375
220132,-0.13580322265625,0.909027099609375,0.3732757568359375
220133,-0.1192474365234375,0.90692138671875,0.3760986328125
220134,-0.115478515625,0.855560302734375,0.3822479248046875
220135,-0.1210174560546875,0.7654876708984375,0.3870086669921875
220136,-0.142547607421875,0.6888427734375,0.3823089599609375
220137,-0.164093017578125,0.662139892578125,0.3654632568359375
220138,-0.1880340576171875,0.673797607421875,0.347808837890625
220139,-0.2122039794921875,0.6933746337890625,0.340057373046875
220140,-0.235931396484375,0.716156005859375,0.343994140625
220141,-0.2679443359375,0.7519378662109375,0.3697357177734375
220142,-0.3041839599609375,0.7889556884765625,0.4189453125
220143,-0.33343505859375,0.8359527587890625,0.488555908203125
220144,-0.3536376953125,0.8806304931640625,0.5461883544921875
220145,-0.362274169921875,0.91107177734375,0.568359375
220146,-0.347747802734375,0.918060302734375,0.543609619140625
220147,-0.32708740234375,0.920166015625,0.4743499755859375
220148,-0.28497314453125,0.9174957275390624,0.416961669921875
220149,-0.231536865234375,0.9241485595703124,0.3840179443359375
220150,-0.1854095458984375,0.95281982421875,0.3670806884765625
220151,-0.1457977294921875,0.992401123046875,0.3604583740234375
220152,-0.117706298828125,1.02734375,0.3402099609375
220153,-0.1069793701171875,1.056930541992188,0.301605224609375
220154,-0.1155548095703125,1.078094482421875,0.257537841796875
220155,-0.135833740234375,1.08575439453125,0.2049560546875
220156,-0.1612701416015625,1.07489013671875,0.156158447265625
220157,-0.180511474609375,1.052871704101562,0.1141510009765625
220158,-0.197113037109375,1.01904296875,0.074127197265625
220159,-0.212310791015625,0.977325439453125,0.0503997802734375
220160,-0.233154296875,0.9267730712890624,0.0395660400390625
220161,-0.2599639892578125,0.8800048828125,0.045562744140625
220162,-0.30169677734375,0.85284423828125,0.078155517578125
220163,-0.3567962646484375,0.8512725830078125,0.15179443359375
220164,-0.4206390380859375,0.86627197265625,0.2800140380859375
220165,-0.47161865234375,0.880615234375,0.45355224609375
220166,-0.486602783203125,0.894439697265625,0.569732666015625
220167,-0.45086669921875,0.9179229736328124,0.571014404296875
220168,-0.3863677978515625,0.9277801513671876,0.505279541015625
220169,-0.337982177734375,0.92388916015625,0.461456298828125
220170,-0.3040313720703125,0.9109954833984376,0.4248199462890625
220171,-0.259185791015625,0.8807373046875,0.3946075439453125
220172,-0.2053985595703125,0.865020751953125,0.3877716064453125
220173,-0.15191650390625,0.881103515625,0.3824920654296875
220174,-0.104034423828125,0.8975372314453125,0.3668212890625
220175,-0.07122802734375,0.9019012451171876,0.3372802734375
220176,-0.0600738525390625,0.8931121826171875,0.30413818359375
220177,-0.0675048828125,0.8819427490234375,0.2554931640625
220178,-0.08441162109375,0.8824005126953125,0.201446533203125
220179,-0.1044464111328125,0.8995819091796875,0.162322998046875
220180,-0.1226348876953125,0.924530029296875,0.1362457275390625
220181,-0.126739501953125,0.9288482666015624,0.1118316650390625
220182,-0.1143798828125,0.914093017578125,0.0969696044921875
220183,-0.0987548828125,0.8911895751953125,0.097625732421875
220184,-0.082763671875,0.86248779296875,0.1083526611328125
220185,-0.0627288818359375,0.8468780517578125,0.11810302734375
220186,-0.0435943603515625,0.85528564453125,0.1172332763671875
220187,-0.0211639404296875,0.888824462890625,0.105255126953125
220188,-0.0005340576171875,0.94085693359375,0.08477783203125
220189,0.014984130859375,0.9986572265625,0.06463623046875
220190,0.0197601318359375,1.050094604492188,0.0556640625
220191,0.0072479248046875,1.095932006835938,0.0878753662109375
220192,-0.04437255859375,1.122238159179688,0.170989990234375
220193,-0.130645751953125,1.129180908203125,0.25933837890625
220194,-0.2203216552734375,1.087249755859375,0.3165283203125
220195,-0.287109375,1.033843994140625,0.32904052734375
220196,-0.3429718017578125,0.9685821533203124,0.3296966552734375
220197,-0.4005889892578125,0.8785552978515625,0.338836669921875
220198,-0.463134765625,0.80303955078125,0.3942108154296875
220199,-0.5459136962890625,0.7822265625,0.56707763671875
220200,-0.6230316162109375,0.848419189453125,0.96295166015625
220201,-0.673553466796875,0.9600677490234376,1.310562133789062
220202,-0.6527862548828125,1.017166137695312,1.096221923828125
220203,-0.618194580078125,1.00469970703125,0.79498291015625
220204,-0.6221466064453125,0.971954345703125,0.646087646484375
220205,-0.6006927490234375,0.89093017578125,0.5794219970703125
220206,-0.55352783203125,0.73516845703125,0.526763916015625
220207,-0.4972381591796875,0.6100006103515625,0.4764404296875
220208,-0.4661865234375,0.5970916748046875,0.46673583984375
220209,-0.4569091796875,0.663055419921875,0.491607666015625
220210,-0.4428558349609375,0.7381744384765625,0.520660400390625
220211,-0.4050445556640625,0.8167266845703125,0.50537109375
220212,-0.33184814453125,0.9036712646484376,0.4367523193359375
220213,-0.2216339111328125,0.9962310791015624,0.3755340576171875
220214,-0.1147003173828125,1.0936279296875,0.3143463134765625
220215,-0.0153045654296875,1.181304931640625,0.1982879638671875
220216,0.0840911865234375,1.200653076171875,0.065460205078125
220217,0.1859130859375,1.164169311523438,-0.0492095947265625
220218,0.26483154296875,1.096923828125,-0.1430206298828125
220219,0.2877349853515625,1.043380737304688,-0.207977294921875
220220,0.215606689453125,1.0196533203125,-0.1433868408203125
220221,0.077484130859375,1.02789306640625,0.128204345703125
220222,-0.068023681640625,1.042022705078125,0.5191192626953125
220223,-0.18890380859375,0.9872894287109376,0.8117218017578125
220224,-0.23565673828125,0.8503570556640625,0.8249969482421875
220225,-0.2187957763671875,0.7508392333984375,0.618896484375
220226,-0.1819915771484375,0.7382354736328125,0.3858642578125
220227,-0.144134521484375,0.7786102294921875,0.21026611328125
220228,-0.113555908203125,0.8363189697265625,0.0810546875
220229,-0.1121673583984375,0.8853912353515625,0.01214599609375
220230,-0.1063079833984375,0.9095458984375,0.0531768798828125
220231,-0.109527587890625,0.9439697265625,0.09234619140625
220232,-0.1035308837890625,0.9904632568359376,0.083953857421875
220233,-0.082550048828125,1.055816650390625,0.0645904541015625
220234,-0.0695343017578125,1.124542236328125,0.0430908203125
220235,-0.0742340087890625,1.171173095703125,0.0102996826171875
220236,-0.10986328125,1.215988159179688,-0.0439300537109375
220237,-0.160369873046875,1.27716064453125,-0.0910491943359375
220238,-0.2041473388671875,1.342376708984375,-0.096466064453125
220239,-0.2360687255859375,1.3851318359375,-0.0135955810546875
220240,-0.2624053955078125,1.38275146484375,0.1947479248046875
220241,-0.2954864501953125,1.326690673828125,0.510986328125
220242,-0.3096771240234375,1.174270629882812,0.7767486572265625
220243,-0.29449462890625,0.891448974609375,0.820404052734375
220244,-0.279449462890625,0.6539459228515625,0.6461334228515625
220245,-0.30181884765625,0.5819244384765625,0.50579833984375
220246,-0.3265380859375,0.6018829345703125,0.51263427734375
220247,-0.325347900390625,0.628173828125,0.6748809814453125
220248,-0.31634521484375,0.6502532958984375,0.871673583984375
220249,-0.3061981201171875,0.660491943359375,0.9846954345703124
220250,-0.3210601806640625,0.6549224853515625,0.96173095703125
220251,-0.3648529052734375,0.6417999267578125,0.802215576171875
220252,-0.4026336669921875,0.5935516357421875,0.6576080322265625
220253,-0.416351318359375,0.549224853515625,0.5762481689453125
220254,-0.428955078125,0.560150146484375,0.54998779296875
220255,-0.44085693359375,0.6438140869140625,0.54327392578125
220256,-0.4315643310546875,0.819610595703125,0.530609130859375
220257,-0.3977813720703125,1.005035400390625,0.5156707763671875
220258,-0.35089111328125,1.207275390625,0.502838134765625
220259,-0.3016815185546875,1.44781494140625,0.457550048828125
220260,-0.2269134521484375,1.670440673828125,0.3124237060546875
220261,-0.1027069091796875,1.799407958984375,0.1229705810546875
220262,0.0890045166015625,1.749099731445312,-0.0826416015625
220263,0.2641448974609375,1.485916137695312,-0.22711181640625
220264,0.2825775146484375,1.093338012695312,-0.240753173828125
220265,0.20196533203125,0.781494140625,-0.1566925048828125
220266,0.115966796875,0.5641326904296875,-0.0765533447265625
220267,0.043853759765625,0.4182281494140625,-0.0172119140625
220268,-0.02069091796875,0.313018798828125,0.0314788818359375
220269,-0.081817626953125,0.234344482421875,0.058502197265625
220270,-0.123321533203125,0.1637115478515625,0.11737060546875
220271,-0.1306304931640625,0.0991668701171875,0.326904296875
220272,-0.1480712890625,0.064361572265625,0.7627105712890625
220273,-0.1881256103515625,0.1570281982421875,1.268997192382812
220274,-0.2020416259765625,0.2845458984375,1.283523559570312
220275,-0.1719970703125,0.3959503173828125,1.009201049804688
220276,-0.13531494140625,0.485015869140625,0.7671966552734375
220277,-0.115631103515625,0.565704345703125,0.5742034912109375
220278,-0.11114501953125,0.69366455078125,0.3949432373046875
220279,-0.1127166748046875,0.8463897705078125,0.24072265625
220280,-0.073760986328125,1.021087646484375,0.130157470703125
220281,-0.0044708251953125,1.214447021484375,0.010711669921875
220282,0.057586669921875,1.42877197265625,-0.1614990234375
220283,0.064361572265625,1.695098876953125,-0.2133026123046875
220284,-0.023651123046875,1.975662231445312,0.0232391357421875
220285,-0.200347900390625,2.203765869140625,0.294891357421875
220286,-0.4610443115234375,2.312149047851562,0.32928466796875
220287,-0.7191314697265625,2.183319091796875,0.318817138671875
220288,-0.8928985595703125,1.9976806640625,0.2342681884765625
220289,-1.011444091796875,1.765365600585938,0.0913543701171875
220290,-1.007339477539062,1.493728637695312,0.0677490234375
220291,-0.9200592041015624,1.25439453125,0.2191162109375
220292,-0.8137969970703125,1.1756591796875,0.402557373046875
220293,-0.5723114013671875,1.239608764648438,0.5085296630859375
220294,-0.365631103515625,1.319198608398438,0.559539794921875
220295,-0.219818115234375,1.367630004882812,0.48309326171875
220296,-0.0900421142578125,1.38494873046875,0.32879638671875
220297,0.0037384033203125,1.366058349609375,0.1650543212890625
220298,0.086761474609375,1.330230712890625,0.061279296875
220299,0.1143646240234375,1.252578735351562,0.0123138427734375
220300,0.07489013671875,1.113433837890625,0.020782470703125
220301,-0.0313262939453125,0.860382080078125,0.09735107421875
220302,-0.11590576171875,0.574432373046875,0.1695556640625
220303,-0.160186767578125,0.333587646484375,0.21917724609375
220304,-0.185516357421875,0.111663818359375,0.3082275390625
220305,-0.1998443603515625,-0.0756072998046875,0.42498779296875
220306,-0.18963623046875,-0.2179718017578125,0.460357666015625
220307,-0.1573944091796875,-0.3254241943359375,0.3591766357421875
220308,-0.1191253662109375,-0.4059295654296875,0.2495880126953125
220309,-0.06256103515625,-0.445587158203125,0.17730712890625
220310,-0.0218505859375,-0.4630126953125,0.1349334716796875
220311,0.0058746337890625,-0.4610748291015625,0.151123046875
220312,0.0251007080078125,-0.4309539794921875,0.2362060546875
220313,0.0352630615234375,-0.3802032470703125,0.2659149169921875
220314,0.0632476806640625,-0.285797119140625,0.1973876953125
220315,0.107147216796875,-0.1780242919921875,0.1345672607421875
220316,0.133148193359375,-0.060577392578125,0.1114654541015625
220317,0.078857421875,0.0707550048828125,0.080780029296875
220318,-0.124603271484375,0.267333984375,-0.0175933837890625
220319,-0.4169158935546875,0.594390869140625,-0.10064697265625
220320,-0.643157958984375,0.99725341796875,-0.00885009765625
220321,-0.6098175048828125,1.370285034179688,0.42572021484375
220322,-0.77239990234375,2.235885620117188,0.7384033203125
220323,-1.232879638671875,3.685791015625,0.3644561767578125
220324,-1.48553466796875,5.131759643554688,-0.1071624755859375
220325,-0.906402587890625,5.281524658203125,-0.2610015869140625
220326,-0.3675994873046875,4.919052124023438,-0.691436767578125
220327,-0.0531158447265625,3.64324951171875,-0.5131378173828125
220328,0.0858001708984375,2.455047607421875,-0.1692047119140625
220329,0.1139373779296875,1.711013793945312,-0.0379638671875
220330,0.1109771728515625,1.242568969726562,0.1425628662109375
220331,0.1588592529296875,0.850799560546875,1.065322875976562
220332,0.1380767822265625,0.502288818359375,1.406890869140625
220333,0.0543365478515625,0.461029052734375,0.8559112548828125
220334,0.0041046142578125,0.474761962890625,0.6376800537109375
220335,-0.0592193603515625,0.4899749755859375,0.42205810546875
220336,-0.1540985107421875,0.5556793212890625,0.245025634765625
220337,-0.2588348388671875,0.6371307373046875,0.1416168212890625
220338,-0.341766357421875,0.6750335693359375,0.0385894775390625
220339,-0.398590087890625,0.634918212890625,-0.0352020263671875
220340,-0.4007415771484375,0.528045654296875,-0.0436859130859375
220341,-0.35955810546875,0.387725830078125,0.00469970703125
220342,-0.3128204345703125,0.2717437744140625,0.0697174072265625
220343,-0.2735748291015625,0.1820220947265625,0.134307861328125
220344,-0.24664306640625,0.0923919677734375,0.2451171875
220345,-0.2506561279296875,-0.031005859375,0.628662109375
220346,-0.2943572998046875,-0.1311492919921875,0.883087158203125
220347,-0.2995147705078125,-0.1632080078125,0.765533447265625
220348,-0.240203857421875,-0.1632232666015625,0.5703277587890625
220349,-0.2136688232421875,-0.15234375,0.371917724609375
220350,-0.2242279052734375,-0.120697021484375,0.2297515869140625
220351,-0.248443603515625,0.0003662109375,0.135955810546875
220352,-0.2751312255859375,0.1776123046875,0.0758056640625
220353,-0.291107177734375,0.333892822265625,0.0678558349609375
220354,-0.2982177734375,0.4723358154296875,0.07891845703125
220355,-0.31396484375,0.6273193359375,0.086456298828125
220356,-0.32501220703125,0.812530517578125,0.0972442626953125
220357,-0.3093109130859375,0.998626708984375,0.0980987548828125
220358,-0.2758636474609375,1.208633422851562,0.115570068359375
220359,-0.2350006103515625,1.446395874023438,0.135040283203125
220360,-0.16326904296875,1.703369140625,0.11474609375
220361,0.0033111572265625,1.989791870117188,-0.0187835693359375
220362,0.196441650390625,2.278915405273438,-0.298370361328125
220363,0.36138916015625,2.55450439453125,-0.5486602783203125
220364,0.4498138427734375,2.697601318359375,-0.738006591796875
220365,0.48443603515625,2.584869384765625,-0.87677001953125
220366,0.5054779052734375,2.356521606445312,-0.95013427734375
220367,0.436859130859375,2.07647705078125,-0.9265594482421876
220368,0.3365631103515625,1.754669189453125,-0.7798614501953125
220369,0.2566986083984375,1.421615600585938,-0.6376495361328125
220370,0.1795806884765625,1.116058349609375,-0.55206298828125
220371,0.1126556396484375,0.8633270263671875,-0.4730682373046875
220372,0.06207275390625,0.6456146240234375,-0.3939971923828125
220373,0.0420989990234375,0.460052490234375,-0.255401611328125
220374,0.0380401611328125,0.284881591796875,-0.096771240234375
220375,0.0326385498046875,0.15118408203125,0.0399169921875
220376,-0.0130462646484375,0.0592803955078125,0.079803466796875
220377,-0.1776123046875,0.0244140625,-0.042572021484375
220378,-0.3531494140625,0.0009002685546875,0.16754150390625
220379,-0.35968017578125,-0.0444488525390625,1.130996704101562
220380,-0.35516357421875,0.2247772216796875,1.172042846679688
220381,-0.2101287841796875,0.3920440673828125,0.9964141845703124
220382,-0.1483917236328125,0.315673828125,0.80987548828125
220383,-0.1482391357421875,0.2228851318359375,0.597442626953125
220384,-0.1446685791015625,0.14691162109375,0.36199951171875
220385,-0.149749755859375,0.0915374755859375,0.0683135986328125
220386,-0.2410736083984375,0.071380615234375,-0.1088714599609375
220387,-0.3518829345703125,0.13543701171875,-0.0630950927734375
220388,-0.4235687255859375,0.2567596435546875,0.1552886962890625
220389,-0.4644927978515625,0.3734283447265625,0.518646240234375
220390,-0.4216156005859375,0.4589080810546875,0.94647216796875
220391,-0.2774810791015625,0.37744140625,1.150283813476562
220392,-0.2010498046875,0.2640380859375,1.039627075195312
220393,-0.2140655517578125,0.3188934326171875,0.87750244140625
220394,-0.3112030029296875,0.6136627197265625,0.8376922607421875
220395,-0.478057861328125,1.03497314453125,0.80712890625
220396,-0.5629119873046875,1.412261962890625,0.9267578125
220397,-0.5940093994140625,1.808425903320312,1.224136352539062
220398,-0.6782073974609375,2.336456298828125,1.324371337890625
220399,-0.867156982421875,3.09332275390625,0.8751373291015625
220400,-0.9727783203125,3.962142944335938,0.4439697265625
220401,-0.851409912109375,4.5361328125,0.1350250244140625
220402,-0.38336181640625,4.548110961914062,0.1146240234375
220403,0.02008056640625,4.07183837890625,0.094451904296875
220404,0.08099365234375,3.174179077148438,-0.0192718505859375
220405,0.1001434326171875,2.3492431640625,-0.0089874267578125
220406,0.1063385009765625,1.764862060546875,0.066741943359375
220407,0.1108551025390625,1.283721923828125,0.19232177734375
220408,0.1461029052734375,0.8768310546875,0.4432373046875
220409,0.107421875,0.5540618896484375,0.77777099609375
220410,-0.0086212158203125,0.279449462890625,1.076278686523438
220411,-0.1068878173828125,0.1160125732421875,1.011550903320312
220412,-0.125152587890625,0.05560302734375,0.7428131103515625
220413,-0.1155242919921875,0.0560455322265625,0.5683746337890625
220414,-0.1214447021484375,0.0699920654296875,0.329132080078125
220415,-0.129119873046875,0.0654754638671875,0.1474761962890625
220416,-0.1167755126953125,0.046630859375,0.07061767578125
220417,-0.0898895263671875,0.018524169921875,0.0375823974609375
220418,-0.06890869140625,-0.032379150390625,0.0062408447265625
220419,-0.049957275390625,-0.0999755859375,-0.01348876953125
220420,-0.0351104736328125,-0.168426513671875,-0.01416015625
220421,-0.0244293212890625,-0.23468017578125,-0.0246124267578125
220422,-0.020782470703125,-0.28521728515625,-0.023162841796875
220423,-0.0381622314453125,-0.3290557861328125,0.0280609130859375
220424,-0.080718994140625,-0.3499603271484375,0.13714599609375
220425,-0.149749755859375,-0.320709228515625,0.235748291015625
220426,-0.24725341796875,-0.189849853515625,0.3351287841796875
220427,-0.3408355712890625,0.0438079833984375,0.427520751953125
220428,-0.389678955078125,0.2957305908203125,0.3738861083984375
220429,-0.3724517822265625,0.5008697509765625,0.286956787109375
220430,-0.3103790283203125,0.6719207763671875,0.252899169921875
220431,-0.2916259765625,0.9035797119140624,0.2017669677734375
220432,-0.2453155517578125,1.22412109375,0.1363983154296875
220433,-0.148040771484375,1.616958618164062,0.0259552001953125
220434,-0.049072265625,2.093734741210938,-0.1031036376953125
220435,0.04425048828125,2.583038330078125,-0.2672271728515625
220436,0.094940185546875,2.9896240234375,-0.3269500732421875
220437,0.0788726806640625,3.171066284179688,-0.3198089599609375
220438,0.062164306640625,2.919906616210938,-0.3547210693359375
220439,0.11651611328125,2.312591552734375,-0.3685302734375
220440,0.124664306640625,1.75946044921875,-0.4202728271484375
220441,0.1069183349609375,1.360015869140625,-0.43719482421875
220442,0.0919647216796875,1.082687377929688,-0.3924407958984375
220443,0.0816497802734375,0.828460693359375,-0.337249755859375
220444,0.06402587890625,0.606231689453125,-0.293365478515625
220445,0.0390472412109375,0.3985748291015625,-0.2634429931640625
220446,0.0219268798828125,0.23468017578125,-0.2315826416015625
220447,0.0190277099609375,0.1256103515625,-0.18426513671875
220448,0.0257720947265625,0.062347412109375,-0.12701416015625
220449,0.024871826171875,0.034698486328125,-0.0822906494140625
220450,-0.0009307861328125,0.0374755859375,-0.089996337890625
220451,-0.095123291015625,0.1493682861328125,-0.20257568359375
220452,-0.097869873046875,0.3651275634765625,-0.1322784423828125
220453,0.0487060546875,0.4386138916015625,0.4532470703125
220454,0.0284271240234375,0.72344970703125,1.899169921875
220455,-0.111358642578125,0.8483428955078125,1.878219604492188
220456,-0.1168365478515625,0.3669891357421875,1.272857666015625
220457,-0.09136962890625,0.1365203857421875,0.743560791015625
220458,-0.095245361328125,0.10015869140625,0.281463623046875
220459,-0.095977783203125,0.07489013671875,0.06195068359375
220460,-0.0876312255859375,0.042755126953125,0.0104522705078125
220461,-0.074615478515625,0.030914306640625,-0.0336761474609375
220462,-0.084503173828125,0.0524749755859375,-0.0699462890625
220463,-0.1173553466796875,0.087249755859375,-0.05987548828125
220464,-0.174530029296875,0.1502838134765625,0.0528717041015625
220465,-0.236419677734375,0.285552978515625,0.2803497314453125
220466,-0.3059234619140625,0.4606781005859375,0.4276885986328125
220467,-0.3918609619140625,0.6717376708984375,0.3812408447265625
220468,-0.4851226806640625,0.9116973876953124,0.3305206298828125
220469,-0.504547119140625,1.257308959960938,0.5777740478515625
220470,-0.6925811767578125,2.163864135742188,1.016571044921875
220471,-1.036468505859375,3.890579223632812,0.996734619140625
220472,-1.217147827148438,5.995712280273438,0.5905609130859375
220473,-0.71038818359375,6.992965698242188,0.3827056884765625
220474,0.1260833740234375,6.4532470703125,-0.2278289794921875
220475,0.55059814453125,4.542556762695312,-0.47149658203125
220476,0.386260986328125,2.9525146484375,-0.2026519775390625
220477,0.1818695068359375,2.076080322265625,-0.0730438232421875
220478,0.0250091552734375,1.494857788085938,0.0430145263671875
220479,-0.1587677001953125,0.9615325927734376,0.1648406982421875
220480,-0.227691650390625,0.6256256103515625,0.8647613525390625
220481,-0.351043701171875,0.40179443359375,1.571182250976562
220482,-0.400421142578125,0.330841064453125,1.492935180664062
220483,-0.2900238037109375,0.3035125732421875,1.24969482421875
220484,-0.214630126953125,0.2748565673828125,0.786407470703125
220485,-0.199249267578125,0.250274658203125,0.4324493408203125
220486,-0.1863861083984375,0.2453765869140625,0.2137451171875
220487,-0.171295166015625,0.2336578369140625,0.0354461669921875
220488,-0.1558837890625,0.193939208984375,-0.0678558349609375
220489,-0.1332855224609375,0.1374053955078125,-0.1014404296875
220490,-0.10919189453125,0.061798095703125,-0.1140594482421875
220491,-0.071014404296875,-0.0064697265625,-0.0580596923828125
220492,-0.0353851318359375,-0.096343994140625,0.03533935546875
220493,-0.0187530517578125,-0.166900634765625,0.1222381591796875
220494,-0.012725830078125,-0.1762847900390625,0.1752166748046875
220495,-0.04052734375,-0.181396484375,0.1742706298828125
220496,-0.07476806640625,-0.201873779296875,0.1856536865234375
220497,-0.0933837890625,-0.2166595458984375,0.2863922119140625
220498,-0.1136627197265625,-0.2025909423828125,0.387939453125
220499,-0.16668701171875,-0.1603851318359375,0.3965911865234375
220500,-0.2503814697265625,-0.0611572265625,0.2785186767578125
220501,-0.3180999755859375,0.06536865234375,0.1507415771484375
220502,-0.351409912109375,0.2267303466796875,0.0903778076171875
220503,-0.366729736328125,0.386962890625,0.0807342529296875
220504,-0.4120941162109375,0.5761566162109375,0.069000244140625
220505,-0.4857025146484375,0.821502685546875,0.0682830810546875
220506,-0.5225830078125,1.104278564453125,0.0720672607421875
220507,-0.49749755859375,1.435760498046875,0.02996826171875
220508,-0.3914794921875,1.871246337890625,-0.11627197265625
220509,-0.125457763671875,2.341751098632812,-0.5180206298828125
220510,0.1194305419921875,2.791595458984375,-1.1259765625
220511,0.3791351318359375,3.119659423828125,-1.493743896484375
220512,0.672882080078125,2.947723388671875,-0.947113037109375
220513,0.665435791015625,2.281997680664062,-0.5637359619140625
220514,0.5311279296875,1.7216796875,-0.45660400390625
220515,0.408477783203125,1.259017944335938,-0.25921630859375
220516,0.2914886474609375,0.926361083984375,-0.1114349365234375
220517,0.189239501953125,0.67047119140625,-0.007904052734375
220518,0.1275787353515625,0.46337890625,0.087310791015625
220519,0.084503173828125,0.2905120849609375,0.1720123291015625
220520,0.0410003662109375,0.1024932861328125,0.34771728515625
220521,-0.0082550048828125,-0.08197021484375,0.55126953125
220522,-0.070159912109375,-0.1583099365234375,0.4690399169921875
220523,-0.1374969482421875,-0.1745452880859375,0.2021026611328125
220524,-0.0675811767578125,-0.241058349609375,0.4287261962890625
220525,-0.0496368408203125,-0.292388916015625,0.5634765625
220526,-0.12567138671875,-0.2553253173828125,0.4596099853515625
220527,-0.2028350830078125,-0.1276397705078125,0.494354248046875
220528,-0.189239501953125,0.021636962890625,0.707305908203125
220529,-0.1885528564453125,0.13861083984375,0.6576995849609375
220530,-0.22686767578125,0.320037841796875,0.5123443603515625
220531,-0.278839111328125,0.5400390625,0.4507293701171875
220532,-0.3359527587890625,0.7298126220703125,0.403717041015625
220533,-0.37445068359375,0.8802947998046875,0.407684326171875
220534,-0.3985443115234375,0.98333740234375,0.53692626953125
220535,-0.459808349609375,0.8985748291015625,0.7198944091796875
220536,-0.5293426513671875,0.6130828857421875,0.8052825927734375
220537,-0.5696563720703125,0.587921142578125,0.755157470703125
220538,-0.6406707763671875,0.740142822265625,0.66015625
220539,-0.690673828125,0.9793853759765624,0.6395111083984375
220540,-0.6522674560546875,1.254959106445312,0.771240234375
220541,-0.5630340576171875,1.513595581054688,0.9760894775390624
220542,-0.5584564208984375,2.01959228515625,1.061599731445312
220543,-0.72418212890625,3.083480834960938,0.7447357177734375
220544,-0.822998046875,4.74224853515625,0.15606689453125
220545,-0.509429931640625,5.953262329101562,-0.5305938720703125
220546,0.146270751953125,6.121566772460938,-0.83966064453125
220547,0.5930938720703125,4.7576904296875,-0.64959716796875
220548,0.6340179443359375,3.174346923828125,-0.29742431640625
220549,0.4257965087890625,2.214691162109375,-0.0811920166015625
220550,0.163848876953125,1.603347778320312,0.179962158203125
220551,-0.07733154296875,1.025100708007812,0.7335052490234375
220552,-0.2516326904296875,0.6499481201171875,1.183334350585938
220553,-0.344512939453125,0.4799346923828125,1.069656372070312
220554,-0.328338623046875,0.350860595703125,0.8750152587890625
220555,-0.2861328125,0.2210693359375,0.6981964111328125
220556,-0.256744384765625,0.1104736328125,0.502655029296875
220557,-0.224700927734375,0.04644775390625,0.32708740234375
220558,-0.2052459716796875,-0.0072784423828125,0.2139739990234375
220559,-0.2056884765625,-0.0504913330078125,0.1655426025390625
220560,-0.2030029296875,-0.082061767578125,0.1471710205078125
220561,-0.20263671875,-0.1263427734375,0.089447021484375
220562,-0.167999267578125,-0.193817138671875,0.11407470703125
220563,-0.1185455322265625,-0.262298583984375,0.253082275390625
220564,-0.0870513916015625,-0.3297271728515625,0.3695526123046875
220565,-0.069915771484375,-0.385101318359375,0.504730224609375
220566,-0.0645599365234375,-0.40753173828125,0.6607818603515625
220567,-0.0581817626953125,-0.3522491455078125,0.620941162109375
220568,-0.0718231201171875,-0.23382568359375,0.4484100341796875
220569,-0.1062164306640625,-0.098114013671875,0.2838134765625
220570,-0.160552978515625,0.04345703125,0.1753082275390625
220571,-0.2198638916015625,0.1865081787109375,0.112213134765625
220572,-0.2978057861328125,0.339599609375,0.12762451171875
220573,-0.34808349609375,0.495819091796875,0.18292236328125
220574,-0.3498382568359375,0.6270294189453125,0.231048583984375
220575,-0.3205108642578125,0.7574005126953125,0.214385986328125
220576,-0.327911376953125,0.95440673828125,0.1291046142578125
220577,-0.363739013671875,1.227798461914062,0.0402069091796875
220578,-0.3868255615234375,1.577926635742188,-0.0389556884765625
220579,-0.3414764404296875,2.013397216796875,-0.197967529296875
220580,-0.0537261962890625,2.44012451171875,-0.516204833984375
220581,0.3282928466796875,2.817245483398438,-0.8106842041015625
220582,0.6398468017578125,3.077133178710938,-1.077682495117188
220583,0.8407745361328125,2.894577026367188,-1.26513671875
220584,0.8479156494140625,2.224624633789062,-1.212905883789062
220585,0.731231689453125,1.644134521484375,-0.86517333984375
220586,0.591217041015625,1.157119750976562,-0.502166748046875
220587,0.460540771484375,0.7756195068359375,-0.29730224609375
220588,0.342437744140625,0.472686767578125,-0.1482086181640625
220589,0.245849609375,0.2663116455078125,-0.0519256591796875
220590,0.1558990478515625,0.0917205810546875,0.0081787109375
220591,0.0688323974609375,-0.009735107421875,0.041351318359375
220592,-0.00927734375,-0.0740509033203125,0.0548858642578125
220593,-0.064605712890625,-0.08905029296875,0.0522918701171875
220594,-0.209747314453125,0.0341644287109375,-0.079681396484375
220595,-0.441070556640625,0.31597900390625,0.0959625244140625
220596,-0.2741546630859375,0.26275634765625,2.085098266601562
220597,-0.2849578857421875,0.3415679931640625,1.930587768554688
220598,-0.2303009033203125,0.4161376953125,0.915679931640625
220599,-0.1650543212890625,0.4025115966796875,0.6548614501953125
220600,-0.173095703125,0.4449615478515625,0.351898193359375
220601,-0.16796875,0.53363037109375,0.18353271484375
220602,-0.15374755859375,0.594085693359375,0.1395111083984375
220603,-0.1064910888671875,0.5944671630859375,0.1453094482421875
220604,-0.020782470703125,0.569091796875,0.206756591796875
220605,-0.000244140625,0.4870147705078125,0.285858154296875
220606,-0.1644134521484375,0.421478271484375,0.377960205078125
220607,-0.3156890869140625,0.4909820556640625,0.405181884765625
220608,-0.378814697265625,0.6001129150390625,0.38323974609375
220609,-0.4009857177734375,0.7218017578125,0.3711395263671875
220610,-0.417938232421875,0.875335693359375,0.3654632568359375
220611,-0.4304962158203125,1.06658935546875,0.3857269287109375
220612,-0.4875335693359375,1.381683349609375,0.4543914794921875
220613,-0.651123046875,2.100997924804688,0.6331634521484375
220614,-0.8706817626953125,3.345046997070312,0.5965118408203125
220615,-0.8140106201171875,4.78338623046875,0.132537841796875
220616,-0.3284454345703125,5.740753173828125,-1.105987548828125
220617,0.106292724609375,5.91400146484375,-2.230926513671875
220618,0.64215087890625,4.391937255859375,-1.603897094726562
220619,0.68585205078125,2.979736328125,-0.6007080078125
220620,0.490875244140625,2.207839965820312,-0.2372894287109375
220621,0.2268829345703125,1.638641357421875,-0.050384521484375
220622,-0.025787353515625,1.190567016601562,0.0340728759765625
220623,-0.078582763671875,0.9385833740234376,0.2069091796875
220624,-0.0822296142578125,0.716033935546875,0.583526611328125
220625,-0.22998046875,0.379913330078125,2.125228881835938
220626,-0.337799072265625,0.261444091796875,1.972900390625
220627,-0.1847991943359375,0.156951904296875,1.858917236328125
220628,-0.097412109375,0.1954803466796875,1.442916870117188
220629,-0.1604156494140625,0.21258544921875,0.5752716064453125
220630,-0.1699371337890625,0.1958465576171875,0.2372283935546875
220631,-0.1583404541015625,0.1660919189453125,0.13616943359375
220632,-0.168487548828125,0.0953826904296875,-0.002166748046875
220633,-0.16998291015625,0.005035400390625,-0.089324951171875
220634,-0.1175689697265625,-0.0947265625,0.0119171142578125
220635,-0.0836029052734375,-0.1916351318359375,0.1589508056640625
220636,-0.09442138671875,-0.2783355712890625,0.2975311279296875
220637,-0.124725341796875,-0.3570556640625,0.495025634765625
220638,-0.1539764404296875,-0.408172607421875,0.7163543701171875
220639,-0.182861328125,-0.350677490234375,0.652008056640625
220640,-0.222015380859375,-0.186248779296875,0.4290924072265625
220641,-0.2718505859375,0.0357513427734375,0.2169036865234375
220642,-0.33209228515625,0.2893829345703125,0.0940093994140625
220643,-0.4057769775390625,0.513031005859375,0.0385894775390625
220644,-0.450042724609375,0.693695068359375,0.0336456298828125
220645,-0.4384918212890625,0.8354644775390625,0.0806732177734375
220646,-0.3809814453125,0.924285888671875,0.136444091796875
220647,-0.3332061767578125,0.980865478515625,0.139495849609375
220648,-0.3285675048828125,1.043228149414062,0.0977935791015625
220649,-0.360870361328125,1.12884521484375,0.033782958984375
220650,-0.4141387939453125,1.230911254882812,-0.0497894287109375
220651,-0.464691162109375,1.355804443359375,-0.153076171875
220652,-0.508758544921875,1.50897216796875,-0.2675018310546875
220653,-0.496307373046875,1.69366455078125,-0.4196624755859375
220654,-0.3384552001953125,1.852645874023438,-0.5982513427734375
220655,-0.01385498046875,1.9801025390625,-0.79168701171875
220656,0.36505126953125,2.001022338867188,-0.9383544921875
220657,0.690582275390625,1.796600341796875,-1.0335693359375
220658,0.853057861328125,1.44097900390625,-1.079635620117188
220659,0.865478515625,1.16131591796875,-0.958404541015625
220660,0.7534942626953125,0.915802001953125,-0.7157135009765625
220661,0.5994873046875,0.7289276123046875,-0.430572509765625
220662,0.438140869140625,0.558349609375,-0.189422607421875
220663,0.301971435546875,0.4266815185546875,-0.002532958984375
220664,0.1768341064453125,0.2801361083984375,0.1926422119140625
220665,0.037689208984375,0.07452392578125,0.8388214111328125
220666,-0.0631561279296875,-0.0505523681640625,1.195510864257812
220667,-0.1420440673828125,0.0213775634765625,0.6080322265625
220668,-0.3296051025390625,0.2194976806640625,0.2569580078125
220669,-0.269378662109375,0.2333221435546875,1.442001342773438
220670,-0.2091827392578125,0.1093902587890625,1.362060546875
220671,-0.186431884765625,0.0333099365234375,0.7292022705078125
220672,-0.1465606689453125,0.070648193359375,0.4355621337890625
220673,-0.147125244140625,0.1945037841796875,0.3837127685546875
220674,-0.224884033203125,0.4022064208984375,0.435211181640625
220675,-0.3591461181640625,0.6725006103515625,0.481964111328125
220676,-0.4700775146484375,0.86553955078125,0.38507080078125
220677,-0.4091949462890625,0.8220062255859375,0.252593994140625
220678,-0.3181915283203125,0.5821685791015625,0.1705780029296875
220679,-0.3192138671875,0.549163818359375,0.2066192626953125
220680,-0.3700408935546875,0.7966766357421875,0.2456207275390625
220681,-0.38800048828125,1.084335327148438,0.199859619140625
220682,-0.419830322265625,1.413406372070312,0.1724853515625
220683,-0.4976654052734375,1.868026733398438,0.18505859375
220684,-0.6143341064453125,2.667495727539062,0.1959991455078125
220685,-0.7047576904296875,3.93341064453125,-0.246856689453125
220686,-0.6171722412109375,5.365066528320312,-0.930908203125
220687,-0.1622161865234375,6.216690063476562,-1.51458740234375
220688,0.27337646484375,5.957000732421875,-1.787246704101562
220689,0.261505126953125,4.239364624023438,-0.733642578125
220690,0.1139373779296875,2.964752197265625,-0.1582183837890625
220691,-0.0509796142578125,2.257232666015625,0.00384521484375
220692,-0.1891632080078125,1.712203979492188,0.123992919921875
220693,-0.234893798828125,1.2906494140625,0.4159393310546875
220694,-0.2817840576171875,1.00225830078125,0.7742767333984375
220695,-0.3593902587890625,0.6974945068359375,1.623794555664062
220696,-0.3848724365234375,0.4203338623046875,1.773666381835938
220697,-0.266815185546875,0.3321075439453125,1.366928100585938
220698,-0.226043701171875,0.31756591796875,0.6592864990234375
220699,-0.2274627685546875,0.262939453125,0.18048095703125
220700,-0.21795654296875,0.17083740234375,0.0768585205078125
220701,-0.205902099609375,0.0532073974609375,0.12799072265625
220702,-0.1670684814453125,-0.0830230712890625,0.3097686767578125
220703,-0.125244140625,-0.265869140625,0.6220855712890625
220704,-0.10162353515625,-0.4375152587890625,0.815032958984375
220705,-0.073638916015625,-0.533538818359375,0.777313232421875
220706,-0.045989990234375,-0.5609283447265625,0.559844970703125
220707,-0.0506134033203125,-0.551666259765625,0.318878173828125
220708,-0.06988525390625,-0.5503997802734375,0.10107421875
220709,-0.069549560546875,-0.5381927490234375,-0.029541015625
220710,-0.054443359375,-0.4841461181640625,-0.075531005859375
220711,-0.0795745849609375,-0.3601531982421875,-0.0421905517578125
220712,-0.1468505859375,-0.2207183837890625,0.072174072265625
220713,-0.22186279296875,-0.1374664306640625,0.2185821533203125
220714,-0.2950439453125,-0.0687408447265625,0.3358917236328125
220715,-0.3618927001953125,0.0171661376953125,0.3013763427734375
220716,-0.378753662109375,0.1509246826171875,0.1791534423828125
220717,-0.3263397216796875,0.286712646484375,0.0733489990234375
220718,-0.2554931640625,0.38568115234375,0.06231689453125
220719,-0.2334136962890625,0.496429443359375,0.1285247802734375
220720,-0.267791748046875,0.660797119140625,0.1705322265625
220721,-0.3511505126953125,0.9653472900390624,0.161956787109375
220722,-0.4422760009765625,1.419723510742188,0.1595001220703125
220723,-0.54443359375,2.013687133789062,0.055877685546875
220724,-0.606658935546875,2.720962524414062,-0.2894287109375
220725,-0.5378265380859375,3.394500732421875,-0.7826690673828125
220726,-0.306304931640625,3.802276611328125,-1.050140380859375
220727,0.1292877197265625,3.601150512695312,-0.9983978271484376
220728,0.43768310546875,2.79119873046875,-1.01947021484375
220729,0.5196075439453125,2.040496826171875,-0.918548583984375
220730,0.515045166015625,1.467758178710938,-0.6920928955078125
220731,0.466339111328125,1.048843383789062,-0.4860992431640625
220732,0.4253692626953125,0.6271514892578125,-0.42578125
220733,0.392822265625,0.265655517578125,-0.3837738037109375
220734,0.3446502685546875,0.007354736328125,-0.3269805908203125
220735,0.2579498291015625,-0.1557159423828125,-0.2673492431640625
220736,0.192901611328125,-0.255645751953125,-0.1921539306640625
220737,0.1871337890625,-0.3086090087890625,-0.12274169921875
220738,0.203094482421875,-0.2902679443359375,-0.0367279052734375
220739,0.1846466064453125,-0.226837158203125,0.06134033203125
220740,0.1389923095703125,-0.133392333984375,0.18206787109375
220741,0.094329833984375,-0.0078125,0.3937530517578125
220742,-0.048980712890625,0.1581573486328125,1.427413940429688
220743,-0.453887939453125,0.3886871337890625,2.810394287109375
220744,-0.64935302734375,0.6118621826171875,1.863128662109375
220745,-0.4380645751953125,0.44061279296875,1.005844116210938
220746,-0.299835205078125,0.358673095703125,0.4733123779296875
220747,-0.279296875,0.422088623046875,0.2566375732421875
220748,-0.3947601318359375,0.5576019287109375,0.271514892578125
220749,-0.5494384765625,0.734039306640625,0.4843292236328125
220750,-0.5797119140625,0.8868865966796875,0.667694091796875
220751,-0.5589752197265625,1.048904418945312,0.644683837890625
220752,-0.558258056640625,1.205764770507812,0.5557861328125
220753,-0.5413055419921875,1.335769653320312,0.547119140625
220754,-0.578857421875,1.576431274414062,0.556915283203125
220755,-0.7968597412109375,2.164596557617188,0.527435302734375
220756,-1.041152954101562,3.16204833984375,0.402862548828125
220757,-0.9669036865234376,4.385879516601562,-0.212890625
220758,-0.1592864990234375,5.024810791015625,-1.492660522460938
220759,0.490325927734375,5.389373779296875,-3.1302490234375
220760,0.931793212890625,4.817916870117188,-2.958175659179688
220761,0.907012939453125,3.557815551757812,-1.748931884765625
220762,0.5290985107421875,2.665985107421875,-0.7521514892578125
220763,0.2503662109375,2.10760498046875,-0.1718902587890625
220764,-0.0623321533203125,1.493194580078125,-0.0802154541015625
220765,-0.19091796875,0.9836273193359376,-0.105743408203125
220766,0.0433197021484375,0.64666748046875,0.7078857421875
220767,-0.1676177978515625,0.02783203125,3.632553100585938
220768,-0.4170989990234375,-0.138519287109375,2.59503173828125
220769,-0.2368011474609375,-0.1470947265625,1.78955078125
220770,-0.052337646484375,-0.0565185546875,1.104598999023438
220771,-0.048187255859375,-0.0705108642578125,0.4383544921875
220772,-0.0403900146484375,-0.122222900390625,0.167205810546875
220773,-0.03399658203125,-0.1802520751953125,0.0706024169921875
220774,-0.0482025146484375,-0.179229736328125,0.112396240234375
220775,-0.0619659423828125,-0.160552978515625,0.2776031494140625
220776,-0.0732879638671875,-0.1090850830078125,0.363067626953125
220777,-0.096832275390625,-0.0321044921875,0.3066253662109375
220778,-0.1227874755859375,0.031280517578125,0.2371826171875
220779,-0.1251983642578125,0.0491485595703125,0.214141845703125
220780,-0.1368408203125,0.033599853515625,0.205535888671875
220781,-0.1765899658203125,0.0158843994140625,0.1659698486328125
220782,-0.240570068359375,0.017578125,0.0910186767578125
220783,-0.3007354736328125,0.041290283203125,0.0178680419921875
220784,-0.3565216064453125,0.083984375,-0.042022705078125
220785,-0.425018310546875,0.1277923583984375,-0.09368896484375
220786,-0.483123779296875,0.1783294677734375,-0.1385040283203125
220787,-0.51690673828125,0.2363433837890625,-0.191802978515625
220788,-0.548583984375,0.3328399658203125,-0.2433013916015625
220789,-0.5911865234375,0.505645751953125,-0.2468109130859375
220790,-0.6290283203125,0.71856689453125,-0.203155517578125
220791,-0.6444244384765625,0.9348297119140624,-0.1469573974609375
220792,-0.6380462646484375,1.173736572265625,-0.125579833984375
220793,-0.626007080078125,1.451156616210938,-0.158935546875
220794,-0.62841796875,1.817474365234375,-0.2341156005859375
220795,-0.5882110595703125,2.2474365234375,-0.3897247314453125
220796,-0.4576416015625,2.61737060546875,-0.6397857666015625
220797,-0.1940765380859375,2.7969970703125,-0.9180450439453124
220798,0.1835174560546875,2.690658569335938,-0.9623870849609376
220799,0.5481109619140625,2.234649658203125,-0.872711181640625
220800,0.6151275634765625,1.793731689453125,-0.698974609375
220801,0.5704193115234375,1.442596435546875,-0.44793701171875
220802,0.512420654296875,1.088485717773438,-0.2792816162109375
220803,0.4174346923828125,0.799896240234375,-0.156646728515625
220804,0.2954559326171875,0.5365142822265625,-0.0906524658203125
220805,0.195587158203125,0.3320159912109375,-0.038726806640625
220806,0.1171875,0.193023681640625,-0.014678955078125
220807,0.061614990234375,0.10186767578125,-0.0057220458984375
220808,0.0211944580078125,0.031005859375,-0.0077362060546875
220809,-0.00537109375,-0.0079498291015625,-0.0220489501953125
220810,-0.022064208984375,-0.02752685546875,-0.03924560546875
220811,-0.054229736328125,-0.0135955810546875,-0.0666351318359375
220812,-0.0689544677734375,-0.0149078369140625,0.0261383056640625
220813,-0.0249176025390625,-0.0945587158203125,0.6622772216796875
220814,-0.0399932861328125,-0.1471099853515625,1.194412231445312
220815,-0.0725860595703125,-0.1001434326171875,1.284011840820312
220816,-0.0544281005859375,-0.0314788818359375,1.397918701171875
220817,-0.0784759521484375,0.1857452392578125,1.07037353515625
220818,-0.14794921875,0.42529296875,0.652130126953125
220819,-0.2565460205078125,0.6871490478515625,0.439117431640625
220820,-0.3554840087890625,0.8932952880859375,0.343902587890625
220821,-0.400299072265625,0.9903411865234376,0.34771728515625
220822,-0.4299468994140625,1.11322021484375,0.299285888671875
220823,-0.5417022705078125,1.324447631835938,0.2063751220703125
220824,-0.7441253662109375,1.693069458007812,0.1057281494140625
220825,-0.9815216064453124,2.343597412109375,-0.061065673828125
220826,-1.099777221679688,3.270584106445312,-0.5130157470703125
220827,-1.025650024414062,4.366729736328125,-1.366500854492188
220828,-0.526641845703125,5.080856323242188,-1.285140991210938
220829,0.046783447265625,5.367874145507812,-1.488876342773438
220830,0.29339599609375,5.053298950195312,-2.33709716796875
220831,0.2014312744140625,4.0865478515625,-1.685317993164062
220832,0.2152252197265625,2.974288940429688,-0.43280029296875
220833,0.231414794921875,2.182601928710938,0.0499420166015625
220834,0.151153564453125,1.534820556640625,0.2976837158203125
220835,0.0898895263671875,0.8179168701171875,0.7824554443359375
220836,0.0904693603515625,-0.0204010009765625,2.726242065429688
220837,0.0077362060546875,-0.3668670654296875,1.837799072265625
220838,0.125701904296875,-0.351348876953125,1.037078857421875
220839,0.1339569091796875,-0.3926849365234375,0.747467041015625
220840,0.067535400390625,-0.5505218505859375,0.33245849609375
220841,0.020904541015625,-0.7613983154296875,0.13824462890625
220842,-0.0244293212890625,-0.8897247314453125,0.0935211181640625
220843,-0.0449676513671875,-0.9514617919921876,0.074493408203125
220844,-0.02679443359375,-0.9490966796875,0.104583740234375
220845,-0.00048828125,-0.873199462890625,0.1721038818359375
220846,-0.00286865234375,-0.7181854248046875,0.1761322021484375
220847,0.0013580322265625,-0.5487823486328125,0.0932464599609375
220848,0.01806640625,-0.461273193359375,0.0336761474609375
220849,0.01788330078125,-0.4391021728515625,0.017974853515625
220850,0.00494384765625,-0.3952789306640625,0.0160064697265625
220851,-0.043304443359375,-0.411376953125,0.0274658203125
220852,-0.06195068359375,-0.3856353759765625,0.0436859130859375
220853,-0.06829833984375,-0.354461669921875,0.2484893798828125
220854,-0.1154632568359375,-0.36212158203125,0.910614013671875
220855,-0.225006103515625,-0.1894378662109375,0.848297119140625
220856,-0.2348480224609375,0.031707763671875,0.4282073974609375
220857,-0.1277618408203125,0.109466552734375,0.22235107421875
220858,-0.12506103515625,0.16778564453125,0.2381744384765625
220859,-0.2291107177734375,0.3317718505859375,0.3128814697265625
220860,-0.405303955078125,0.7332000732421875,0.3997039794921875
220861,-0.7767486572265625,1.643020629882812,0.38763427734375
220862,-1.319366455078125,3.305496215820312,0.3122406005859375
220863,-1.893112182617188,5.606582641601562,-0.327117919921875
220864,-1.275192260742188,7.164016723632812,-1.02166748046875
220865,-0.34716796875,7.35797119140625,-1.226287841796875
220866,0.056182861328125,5.84368896484375,-0.87060546875
220867,0.2466278076171875,3.6976318359375,0.6300506591796875
220868,0.2026519775390625,2.234634399414062,1.75390625
220869,0.039764404296875,1.337448120117188,1.382217407226562
220870,-0.01226806640625,0.7363128662109375,1.1475830078125
220871,-0.1037750244140625,0.209442138671875,0.7332305908203125
220872,-0.143768310546875,-0.180572509765625,0.365692138671875
220873,-0.072845458984375,-0.3982696533203125,0.2203216552734375
220874,0.02178955078125,-0.6881866455078125,0.0538787841796875
220875,0.055938720703125,-0.9572601318359376,0.1024322509765625
220876,0.03155517578125,-1.1346435546875,0.2178955078125
220877,-0.03399658203125,-1.094970703125,0.157806396484375
220878,-0.0289459228515625,-0.9863128662109376,0.1310272216796875
220879,0.0426788330078125,-1.145614624023438,0.3291778564453125
220880,0.1014556884765625,-1.286346435546875,0.533905029296875
220881,0.1712493896484375,-1.2349853515625,0.6619415283203125
220882,0.241119384765625,-1.1378173828125,0.8449249267578125
220883,0.29168701171875,-0.9718780517578124,1.059417724609375
220884,0.3167266845703125,-0.7105255126953125,0.8416748046875
220885,0.25323486328125,-0.4168853759765625,0.4076385498046875
220886,0.1600799560546875,-0.1519775390625,0.1838836669921875
220887,0.0770263671875,0.0742950439453125,-0.0634765625
220888,-0.0470428466796875,0.281982421875,-0.220611572265625
220889,-0.2335205078125,0.528411865234375,-0.17181396484375
220890,-0.4717254638671875,0.7963409423828125,0.319793701171875
220891,-0.799072265625,1.598831176757812,1.671615600585938
220892,-1.150070190429688,2.91796875,3.251785278320312
220893,-1.46099853515625,4.04498291015625,2.259246826171875
220894,-1.99969482421875,5.580947875976562,0.5474853515625
220895,-1.576019287109375,6.382537841796875,0.3692474365234375
220896,-0.6195831298828125,6.242889404296875,0.7542266845703125
220897,-0.1959075927734375,4.65679931640625,0.8826446533203125
220898,-0.2904815673828125,2.845138549804688,0.7475738525390625
220899,-0.354095458984375,1.682388305664062,0.725372314453125
220900,-0.4004974365234375,0.9867095947265624,0.5497589111328125
220901,-0.3472747802734375,0.5706634521484375,0.2998809814453125
220902,-0.29937744140625,0.3000946044921875,0.1167755126953125
220903,-0.3028717041015625,0.0879364013671875,0.0074920654296875
220904,-0.331451416015625,-0.1093597412109375,-0.097808837890625
220905,-0.305450439453125,-0.268463134765625,-0.1191253662109375
220906,-0.2837677001953125,-0.4180908203125,-0.079681396484375
220907,-0.32861328125,-0.50970458984375,-0.084259033203125
220908,-0.3458099365234375,-0.5657501220703125,-0.092315673828125
220909,-0.3040008544921875,-0.710205078125,0.0827484130859375
220910,-0.2753143310546875,-0.840972900390625,0.4483489990234375
220911,-0.2701416015625,-0.90093994140625,0.68524169921875
220912,-0.2473907470703125,-0.8686981201171875,0.689178466796875
220913,-0.2672119140625,-0.696441650390625,0.5278167724609375
220914,-0.2797698974609375,-0.366912841796875,0.249420166015625
220915,-0.2408447265625,-0.0570831298828125,0.0416717529296875
220916,-0.2156982421875,0.0894775390625,-0.0640716552734375
220917,-0.23876953125,0.2360687255859375,-0.0731201171875
220918,-0.29339599609375,0.43072509765625,-0.1343536376953125
220919,-0.372222900390625,0.72296142578125,-0.243896484375
220920,-0.441558837890625,1.083724975585938,-0.399322509765625
220921,-0.457733154296875,1.5540771484375,-0.6541595458984375
220922,-0.3488311767578125,2.1317138671875,-0.9810943603515624
220923,-0.0350189208984375,2.300689697265625,-1.049057006835938
220924,0.3414306640625,1.935409545898438,-0.9458770751953124
220925,0.5132904052734375,1.351364135742188,-0.9898681640625
220926,0.5081329345703125,0.864349365234375,-0.91680908203125
220927,0.4485931396484375,0.578582763671875,-0.72637939453125
220928,0.338226318359375,0.329315185546875,-0.521209716796875
220929,0.21051025390625,0.1236724853515625,-0.3582763671875
220930,0.12701416015625,-0.0263519287109375,-0.2497406005859375
220931,0.0931549072265625,-0.1024932861328125,-0.226226806640625
220932,0.0488128662109375,-0.1056060791015625,-0.2501220703125
220933,0.057159423828125,-0.0201263427734375,0.1219940185546875
220934,-0.08331298828125,0.107696533203125,1.679031372070312
220935,-0.4155731201171875,0.466339111328125,2.280731201171875
220936,-0.49560546875,0.831451416015625,1.62530517578125
220937,-0.322479248046875,0.856719970703125,1.530838012695312
220938,-0.311553955078125,0.91619873046875,1.049957275390625
220939,-0.450714111328125,1.1217041015625,0.549835205078125
220940,-0.5746917724609375,1.315902709960938,0.442840576171875
220941,-0.5897216796875,1.4136962890625,0.55816650390625
220942,-0.5327606201171875,1.450531005859375,0.5732421875
220943,-0.5843505859375,1.648284912109375,0.451812744140625
220944,-0.741485595703125,2.070571899414062,0.37890625
220945,-0.866943359375,2.56298828125,0.3187713623046875
220946,-0.8869171142578125,2.972885131835938,0.2593841552734375
220947,-0.852935791015625,3.442031860351562,0.0177764892578125
220948,-0.7663726806640625,3.964813232421875,-0.4999542236328125
220949,-0.517822265625,4.411331176757812,-0.819671630859375
220950,-0.2369537353515625,4.447998046875,-0.97125244140625
220951,0.0146026611328125,3.9454345703125,-1.377334594726562
220952,0.1790771484375,3.058029174804688,-1.059677124023438
220953,0.1571502685546875,2.34234619140625,-0.4720611572265625
220954,0.03912353515625,1.712265014648438,-0.24530029296875
220955,-0.0143280029296875,1.13128662109375,0.0294189453125
220956,0.0126495361328125,0.6876373291015625,0.3590545654296875
220957,0.0031585693359375,0.3079376220703125,1.00018310546875
220958,-0.094879150390625,0.0093994140625,1.245208740234375
220959,-0.1541595458984375,-0.1428680419921875,0.9228668212890624
220960,-0.1054840087890625,-0.189544677734375,0.5920867919921875
220961,-0.125091552734375,-0.237518310546875,0.223968505859375
220962,-0.1771087646484375,-0.32342529296875,0.0419158935546875
220963,-0.1842803955078125,-0.3733673095703125,0.021697998046875
220964,-0.184539794921875,-0.4077911376953125,0.065185546875
220965,-0.168182373046875,-0.404571533203125,0.1870880126953125
220966,-0.128082275390625,-0.3404998779296875,0.356781005859375
220967,-0.09765625,-0.2154083251953125,0.3931884765625
220968,-0.09423828125,-0.0592498779296875,0.251434326171875
220969,-0.1043853759765625,0.08636474609375,0.1152801513671875
220970,-0.117706298828125,0.203369140625,0.0579071044921875
220971,-0.13812255859375,0.303497314453125,0.017791748046875
220972,-0.152801513671875,0.4101715087890625,-0.00433349609375
220973,-0.1257171630859375,0.551666259765625,0.010223388671875
220974,0.0076904296875,0.6581573486328125,-0.0671844482421875
220975,0.247711181640625,0.759429931640625,-0.4908447265625
220976,0.4313201904296875,0.9394378662109376,-0.905029296875
220977,0.5797271728515625,1.126388549804688,-1.100357055664062
220978,0.7415313720703125,1.133102416992188,-1.149322509765625
220979,0.762664794921875,0.8762969970703125,-1.089752197265625
220980,0.6177520751953125,0.5994415283203125,-0.924041748046875
220981,0.410064697265625,0.40545654296875,-0.68463134765625
220982,0.246826171875,0.2996826171875,-0.458831787109375
220983,0.134063720703125,0.2444000244140625,-0.2805023193359375
220984,0.070648193359375,0.218292236328125,-0.134002685546875
220985,0.019927978515625,0.1891937255859375,-0.024322509765625
220986,-0.014007568359375,0.1642913818359375,0.058837890625
220987,-0.02642822265625,0.146240234375,0.1248321533203125
220988,-0.044891357421875,0.1475982666015625,0.2205810546875
220989,-0.07293701171875,0.157257080078125,0.314178466796875
220990,-0.1224365234375,0.177001953125,0.410614013671875
220991,-0.2423858642578125,0.2123870849609375,0.6131439208984375
220992,-0.41119384765625,0.325897216796875,1.81341552734375
220993,-0.3161468505859375,0.563751220703125,2.507476806640625
220994,-0.350921630859375,0.7757720947265625,1.708084106445312
220995,-0.5799560546875,1.061996459960938,1.3897705078125
220996,-0.6481475830078125,1.3084716796875,1.611053466796875
220997,-0.583343505859375,1.4241943359375,1.312088012695312
220998,-0.5518798828125,1.520919799804688,0.77264404296875
220999,-0.6048583984375,1.755599975585938,0.419281005859375
221000,-0.7180633544921875,2.12188720703125,0.3807373046875
221001,-0.7955169677734375,2.604660034179688,0.514678955078125
221002,-0.885894775390625,3.228729248046875,0.507415771484375
221003,-0.9906005859375,4.145156860351562,0.330322265625
221004,-0.8888397216796875,4.948806762695312,0.1353912353515625
221005,-0.5055694580078125,5.239822387695312,-0.3120574951171875
221006,-0.1121978759765625,5.106948852539062,-1.257369995117188
221007,0.26690673828125,4.331436157226562,-1.616134643554688
221008,0.4540863037109375,3.368316650390625,-1.014633178710938
221009,0.3516998291015625,2.536407470703125,-0.64288330078125
221010,0.2719879150390625,1.935882568359375,-0.356353759765625
221011,0.15625,1.441177368164062,-0.0897979736328125
221012,0.0204315185546875,0.913482666015625,0.0703887939453125
221013,0.00408935546875,0.5573883056640625,0.2592010498046875
221014,-0.0482940673828125,0.2875518798828125,0.6845550537109375
221015,-0.19085693359375,0.033172607421875,1.263015747070312
221016,-0.3733978271484375,-0.19866943359375,1.291961669921875
221017,-0.371551513671875,-0.3503265380859375,1.22607421875
221018,-0.2685699462890625,-0.38421630859375,0.9750823974609376
221019,-0.2520294189453125,-0.3484039306640625,0.5380859375
221020,-0.2669219970703125,-0.3501739501953125,0.241851806640625
221021,-0.2666015625,-0.4171600341796875,0.137664794921875
221022,-0.1801300048828125,-0.4448089599609375,0.25701904296875
221023,-0.13616943359375,-0.4338836669921875,0.2634429931640625
221024,-0.135406494140625,-0.37127685546875,0.1517486572265625
221025,-0.1439666748046875,-0.249359130859375,0.0241546630859375
221026,-0.171600341796875,-0.070648193359375,-0.06842041015625
221027,-0.1980743408203125,0.08251953125,-0.12799072265625
221028,-0.2301025390625,0.2021942138671875,-0.207855224609375
221029,-0.2508697509765625,0.31640625,-0.2869110107421875
221030,-0.2354888916015625,0.448211669921875,-0.3325958251953125
221031,-0.197540283203125,0.5822601318359375,-0.4152679443359375
221032,-0.138946533203125,0.717529296875,-0.466949462890625
221033,-0.054595947265625,0.8442535400390625,-0.481903076171875
221034,0.0930328369140625,0.8952789306640625,-0.5007171630859375
221035,0.2987060546875,0.785369873046875,-0.569000244140625
221036,0.438873291015625,0.6299896240234375,-0.7572174072265625
221037,0.4904632568359375,0.5342559814453125,-0.880859375
221038,0.4771270751953125,0.4329833984375,-0.813079833984375
221039,0.41778564453125,0.3248748779296875,-0.656951904296875
221040,0.335357666015625,0.231781005859375,-0.5009765625
221041,0.280487060546875,0.175537109375,-0.3481292724609375
221042,0.2381744384765625,0.1369171142578125,-0.195587158203125
221043,0.2004547119140625,0.121795654296875,-0.08734130859375
221044,0.1693572998046875,0.1542510986328125,0.0264129638671875
221045,0.12738037109375,0.17559814453125,0.1994171142578125
221046,0.0675201416015625,0.16009521484375,0.50653076171875
221047,-0.0237579345703125,0.2386932373046875,0.518524169921875
221048,-0.407958984375,0.60504150390625,-0.215118408203125
221049,-0.67108154296875,0.88482666015625,0.3753662109375
221050,-0.42327880859375,0.606109619140625,1.724960327148438
221051,-0.4680633544921875,0.55810546875,1.402053833007812
221052,-0.713287353515625,0.7873077392578125,0.609893798828125
221053,-1.0169677734375,1.16058349609375,0.3792266845703125
221054,-1.102188110351562,1.530471801757812,0.961639404296875
221055,-1.018829345703125,1.856964111328125,1.53558349609375
221056,-1.015335083007812,2.130111694335938,0.9076995849609376
221057,-1.016220092773438,2.374374389648438,0.4258575439453125
221058,-0.98358154296875,2.6617431640625,0.26080322265625
221059,-1.038787841796875,3.133880615234375,0.0553131103515625
221060,-0.966400146484375,3.855056762695312,-0.3225860595703125
221061,-0.7479705810546875,4.723236083984375,-0.8332672119140625
221062,-0.26153564453125,5.339828491210938,-1.0682373046875
221063,0.1855316162109375,5.186996459960938,-1.503753662109375
221064,0.7332916259765625,4.151138305664062,-1.399444580078125
221065,0.8555755615234375,3.22027587890625,-0.8084259033203125
221066,0.61834716796875,2.498245239257812,-0.363739013671875
221067,0.3686981201171875,1.81756591796875,-0.0172576904296875
221068,0.1409454345703125,1.255859375,0.2572021484375
221069,-0.0697479248046875,0.6616973876953125,0.7914276123046875
221070,-0.236114501953125,0.1495819091796875,1.216476440429688
221071,-0.3146514892578125,-0.0715179443359375,0.9638671875
221072,-0.333343505859375,-0.190704345703125,0.5888519287109375
221073,-0.3046417236328125,-0.2891845703125,0.342254638671875
221074,-0.38055419921875,-0.331451416015625,0.15435791015625
221075,-0.4613037109375,-0.3946380615234375,0.1370849609375
221076,-0.4283599853515625,-0.46014404296875,0.3263092041015625
221077,-0.359039306640625,-0.47039794921875,0.4150543212890625
221078,-0.294952392578125,-0.447296142578125,0.430419921875
221079,-0.2347564697265625,-0.4278411865234375,0.407989501953125
221080,-0.1719970703125,-0.290618896484375,0.309326171875
221081,-0.1765594482421875,-0.0927581787109375,0.1431427001953125
221082,-0.1831207275390625,0.091888427734375,0.03350830078125
221083,-0.178863525390625,0.265533447265625,0.0023956298828125
221084,-0.19189453125,0.4121856689453125,-0.0260162353515625
221085,-0.2026519775390625,0.57989501953125,-0.04425048828125
221086,-0.145965576171875,0.766815185546875,-0.0860137939453125
221087,-0.0078277587890625,1.00177001953125,-0.176788330078125
221088,0.16180419921875,1.24127197265625,-0.3873138427734375
221089,0.349609375,1.398483276367188,-0.6449127197265625
221090,0.5668487548828125,1.344253540039062,-0.8694305419921875
221091,0.773681640625,1.038604736328125,-0.888916015625
221092,0.830413818359375,0.764434814453125,-0.8177642822265625
221093,0.7164459228515625,0.4788055419921875,-0.708953857421875
221094,0.5269012451171875,0.2612152099609375,-0.54229736328125
221095,0.3454437255859375,0.13946533203125,-0.3693389892578125
221096,0.206024169921875,0.0752716064453125,-0.2175750732421875
221097,0.1069488525390625,0.0400848388671875,-0.10699462890625
221098,0.0521697998046875,0.0233612060546875,-0.019500732421875
221099,0.0251312255859375,0.016448974609375,0.0531768798828125
221100,0.005645751953125,-0.0006256103515625,0.1229705810546875
221101,-0.0288238525390625,-0.024871826171875,0.1925048828125
221102,-0.0717315673828125,-0.0435943603515625,0.296661376953125
221103,-0.120574951171875,-0.053375244140625,0.4844970703125
221104,-0.191864013671875,-0.0901947021484375,0.8971099853515625
221105,-0.286468505859375,-0.0672607421875,0.739990234375
221106,-0.3184814453125,0.0153961181640625,0.4155426025390625
221107,-0.20355224609375,0.1280059814453125,0.604034423828125
221108,-0.258331298828125,0.4637603759765625,0.545074462890625
221109,-0.4783172607421875,0.8762359619140625,0.3843841552734375
221110,-0.7105865478515625,1.271087646484375,0.7946319580078125
221111,-0.9529876708984376,1.963653564453125,2.44256591796875
221112,-1.079483032226562,2.574844360351562,2.856719970703125
221113,-1.1402587890625,2.584503173828125,1.189605712890625
221114,-1.195587158203125,2.653076171875,0.3077392578125
221115,-1.134628295898438,2.826507568359375,0.0912322998046875
221116,-1.00543212890625,2.925430297851562,0.1986541748046875
221117,-0.8543853759765625,3.017959594726562,0.390228271484375
221118,-0.700469970703125,3.218475341796875,0.5356597900390625
221119,-0.5655059814453125,3.532745361328125,0.365264892578125
221120,-0.2982940673828125,3.719085693359375,-0.2124786376953125
221121,0.0196533203125,3.750961303710938,-0.6850738525390625
221122,0.3319244384765625,3.535446166992188,-0.766357421875
221123,0.504425048828125,2.998336791992188,-0.569976806640625
221124,0.3756561279296875,2.358444213867188,-0.212799072265625
221125,0.0474090576171875,1.7103271484375,0.2244110107421875
221126,-0.22308349609375,1.2015380859375,0.662811279296875
221127,-0.3818206787109375,0.7288665771484375,0.9625244140625
221128,-0.394775390625,0.3813934326171875,0.926666259765625
221129,-0.365875244140625,0.168914794921875,0.6874542236328125
221130,-0.3551025390625,0.04766845703125,0.5264739990234375
221131,-0.3036956787109375,-0.0799560546875,0.5363922119140625
221132,-0.241363525390625,-0.193389892578125,0.5365142822265625
221133,-0.220001220703125,-0.2436065673828125,0.49114990234375
221134,-0.2216949462890625,-0.289520263671875,0.419586181640625
221135,-0.2211151123046875,-0.3297119140625,0.384857177734375
221136,-0.20709228515625,-0.319915771484375,0.38092041015625
221137,-0.2013397216796875,-0.25885009765625,0.358856201171875
221138,-0.241729736328125,-0.086181640625,0.3088836669921875
221139,-0.2790069580078125,0.149139404296875,0.1905364990234375
221140,-0.291351318359375,0.3387603759765625,0.0182952880859375
221141,-0.2871246337890625,0.5154266357421875,-0.10626220703125
221142,-0.2591552734375,0.722930908203125,-0.1880340576171875
221143,-0.19854736328125,0.9747772216796876,-0.3093414306640625
221144,-0.08416748046875,1.293701171875,-0.4720611572265625
221145,0.052886962890625,1.58935546875,-0.5886688232421875
221146,0.2133331298828125,1.745361328125,-0.7415618896484375
221147,0.3729248046875,1.628173828125,-0.797515869140625
221148,0.4533233642578125,1.235260009765625,-0.6743621826171875
221149,0.4079437255859375,0.84881591796875,-0.54473876953125
221150,0.2962188720703125,0.531280517578125,-0.4351348876953125
221151,0.1895294189453125,0.2845611572265625,-0.339935302734375
221152,0.1094818115234375,0.0856781005859375,-0.2541656494140625
221153,0.0753326416015625,-0.015228271484375,-0.1783599853515625
221154,0.0694427490234375,-0.0430908203125,-0.126983642578125
221155,0.0729217529296875,-0.05572509765625,-0.125701904296875
221156,0.0082550048828125,-0.0921478271484375,-0.1684417724609375
221157,-0.0162506103515625,-0.123931884765625,-0.1287841796875
221158,0.0574798583984375,-0.1832733154296875,0.1100311279296875
221159,0.060516357421875,-0.210479736328125,0.2696685791015625
221160,-0.0090789794921875,-0.2921142578125,0.7452392578125
221161,-0.162353515625,-0.4273681640625,1.482421875
221162,-0.218170166015625,-0.4192047119140625,1.302841186523438
221163,-0.1458892822265625,-0.226837158203125,0.9166412353515624
221164,-0.193756103515625,0.1280364990234375,0.3732757568359375
221165,-0.2923736572265625,0.4740753173828125,0.223052978515625
221166,-0.4153594970703125,0.78399658203125,0.416107177734375
221167,-0.5772705078125,1.0352783203125,0.7596588134765625
221168,-0.740966796875,1.228866577148438,0.900787353515625
221169,-0.8829193115234375,1.39178466796875,0.9988250732421876
221170,-0.946319580078125,1.528640747070312,1.144699096679688
221171,-0.921966552734375,1.610061645507812,0.9651336669921876
221172,-0.9329376220703124,1.733306884765625,0.5447845458984375
221173,-0.97161865234375,2.027618408203125,0.305023193359375
221174,-1.0126953125,2.438919067382812,0.3682403564453125
221175,-1.123397827148438,3.047286987304688,0.47125244140625
221176,-1.207077026367188,3.901885986328125,0.216888427734375
221177,-1.0740966796875,4.9259033203125,-0.5874786376953125
221178,-0.700225830078125,5.7412109375,-1.091354370117188
221179,-0.2068328857421875,5.70208740234375,-0.7904510498046875
221180,0.123809814453125,4.306365966796875,-0.7020416259765625
221181,0.2589263916015625,2.844711303710938,-0.713897705078125
221182,0.27325439453125,2.030136108398438,-0.3734893798828125
221183,0.125091552734375,1.395736694335938,-0.06768798828125
221184,0.01434326171875,0.8796844482421875,0.74298095703125
221185,0.003814697265625,0.464324951171875,1.221694946289062
221186,-0.036346435546875,0.3095855712890625,0.9703826904296876
221187,-0.1410675048828125,0.2097320556640625,0.5709991455078125
221188,-0.2170257568359375,0.0569610595703125,0.3698883056640625
221189,-0.2710113525390625,-0.121429443359375,0.31060791015625
221190,-0.322235107421875,-0.2538299560546875,0.3730010986328125
221191,-0.3588104248046875,-0.3452301025390625,0.517791748046875
221192,-0.3474578857421875,-0.437957763671875,0.6663055419921875
221193,-0.317230224609375,-0.4904327392578125,0.685455322265625
221194,-0.2951812744140625,-0.486724853515625,0.5803680419921875
221195,-0.28021240234375,-0.413665771484375,0.4581451416015625
221196,-0.2790679931640625,-0.274505615234375,0.331298828125
221197,-0.2767181396484375,-0.0487518310546875,0.198699951171875
221198,-0.2427520751953125,0.20068359375,0.056915283203125
221199,-0.2288055419921875,0.3589019775390625,-0.0556182861328125
221200,-0.2372894287109375,0.500274658203125,-0.1235504150390625
221201,-0.244964599609375,0.6605072021484375,-0.166229248046875
221202,-0.2494659423828125,0.8306121826171875,-0.2093353271484375
221203,-0.196929931640625,0.9746246337890624,-0.2697601318359375
221204,-0.050323486328125,1.093307495117188,-0.3610076904296875
221205,0.1372222900390625,1.159423828125,-0.4680938720703125
221206,0.2971649169921875,1.129989624023438,-0.5664825439453125
221207,0.4702301025390625,0.9807891845703124,-0.6441192626953125
221208,0.5804443359375,0.7016143798828125,-0.6883392333984375
221209,0.5715789794921875,0.435821533203125,-0.6840057373046875
221210,0.50531005859375,0.2443695068359375,-0.6095123291015625
221211,0.402923583984375,0.1206512451171875,-0.46258544921875
221212,0.2908477783203125,0.0638275146484375,-0.3081207275390625
221213,0.1936492919921875,0.0685577392578125,-0.1977691650390625
221214,0.1490020751953125,0.087860107421875,-0.1147918701171875
221215,0.130645751953125,0.112030029296875,-0.028106689453125
221216,0.11529541015625,0.142578125,0.054351806640625
221217,0.0859375,0.15435791015625,0.1117401123046875
221218,0.0352630615234375,0.15087890625,0.1997833251953125
221219,-0.037384033203125,0.18096923828125,0.3120269775390625
221220,-0.1434326171875,0.226593017578125,0.3332366943359375
221221,-0.33599853515625,0.324066162109375,0.1687774658203125
221222,-0.4378204345703125,0.361419677734375,0.3946533203125
221223,-0.439239501953125,0.358856201171875,0.8350067138671875
221224,-0.6478729248046875,0.6044769287109375,0.6419830322265625
221225,-0.77130126953125,0.8428497314453125,0.626220703125
221226,-0.7271728515625,1.068771362304688,1.064559936523438
221227,-0.78656005859375,1.595413208007812,2.230438232421875
221228,-0.895111083984375,1.94854736328125,2.314010620117188
221229,-0.890228271484375,1.873245239257812,1.270706176757812
221230,-0.8611907958984375,2.012008666992188,0.7955322265625
221231,-0.7595367431640625,2.24859619140625,0.4738311767578125
221232,-0.718597412109375,2.525100708007812,0.276275634765625
221233,-0.6667633056640625,3.067550659179688,0.1662750244140625
221234,-0.554351806640625,3.787857055664062,-0.0385894775390625
221235,-0.29107666015625,4.553176879882812,-0.544586181640625
221236,-0.1097259521484375,5.06622314453125,-0.916778564453125
221237,0.1479339599609375,4.625457763671875,-0.79644775390625
221238,0.2221832275390625,3.727935791015625,-0.746002197265625
221239,0.075164794921875,2.7969970703125,-0.3971099853515625
221240,-0.06884765625,1.957687377929688,-0.0590057373046875
221241,-0.109893798828125,1.388824462890625,0.275604248046875
221242,-0.102294921875,0.8969573974609375,0.572723388671875
221243,-0.053070068359375,0.390045166015625,0.7437744140625
221244,0.013031005859375,0.0753936767578125,0.733245849609375
221245,0.03717041015625,-0.108673095703125,0.5887908935546875
221246,0.0336456298828125,-0.21026611328125,0.4373321533203125
221247,-0.0169830322265625,-0.2813873291015625,0.3837890625
221248,-0.0515594482421875,-0.3465728759765625,0.344146728515625
221249,-0.0903472900390625,-0.39080810546875,0.288787841796875
221250,-0.140533447265625,-0.3943634033203125,0.2837371826171875
221251,-0.1929473876953125,-0.350555419921875,0.3876495361328125
221252,-0.224334716796875,-0.2378997802734375,0.5164794921875
221253,-0.198577880859375,-0.035064697265625,0.4874420166015625
221254,-0.1481170654296875,0.1721649169921875,0.290252685546875
221255,-0.0962066650390625,0.3763580322265625,0.0384368896484375
221256,-0.0732574462890625,0.531982421875,-0.13116455078125
221257,-0.0513763427734375,0.6777496337890625,-0.2367401123046875
221258,0.00103759765625,0.8715057373046875,-0.3589935302734375
221259,0.1079254150390625,1.109893798828125,-0.5436553955078125
221260,0.274627685546875,1.375946044921875,-0.800537109375
221261,0.423492431640625,1.490585327148438,-0.9637603759765624
221262,0.6124267578125,1.501235961914062,-0.9586181640625
221263,0.67333984375,1.301254272460938,-0.7544403076171875
221264,0.49420166015625,0.9215545654296876,-0.394439697265625
221265,0.2547607421875,0.5555572509765625,-0.0142822265625
221266,0.06304931640625,0.308837890625,0.1984710693359375
221267,-0.07244873046875,0.1619110107421875,0.1705780029296875
221268,-0.1542510986328125,0.0653839111328125,0.0534515380859375
221269,-0.16387939453125,-0.0263671875,0.071258544921875
221270,-0.1026611328125,-0.0836944580078125,0.224609375
221271,-0.049896240234375,-0.1420135498046875,0.344390869140625
221272,-0.0389404296875,-0.154541015625,0.36102294921875
221273,-0.0595245361328125,-0.1960296630859375,0.3787078857421875
221274,-0.0572967529296875,-0.2512664794921875,0.4435272216796875
221275,-0.0653076171875,-0.281585693359375,0.515411376953125
221276,-0.087890625,-0.2772674560546875,0.580902099609375
221277,-0.1123046875,-0.1805572509765625,0.5768280029296875
221278,-0.1475830078125,-0.041046142578125,0.442291259765625
221279,-0.2053070068359375,0.099029541015625,0.2653045654296875
221280,-0.358978271484375,0.3153839111328125,0.3053131103515625
221281,-0.69708251953125,0.81329345703125,0.6996307373046875
221282,-1.106887817382812,1.416427612304688,1.085586547851562
221283,-1.491500854492188,2.122055053710938,2.085906982421875
221284,-1.656646728515625,2.630416870117188,2.356948852539062
221285,-1.53814697265625,2.732254028320312,1.595733642578125
221286,-1.055389404296875,2.035537719726562,0.7505950927734375
221287,-0.618804931640625,1.13323974609375,0.3671722412109375
221288,-0.6800384521484375,1.23675537109375,0.16851806640625
221289,-0.6964263916015625,1.6258544921875,-0.168060302734375
221290,-0.6735382080078125,2.006591796875,-0.00775146484375
221291,-0.679534912109375,2.405548095703125,0.2179107666015625
221292,-0.49957275390625,3.104888916015625,-0.129150390625
221293,-0.331573486328125,4.135391235351562,-0.904510498046875
221294,-0.235443115234375,5.228652954101562,-1.709335327148438
221295,0.172210693359375,5.621856689453125,-1.349349975585938
221296,0.525543212890625,4.854049682617188,-0.9257049560546876
221297,0.4749603271484375,3.340286254882812,-1.05633544921875
221298,0.3016357421875,2.192367553710938,-0.688568115234375
221299,0.19244384765625,1.520004272460938,-0.42279052734375
221300,0.1118621826171875,1.061187744140625,-0.0145111083984375
221301,0.025665283203125,0.5755157470703125,0.8173675537109375
221302,0.01953125,-0.0256500244140625,2.0323486328125
221303,0.025634765625,-0.2892303466796875,2.06884765625
221304,-0.0696258544921875,-0.2389068603515625,1.509078979492188
221305,-0.111785888671875,-0.2814788818359375,1.101776123046875
221306,-0.154510498046875,-0.37786865234375,0.74969482421875
221307,-0.221343994140625,-0.4493408203125,0.4129180908203125
221308,-0.254638671875,-0.4358062744140625,0.2136993408203125
221309,-0.2793731689453125,-0.4338836669921875,0.21929931640625
221310,-0.304229736328125,-0.489166259765625,0.36578369140625
221311,-0.2982635498046875,-0.5022430419921875,0.5569000244140625
221312,-0.2744293212890625,-0.4456634521484375,0.7086334228515625
221313,-0.2467041015625,-0.30218505859375,0.634063720703125
221314,-0.2142333984375,-0.0947723388671875,0.3825225830078125
221315,-0.194122314453125,0.1109466552734375,0.1446075439453125
221316,-0.1803436279296875,0.285980224609375,-0.0363006591796875
221317,-0.1634674072265625,0.4164581298828125,-0.16339111328125
221318,-0.1594390869140625,0.549713134765625,-0.228668212890625
221319,-0.1734771728515625,0.679351806640625,-0.258087158203125
221320,-0.1602630615234375,0.795989990234375,-0.2761688232421875
221321,-0.1088714599609375,0.883941650390625,-0.309844970703125
221322,-0.02740478515625,0.9370574951171876,-0.3472442626953125
221323,0.0596160888671875,0.947479248046875,-0.4213104248046875
221324,0.11041259765625,0.926910400390625,-0.5438690185546875
221325,0.150604248046875,0.800628662109375,-0.578033447265625
221326,0.18218994140625,0.59130859375,-0.5491485595703125
221327,0.19708251953125,0.42193603515625,-0.494537353515625
221328,0.1973419189453125,0.3062591552734375,-0.4438934326171875
221329,0.1839599609375,0.209808349609375,-0.3868255615234375
221330,0.1715850830078125,0.1165618896484375,-0.31146240234375
221331,0.164642333984375,0.0725555419921875,-0.229644775390625
221332,0.1561126708984375,0.0522308349609375,-0.1585540771484375
221333,0.1465911865234375,0.0299835205078125,-0.0857696533203125
221334,0.1265869140625,0.0087127685546875,0.0061798095703125
221335,0.11517333984375,-0.02325439453125,0.103363037109375
221336,0.0933837890625,-0.037322998046875,0.1798858642578125
221337,0.0456695556640625,-0.01715087890625,0.2506866455078125
221338,-0.0452880859375,0.0511627197265625,0.2664642333984375
221339,-0.4463043212890625,0.530364990234375,-0.337432861328125
221340,-0.6392364501953125,1.002120971679688,2.113998413085938
221341,-0.6707305908203125,1.215911865234375,2.683364868164062
221342,-0.905303955078125,1.560821533203125,1.888626098632812
221343,-0.94049072265625,1.73101806640625,1.802581787109375
221344,-1.211593627929688,2.113616943359375,1.028305053710938
221345,-1.469375610351562,2.4068603515625,0.6190032958984375
221346,-1.331619262695312,2.501510620117188,0.57562255859375
221347,-1.132949829101562,2.659332275390625,0.55560302734375
221348,-0.9496917724609376,2.929428100585938,0.230682373046875
221349,-0.8541717529296875,3.34942626953125,-0.0599365234375
221350,-0.7244873046875,4.116241455078125,-0.7751312255859375
221351,-0.2561492919921875,5.05743408203125,-1.569229125976562
221352,0.25048828125,5.02069091796875,-0.7530364990234375
221353,0.62530517578125,4.11273193359375,-0.6391143798828125
221354,0.634063720703125,3.056106567382812,-0.754974365234375
221355,0.4342803955078125,2.142608642578125,-0.4993896484375
221356,0.259613037109375,1.515182495117188,-0.282958984375
221357,0.1084136962890625,1.111572265625,0.055999755859375
221358,-0.0455169677734375,0.687255859375,0.257843017578125
221359,-0.1346893310546875,0.2460174560546875,0.773345947265625
221360,-0.210968017578125,-0.1410675048828125,1.213150024414062
221361,-0.2369232177734375,-0.352508544921875,1.294708251953125
221362,-0.217742919921875,-0.4170074462890625,1.016845703125
221363,-0.2241058349609375,-0.401214599609375,0.587554931640625
221364,-0.2230224609375,-0.42816162109375,0.4130096435546875
221365,-0.1838226318359375,-0.4136199951171875,0.350799560546875
221366,-0.1931915283203125,-0.3518829345703125,0.283660888671875
221367,-0.225311279296875,-0.284027099609375,0.2821197509765625
221368,-0.238311767578125,-0.2213897705078125,0.303924560546875
221369,-0.212005615234375,-0.17840576171875,0.2847137451171875
221370,-0.1733856201171875,-0.0819244384765625,0.18646240234375
221371,-0.145263671875,0.0774993896484375,0.0576324462890625
221372,-0.11065673828125,0.2616119384765625,-0.0135040283203125
221373,-0.09271240234375,0.4080810546875,-0.025299072265625
221374,-0.05938720703125,0.5532073974609375,-0.0325469970703125
221375,0.003814697265625,0.7255706787109375,-0.0414886474609375
221376,0.133209228515625,0.90771484375,-0.1416168212890625
221377,0.294769287109375,1.164779663085938,-0.4251251220703125
221378,0.434661865234375,1.486709594726562,-0.83758544921875
221379,0.6214752197265625,1.757858276367188,-1.17852783203125
221380,0.7930450439453125,1.695510864257812,-1.135055541992188
221381,0.8696746826171875,1.362777709960938,-0.6432037353515625
221382,0.6652984619140625,0.893890380859375,-0.1580810546875
221383,0.2929534912109375,0.3628997802734375,0.3424224853515625
221384,0.0836181640625,0.16888427734375,0.236358642578125
221385,0.003021240234375,0.128204345703125,-0.0682525634765625
221386,-0.0700836181640625,0.02191162109375,-0.1114959716796875
221387,-0.0744781494140625,-0.1076507568359375,-0.065826416015625
221388,-0.0467681884765625,-0.16571044921875,-0.0060577392578125
221389,-0.0677337646484375,-0.1772918701171875,0.0367431640625
221390,-0.132568359375,-0.178131103515625,0.0784454345703125
221391,-0.1856231689453125,-0.228912353515625,0.1808624267578125
221392,-0.2474822998046875,-0.3365631103515625,0.3988189697265625
221393,-0.3571319580078125,-0.3513336181640625,0.4727630615234375
221394,-0.456207275390625,-0.2650299072265625,0.42669677734375
221395,-0.4605865478515625,-0.1342926025390625,0.4197235107421875
221396,-0.407012939453125,0.1124114990234375,0.440155029296875
221397,-0.3594512939453125,0.4965972900390625,0.552886962890625
221398,-0.471435546875,0.8554840087890625,0.8430023193359375
221399,-0.69085693359375,1.233001708984375,1.072616577148438
221400,-0.8078155517578125,1.543914794921875,1.397262573242188
221401,-0.971221923828125,2.031768798828125,1.952529907226562
221402,-1.20452880859375,2.475479125976562,1.490280151367188
221403,-1.233505249023438,2.570114135742188,0.6804962158203125
221404,-1.134246826171875,2.659530639648438,0.5659027099609375
221405,-1.001419067382812,2.89581298828125,0.6136322021484375
221406,-0.84552001953125,3.160232543945312,0.7013397216796875
221407,-0.660552978515625,3.4493408203125,0.4015655517578125
221408,-0.363006591796875,3.745452880859375,-0.02813720703125
221409,-0.0145721435546875,4.003463745117188,-0.4250946044921875
221410,0.2461090087890625,3.999801635742188,-0.6909332275390625
221411,0.472686767578125,3.597579956054688,-0.6578216552734375
221412,0.6231536865234375,3.130661010742188,-0.460296630859375
221413,0.3749542236328125,2.44000244140625,0.0814971923828125
221414,-0.0811004638671875,1.701980590820312,0.4380645751953125
221415,-0.2335357666015625,1.266433715820312,0.5442962646484375
221416,-0.2610931396484375,0.9595489501953124,0.52276611328125
221417,-0.28106689453125,0.6792144775390625,0.4415435791015625
221418,-0.310394287109375,0.38568115234375,0.314544677734375
221419,-0.3356781005859375,0.2217559814453125,0.1745147705078125
221420,-0.3534393310546875,0.11358642578125,0.1570892333984375
221421,-0.2969207763671875,0.0386199951171875,0.29376220703125
221422,-0.2562103271484375,-0.0432586669921875,0.31524658203125
221423,-0.244598388671875,-0.150543212890625,0.287994384765625
221424,-0.24774169921875,-0.273529052734375,0.3484649658203125
221425,-0.241546630859375,-0.415252685546875,0.548614501953125
221426,-0.1911468505859375,-0.5158538818359375,0.740478515625
221427,-0.118438720703125,-0.511322021484375,0.7511138916015625
221428,-0.064605712890625,-0.3235931396484375,0.5408782958984375
221429,-0.0410308837890625,-0.009033203125,0.2420806884765625
221430,-0.02630615234375,0.2646026611328125,-0.0485687255859375
221431,-0.053497314453125,0.44879150390625,-0.2716064453125
221432,-0.0736846923828125,0.5965423583984375,-0.361968994140625
221433,-0.052032470703125,0.754425048828125,-0.3955841064453125
221434,-0.0009613037109375,0.9298095703125,-0.404632568359375
221435,0.05865478515625,1.0858154296875,-0.456573486328125
221436,0.114013671875,1.193939208984375,-0.5472564697265625
221437,0.1701202392578125,1.215927124023438,-0.6433258056640625
221438,0.2237701416015625,1.146743774414062,-0.6646575927734375
221439,0.26617431640625,1.017379760742188,-0.5721893310546875
221440,0.27508544921875,0.78009033203125,-0.45477294921875
221441,0.253814697265625,0.55914306640625,-0.370025634765625
221442,0.2115936279296875,0.3794403076171875,-0.282318115234375
221443,0.1780548095703125,0.23138427734375,-0.2187042236328125
221444,0.166473388671875,0.1227264404296875,-0.1862640380859375
221445,0.13311767578125,0.00787353515625,-0.0984039306640625
221446,0.0841217041015625,-0.114471435546875,0.0872344970703125
221447,0.0161895751953125,-0.1800384521484375,0.2271270751953125
221448,-0.1700439453125,-0.180755615234375,0.2110137939453125
221449,-0.3173675537109375,-0.2201080322265625,0.4833831787109375
221450,-0.140106201171875,-0.4180450439453125,1.0577392578125
221451,-0.0938873291015625,-0.433197021484375,0.720794677734375
221452,-0.1737060546875,-0.3299407958984375,0.288818359375
221453,-0.24212646484375,-0.1795196533203125,0.144439697265625
221454,-0.2905731201171875,-0.0167694091796875,0.0695953369140625
221455,-0.35028076171875,0.243560791015625,-0.0059967041015625
221456,-0.4338226318359375,0.60723876953125,0.2566986083984375
221457,-0.554351806640625,0.980194091796875,0.9828643798828124
221458,-0.770477294921875,1.4625244140625,1.6092529296875
221459,-1.002731323242188,1.965164184570312,2.5433349609375
221460,-1.224899291992188,2.36029052734375,2.226455688476562
221461,-1.384780883789062,2.493804931640625,0.6895294189453125
221462,-1.371795654296875,2.637939453125,0.21710205078125
221463,-1.173751831054688,2.87921142578125,0.3936767578125
221464,-1.12603759765625,3.35589599609375,0.4288330078125
221465,-0.976104736328125,3.942092895507812,0.286865234375
221466,-0.6005401611328125,4.497024536132812,-0.079071044921875
221467,-0.1581878662109375,4.7696533203125,-0.3969573974609375
221468,0.2046051025390625,4.342849731445312,-0.5052337646484375
221469,0.447662353515625,3.523193359375,-0.511627197265625
221470,0.512237548828125,2.774383544921875,-0.0807647705078125
221471,0.20281982421875,1.941253662109375,0.285980224609375
221472,-0.0774078369140625,1.42535400390625,0.4441375732421875
221473,-0.1507415771484375,1.102508544921875,0.431488037109375
221474,-0.1275787353515625,0.88360595703125,0.4010162353515625
221475,-0.13482666015625,0.6667633056640625,0.3391265869140625
221476,-0.169891357421875,0.4080657958984375,0.2353057861328125
221477,-0.1704254150390625,0.267486572265625,0.1529693603515625
221478,-0.202972412109375,0.123321533203125,0.132598876953125
221479,-0.223236083984375,-0.007080078125,0.2345733642578125
221480,-0.23797607421875,-0.0960845947265625,0.31365966796875
221481,-0.2719879150390625,-0.1782073974609375,0.343109130859375
221482,-0.322357177734375,-0.280731201171875,0.37774658203125
221483,-0.3429412841796875,-0.3750457763671875,0.4930267333984375
221484,-0.344879150390625,-0.480224609375,0.5994873046875
221485,-0.309722900390625,-0.5087127685546875,0.577972412109375
221486,-0.234771728515625,-0.3790283203125,0.4033660888671875
221487,-0.151458740234375,-0.086181640625,0.147705078125
221488,-0.0900726318359375,0.191558837890625,-0.094818115234375
221489,-0.06964111328125,0.3422088623046875,-0.2828826904296875
221490,-0.0557403564453125,0.4418487548828125,-0.3897247314453125
221491,-0.013336181640625,0.5307464599609375,-0.434295654296875
221492,0.053497314453125,0.6204681396484375,-0.424591064453125
221493,0.0965728759765625,0.7049102783203125,-0.43316650390625
221494,0.1552581787109375,0.7930755615234375,-0.4875946044921875
221495,0.2156524658203125,0.8659210205078125,-0.52978515625
221496,0.23974609375,0.8704986572265625,-0.4217376708984375
221497,0.28436279296875,0.7790069580078125,-0.271148681640625
221498,0.3525848388671875,0.6089324951171875,-0.165679931640625
221499,0.354522705078125,0.4060516357421875,-0.1269073486328125
221500,0.2856597900390625,0.2648162841796875,-0.091888427734375
221501,0.2128753662109375,0.193023681640625,-0.008209228515625
221502,0.1387786865234375,0.13885498046875,0.0491485595703125
221503,0.06170654296875,0.1054229736328125,0.0796356201171875
221504,0.0165863037109375,0.104248046875,0.091796875
221505,0.009765625,0.1272735595703125,0.104400634765625
221506,-0.019195556640625,0.0984954833984375,0.090911865234375
221507,-0.0738372802734375,0.0559234619140625,0.1708984375
221508,-0.12664794921875,0.0322113037109375,0.2865753173828125
221509,-0.154510498046875,-0.0009307861328125,0.383331298828125
221510,-0.203857421875,0.011474609375,0.464935302734375
221511,-0.256683349609375,0.111083984375,0.6147613525390625
221512,-0.294219970703125,0.4063873291015625,0.7764129638671875
221513,-0.5523681640625,1.098312377929688,0.9799957275390624
221514,-0.911834716796875,1.705917358398438,1.81280517578125
221515,-1.27001953125,2.19866943359375,2.421859741210938
221516,-1.47271728515625,2.471206665039062,1.750473022460938
221517,-1.440719604492188,2.464614868164062,1.112472534179688
221518,-1.069808959960938,2.17510986328125,1.1097412109375
221519,-0.804290771484375,1.745285034179688,1.229827880859375
221520,-0.68804931640625,1.560333251953125,1.318191528320312
221521,-0.6266937255859375,1.918106079101562,1.519180297851562
221522,-0.652740478515625,2.379638671875,1.585113525390625
221523,-0.7249908447265625,2.747161865234375,1.402496337890625
221524,-0.633636474609375,3.195236206054688,0.62298583984375
221525,-0.48583984375,3.683502197265625,-0.3602447509765625
221526,-0.4408111572265625,4.195724487304688,-0.89593505859375
221527,-0.1231536865234375,4.565200805664062,-0.9942779541015624
221528,0.4896087646484375,4.046707153320312,-0.6511993408203125
221529,0.5833740234375,2.9609375,-0.3809661865234375
221530,0.3560028076171875,1.974334716796875,-0.009735107421875
221531,0.1711883544921875,1.321273803710938,0.30224609375
221532,0.1049346923828125,0.9551544189453124,0.43255615234375
221533,0.0040740966796875,0.502777099609375,0.3460540771484375
221534,-0.0867767333984375,0.120330810546875,0.1917724609375
221535,-0.2119293212890625,-0.181610107421875,0.053924560546875
221536,-0.26617431640625,-0.3684234619140625,0.1041412353515625
221537,-0.219757080078125,-0.4972381591796875,0.34967041015625
221538,-0.28485107421875,-0.671173095703125,0.4702911376953125
221539,-0.457611083984375,-0.95428466796875,0.628753662109375
221540,-0.5892333984375,-1.2086181640625,0.771881103515625
221541,-0.5404815673828125,-1.111968994140625,0.6860809326171875
221542,-0.32037353515625,-0.583831787109375,0.3898468017578125
221543,-0.18914794921875,-0.0731658935546875,0.0751495361328125
221544,-0.140594482421875,0.1953277587890625,-0.2007293701171875
221545,-0.0846710205078125,0.38641357421875,-0.3197174072265625
221546,-0.016326904296875,0.5839080810546875,-0.3277130126953125
221547,0.050048828125,0.7799835205078125,-0.3760833740234375
221548,0.119781494140625,0.955474853515625,-0.4478912353515625
221549,0.253173828125,1.131271362304688,-0.5642547607421875
221550,0.391204833984375,1.29254150390625,-0.696441650390625
221551,0.49993896484375,1.402877807617188,-0.7382965087890625
221552,0.5475921630859375,1.411224365234375,-0.6938629150390625
221553,0.5147247314453125,1.132888793945312,-0.4891510009765625
221554,0.424560546875,0.6531219482421875,-0.201202392578125
221555,0.3038482666015625,0.312835693359375,0.1197662353515625
221556,0.1826934814453125,0.0860443115234375,0.278778076171875
221557,0.087249755859375,0.011077880859375,0.2048187255859375
221558,0.0015106201171875,0.004791259765625,0.101409912109375
221559,-0.0521392822265625,-0.04486083984375,0.2000885009765625
221560,-0.05938720703125,-0.103179931640625,0.38458251953125
221561,-0.0762176513671875,-0.13165283203125,0.398895263671875
221562,-0.108245849609375,-0.171356201171875,0.3407135009765625
221563,-0.0996551513671875,-0.22125244140625,0.3189849853515625
221564,-0.125579833984375,-0.225860595703125,0.2685546875
221565,-0.1803741455078125,-0.117584228515625,0.2158355712890625
221566,-0.1721343994140625,0.0002899169921875,0.2009429931640625
221567,-0.172119140625,0.093048095703125,0.2001800537109375
221568,-0.1673126220703125,0.189666748046875,0.1644744873046875
221569,-0.1607818603515625,0.37664794921875,0.1256103515625
221570,-0.280059814453125,0.7644805908203125,0.3064727783203125
221571,-0.633270263671875,1.338394165039062,0.91668701171875
221572,-0.927154541015625,1.970703125,1.89190673828125
221573,-1.19091796875,2.37579345703125,2.555038452148438
221574,-1.389251708984375,2.377761840820312,1.974227905273438
221575,-1.502517700195312,2.348602294921875,1.533279418945312
221576,-1.48358154296875,2.313034057617188,1.3179931640625
221577,-1.185775756835938,2.120880126953125,0.78741455078125
221578,-0.8004913330078125,2.245162963867188,0.7143707275390625
221579,-0.6303863525390625,2.51019287109375,0.89617919921875
221580,-0.472137451171875,2.98895263671875,0.6892852783203125
221581,-0.245361328125,3.527008056640625,0.025360107421875
221582,-0.1479949951171875,4.165267944335938,-0.415557861328125
221583,0.0106658935546875,4.7706298828125,-0.535247802734375
221584,0.4634246826171875,4.596206665039062,-0.2019500732421875
221585,0.59356689453125,3.436553955078125,0.092376708984375
221586,0.192962646484375,2.125320434570312,0.3460845947265625
221587,-0.0615081787109375,1.332733154296875,0.4693603515625
221588,-0.08514404296875,0.8999481201171875,0.557830810546875
221589,-0.07379150390625,0.55963134765625,0.516021728515625
221590,-0.1605224609375,0.1205291748046875,0.314849853515625
221591,-0.2039031982421875,-0.1375274658203125,-0.018768310546875
221592,-0.262725830078125,-0.2548828125,-0.1920928955078125
221593,-0.310882568359375,-0.3035736083984375,0.028778076171875
221594,-0.2931365966796875,-0.41619873046875,0.32305908203125
221595,-0.2938232421875,-0.529632568359375,0.5209808349609375
221596,-0.3316650390625,-0.632110595703125,0.661163330078125
221597,-0.368133544921875,-0.709442138671875,0.732025146484375
221598,-0.3774871826171875,-0.6329803466796875,0.646575927734375
221599,-0.3065032958984375,-0.3350830078125,0.386993408203125
221600,-0.2545318603515625,0.04046630859375,0.0693817138671875
221601,-0.246246337890625,0.3073272705078125,-0.152435302734375
221602,-0.222747802734375,0.4870452880859375,-0.228485107421875
221603,-0.1712799072265625,0.6729583740234375,-0.2746734619140625
221604,-0.1119537353515625,0.8437347412109375,-0.3046417236328125
221605,-0.025054931640625,1.01531982421875,-0.3213043212890625
221606,0.1188812255859375,1.192276000976562,-0.362213134765625
221607,0.28118896484375,1.343795776367188,-0.4994964599609375
221608,0.3637237548828125,1.366043090820312,-0.5434112548828125
221609,0.40472412109375,1.1822509765625,-0.504608154296875
221610,0.415435791015625,0.800140380859375,-0.38873291015625
221611,0.3481597900390625,0.4864044189453125,-0.2923126220703125
221612,0.2571258544921875,0.2743072509765625,-0.20611572265625
221613,0.194427490234375,0.143157958984375,-0.1555023193359375
221614,0.1259307861328125,0.0449981689453125,-0.0742645263671875
221615,0.061767578125,-0.0135040283203125,0.0345458984375
221616,0.0321197509765625,-0.0578460693359375,0.1343231201171875
221617,0.02435302734375,-0.0818939208984375,0.180389404296875
221618,0.0051727294921875,-0.0842437744140625,0.1464385986328125
221619,-0.0347900390625,-0.077239990234375,0.1121368408203125
221620,-0.0830078125,-0.092193603515625,0.127227783203125
221621,-0.1142578125,-0.1269989013671875,0.2480010986328125
221622,-0.1340484619140625,-0.193359375,0.6551971435546875
221623,-0.1983184814453125,-0.210479736328125,0.9095001220703124
221624,-0.2537841796875,-0.12200927734375,0.618896484375
221625,-0.272705078125,-0.00274658203125,0.3039703369140625
221626,-0.259002685546875,0.113006591796875,0.195220947265625
221627,-0.263763427734375,0.3195953369140625,0.2105255126953125
221628,-0.3428192138671875,0.698944091796875,0.469635009765625
221629,-0.5444793701171875,1.10028076171875,1.150909423828125
221630,-0.7752227783203125,1.518875122070312,1.878753662109375
221631,-0.913970947265625,1.869125366210938,2.177047729492188
221632,-0.948638916015625,1.925201416015625,1.50048828125
221633,-1.040084838867188,2.150253295898438,0.72998046875
221634,-1.06182861328125,2.497207641601562,0.52777099609375
221635,-1.024948120117188,2.848922729492188,0.699981689453125
221636,-0.976715087890625,3.427276611328125,0.771392822265625
221637,-1.004302978515625,4.17724609375,0.719573974609375
221638,-0.8334808349609375,4.816864013671875,0.4280548095703125
221639,-0.50640869140625,5.2281494140625,0.0566864013671875
221640,-0.0084075927734375,5.110076904296875,-0.462554931640625
221641,0.481475830078125,4.47119140625,-0.8328704833984375
221642,0.6450653076171875,3.602584838867188,-0.6874542236328125
221643,0.4656982421875,2.569351196289062,-0.240631103515625
221644,0.147216796875,1.73883056640625,0.1936798095703125
221645,-0.0460357666015625,1.168624877929688,0.5998992919921875
221646,-0.04779052734375,0.792816162109375,0.871124267578125
221647,-0.1103668212890625,0.413726806640625,0.743682861328125
221648,-0.1360626220703125,0.1258087158203125,0.446685791015625
221649,-0.139617919921875,-0.026580810546875,0.147705078125
221650,-0.1696624755859375,-0.17340087890625,-0.041259765625
221651,-0.1857757568359375,-0.29541015625,0.002288818359375
221652,-0.1802215576171875,-0.4272308349609375,0.152069091796875
221653,-0.2040252685546875,-0.5557708740234375,0.3552703857421875
221654,-0.2253570556640625,-0.681640625,0.65740966796875
221655,-0.20684814453125,-0.7598419189453125,0.8834228515625
221656,-0.183502197265625,-0.76348876953125,0.810546875
221657,-0.187530517578125,-0.67669677734375,0.5349578857421875
221658,-0.2135009765625,-0.448455810546875,0.251251220703125
221659,-0.186859130859375,-0.1531982421875,0.0382537841796875
221660,-0.145965576171875,0.0686187744140625,-0.1707305908203125
221661,-0.124786376953125,0.2115936279296875,-0.3111572265625
221662,-0.107666015625,0.3432159423828125,-0.3731689453125
221663,-0.0754852294921875,0.4696044921875,-0.391204833984375
221664,-0.0450897216796875,0.580810546875,-0.3790740966796875
221665,-0.0110626220703125,0.6537322998046875,-0.359283447265625
221666,0.071136474609375,0.701507568359375,-0.3398284912109375
221667,0.199951171875,0.7529296875,-0.348663330078125
221668,0.2974090576171875,0.7884521484375,-0.3915863037109375
221669,0.33746337890625,0.7957000732421875,-0.447296142578125
221670,0.3300323486328125,0.7153778076171875,-0.4912567138671875
221671,0.3308258056640625,0.526947021484375,-0.45947265625
221672,0.302215576171875,0.3199615478515625,-0.3714752197265625
221673,0.219940185546875,0.187164306640625,-0.2728271484375
221674,0.1559600830078125,0.1505279541015625,-0.1354522705078125
221675,0.113555908203125,0.1731109619140625,0.011383056640625
221676,0.0609130859375,0.1634521484375,0.1250762939453125
221677,0.0187835693359375,0.156005859375,0.2248382568359375
221678,-0.0218353271484375,0.1537628173828125,0.260467529296875
221679,-0.10308837890625,0.13995361328125,0.2967376708984375
221680,-0.1578826904296875,0.0955352783203125,0.4585113525390625
221681,-0.144500732421875,0.0539093017578125,0.6253204345703125
221682,-0.2205963134765625,0.08306884765625,0.5566253662109375
221683,-0.3585968017578125,0.288665771484375,0.4511566162109375
221684,-0.5413360595703125,0.702484130859375,0.5732574462890625
221685,-0.7302093505859375,1.1539306640625,0.8972625732421875
221686,-0.9104461669921876,1.599349975585938,1.519821166992188
221687,-1.064529418945312,2.055770874023438,2.1170654296875
221688,-1.111724853515625,2.280014038085938,1.812530517578125
221689,-1.009262084960938,2.245330810546875,0.8710174560546875
221690,-0.822235107421875,2.1407470703125,0.2168731689453125
221691,-0.6187286376953125,1.995773315429688,0.001373291015625
221692,-0.5394287109375,2.002212524414062,0.06451416015625
221693,-0.55181884765625,2.251113891601562,0.2626190185546875
221694,-0.5406951904296875,2.67974853515625,0.5673065185546875
221695,-0.489532470703125,3.37945556640625,0.839385986328125
221696,-0.3971099853515625,4.256271362304688,0.924560546875
221697,-0.282440185546875,4.76141357421875,0.202301025390625
221698,0.024871826171875,4.659042358398438,-0.6209564208984375
221699,0.422332763671875,4.207977294921875,-0.9035491943359376
221700,0.5713348388671875,3.31622314453125,-0.5974273681640625
221701,0.324920654296875,2.225006103515625,-0.1651458740234375
221702,0.051544189453125,1.351776123046875,0.392974853515625
221703,-0.0124969482421875,0.8390045166015625,0.9020538330078124
221704,-0.1263580322265625,0.380767822265625,1.067138671875
221705,-0.2310638427734375,-0.016937255859375,0.94189453125
221706,-0.2109527587890625,-0.1466064453125,0.6539306640625
221707,-0.235443115234375,-0.240020751953125,0.3449249267578125
221708,-0.232208251953125,-0.3938140869140625,0.2634735107421875
221709,-0.18408203125,-0.5554656982421875,0.4220428466796875
221710,-0.1687774658203125,-0.7450103759765625,0.77691650390625
221711,-0.1721343994140625,-0.8301544189453125,1.113662719726562
221712,-0.24432373046875,-0.87554931640625,1.042068481445312
221713,-0.3133544921875,-0.855316162109375,0.574981689453125
221714,-0.2945404052734375,-0.7224884033203125,0.1009368896484375
221715,-0.194305419921875,-0.4333343505859375,-0.1412200927734375
221716,-0.12164306640625,-0.1441650390625,-0.1478271484375
221717,-0.104095458984375,0.08087158203125,-0.113006591796875
221718,-0.1227874755859375,0.2645416259765625,-0.1138458251953125
221719,-0.1558380126953125,0.4567718505859375,-0.120941162109375
221720,-0.159912109375,0.6692047119140625,-0.12237548828125
221721,-0.056427001953125,0.9617156982421876,-0.0987701416015625
221722,0.2636260986328125,1.322174072265625,-0.4011993408203125
221723,0.6294708251953125,1.695709228515625,-1.000900268554688
221724,0.89959716796875,1.930953979492188,-1.280715942382812
221725,0.9795074462890624,1.849685668945312,-1.266021728515625
221726,0.8624420166015625,1.461929321289062,-0.9880523681640624
221727,0.607177734375,0.97308349609375,-0.69683837890625
221728,0.3132781982421875,0.5963897705078125,-0.514007568359375
221729,0.1515655517578125,0.366058349609375,-0.3495635986328125
221730,0.10406494140625,0.2185821533203125,-0.182861328125
221731,0.13116455078125,0.123504638671875,-0.055999755859375
221732,0.1751708984375,0.0717926025390625,0.024261474609375
221733,0.2072296142578125,0.0272979736328125,0.064666748046875
221734,0.2096710205078125,-0.053192138671875,0.2551727294921875
221735,0.1285400390625,-0.2680511474609375,0.879150390625
221736,0.0182952880859375,-0.353515625,1.089462280273438
221737,-0.1487274169921875,-0.2660675048828125,0.568878173828125
221738,-0.4531097412109375,-0.31500244140625,1.350204467773438
221739,-0.5477447509765625,-0.3424530029296875,1.40771484375
221740,-0.4349822998046875,-0.17791748046875,0.482086181640625
221741,-0.4134521484375,0.020538330078125,0.1192779541015625
221742,-0.4367523193359375,0.2848968505859375,-0.044769287109375
221743,-0.4392852783203125,0.6591033935546875,-0.1469879150390625
221744,-0.3787994384765625,0.8266754150390625,0.06048583984375
221745,-0.375885009765625,0.833953857421875,0.4312591552734375
221746,-0.4955291748046875,1.186447143554688,0.8007049560546875
221747,-0.694000244140625,1.899063110351562,1.748092651367188
221748,-0.981201171875,2.59100341796875,1.016708374023438
221749,-1.299972534179688,3.524505615234375,0.4694366455078125
221750,-1.378875732421875,4.427825927734375,0.3818206787109375
221751,-1.2015380859375,5.179672241210938,0.35430908203125
221752,-0.74395751953125,5.55511474609375,0.4839935302734375
221753,-0.1677398681640625,5.609695434570312,-0.0723876953125
221754,0.27215576171875,5.28399658203125,-1.186492919921875
221755,0.5616455078125,4.326980590820312,-1.775588989257812
221756,0.561370849609375,3.341445922851562,-1.139495849609375
221757,0.410614013671875,2.60186767578125,-0.3805084228515625
221758,0.2728271484375,2.0477294921875,-0.1478271484375
221759,0.1003265380859375,1.524917602539062,-0.0912322998046875
221760,-0.0176239013671875,0.9414520263671876,0.12286376953125
221761,-0.010528564453125,0.4640045166015625,0.689605712890625
221762,-0.0618438720703125,0.0859222412109375,0.9488067626953124
221763,-0.13592529296875,-0.110443115234375,0.4425048828125
221764,-0.1675872802734375,-0.296630859375,0.0785675048828125
221765,-0.1140899658203125,-0.5065765380859375,0.0123138427734375
221766,-0.0838470458984375,-0.6144561767578125,-0.052215576171875
221767,-0.11309814453125,-0.7196044921875,0.0727081298828125
221768,-0.1556396484375,-0.8562774658203125,0.485107421875
221769,-0.1842193603515625,-0.9795989990234376,0.8044586181640625
221770,-0.2335205078125,-1.0391845703125,0.5922088623046875
221771,-0.27410888671875,-1.041915893554688,0.103668212890625
221772,-0.24951171875,-0.8443756103515625,-0.269317626953125
221773,-0.1456146240234375,-0.384429931640625,-0.369232177734375
221774,-0.0799102783203125,-0.10870361328125,-0.3597412109375
221775,-0.0868682861328125,0.0550689697265625,-0.37762451171875
221776,-0.120697021484375,0.1707611083984375,-0.4217529296875
221777,-0.14154052734375,0.275054931640625,-0.4236297607421875
221778,-0.158050537109375,0.39654541015625,-0.391143798828125
221779,-0.141876220703125,0.5590057373046875,-0.3558349609375
221780,-0.0753173828125,0.6901092529296875,-0.3897857666015625
221781,0.01251220703125,0.815826416015625,-0.4510040283203125
221782,0.128204345703125,0.9542694091796876,-0.5441741943359375
221783,0.2309722900390625,1.0067138671875,-0.674285888671875
221784,0.2772674560546875,0.965576171875,-0.8059539794921875
221785,0.2877197265625,0.8407135009765625,-0.8673553466796875
221786,0.3197479248046875,0.59149169921875,-0.7545623779296875
221787,0.316680908203125,0.3851165771484375,-0.5926361083984375
221788,0.2569580078125,0.2910919189453125,-0.392120361328125
221789,0.221710205078125,0.24664306640625,-0.104644775390625
221790,0.1578216552734375,0.14739990234375,0.4992523193359375
221791,-0.0083465576171875,-0.0116729736328125,1.309326171875
221792,-0.208465576171875,0.0827789306640625,1.014694213867188
221793,-0.2205657958984375,0.202117919921875,0.7827606201171875
221794,-0.090179443359375,0.2424774169921875,0.7016754150390625
221795,-0.2379302978515625,0.4312591552734375,0.3264007568359375
221796,-0.573486328125,0.707183837890625,0.1784820556640625
221797,-0.866455078125,0.89019775390625,0.6909942626953125
221798,-1.178009033203125,1.216705322265625,1.693038940429688
221799,-1.570037841796875,1.77154541015625,2.656539916992188
221800,-1.587005615234375,2.016998291015625,2.217575073242188
221801,-1.56695556640625,2.167037963867188,1.219512939453125
221802,-1.383132934570312,2.279373168945312,0.6416015625
221803,-1.123077392578125,2.295394897460938,0.378143310546875
221804,-1.063858032226562,2.250015258789062,0.178955078125
221805,-1.115768432617188,2.37957763671875,0.0211029052734375
221806,-1.137130737304688,2.638351440429688,0.034576416015625
221807,-1.20306396484375,3.132431030273438,0.1298828125
221808,-1.26385498046875,3.78790283203125,0.158172607421875
221809,-1.158233642578125,4.447158813476562,0.022491455078125
221810,-0.68115234375,4.620101928710938,-0.0752410888671875
221811,-0.1566314697265625,4.033401489257812,-0.2277984619140625
221812,-0.0009765625,3.110198974609375,-0.48895263671875
221813,0.072296142578125,2.303695678710938,-0.33544921875
221814,0.11468505859375,1.621047973632812,-0.0321044921875
221815,0.1011199951171875,1.110946655273438,0.1434783935546875
221816,0.043487548828125,0.645294189453125,0.284820556640625
221817,-0.0015716552734375,0.2429046630859375,0.2237091064453125
221818,-0.05340576171875,-0.0613250732421875,0.041290283203125
221819,-0.0940704345703125,-0.2519073486328125,-0.001129150390625
221820,-0.0787200927734375,-0.3509979248046875,0.0938873291015625
221821,-0.0512847900390625,-0.4668731689453125,0.2779693603515625
221822,-0.0138702392578125,-0.55743408203125,0.521697998046875
221823,-0.0135345458984375,-0.58807373046875,0.6165618896484375
221824,-0.0877685546875,-0.5341339111328125,0.46868896484375
221825,-0.1674346923828125,-0.4255218505859375,0.2298126220703125
221826,-0.24444580078125,-0.22918701171875,0.058380126953125
221827,-0.2942047119140625,0.012176513671875,-0.0734100341796875
221828,-0.307830810546875,0.2307891845703125,-0.1720428466796875
221829,-0.3194580078125,0.42669677734375,-0.253173828125
221830,-0.3181304931640625,0.5905303955078125,-0.3533477783203125
221831,-0.2644500732421875,0.73980712890625,-0.450897216796875
221832,-0.128326416015625,0.865081787109375,-0.5510101318359375
221833,0.0589141845703125,0.9130401611328124,-0.619903564453125
221834,0.2462158203125,0.83740234375,-0.699310302734375
221835,0.3621826171875,0.5943603515625,-0.759368896484375
221836,0.400909423828125,0.3594818115234375,-0.7209014892578125
221837,0.3996124267578125,0.2041015625,-0.6436767578125
221838,0.3696441650390625,0.085418701171875,-0.56805419921875
221839,0.3236083984375,0.018768310546875,-0.468353271484375
221840,0.3108673095703125,-0.0015106201171875,-0.348052978515625
221841,0.29656982421875,-0.0169677734375,-0.17706298828125
221842,0.2576141357421875,0.007843017578125,-0.0565185546875
221843,0.2043914794921875,0.029083251953125,0.0462493896484375
221844,0.1468658447265625,0.06170654296875,0.128021240234375
221845,0.10211181640625,0.072845458984375,0.1712188720703125
221846,0.040924072265625,0.0699005126953125,0.1898956298828125
221847,-0.0184326171875,0.0162200927734375,0.62811279296875
221848,-0.2135772705078125,-0.211395263671875,2.538833618164062
221849,-0.4136962890625,-0.1102142333984375,1.799331665039062
221850,-0.29364013671875,0.119873046875,0.8889617919921875
221851,-0.2339935302734375,0.35791015625,0.3645172119140625
221852,-0.348846435546875,0.68438720703125,0.0079193115234375
221853,-0.5162353515625,0.9784698486328124,-0.012237548828125
221854,-0.573822021484375,1.074966430664062,0.4980926513671875
221855,-0.8197174072265625,1.617996215820312,2.581283569335938
221856,-1.04833984375,2.106613159179688,2.558364868164062
221857,-1.2835693359375,2.406356811523438,1.372039794921875
221858,-1.555404663085938,2.771011352539062,0.776092529296875
221859,-1.545822143554688,3.069549560546875,0.1961212158203125
221860,-1.3751220703125,3.391769409179688,0.0741729736328125
221861,-1.397201538085938,3.770050048828125,0.0701751708984375
221862,-1.3779296875,4.052078247070312,0.0835418701171875
221863,-1.145217895507812,4.108245849609375,0.0154876708984375
221864,-0.821868896484375,4.2340087890625,-0.4412078857421875
221865,-0.5560150146484375,4.307052612304688,-1.127853393554688
221866,-0.3295745849609375,4.056991577148438,-1.6534423828125
221867,-0.0734710693359375,3.32635498046875,-1.658966064453125
221868,0.042510986328125,2.544464111328125,-1.149765014648438
221869,0.0801544189453125,1.999801635742188,-0.3029022216796875
221870,0.084991455078125,1.453643798828125,0.1381378173828125
221871,0.054931640625,0.9559326171875,0.3135528564453125
221872,0.0381317138671875,0.501708984375,0.7038726806640625
221873,0.0058746337890625,0.006195068359375,1.28363037109375
221874,-0.063201904296875,-0.3049163818359375,1.0252685546875
221875,-0.1105499267578125,-0.3308868408203125,0.5256805419921875
221876,-0.13861083984375,-0.3257293701171875,0.1389617919921875
221877,-0.1163177490234375,-0.349334716796875,0.0063629150390625
221878,-0.11834716796875,-0.3731689453125,0.0636138916015625
221879,-0.1456451416015625,-0.4062652587890625,0.1508941650390625
221880,-0.2327880859375,-0.3685760498046875,0.1278228759765625
221881,-0.3589019775390625,-0.2242431640625,-0.0001068115234375
221882,-0.4290313720703125,-0.05084228515625,-0.1570281982421875
221883,-0.468414306640625,0.1087646484375,-0.259552001953125
221884,-0.4910125732421875,0.243896484375,-0.37408447265625
221885,-0.481475830078125,0.3843536376953125,-0.5103759765625
221886,-0.4251556396484375,0.49237060546875,-0.5736541748046875
221887,-0.3238983154296875,0.540191650390625,-0.5736236572265625
221888,-0.1885528564453125,0.554473876953125,-0.514984130859375
221889,-0.0543670654296875,0.5446319580078125,-0.4420623779296875
221890,0.061187744140625,0.4942779541015625,-0.3762969970703125
221891,0.146331787109375,0.3964691162109375,-0.329193115234375
221892,0.1891021728515625,0.2879638671875,-0.2998199462890625
221893,0.205413818359375,0.1857757568359375,-0.314971923828125
221894,0.1753387451171875,0.0982208251953125,-0.366973876953125
221895,0.1048126220703125,0.0549163818359375,-0.3228912353515625
221896,0.0896759033203125,0.01611328125,0.01007080078125
221897,0.084930419921875,-0.063323974609375,0.5667266845703125
221898,0.0391693115234375,-0.1569061279296875,0.900360107421875
221899,1.52587890625e-05,-0.172027587890625,0.663818359375
221900,0.0235748291015625,-0.193939208984375,0.5491485595703125
221901,0.0489501953125,-0.2053375244140625,0.5537872314453125
221902,0.0106048583984375,-0.1171875,0.3876953125
221903,-0.0615081787109375,0.05316162109375,0.1922454833984375
221904,-0.12744140625,0.226470947265625,0.0782928466796875
221905,-0.208984375,0.47900390625,0.11920166015625
221906,-0.351043701171875,0.797454833984375,0.342315673828125
221907,-0.559722900390625,1.073715209960938,0.7385101318359375
221908,-0.797149658203125,1.36163330078125,1.325927734375
221909,-1.177658081054688,1.832717895507812,2.158966064453125
221910,-1.545181274414062,2.2384033203125,1.722702026367188
221911,-1.66644287109375,2.431869506835938,0.8227996826171875
221912,-1.615478515625,2.540740966796875,0.35382080078125
221913,-1.461685180664062,2.6796875,0.24517822265625
221914,-1.3548583984375,2.803115844726562,0.375732421875
221915,-1.273818969726562,2.98455810546875,0.541107177734375
221916,-1.235198974609375,3.301376342773438,0.585479736328125
221917,-1.08575439453125,3.653961181640625,0.48614501953125
221918,-0.8607025146484375,4.050399780273438,-0.0373077392578125
221919,-0.5454864501953125,4.282318115234375,-0.7945098876953125
221920,-0.0235443115234375,4.012847900390625,-1.265609741210938
221921,0.2687225341796875,3.294708251953125,-0.935211181640625
221922,0.1787872314453125,2.676132202148438,-0.5411834716796875
221923,0.1589813232421875,2.063491821289062,-0.2231597900390625
221924,0.15850830078125,1.481979370117188,0.31640625
221925,0.09930419921875,0.975677490234375,0.8815765380859375
221926,0.017608642578125,0.52691650390625,1.130401611328125
221927,-0.064056396484375,0.224822998046875,0.979736328125
221928,-0.1216583251953125,0.06561279296875,0.5456085205078125
221929,-0.1702880859375,-0.0334014892578125,0.19378662109375
221930,-0.202301025390625,-0.128509521484375,0.080108642578125
221931,-0.223846435546875,-0.2607421875,0.0864410400390625
221932,-0.25048828125,-0.392547607421875,0.193450927734375
221933,-0.290283203125,-0.5088653564453125,0.4058990478515625
