time_idx,accelerometerAccelerationX(G),accelerometerAccelerationY(G),accelerometerAccelerationZ(G)
260000,-0.1536102294921875,0.7298583984375,0.4447784423828125
260001,-0.146697998046875,0.7125396728515625,0.4765472412109375
260002,-0.16571044921875,0.7156219482421875,0.5177001953125
260003,-0.1925506591796875,0.727142333984375,0.53704833984375
260004,-0.2071685791015625,0.7351226806640625,0.5288848876953125
260005,-0.2132720947265625,0.75189208984375,0.5262298583984375
260006,-0.20965576171875,0.73687744140625,0.5622406005859375
260007,-0.2000885009765625,0.7028045654296875,0.5869598388671875
260008,-0.199981689453125,0.67218017578125,0.574493408203125
260009,-0.20758056640625,0.6435546875,0.5693511962890625
260010,-0.2208709716796875,0.62615966796875,0.5829315185546875
260011,-0.2249908447265625,0.6309051513671875,0.622833251953125
260012,-0.2256622314453125,0.6717071533203125,0.6747283935546875
260013,-0.2164306640625,0.7308807373046875,0.7196197509765625
260014,-0.1972503662109375,0.7982940673828125,0.7077789306640625
260015,-0.1668548583984375,0.86962890625,0.6420745849609375
260016,-0.1370391845703125,0.9372406005859376,0.573394775390625
260017,-0.1055450439453125,1.0057373046875,0.5164337158203125
260018,-0.064117431640625,1.06976318359375,0.4669189453125
260019,-0.018829345703125,1.13555908203125,0.4162750244140625
260020,0.0160064697265625,1.195632934570312,0.3551177978515625
260021,0.02679443359375,1.245712280273438,0.2896270751953125
260022,0.035186767578125,1.26348876953125,0.24420166015625
260023,-0.0203704833984375,1.271499633789062,0.16717529296875
260024,-0.07763671875,1.253662109375,0.1388702392578125
260025,-0.1396636962890625,1.205307006835938,0.1667327880859375
260026,-0.1890411376953125,1.129013061523438,0.1842041015625
260027,-0.228729248046875,1.0455322265625,0.203704833984375
260028,-0.268890380859375,0.9911956787109376,0.140472412109375
260029,-0.2984619140625,0.9512939453125,0.03839111328125
260030,-0.3327789306640625,0.9288482666015624,-0.0639190673828125
260031,-0.366729736328125,0.907440185546875,-0.11737060546875
260032,-0.4042510986328125,0.8694915771484375,-0.0521087646484375
260033,-0.451324462890625,0.82830810546875,0.1068115234375
260034,-0.488677978515625,0.76806640625,0.2811737060546875
260035,-0.487701416015625,0.6951141357421875,0.4062042236328125
260036,-0.4498291015625,0.665679931640625,0.418243408203125
260037,-0.3857421875,0.6897735595703125,0.3575592041015625
260038,-0.311859130859375,0.7201995849609375,0.3202056884765625
260039,-0.2740325927734375,0.7727508544921875,0.32867431640625
260040,-0.266510009765625,0.8521728515625,0.3757476806640625
260041,-0.2330780029296875,0.923797607421875,0.420684814453125
260042,-0.171875,0.9518280029296876,0.4253692626953125
260043,-0.073944091796875,0.959747314453125,0.3982391357421875
260044,0.0470123291015625,0.940032958984375,0.3561248779296875
260045,0.14361572265625,0.9052886962890624,0.290679931640625
260046,0.2033233642578125,0.87957763671875,0.22027587890625
260047,0.2059783935546875,0.8823699951171875,0.1685333251953125
260048,0.1498260498046875,0.9123992919921876,0.156494140625
260049,0.0968170166015625,0.966644287109375,0.2226715087890625
260050,0.05303955078125,1.034637451171875,0.294830322265625
260051,-0.0087738037109375,1.103317260742188,0.22991943359375
260052,-0.03955078125,1.109420776367188,0.2360992431640625
260053,-0.0442962646484375,1.096771240234375,0.2776641845703125
260054,-0.071014404296875,1.070755004882812,0.30108642578125
260055,-0.1063079833984375,1.025970458984375,0.3331756591796875
260056,-0.146209716796875,0.9705810546875,0.3575439453125
260057,-0.185577392578125,0.932098388671875,0.352630615234375
260058,-0.20989990234375,0.911407470703125,0.32965087890625
260059,-0.2224884033203125,0.90313720703125,0.320648193359375
260060,-0.2315521240234375,0.9019622802734376,0.3338165283203125
260061,-0.234405517578125,0.90850830078125,0.35247802734375
260062,-0.2337646484375,0.9174346923828124,0.373687744140625
260063,-0.2373809814453125,0.9365234375,0.3849639892578125
260064,-0.244873046875,0.95367431640625,0.3878936767578125
260065,-0.2286376953125,0.9525604248046876,0.410430908203125
260066,-0.193939208984375,0.933807373046875,0.4342498779296875
260067,-0.1735382080078125,0.90008544921875,0.47161865234375
260068,-0.1569671630859375,0.850494384765625,0.526214599609375
260069,-0.156494140625,0.771026611328125,0.57379150390625
260070,-0.211669921875,0.7002105712890625,0.5993804931640625
260071,-0.252471923828125,0.6705322265625,0.600921630859375
260072,-0.2964324951171875,0.6839752197265625,0.5876922607421875
260073,-0.3273468017578125,0.7160491943359375,0.5724334716796875
260074,-0.333831787109375,0.7825775146484375,0.6153564453125
260075,-0.3423309326171875,0.86383056640625,0.6610565185546875
260076,-0.372833251953125,0.9670867919921876,0.6619720458984375
260077,-0.380401611328125,1.035354614257812,0.6285858154296875
260078,-0.3571624755859375,1.10247802734375,0.5659027099609375
260079,-0.2976226806640625,1.13641357421875,0.4965362548828125
260080,-0.23504638671875,1.139373779296875,0.4119720458984375
260081,-0.1973724365234375,1.128082275390625,0.32568359375
260082,-0.1592864990234375,1.112640380859375,0.2594757080078125
260083,-0.116119384765625,1.07305908203125,0.2014312744140625
260084,-0.0701751708984375,1.023696899414062,0.174407958984375
260085,-0.019012451171875,1.00848388671875,0.229156494140625
260086,0.0220794677734375,1.013351440429688,0.318267822265625
260087,0.05194091796875,1.01849365234375,0.3947906494140625
260088,0.062713623046875,1.018280029296875,0.4299468994140625
260089,0.044708251953125,1.006546020507812,0.401031494140625
260090,0.0162353515625,0.9811553955078124,0.3181304931640625
260091,-0.0090484619140625,0.9386749267578124,0.2309112548828125
260092,-0.0118255615234375,0.8683929443359375,0.1706390380859375
260093,-0.0026702880859375,0.8003082275390625,0.12872314453125
260094,0.0039825439453125,0.7603759765625,0.1130828857421875
260095,0.0183563232421875,0.749237060546875,0.131011962890625
260096,0.044647216796875,0.781890869140625,0.1683502197265625
260097,0.074859619140625,0.8913421630859375,0.208984375
260098,0.1020050048828125,1.044097900390625,0.2783203125
260099,0.1072235107421875,1.1864013671875,0.183258056640625
260100,0.0444183349609375,1.367645263671875,-0.0252685546875
260101,-0.0162811279296875,1.523330688476562,-0.1424102783203125
260102,-0.0589141845703125,1.608261108398438,-0.21044921875
260103,-0.0694732666015625,1.62237548828125,-0.3008270263671875
260104,-0.089599609375,1.59844970703125,-0.426788330078125
260105,-0.116058349609375,1.53546142578125,-0.540130615234375
260106,-0.11895751953125,1.426513671875,-0.6037139892578125
260107,-0.135528564453125,1.262252807617188,-0.6003875732421875
260108,-0.1447601318359375,1.112457275390625,-0.5182952880859375
260109,-0.1593170166015625,1.007720947265625,-0.4212646484375
260110,-0.1709747314453125,0.9254150390625,-0.323211669921875
260111,-0.1725311279296875,0.862030029296875,-0.2197723388671875
260112,-0.1574249267578125,0.8100738525390625,-0.1195220947265625
260113,-0.145294189453125,0.77197265625,-0.0438079833984375
260114,-0.1394805908203125,0.7318572998046875,0.028961181640625
260115,-0.1310272216796875,0.6910552978515625,0.1247406005859375
260116,-0.1120452880859375,0.655303955078125,0.1969146728515625
260117,-0.07958984375,0.6184539794921875,0.264434814453125
260118,-0.05352783203125,0.601470947265625,0.286102294921875
260119,-0.0244140625,0.5970611572265625,0.22296142578125
260120,0.0198516845703125,0.61676025390625,0.1483154296875
260121,0.0691375732421875,0.6630859375,0.0954742431640625
260122,0.1087646484375,0.7251129150390625,0.058929443359375
260123,0.1247100830078125,0.784759521484375,0.0419158935546875
260124,0.0989837646484375,0.831329345703125,0.074951171875
260125,0.0366363525390625,0.8363494873046875,0.1787872314453125
260126,-0.063079833984375,0.83721923828125,0.34368896484375
260127,-0.154083251953125,0.8351287841796875,0.4917449951171875
260128,-0.2197418212890625,0.8125,0.5208587646484375
260129,-0.260589599609375,0.776336669921875,0.4635467529296875
260130,-0.2925262451171875,0.7431488037109375,0.44580078125
260131,-0.331695556640625,0.7291717529296875,0.5085296630859375
260132,-0.366302490234375,0.7259521484375,0.60198974609375
260133,-0.392578125,0.7524566650390625,0.6858673095703125
260134,-0.4140625,0.7975921630859375,0.7586669921875
260135,-0.426025390625,0.84552001953125,0.79132080078125
260136,-0.4278106689453125,0.8801727294921875,0.781158447265625
260137,-0.418609619140625,0.8986663818359375,0.73944091796875
260138,-0.3886566162109375,0.9110107421875,0.6999053955078125
260139,-0.359039306640625,0.9355316162109376,0.672576904296875
260140,-0.33734130859375,0.9866180419921876,0.63861083984375
260141,-0.3292083740234375,1.0419921875,0.5965576171875
260142,-0.3223114013671875,1.093826293945312,0.5728607177734375
260143,-0.313568115234375,1.124496459960938,0.5468597412109375
260144,-0.294830322265625,1.149368286132812,0.516845703125
260145,-0.2779388427734375,1.173614501953125,0.463775634765625
260146,-0.2781524658203125,1.175491333007812,0.3697052001953125
260147,-0.2964935302734375,1.152435302734375,0.2854461669921875
260148,-0.3194427490234375,1.09149169921875,0.2062835693359375
260149,-0.3399200439453125,1.01409912109375,0.147430419921875
260150,-0.3558807373046875,0.925018310546875,0.1333770751953125
260151,-0.3813018798828125,0.8307037353515625,0.207275390625
260152,-0.4000091552734375,0.7483367919921875,0.3302764892578125
260153,-0.42333984375,0.69708251953125,0.3849334716796875
260154,-0.457061767578125,0.6717376708984375,0.3616485595703125
260155,-0.4610595703125,0.6595458984375,0.3045654296875
260156,-0.4564971923828125,0.6683502197265625,0.231689453125
260157,-0.4230499267578125,0.7014312744140625,0.1962738037109375
260158,-0.36053466796875,0.784942626953125,0.19171142578125
260159,-0.245452880859375,0.897674560546875,0.221649169921875
260160,-0.1175537109375,0.977508544921875,0.2782135009765625
260161,-0.0100555419921875,1.031753540039062,0.3393707275390625
260162,0.0641326904296875,1.103912353515625,0.34100341796875
260163,0.1056060791015625,1.154891967773438,0.2744903564453125
260164,0.1245880126953125,1.183273315429688,0.2092742919921875
260165,0.1367034912109375,1.19549560546875,0.13311767578125
260166,0.1485137939453125,1.186965942382812,0.0588836669921875
260167,0.1513824462890625,1.174850463867188,0.0398712158203125
260168,0.1501617431640625,1.162490844726562,0.081817626953125
260169,0.130523681640625,1.121994018554688,0.1693878173828125
260170,0.0492095947265625,1.06060791015625,0.27191162109375
260171,-0.07659912109375,0.9960784912109376,0.342926025390625
260172,-0.1860504150390625,0.9608612060546876,0.3901824951171875
260173,-0.2794189453125,0.9483795166015624,0.4315032958984375
260174,-0.3324432373046875,0.9371490478515624,0.4304351806640625
260175,-0.36163330078125,0.933135986328125,0.432861328125
260176,-0.37469482421875,0.90643310546875,0.4535675048828125
260177,-0.369110107421875,0.8677978515625,0.515899658203125
260178,-0.368408203125,0.841156005859375,0.588409423828125
260179,-0.357757568359375,0.823577880859375,0.6110076904296875
260180,-0.367401123046875,0.8206634521484375,0.646453857421875
260181,-0.35919189453125,0.8262176513671875,0.667144775390625
260182,-0.3614959716796875,0.855010986328125,0.7580413818359375
260183,-0.39422607421875,0.881561279296875,0.8978271484375
260184,-0.440765380859375,0.899932861328125,0.9716033935546876
260185,-0.4761505126953125,0.8863677978515625,0.9397735595703124
260186,-0.49591064453125,0.829071044921875,0.8478240966796875
260187,-0.5046234130859375,0.7509002685546875,0.7906341552734375
260188,-0.505462646484375,0.6659088134765625,0.7812042236328125
260189,-0.47314453125,0.5716552734375,0.77130126953125
260190,-0.43597412109375,0.4969940185546875,0.74468994140625
260191,-0.4019775390625,0.4738922119140625,0.7292022705078125
260192,-0.3686065673828125,0.504638671875,0.7212371826171875
260193,-0.3232269287109375,0.5724945068359375,0.672119140625
260194,-0.2788238525390625,0.646209716796875,0.535552978515625
260195,-0.2158203125,0.7129364013671875,0.409454345703125
260196,-0.17022705078125,0.785400390625,0.3291778564453125
260197,-0.150421142578125,0.86163330078125,0.269622802734375
260198,-0.1352691650390625,0.9171600341796876,0.2336883544921875
260199,-0.1065521240234375,0.9470977783203124,0.23199462890625
260200,-0.08953857421875,0.9657135009765624,0.2615203857421875
260201,-0.073486328125,1.02362060546875,0.3003082275390625
260202,-0.0478668212890625,1.094207763671875,0.341949462890625
260203,-0.0074615478515625,1.1656494140625,0.3682861328125
260204,0.025177001953125,1.22772216796875,0.3867645263671875
260205,0.04736328125,1.271743774414062,0.416290283203125
260206,0.062286376953125,1.262191772460938,0.4328460693359375
260207,0.03997802734375,1.17572021484375,0.42047119140625
260208,-0.012054443359375,1.071182250976562,0.3720245361328125
260209,-0.077301025390625,0.993743896484375,0.326934814453125
260210,-0.1351318359375,0.936065673828125,0.32525634765625
260211,-0.14324951171875,0.8715972900390625,0.3568878173828125
260212,-0.124725341796875,0.8341522216796875,0.37347412109375
260213,-0.1029052734375,0.8088836669921875,0.355438232421875
260214,-0.0810546875,0.7935791015625,0.345672607421875
260215,-0.0694732666015625,0.8287353515625,0.3738555908203125
260216,-0.080322265625,0.9159698486328124,0.430328369140625
260217,-0.1199188232421875,1.034088134765625,0.4749603271484375
260218,-0.1654815673828125,1.142578125,0.464599609375
260219,-0.19305419921875,1.231781005859375,0.3975067138671875
260220,-0.2023162841796875,1.277984619140625,0.286041259765625
260221,-0.2057952880859375,1.278533935546875,0.167510986328125
260222,-0.207763671875,1.244918823242188,0.0803375244140625
260223,-0.2037506103515625,1.19384765625,0.0496368408203125
260224,-0.193328857421875,1.13372802734375,0.05047607421875
260225,-0.1859130859375,1.068557739257812,0.0746612548828125
260226,-0.186431884765625,1.0003662109375,0.1143341064453125
260227,-0.1843719482421875,0.9357757568359376,0.1705322265625
260228,-0.190185546875,0.873077392578125,0.23956298828125
260229,-0.2079620361328125,0.8159332275390625,0.29498291015625
260230,-0.2189483642578125,0.77313232421875,0.3395843505859375
260231,-0.226898193359375,0.738250732421875,0.3867340087890625
260232,-0.2337799072265625,0.7139129638671875,0.451904296875
260233,-0.23785400390625,0.703887939453125,0.52203369140625
260234,-0.2334442138671875,0.6990814208984375,0.565399169921875
260235,-0.2102508544921875,0.6991119384765625,0.581298828125
260236,-0.1833038330078125,0.71990966796875,0.541534423828125
260237,-0.1566314697265625,0.739105224609375,0.5071868896484375
260238,-0.1257781982421875,0.7601318359375,0.4925537109375
260239,-0.1178436279296875,0.776336669921875,0.5162200927734375
260240,-0.1340179443359375,0.7646026611328125,0.602142333984375
260241,-0.1661529541015625,0.7532196044921875,0.69281005859375
260242,-0.20947265625,0.75213623046875,0.7419281005859375
260243,-0.2559356689453125,0.7493743896484375,0.7669219970703125
260244,-0.3112640380859375,0.759124755859375,0.7920379638671875
260245,-0.3524017333984375,0.7814788818359375,0.8065643310546875
260246,-0.372528076171875,0.7957763671875,0.8237762451171875
260247,-0.3498992919921875,0.7976531982421875,0.8283233642578125
260248,-0.2807769775390625,0.8211517333984375,0.8009033203125
260249,-0.2035980224609375,0.8521881103515625,0.7631378173828125
260250,-0.1442413330078125,0.88189697265625,0.718017578125
260251,-0.0915985107421875,0.921417236328125,0.65960693359375
260252,-0.0496673583984375,0.9812774658203124,0.606109619140625
260253,-0.0128936767578125,1.05230712890625,0.5699920654296875
260254,0.0192413330078125,1.11895751953125,0.53851318359375
260255,0.04974365234375,1.162918090820312,0.457244873046875
260256,0.0388336181640625,1.210357666015625,0.3731231689453125
260257,0.026519775390625,1.237899780273438,0.290435791015625
260258,0.033294677734375,1.224517822265625,0.17218017578125
260259,-0.01885986328125,1.24395751953125,0.0730743408203125
260260,-0.0688934326171875,1.21002197265625,0.109100341796875
260261,-0.131439208984375,1.125259399414062,0.165802001953125
260262,-0.2061309814453125,1.028488159179688,0.1666259765625
260263,-0.2649993896484375,0.9206695556640624,0.122283935546875
260264,-0.3077545166015625,0.81451416015625,0.0485992431640625
260265,-0.3414459228515625,0.7127685546875,-0.0074920654296875
260266,-0.374847412109375,0.624969482421875,-0.0190887451171875
260267,-0.4203643798828125,0.554931640625,0.0527801513671875
260268,-0.471405029296875,0.5003204345703125,0.1815032958984375
260269,-0.518890380859375,0.46923828125,0.29254150390625
260270,-0.5517425537109375,0.48095703125,0.327850341796875
260271,-0.53851318359375,0.55340576171875,0.2867889404296875
260272,-0.4707489013671875,0.689208984375,0.2208709716796875
260273,-0.3740081787109375,0.831787109375,0.1807861328125
260274,-0.2580413818359375,0.935150146484375,0.1823577880859375
260275,-0.143798828125,1.016265869140625,0.2132110595703125
260276,-0.0471649169921875,1.069015502929688,0.2671661376953125
260277,0.0243682861328125,1.091415405273438,0.3307952880859375
260278,0.0943603515625,1.096084594726562,0.35845947265625
260279,0.1660614013671875,1.075790405273438,0.328765869140625
260280,0.2340545654296875,1.061752319335938,0.2730712890625
260281,0.2756805419921875,1.09466552734375,0.26611328125
260282,0.3061065673828125,1.08343505859375,0.2331390380859375
260283,0.2955169677734375,1.099517822265625,0.0706939697265625
260284,0.266571044921875,1.13421630859375,0.010833740234375
260285,0.243988037109375,1.119430541992188,0.033843994140625
260286,0.2154083251953125,1.114242553710938,0.0577239990234375
260287,0.157379150390625,1.090072631835938,0.103424072265625
260288,0.0926055908203125,1.060562133789062,0.171539306640625
260289,0.0194244384765625,1.041610717773438,0.265045166015625
260290,-0.043365478515625,1.02947998046875,0.3314666748046875
260291,-0.09478759765625,1.001022338867188,0.4115447998046875
260292,-0.1344451904296875,0.962493896484375,0.4879608154296875
260293,-0.1701507568359375,0.9038238525390624,0.5330352783203125
260294,-0.20001220703125,0.8376617431640625,0.5517578125
260295,-0.2108612060546875,0.82000732421875,0.5424041748046875
260296,-0.2199249267578125,0.8446502685546875,0.546173095703125
260297,-0.220458984375,0.86083984375,0.5521697998046875
260298,-0.207244873046875,0.8894805908203125,0.597137451171875
260299,-0.17352294921875,0.9324798583984376,0.656005859375
260300,-0.1428375244140625,0.96142578125,0.7107391357421875
260301,-0.1243743896484375,0.9631805419921876,0.7524871826171875
260302,-0.112060546875,0.9257659912109376,0.7556610107421875
260303,-0.11968994140625,0.8647003173828125,0.753936767578125
260304,-0.163360595703125,0.8157958984375,0.7855224609375
260305,-0.22308349609375,0.7734832763671875,0.8406524658203125
260306,-0.2898712158203125,0.7558135986328125,0.840362548828125
260307,-0.348175048828125,0.763580322265625,0.7812957763671875
260308,-0.382293701171875,0.7886810302734375,0.68310546875
260309,-0.388641357421875,0.821075439453125,0.5946197509765625
260310,-0.37237548828125,0.8535003662109375,0.519683837890625
260311,-0.345947265625,0.8949737548828125,0.4420318603515625
260312,-0.3029937744140625,0.9351043701171876,0.3739013671875
260313,-0.2468719482421875,0.96636962890625,0.3209686279296875
260314,-0.190887451171875,1.002151489257812,0.278228759765625
260315,-0.140350341796875,1.035614013671875,0.2438812255859375
260316,-0.09619140625,1.064682006835938,0.21514892578125
260317,-0.0504913330078125,1.081680297851562,0.1944427490234375
260318,-0.0072479248046875,1.067779541015625,0.179046630859375
260319,0.0308990478515625,1.02325439453125,0.176239013671875
260320,0.06634521484375,0.9607696533203124,0.1803131103515625
260321,0.0935516357421875,0.8991546630859375,0.1913909912109375
260322,0.106048583984375,0.8461761474609375,0.230133056640625
260323,0.105438232421875,0.817474365234375,0.2707977294921875
260324,0.0866851806640625,0.828125,0.296630859375
260325,0.040283203125,0.8582763671875,0.3245849609375
260326,-0.013671875,0.8803253173828125,0.35186767578125
260327,-0.0530853271484375,0.8992919921875,0.39312744140625
260328,-0.100006103515625,0.9369049072265624,0.404632568359375
260329,-0.156494140625,0.9822998046875,0.3661651611328125
260330,-0.2016143798828125,1.021133422851562,0.303192138671875
260331,-0.2350311279296875,1.07373046875,0.2676239013671875
260332,-0.2554931640625,1.153976440429688,0.275390625
260333,-0.26824951171875,1.257568359375,0.288818359375
260334,-0.26788330078125,1.350540161132812,0.291168212890625
260335,-0.23895263671875,1.393356323242188,0.260406494140625
260336,-0.201202392578125,1.392593383789062,0.2089996337890625
260337,-0.1893768310546875,1.33551025390625,0.14306640625
260338,-0.174560546875,1.217453002929688,0.0919342041015625
260339,-0.157196044921875,1.089599609375,0.0572357177734375
260340,-0.1436767578125,1.000152587890625,0.0504913330078125
260341,-0.1297149658203125,0.94696044921875,0.07867431640625
260342,-0.120330810546875,0.9074249267578124,0.1139678955078125
260343,-0.1109619140625,0.8806610107421875,0.1359100341796875
260344,-0.0942535400390625,0.8598785400390625,0.15087890625
260345,-0.0837554931640625,0.8554534912109375,0.203033447265625
260346,-0.095977783203125,0.8624420166015625,0.276947021484375
260347,-0.118499755859375,0.867218017578125,0.34173583984375
260348,-0.136749267578125,0.8392333984375,0.39202880859375
260349,-0.157379150390625,0.7961578369140625,0.4200286865234375
260350,-0.1674957275390625,0.7701873779296875,0.4291839599609375
260351,-0.171722412109375,0.7564544677734375,0.4458465576171875
260352,-0.1944732666015625,0.7591705322265625,0.467041015625
260353,-0.2379608154296875,0.7608642578125,0.4934844970703125
260354,-0.2664642333984375,0.755401611328125,0.53857421875
260355,-0.2826080322265625,0.73858642578125,0.608551025390625
260356,-0.30303955078125,0.7255859375,0.7108917236328125
260357,-0.3295745849609375,0.6931915283203125,0.777374267578125
260358,-0.33984375,0.654296875,0.7443695068359375
260359,-0.335784912109375,0.6340484619140625,0.667633056640625
260360,-0.31927490234375,0.6251068115234375,0.6061553955078125
260361,-0.3061676025390625,0.621673583984375,0.597015380859375
260362,-0.2836456298828125,0.6180419921875,0.6362762451171875
260363,-0.2776947021484375,0.6320648193359375,0.7326507568359375
260364,-0.269989013671875,0.662750244140625,0.7993927001953125
260365,-0.261444091796875,0.70025634765625,0.8087921142578125
260366,-0.26483154296875,0.7310791015625,0.7731475830078125
260367,-0.2696685791015625,0.7541961669921875,0.713409423828125
260368,-0.2739105224609375,0.7925567626953125,0.6632537841796875
260369,-0.288421630859375,0.83416748046875,0.6093902587890625
260370,-0.2971038818359375,0.8863983154296875,0.5362091064453125
260371,-0.29864501953125,0.9455413818359376,0.4381866455078125
260372,-0.300445556640625,1.009597778320312,0.3747711181640625
260373,-0.2858734130859375,1.080169677734375,0.3155670166015625
260374,-0.262939453125,1.169219970703125,0.2483062744140625
260375,-0.2297821044921875,1.248077392578125,0.1742706298828125
260376,-0.2067108154296875,1.313995361328125,0.1258087158203125
260377,-0.1692352294921875,1.361480712890625,0.107391357421875
260378,-0.13897705078125,1.37054443359375,0.0659637451171875
260379,-0.106689453125,1.33734130859375,-0.00738525390625
260380,-0.076629638671875,1.277084350585938,-0.06640625
260381,-0.06024169921875,1.179840087890625,-0.1009063720703125
260382,-0.0671539306640625,1.073822021484375,-0.093902587890625
260383,-0.1027984619140625,0.9785308837890624,-0.0624237060546875
260384,-0.143646240234375,0.894683837890625,-0.009918212890625
260385,-0.1874847412109375,0.8424224853515625,0.039459228515625
260386,-0.226654052734375,0.8235626220703125,0.0703887939453125
260387,-0.266693115234375,0.8428192138671875,0.0843963623046875
260388,-0.2875823974609375,0.88262939453125,0.0864715576171875
260389,-0.267242431640625,0.9444732666015624,0.084991455078125
260390,-0.223846435546875,1.010452270507812,0.0564117431640625
260391,-0.17626953125,1.0469970703125,0.00537109375
260392,-0.134918212890625,1.074081420898438,-0.0527191162109375
260393,-0.0955810546875,1.095306396484375,-0.1086578369140625
260394,-0.0472869873046875,1.112014770507812,-0.15301513671875
260395,0.006591796875,1.120346069335938,-0.1792755126953125
260396,0.0563201904296875,1.124862670898438,-0.206298828125
260397,0.086395263671875,1.118743896484375,-0.2421112060546875
260398,0.1010894775390625,1.109710693359375,-0.272857666015625
260399,0.1024322509765625,1.096923828125,-0.2738189697265625
260400,0.1047210693359375,1.077865600585938,-0.20513916015625
260401,0.084381103515625,1.070358276367188,-0.0975799560546875
260402,0.020172119140625,1.0587158203125,-0.0157928466796875
260403,-0.0564117431640625,1.04736328125,0.0573883056640625
260404,-0.115966796875,1.027206420898438,0.155120849609375
260405,-0.1482696533203125,1.007034301757812,0.2855377197265625
260406,-0.1659698486328125,0.9866485595703124,0.413482666015625
260407,-0.183258056640625,0.9414825439453124,0.6502685546875
260408,-0.19232177734375,0.8813934326171875,0.7751312255859375
260409,-0.179840087890625,0.8015899658203125,0.911163330078125
260410,-0.2136383056640625,0.775390625,1.10980224609375
260411,-0.2242584228515625,0.7932281494140625,0.757232666015625
260412,-0.1848297119140625,0.8681488037109375,0.3853607177734375
260413,-0.1385955810546875,0.940887451171875,0.2656097412109375
260414,-0.091644287109375,0.9732513427734376,0.35638427734375
260415,-0.0496978759765625,0.968536376953125,0.5335235595703125
260416,-0.0296783447265625,0.9438629150390624,0.66619873046875
260417,-0.0523834228515625,0.8874359130859375,0.710418701171875
260418,-0.11248779296875,0.7829742431640625,0.6783599853515625
260419,-0.180389404296875,0.7168426513671875,0.6166534423828125
260420,-0.2483367919921875,0.7283172607421875,0.5872802734375
260421,-0.2921600341796875,0.77496337890625,0.5738983154296875
260422,-0.308837890625,0.822296142578125,0.5367889404296875
260423,-0.3218536376953125,0.8671722412109375,0.46795654296875
260424,-0.337554931640625,0.9094390869140624,0.3866119384765625
260425,-0.3492279052734375,0.945770263671875,0.3022613525390625
260426,-0.35540771484375,0.9766082763671876,0.23370361328125
260427,-0.359161376953125,1.005203247070312,0.1761322021484375
260428,-0.3472900390625,1.02587890625,0.1197357177734375
260429,-0.313507080078125,1.033767700195312,0.07672119140625
260430,-0.263214111328125,1.040069580078125,0.018096923828125
260431,-0.2156982421875,1.034561157226562,-0.0364227294921875
260432,-0.19134521484375,1.03521728515625,-0.0867156982421875
260433,-0.1955413818359375,1.043121337890625,-0.108978271484375
260434,-0.1981353759765625,1.054794311523438,-0.0883331298828125
260435,-0.1798858642578125,1.0703125,-0.01287841796875
260436,-0.1338653564453125,1.100250244140625,0.0946044921875
260437,-0.062225341796875,1.106002807617188,0.15765380859375
260438,0.0153961181640625,1.095046997070312,0.19525146484375
260439,0.0427093505859375,1.084793090820312,0.2441558837890625
260440,0.0215606689453125,1.086700439453125,0.3069915771484375
260441,-0.0247039794921875,1.112518310546875,0.310028076171875
260442,-0.0713043212890625,1.144378662109375,0.2076568603515625
260443,-0.1171875,1.164718627929688,0.0746002197265625
260444,-0.1634368896484375,1.192153930664062,-0.0070953369140625
260445,-0.20166015625,1.227203369140625,-0.0488128662109375
260446,-0.2283782958984375,1.276748657226562,-0.066375732421875
260447,-0.2491607666015625,1.310409545898438,-0.0725860595703125
260448,-0.261505126953125,1.315902709960938,-0.0877227783203125
260449,-0.252899169921875,1.266281127929688,-0.1026611328125
260450,-0.2239990234375,1.184173583984375,-0.1065673828125
260451,-0.194183349609375,1.101821899414062,-0.1006622314453125
260452,-0.1701507568359375,1.034027099609375,-0.0877227783203125
260453,-0.1466522216796875,0.9736175537109376,-0.0683746337890625
260454,-0.1399993896484375,0.9215087890625,-0.0395965576171875
260455,-0.151519775390625,0.887786865234375,-0.008758544921875
260456,-0.1766204833984375,0.8761444091796875,0.030487060546875
260457,-0.211151123046875,0.896759033203125,0.1053314208984375
260458,-0.244415283203125,0.938018798828125,0.2435150146484375
260459,-0.2631378173828125,0.95880126953125,0.4084320068359375
260460,-0.2610321044921875,0.9612274169921876,0.5944061279296875
260461,-0.2518768310546875,0.9572601318359376,0.73187255859375
260462,-0.23291015625,0.9590606689453124,0.8235321044921875
260463,-0.245208740234375,0.9445648193359376,0.886199951171875
260464,-0.27691650390625,0.8995513916015625,0.7721405029296875
260465,-0.3029327392578125,0.8457183837890625,0.598358154296875
260466,-0.3157196044921875,0.7960357666015625,0.5533599853515625
260467,-0.3099517822265625,0.7384796142578125,0.6407623291015625
260468,-0.291748046875,0.683258056640625,0.7641448974609375
260469,-0.2617645263671875,0.63165283203125,0.8607940673828125
260470,-0.2456512451171875,0.5882720947265625,0.9060516357421876
260471,-0.2531585693359375,0.565032958984375,0.9246978759765624
260472,-0.2481231689453125,0.5606231689453125,0.918060302734375
260473,-0.219512939453125,0.584381103515625,0.921844482421875
260474,-0.1900482177734375,0.62322998046875,0.949432373046875
260475,-0.163360595703125,0.673126220703125,0.9758148193359376
260476,-0.15374755859375,0.7476806640625,0.9902496337890624
260477,-0.1659698486328125,0.844329833984375,0.980133056640625
260478,-0.18072509765625,0.9402008056640624,0.9248046875
260479,-0.20703125,1.04046630859375,0.8106231689453125
260480,-0.24591064453125,1.171493530273438,0.690765380859375
260481,-0.271881103515625,1.29730224609375,0.5638580322265625
260482,-0.2792205810546875,1.389312744140625,0.467132568359375
260483,-0.2974395751953125,1.459976196289062,0.385955810546875
260484,-0.310272216796875,1.501876831054688,0.2546844482421875
260485,-0.311279296875,1.506881713867188,0.112396240234375
260486,-0.300567626953125,1.470245361328125,-0.0102386474609375
260487,-0.2708892822265625,1.376602172851562,-0.1887664794921875
260488,-0.2367401123046875,1.225204467773438,-0.4627227783203125
260489,-0.1935577392578125,1.019241333007812,-0.69805908203125
260490,-0.1242523193359375,0.81695556640625,-0.8278656005859375
260491,-0.05279541015625,0.6483612060546875,-0.8522186279296875
260492,-0.011260986328125,0.5237884521484375,-0.814483642578125
260493,-0.002777099609375,0.4462890625,-0.738311767578125
260494,-0.0267181396484375,0.395172119140625,-0.651031494140625
260495,-0.084320068359375,0.3748626708984375,-0.5529937744140625
260496,-0.156524658203125,0.373626708984375,-0.46917724609375
260497,-0.2543792724609375,0.4378662109375,-0.4274749755859375
260498,-0.4053802490234375,0.59356689453125,-0.47857666015625
260499,-0.5322418212890625,0.7539215087890625,-0.4951324462890625
260500,-0.46343994140625,0.8032684326171875,-0.2642822265625
260501,-0.238433837890625,0.7429656982421875,0.05548095703125
260502,-0.1388397216796875,0.7655181884765625,0.091400146484375
260503,-0.052703857421875,0.840423583984375,-0.0238800048828125
260504,0.05804443359375,0.925201416015625,-0.11676025390625
260505,0.122283935546875,1.053924560546875,-0.26318359375
260506,0.1510009765625,1.200454711914062,-0.426788330078125
260507,0.2382659912109375,1.271713256835938,-0.4581298828125
260508,0.338165283203125,1.31304931640625,-0.35748291015625
260509,0.4509735107421875,1.36822509765625,-0.2257843017578125
260510,0.560577392578125,1.443206787109375,-0.0853118896484375
260511,0.627716064453125,1.4537353515625,0.06427001953125
260512,0.590484619140625,1.353057861328125,0.1490631103515625
260513,0.4473876953125,1.21270751953125,0.199951171875
260514,0.2339630126953125,1.102493286132812,0.2256317138671875
260515,0.09478759765625,1.030059814453125,0.2545166015625
260516,-0.0160675048828125,0.9333953857421876,0.239959716796875
260517,-0.1028289794921875,0.8508148193359375,0.209930419921875
260518,-0.17181396484375,0.7853851318359375,0.2006988525390625
260519,-0.2418670654296875,0.7507781982421875,0.2260284423828125
260520,-0.308685302734375,0.7337188720703125,0.279083251953125
260521,-0.3711700439453125,0.7480926513671875,0.34637451171875
260522,-0.418304443359375,0.8099517822265625,0.404052734375
260523,-0.4083251953125,0.913604736328125,0.4161834716796875
260524,-0.3431549072265625,1.051528930664062,0.3935546875
260525,-0.3026123046875,1.167007446289062,0.42999267578125
260526,-0.3040008544921875,1.228988647460938,0.5065460205078125
260527,-0.3430328369140625,1.235626220703125,0.503173828125
260528,-0.386016845703125,1.199661254882812,0.4483184814453125
260529,-0.406402587890625,1.083221435546875,0.404571533203125
260530,-0.3903350830078125,0.9508056640625,0.38507080078125
260531,-0.3568115234375,0.88995361328125,0.417724609375
260532,-0.3232879638671875,0.8878021240234375,0.509613037109375
260533,-0.277099609375,0.9252166748046876,0.5948638916015625
260534,-0.22113037109375,0.981964111328125,0.634552001953125
260535,-0.20068359375,1.014358520507812,0.6477813720703125
260536,-0.2386627197265625,1.051239013671875,0.634490966796875
260537,-0.275177001953125,1.080718994140625,0.5984344482421875
260538,-0.2985076904296875,1.108078002929688,0.5256500244140625
260539,-0.2964935302734375,1.13616943359375,0.4055633544921875
260540,-0.286102294921875,1.154327392578125,0.2633209228515625
260541,-0.257049560546875,1.154266357421875,0.12567138671875
260542,-0.2251434326171875,1.1326904296875,0.003570556640625
260543,-0.1994781494140625,1.091079711914062,-0.0924530029296875
260544,-0.17523193359375,1.034408569335938,-0.1375885009765625
260545,-0.1638336181640625,0.98126220703125,-0.1152801513671875
260546,-0.1651611328125,0.9552154541015624,-0.028564453125
260547,-0.1632232666015625,0.942291259765625,0.067657470703125
260548,-0.1531219482421875,0.939056396484375,0.1547393798828125
260549,-0.109527587890625,0.941314697265625,0.252410888671875
260550,-0.033843994140625,0.9230804443359376,0.3296661376953125
260551,0.0345306396484375,0.8832244873046875,0.3521575927734375
260552,0.05377197265625,0.82708740234375,0.33563232421875
260553,0.0486907958984375,0.7771148681640625,0.322967529296875
260554,0.02508544921875,0.73895263671875,0.329864501953125
260555,-0.010498046875,0.7086029052734375,0.3428497314453125
260556,-0.0454864501953125,0.676361083984375,0.3552703857421875
260557,-0.08111572265625,0.6522369384765625,0.38555908203125
260558,-0.12115478515625,0.6540985107421875,0.434234619140625
260559,-0.1777801513671875,0.695770263671875,0.483673095703125
260560,-0.2398529052734375,0.80096435546875,0.4963836669921875
260561,-0.24969482421875,0.9455108642578124,0.4442291259765625
260562,-0.2357635498046875,1.105819702148438,0.33697509765625
260563,-0.2311248779296875,1.24407958984375,0.2270965576171875
260564,-0.23321533203125,1.33831787109375,0.1287078857421875
260565,-0.2348785400390625,1.3768310546875,0.0424346923828125
260566,-0.235107421875,1.368896484375,-0.0361328125
260567,-0.232757568359375,1.323928833007812,-0.117767333984375
260568,-0.228179931640625,1.279434204101562,-0.192901611328125
260569,-0.2139434814453125,1.230514526367188,-0.2225341796875
260570,-0.195159912109375,1.161636352539062,-0.222015380859375
260571,-0.1836700439453125,1.089202880859375,-0.2178802490234375
260572,-0.1602935791015625,1.027572631835938,-0.18377685546875
260573,-0.124603271484375,0.968017578125,-0.125335693359375
260574,-0.0877838134765625,0.93463134765625,-0.045135498046875
260575,-0.0673675537109375,0.902191162109375,0.057525634765625
260576,-0.06842041015625,0.8855438232421875,0.1868438720703125
260577,-0.085174560546875,0.896728515625,0.3189239501953125
260578,-0.0948333740234375,0.9118499755859376,0.4339141845703125
260579,-0.1102447509765625,0.9092864990234376,0.525054931640625
260580,-0.144256591796875,0.8803863525390625,0.57269287109375
260581,-0.1749420166015625,0.8233489990234375,0.55377197265625
260582,-0.198883056640625,0.7608795166015625,0.5002593994140625
260583,-0.2317047119140625,0.692626953125,0.459136962890625
260584,-0.265716552734375,0.648162841796875,0.4261016845703125
260585,-0.275421142578125,0.660980224609375,0.4249114990234375
260586,-0.2764892578125,0.6851043701171875,0.446044921875
260587,-0.293304443359375,0.701934814453125,0.4691619873046875
260588,-0.3570098876953125,0.7368316650390625,0.53851318359375
260589,-0.4264068603515625,0.7664947509765625,0.6974639892578125
260590,-0.467376708984375,0.773468017578125,0.858489990234375
260591,-0.501220703125,0.77947998046875,0.9355926513671876
260592,-0.5120849609375,0.790557861328125,0.93890380859375
260593,-0.498870849609375,0.7991943359375,0.920806884765625
260594,-0.4584197998046875,0.802581787109375,0.8818359375
260595,-0.3725433349609375,0.8119354248046875,0.805267333984375
260596,-0.2679290771484375,0.83941650390625,0.705047607421875
260597,-0.203704833984375,0.881072998046875,0.6179351806640625
260598,-0.173614501953125,0.9397430419921876,0.557373046875
260599,-0.163330078125,1.006301879882812,0.5178375244140625
260600,-0.1717071533203125,1.04766845703125,0.4737091064453125
260601,-0.182586669921875,1.076873779296875,0.367462158203125
260602,-0.195343017578125,1.127273559570312,0.2418670654296875
260603,-0.188018798828125,1.173416137695312,0.157684326171875
260604,-0.1935577392578125,1.217758178710938,0.090118408203125
260605,-0.2080078125,1.261093139648438,0.011962890625
260606,-0.2252349853515625,1.260635375976562,-0.0578765869140625
260607,-0.23150634765625,1.203277587890625,-0.0795135498046875
260608,-0.242828369140625,1.120162963867188,-0.06884765625
260609,-0.252532958984375,1.027175903320312,-0.0213775634765625
260610,-0.2623291015625,0.9312591552734376,0.0457916259765625
260611,-0.274169921875,0.8460235595703125,0.1346893310546875
260612,-0.28167724609375,0.784912109375,0.21588134765625
260613,-0.287384033203125,0.7553253173828125,0.244049072265625
260614,-0.30047607421875,0.7545318603515625,0.1894683837890625
260615,-0.3149871826171875,0.785919189453125,0.1186981201171875
260616,-0.3056182861328125,0.8377838134765625,0.087371826171875
260617,-0.2694091796875,0.8987274169921875,0.0841064453125
260618,-0.21673583984375,0.9738922119140624,0.0641326904296875
260619,-0.1075286865234375,1.060882568359375,0.010894775390625
260620,0.017852783203125,1.13720703125,-0.0643310546875
260621,0.114654541015625,1.199798583984375,-0.1385040283203125
260622,0.2116241455078125,1.290420532226562,-0.2101287841796875
260623,0.326171875,1.37933349609375,-0.27252197265625
260624,0.4552459716796875,1.4752197265625,-0.3218841552734375
260625,0.5423431396484375,1.534011840820312,-0.3694610595703125
260626,0.5848846435546875,1.531753540039062,-0.392181396484375
260627,0.57086181640625,1.392913818359375,-0.388336181640625
260628,0.48114013671875,1.224533081054688,-0.3875732421875
260629,0.360992431640625,1.111114501953125,-0.356964111328125
260630,0.2051849365234375,1.040664672851562,-0.3093719482421875
260631,0.0544586181640625,0.9903564453125,-0.267364501953125
260632,-0.055633544921875,0.9552154541015624,-0.240814208984375
260633,-0.1348114013671875,0.9316864013671876,-0.22052001953125
260634,-0.2025299072265625,0.924774169921875,-0.20941162109375
260635,-0.2738189697265625,0.9254150390625,-0.20416259765625
260636,-0.3192596435546875,0.93536376953125,-0.1766510009765625
260637,-0.3494415283203125,0.9308929443359376,-0.1468658447265625
260638,-0.404815673828125,0.91644287109375,-0.1266632080078125
260639,-0.39837646484375,0.85272216796875,-0.0105743408203125
260640,-0.3219757080078125,0.7392578125,0.229156494140625
260641,-0.341156005859375,0.624725341796875,0.71319580078125
260642,-0.55029296875,0.5145721435546875,1.512893676757812
260643,-0.66015625,0.50726318359375,1.266555786132812
260644,-0.4620208740234375,0.494873046875,0.7352752685546875
260645,-0.3311767578125,0.4937591552734375,0.397064208984375
260646,-0.3259124755859375,0.542022705078125,0.159515380859375
260647,-0.3203887939453125,0.6221466064453125,0.12237548828125
260648,-0.27777099609375,0.692718505859375,0.1941375732421875
260649,-0.17938232421875,0.746978759765625,0.28045654296875
260650,-0.129913330078125,0.7869873046875,0.2978515625
260651,-0.1302490234375,0.8226776123046875,0.243804931640625
260652,-0.142852783203125,0.847808837890625,0.1511688232421875
260653,-0.141326904296875,0.8613128662109375,0.1171875
260654,-0.14080810546875,0.8949127197265625,0.1043548583984375
260655,-0.14666748046875,0.95672607421875,0.0698394775390625
260656,-0.161773681640625,1.036865234375,0.04669189453125
260657,-0.1811370849609375,1.1278076171875,0.0414581298828125
260658,-0.193115234375,1.232009887695312,0.0400390625
260659,-0.2051239013671875,1.347900390625,0.0547332763671875
260660,-0.20123291015625,1.437423706054688,-0.000396728515625
260661,-0.2201690673828125,1.520217895507812,-0.1075286865234375
260662,-0.2764129638671875,1.588226318359375,-0.09185791015625
260663,-0.2610321044921875,1.590682983398438,0.02386474609375
260664,-0.2281036376953125,1.52374267578125,0.098602294921875
260665,-0.15277099609375,1.368011474609375,0.0846405029296875
260666,-0.0406951904296875,1.146728515625,0.12371826171875
260667,0.055572509765625,1.00634765625,0.159271240234375
260668,0.10443115234375,0.9292449951171876,0.1524658203125
260669,0.1083984375,0.8696441650390625,0.1179046630859375
260670,0.08099365234375,0.8459625244140625,0.10906982421875
260671,0.041259765625,0.8392486572265625,0.1164093017578125
260672,0.0216522216796875,0.854705810546875,0.099517822265625
260673,0.0143890380859375,0.8914642333984375,0.070556640625
260674,-0.0126953125,0.9248504638671876,0.050262451171875
260675,-0.0628509521484375,0.954925537109375,0.040069580078125
260676,-0.1338348388671875,1.017379760742188,0.0460052490234375
260677,-0.21771240234375,1.11773681640625,0.0523223876953125
260678,-0.292755126953125,1.22314453125,0.0359954833984375
260679,-0.3665924072265625,1.318862915039062,-0.002288818359375
260680,-0.4224853515625,1.384811401367188,-0.0689239501953125
260681,-0.4501953125,1.397705078125,-0.14251708984375
260682,-0.4350433349609375,1.361907958984375,-0.196685791015625
260683,-0.4071044921875,1.2681884765625,-0.189178466796875
260684,-0.346221923828125,1.131500244140625,-0.1259307861328125
260685,-0.27362060546875,1.001068115234375,-0.04071044921875
260686,-0.203826904296875,0.8878631591796875,0.0474700927734375
260687,-0.1582794189453125,0.799224853515625,0.090118408203125
260688,-0.1410369873046875,0.774383544921875,0.1057281494140625
260689,-0.1612701416015625,0.796142578125,0.042236328125
260690,-0.1838531494140625,0.860870361328125,0.0559539794921875
260691,-0.197174072265625,0.9411468505859376,0.1613311767578125
260692,-0.21600341796875,0.989013671875,0.2345428466796875
260693,-0.2340850830078125,1.000686645507812,0.2992401123046875
260694,-0.24468994140625,0.996124267578125,0.39178466796875
260695,-0.2341461181640625,0.9484100341796876,0.466766357421875
260696,-0.21826171875,0.8502197265625,0.5032806396484375
260697,-0.21380615234375,0.75250244140625,0.5234527587890625
260698,-0.218719482421875,0.70404052734375,0.54278564453125
260699,-0.243255615234375,0.6973114013671875,0.535064697265625
260700,-0.26165771484375,0.7017364501953125,0.5073089599609375
260701,-0.273101806640625,0.7040252685546875,0.45758056640625
260702,-0.2723846435546875,0.68731689453125,0.403656005859375
260703,-0.253662109375,0.65155029296875,0.386749267578125
260704,-0.23126220703125,0.6128997802734375,0.3954620361328125
260705,-0.2261962890625,0.5869140625,0.4550933837890625
260706,-0.24945068359375,0.582916259765625,0.5142974853515625
260707,-0.29132080078125,0.6072845458984375,0.537384033203125
260708,-0.347442626953125,0.6539459228515625,0.537872314453125
260709,-0.40478515625,0.72332763671875,0.512481689453125
260710,-0.448486328125,0.7981109619140625,0.449066162109375
260711,-0.447357177734375,0.8712615966796875,0.3813323974609375
260712,-0.4034271240234375,0.9545745849609376,0.3488922119140625
260713,-0.32464599609375,1.040725708007812,0.347808837890625
260714,-0.2179107666015625,1.126220703125,0.33404541015625
260715,-0.1299896240234375,1.19964599609375,0.319000244140625
260716,-0.08642578125,1.232620239257812,0.316650390625
260717,-0.068756103515625,1.2159423828125,0.3244171142578125
260718,-0.08056640625,1.14697265625,0.280853271484375
260719,-0.145751953125,1.039169311523438,0.2097930908203125
260720,-0.22833251953125,0.9597930908203124,0.1805877685546875
260721,-0.3080291748046875,0.9588775634765624,0.1692657470703125
260722,-0.39251708984375,0.98193359375,0.134429931640625
260723,-0.454864501953125,1.001495361328125,0.0946044921875
260724,-0.4904327392578125,1.015914916992188,0.05926513671875
260725,-0.511688232421875,0.999969482421875,0.0083160400390625
260726,-0.5291290283203125,0.9505615234375,-0.0464630126953125
260727,-0.5106658935546875,0.8900146484375,-0.10498046875
260728,-0.484222412109375,0.818511962890625,-0.124359130859375
260729,-0.4628448486328125,0.760284423828125,-0.1106109619140625
260730,-0.431396484375,0.752685546875,-0.0702972412109375
260731,-0.3753509521484375,0.81292724609375,-0.04296875
260732,-0.312164306640625,0.8841094970703125,-0.017608642578125
260733,-0.253143310546875,0.957305908203125,0.010345458984375
260734,-0.189727783203125,1.027130126953125,0.040863037109375
260735,-0.1040191650390625,1.079208374023438,0.090667724609375
260736,-0.012969970703125,1.115158081054688,0.144866943359375
260737,0.0647735595703125,1.140487670898438,0.2114105224609375
260738,0.1244354248046875,1.162124633789062,0.25567626953125
260739,0.161102294921875,1.164230346679688,0.273040771484375
260740,0.1917572021484375,1.12158203125,0.2627716064453125
260741,0.2069244384765625,1.0704345703125,0.2312774658203125
260742,0.181732177734375,1.013015747070312,0.222930908203125
260743,0.1175689697265625,0.9419403076171876,0.241119384765625
260744,0.0380706787109375,0.886627197265625,0.268798828125
260745,-0.03863525390625,0.8495635986328125,0.2572784423828125
260746,-0.1031341552734375,0.8339385986328125,0.2141571044921875
260747,-0.14849853515625,0.8262786865234375,0.1888427734375
260748,-0.1793060302734375,0.8216094970703125,0.181793212890625
260749,-0.18560791015625,0.841705322265625,0.171051025390625
260750,-0.1845550537109375,0.8631439208984375,0.1703033447265625
260751,-0.1875762939453125,0.8981781005859375,0.1858367919921875
260752,-0.1851654052734375,0.93084716796875,0.2279205322265625
260753,-0.175994873046875,0.95513916015625,0.2980194091796875
260754,-0.1502532958984375,0.9604034423828124,0.3677825927734375
260755,-0.123748779296875,0.9552001953125,0.388824462890625
260756,-0.092041015625,0.9382171630859376,0.398406982421875
260757,-0.0783843994140625,0.924407958984375,0.4328155517578125
260758,-0.066009521484375,0.92144775390625,0.5063934326171875
260759,-0.065582275390625,0.9125823974609376,0.561859130859375
260760,-0.094512939453125,0.8992156982421875,0.581146240234375
260761,-0.137298583984375,0.877532958984375,0.586029052734375
260762,-0.212066650390625,0.8399200439453125,0.5854949951171875
260763,-0.3175048828125,0.8024139404296875,0.6271209716796875
260764,-0.4135589599609375,0.7763519287109375,0.72674560546875
260765,-0.4878387451171875,0.760833740234375,0.795318603515625
260766,-0.5208587646484375,0.75201416015625,0.809967041015625
260767,-0.508453369140625,0.760406494140625,0.805328369140625
260768,-0.4743804931640625,0.8303070068359375,0.8133697509765625
260769,-0.4388580322265625,0.888763427734375,0.7913665771484375
260770,-0.39837646484375,0.909332275390625,0.727813720703125
260771,-0.3332977294921875,0.9351348876953124,0.641632080078125
260772,-0.277374267578125,0.9581146240234376,0.5985870361328125
260773,-0.2667083740234375,0.9940338134765624,0.571136474609375
260774,-0.281829833984375,1.0323486328125,0.5146942138671875
260775,-0.303131103515625,1.081466674804688,0.4438629150390625
260776,-0.3209381103515625,1.166519165039062,0.3585662841796875
260777,-0.3308868408203125,1.264236450195312,0.2478179931640625
260778,-0.3258209228515625,1.347396850585938,0.122833251953125
260779,-0.286346435546875,1.411300659179688,-0.001190185546875
260780,-0.223663330078125,1.410659790039062,-0.097747802734375
260781,-0.15460205078125,1.353485107421875,-0.1691131591796875
260782,-0.0896148681640625,1.237228393554688,-0.185791015625
260783,-0.020233154296875,1.090057373046875,-0.1455535888671875
260784,0.036712646484375,0.94769287109375,-0.0793914794921875
260785,0.0775146484375,0.83050537109375,0.00299072265625
260786,0.1035614013671875,0.75909423828125,0.1024627685546875
260787,0.1046905517578125,0.753662109375,0.1924591064453125
260788,0.074920654296875,0.7640228271484375,0.2531585693359375
260789,0.0312652587890625,0.7577667236328125,0.283966064453125
260790,-0.0083465576171875,0.7272186279296875,0.3172760009765625
260791,-0.046630859375,0.681243896484375,0.3631439208984375
260792,-0.066009521484375,0.635986328125,0.406951904296875
260793,-0.0716094970703125,0.6224365234375,0.431243896484375
260794,-0.0703887939453125,0.654052734375,0.4141387939453125
260795,-0.0787506103515625,0.721282958984375,0.34979248046875
260796,-0.0872650146484375,0.793731689453125,0.2532196044921875
260797,-0.096832275390625,0.877655029296875,0.1645660400390625
260798,-0.1042938232421875,0.9763031005859376,0.1416778564453125
260799,-0.1183624267578125,1.110488891601562,0.1637725830078125
260800,-0.153533935546875,1.27960205078125,0.2202301025390625
260801,-0.183563232421875,1.403793334960938,0.248992919921875
260802,-0.2266845703125,1.478912353515625,0.2048492431640625
260803,-0.2811431884765625,1.494415283203125,0.083709716796875
260804,-0.3244171142578125,1.455062866210938,-0.0468597412109375
260805,-0.3386993408203125,1.373062133789062,-0.1108856201171875
260806,-0.3282928466796875,1.275924682617188,-0.1006011962890625
260807,-0.3021697998046875,1.192062377929688,-0.02044677734375
260808,-0.2612457275390625,1.097686767578125,0.0751953125
260809,-0.2200775146484375,1.003494262695312,0.1185455322265625
260810,-0.185455322265625,0.919189453125,0.1287841796875
260811,-0.165985107421875,0.8595428466796875,0.1485595703125
260812,-0.1480255126953125,0.8423919677734375,0.2177886962890625
260813,-0.13323974609375,0.8399200439453125,0.32452392578125
260814,-0.1011505126953125,0.8419342041015625,0.447662353515625
260815,-0.07098388671875,0.853057861328125,0.5465240478515625
260816,-0.0468902587890625,0.856781005859375,0.6056060791015625
260817,-0.03607177734375,0.847625732421875,0.6314239501953125
260818,-0.048797607421875,0.81591796875,0.615020751953125
260819,-0.0597076416015625,0.7723236083984375,0.6023101806640625
260820,-0.0750732421875,0.7246246337890625,0.6106414794921875
260821,-0.0901031494140625,0.692657470703125,0.6183624267578125
260822,-0.10455322265625,0.685089111328125,0.6056365966796875
260823,-0.127166748046875,0.7033538818359375,0.58837890625
260824,-0.15863037109375,0.7559051513671875,0.5759429931640625
260825,-0.2041168212890625,0.8220367431640625,0.5801849365234375
260826,-0.267333984375,0.874114990234375,0.6130218505859375
260827,-0.33026123046875,0.8892059326171875,0.61846923828125
260828,-0.3706207275390625,0.8836517333984375,0.61541748046875
260829,-0.3801116943359375,0.8694915771484375,0.635040283203125
260830,-0.328582763671875,0.838470458984375,0.64898681640625
260831,-0.252960205078125,0.8112945556640625,0.64947509765625
260832,-0.212066650390625,0.804962158203125,0.6479034423828125
260833,-0.1992034912109375,0.801025390625,0.6414031982421875
260834,-0.17626953125,0.787078857421875,0.6378326416015625
260835,-0.1701812744140625,0.82781982421875,0.572174072265625
260836,-0.1727752685546875,0.8836822509765625,0.498138427734375
260837,-0.1580657958984375,0.9215545654296876,0.4285888671875
260838,-0.1320648193359375,0.9470672607421876,0.34112548828125
260839,-0.1145477294921875,0.9840240478515624,0.2730865478515625
260840,-0.0895843505859375,1.014068603515625,0.2231597900390625
260841,-0.06658935546875,1.035232543945312,0.17181396484375
260842,-0.058197021484375,1.031494140625,0.14337158203125
260843,-0.0683746337890625,0.9999542236328124,0.1239013671875
260844,-0.0930938720703125,0.96234130859375,0.09375
260845,-0.1316986083984375,0.9199066162109376,0.066436767578125
260846,-0.1579742431640625,0.8719635009765625,0.0504150390625
260847,-0.1714324951171875,0.8321990966796875,0.06640625
260848,-0.1839447021484375,0.792388916015625,0.0957183837890625
260849,-0.19610595703125,0.7496185302734375,0.1556549072265625
260850,-0.208465576171875,0.7177734375,0.238494873046875
260851,-0.22894287109375,0.70013427734375,0.34130859375
260852,-0.2510833740234375,0.713348388671875,0.444732666015625
260853,-0.266845703125,0.75750732421875,0.4842376708984375
260854,-0.29290771484375,0.792633056640625,0.4369354248046875
260855,-0.31158447265625,0.840667724609375,0.370147705078125
260856,-0.3177642822265625,0.9187774658203124,0.341339111328125
260857,-0.3086700439453125,1.013748168945312,0.3766021728515625
260858,-0.291778564453125,1.119400024414062,0.374542236328125
260859,-0.2278900146484375,1.239044189453125,0.2732696533203125
260860,-0.1094207763671875,1.341018676757812,0.1310577392578125
260861,0.0198211669921875,1.398895263671875,0.0182037353515625
260862,0.13079833984375,1.412857055664062,-0.039398193359375
260863,0.219482421875,1.376434326171875,-0.03466796875
260864,0.2617034912109375,1.285232543945312,-0.0021209716796875
260865,0.2624969482421875,1.16973876953125,0.0431671142578125
260866,0.2375335693359375,1.078826904296875,0.088165283203125
260867,0.1851348876953125,1.008377075195312,0.1350860595703125
260868,0.115966796875,0.940673828125,0.2056884765625
260869,0.041229248046875,0.8813934326171875,0.2888641357421875
260870,-0.029327392578125,0.8205108642578125,0.3278045654296875
260871,-0.089141845703125,0.795867919921875,0.3022003173828125
260872,-0.1353302001953125,0.801727294921875,0.2632904052734375
260873,-0.1687164306640625,0.83795166015625,0.2423553466796875
260874,-0.1820220947265625,0.88409423828125,0.2713165283203125
260875,-0.1699676513671875,0.897186279296875,0.35565185546875
260876,-0.1562347412109375,0.9025421142578124,0.4695892333984375
260877,-0.168609619140625,0.9036865234375,0.569793701171875
260878,-0.222320556640625,0.8463134765625,0.5975494384765625
260879,-0.2960968017578125,0.7617645263671875,0.54937744140625
260880,-0.353668212890625,0.69036865234375,0.472412109375
260881,-0.3807373046875,0.66253662109375,0.435699462890625
260882,-0.37066650390625,0.673248291015625,0.44384765625
260883,-0.3274078369140625,0.7139739990234375,0.4917449951171875
260884,-0.268798828125,0.7700347900390625,0.5632781982421875
260885,-0.2237548828125,0.8250885009765625,0.6342010498046875
260886,-0.2059783935546875,0.8675384521484375,0.6863250732421875
260887,-0.219390869140625,0.8795623779296875,0.73583984375
260888,-0.2677459716796875,0.86175537109375,0.7926483154296875
260889,-0.3346405029296875,0.8187103271484375,0.813720703125
260890,-0.3917083740234375,0.80047607421875,0.7900238037109375
260891,-0.4288177490234375,0.838470458984375,0.75592041015625
260892,-0.431732177734375,0.89312744140625,0.70062255859375
260893,-0.4119873046875,0.946929931640625,0.6093597412109375
260894,-0.388885498046875,1.0086669921875,0.5034332275390625
260895,-0.3468170166015625,1.05401611328125,0.4181976318359375
260896,-0.29864501953125,1.092498779296875,0.3609161376953125
260897,-0.2397308349609375,1.14306640625,0.3154296875
260898,-0.1767120361328125,1.193557739257812,0.2823944091796875
260899,-0.1148681640625,1.242721557617188,0.247711181640625
260900,-0.06854248046875,1.262924194335938,0.2029876708984375
260901,-0.0455780029296875,1.250228881835938,0.14825439453125
260902,-0.0625,1.211090087890625,0.0957794189453125
260903,-0.07525634765625,1.1397705078125,0.0760040283203125
260904,-0.0316162109375,1.078659057617188,0.0751495361328125
260905,0.029296875,1.0313720703125,0.076751708984375
260906,0.0689239501953125,0.9937286376953124,0.089935302734375
260907,0.091339111328125,0.9527130126953124,0.12152099609375
260908,0.0854644775390625,0.928558349609375,0.12908935546875
260909,0.0570831298828125,0.907470703125,0.147491455078125
260910,0.0152740478515625,0.8805999755859375,0.2103729248046875
260911,-0.0186004638671875,0.8415069580078125,0.298004150390625
260912,-0.0451202392578125,0.808502197265625,0.3676910400390625
260913,-0.047149658203125,0.805999755859375,0.3538970947265625
260914,-0.05255126953125,0.8442230224609375,0.2739410400390625
260915,-0.079315185546875,0.8979949951171875,0.19012451171875
260916,-0.125823974609375,0.96453857421875,0.14166259765625
260917,-0.1861419677734375,1.035552978515625,0.148284912109375
260918,-0.2408905029296875,1.101882934570312,0.183074951171875
260919,-0.2681884765625,1.154693603515625,0.209991455078125
260920,-0.273406982421875,1.203948974609375,0.2039337158203125
260921,-0.283172607421875,1.249649047851562,0.174163818359375
260922,-0.2886505126953125,1.2528076171875,0.1362152099609375
260923,-0.272125244140625,1.202926635742188,0.0926055908203125
260924,-0.251983642578125,1.115203857421875,0.07232666015625
260925,-0.2155609130859375,1.031158447265625,0.0667266845703125
260926,-0.1458892822265625,0.9660797119140624,0.056640625
260927,-0.064483642578125,0.933074951171875,0.049652099609375
260928,-0.0081939697265625,0.921112060546875,0.0717926025390625
260929,0.0190582275390625,0.908660888671875,0.111602783203125
260930,0.0221099853515625,0.898223876953125,0.146942138671875
260931,0.009124755859375,0.8868865966796875,0.176544189453125
260932,-0.01849365234375,0.8668365478515625,0.2171783447265625
260933,-0.0626373291015625,0.8505859375,0.2715606689453125
260934,-0.1143646240234375,0.8228607177734375,0.309814453125
260935,-0.16461181640625,0.8052215576171875,0.3271331787109375
260936,-0.209259033203125,0.7878570556640625,0.3231201171875
260937,-0.2483978271484375,0.7930450439453125,0.30108642578125
260938,-0.27880859375,0.7952117919921875,0.3029327392578125
260939,-0.28814697265625,0.809112548828125,0.3116455078125
260940,-0.26715087890625,0.8430633544921875,0.331756591796875
260941,-0.243133544921875,0.872711181640625,0.359954833984375
260942,-0.206207275390625,0.850067138671875,0.394256591796875
260943,-0.166259765625,0.82244873046875,0.412353515625
260944,-0.1330718994140625,0.7937469482421875,0.4416046142578125
260945,-0.111236572265625,0.765716552734375,0.482330322265625
260946,-0.1042633056640625,0.748199462890625,0.524993896484375
260947,-0.116363525390625,0.73162841796875,0.56512451171875
260948,-0.1465606689453125,0.7192535400390625,0.587158203125
260949,-0.1847076416015625,0.706390380859375,0.5948944091796875
260950,-0.2378082275390625,0.710540771484375,0.601287841796875
260951,-0.282379150390625,0.7338409423828125,0.6253204345703125
260952,-0.3051605224609375,0.784881591796875,0.6644439697265625
260953,-0.3022918701171875,0.8650360107421875,0.6894989013671875
260954,-0.2913970947265625,0.9631195068359376,0.6790313720703125
260955,-0.2730255126953125,1.047073364257812,0.6230621337890625
260956,-0.2393951416015625,1.114273071289062,0.55975341796875
260957,-0.1976318359375,1.172698974609375,0.5296173095703125
260958,-0.1485443115234375,1.221588134765625,0.516448974609375
260959,-0.1094207763671875,1.25579833984375,0.4890594482421875
260960,-0.080413818359375,1.273849487304688,0.4091949462890625
260961,-0.056304931640625,1.263992309570312,0.3006134033203125
260962,-0.0583038330078125,1.2120361328125,0.233428955078125
260963,-0.1126556396484375,1.128265380859375,0.2185516357421875
260964,-0.2008514404296875,1.053466796875,0.25518798828125
260965,-0.2928924560546875,0.99755859375,0.285247802734375
260966,-0.372894287109375,0.9390411376953124,0.286773681640625
260967,-0.437347412109375,0.874420166015625,0.2716217041015625
260968,-0.48541259765625,0.807586669921875,0.2476959228515625
260969,-0.51190185546875,0.7358551025390625,0.28369140625
260970,-0.502410888671875,0.683868408203125,0.3382415771484375
260971,-0.469390869140625,0.6415557861328125,0.3736114501953125
260972,-0.4353179931640625,0.6173553466796875,0.40509033203125
260973,-0.41265869140625,0.6204071044921875,0.41253662109375
260974,-0.3761749267578125,0.683624267578125,0.388702392578125
260975,-0.3267364501953125,0.779693603515625,0.3421478271484375
260976,-0.2647857666015625,0.869873046875,0.289886474609375
260977,-0.2012481689453125,0.967132568359375,0.2389678955078125
260978,-0.1302032470703125,1.090713500976562,0.228668212890625
260979,-0.0705108642578125,1.1990966796875,0.2404327392578125
260980,-0.02996826171875,1.288665771484375,0.26959228515625
260981,0.0103759765625,1.344253540039062,0.270599365234375
260982,0.05621337890625,1.344451904296875,0.1999053955078125
260983,0.11895751953125,1.29339599609375,0.0825347900390625
260984,0.1722259521484375,1.214111328125,-0.0078582763671875
260985,0.1910247802734375,1.10791015625,-0.0394744873046875
260986,0.146484375,1.015426635742188,-0.0357513427734375
260987,0.0656890869140625,0.9485321044921876,-0.00775146484375
260988,-0.011474609375,0.885040283203125,0.04052734375
260989,-0.0692291259765625,0.8264923095703125,0.1237640380859375
260990,-0.106475830078125,0.790283203125,0.211273193359375
260991,-0.1343231201171875,0.7798919677734375,0.2721405029296875
260992,-0.1618194580078125,0.78118896484375,0.2961273193359375
260993,-0.1776123046875,0.803802490234375,0.3110809326171875
260994,-0.18109130859375,0.8394012451171875,0.3538818359375
260995,-0.1784515380859375,0.885284423828125,0.4017791748046875
260996,-0.18408203125,0.928131103515625,0.4345855712890625
260997,-0.1547088623046875,0.923828125,0.4544525146484375
260998,-0.12725830078125,0.8774566650390625,0.4621124267578125
260999,-0.1552886962890625,0.8621826171875,0.5513458251953125
261000,-0.177886962890625,0.87579345703125,0.706695556640625
261001,-0.2067413330078125,0.8640594482421875,0.7876129150390625
261002,-0.2238922119140625,0.835113525390625,0.81005859375
261003,-0.220794677734375,0.864898681640625,0.811737060546875
261004,-0.19921875,0.9189300537109376,0.8155364990234375
261005,-0.1922149658203125,0.9597320556640624,0.8301239013671875
261006,-0.210662841796875,1.008590698242188,0.8835296630859375
261007,-0.226837158203125,1.0072021484375,0.9009857177734376
261008,-0.276031494140625,0.9129486083984376,0.848052978515625
261009,-0.3587493896484375,0.7577667236328125,0.7796173095703125
261010,-0.408935546875,0.6300811767578125,0.717315673828125
261011,-0.433837890625,0.5626678466796875,0.6208038330078125
261012,-0.461395263671875,0.551177978515625,0.504730224609375
261013,-0.483673095703125,0.6074981689453125,0.425537109375
261014,-0.5051727294921875,0.7296142578125,0.3502044677734375
261015,-0.52520751953125,0.899444580078125,0.2930145263671875
261016,-0.5016021728515625,1.04290771484375,0.2109832763671875
261017,-0.3931427001953125,1.146026611328125,0.23138427734375
261018,-0.2350921630859375,1.2052001953125,0.2421875
261019,-0.12396240234375,1.201873779296875,0.200775146484375
261020,-0.061004638671875,1.141921997070312,0.18310546875
261021,-0.0082244873046875,1.057174682617188,0.17510986328125
261022,0.022064208984375,0.9583892822265624,0.17242431640625
261023,0.0572662353515625,0.8545074462890625,0.18267822265625
261024,0.0924835205078125,0.7592010498046875,0.195892333984375
261025,0.1187896728515625,0.6932373046875,0.2242889404296875
261026,0.0957489013671875,0.6604461669921875,0.252593994140625
261027,0.0640716552734375,0.656768798828125,0.2920989990234375
261028,0.0330352783203125,0.6721343994140625,0.3261260986328125
261029,-0.0196075439453125,0.6827239990234375,0.380462646484375
261030,-0.084716796875,0.7197265625,0.4453125
261031,-0.095550537109375,0.81280517578125,0.4500274658203125
261032,-0.0744476318359375,0.922943115234375,0.3848419189453125
261033,-0.0849456787109375,1.035186767578125,0.30694580078125
261034,-0.1147918701171875,1.18255615234375,0.231781005859375
261035,-0.144989013671875,1.332107543945312,0.17987060546875
261036,-0.1452789306640625,1.461151123046875,0.1185302734375
261037,-0.1229095458984375,1.545639038085938,0.023406982421875
261038,-0.108673095703125,1.556732177734375,-0.0458984375
261039,-0.115020751953125,1.487060546875,-0.0615997314453125
261040,-0.1354522705078125,1.361480712890625,-0.050384521484375
261041,-0.16204833984375,1.2545166015625,-0.0184478759765625
261042,-0.12384033203125,1.124252319335938,0.03936767578125
261043,-0.1261749267578125,1.015106201171875,0.0382080078125
261044,-0.143402099609375,0.9378814697265624,0.102020263671875
261045,-0.142547607421875,0.89166259765625,0.1458892822265625
261046,-0.154754638671875,0.875732421875,0.1506195068359375
261047,-0.1632537841796875,0.88134765625,0.1569976806640625
261048,-0.17132568359375,0.9046173095703124,0.1925048828125
261049,-0.171295166015625,0.922637939453125,0.258544921875
261050,-0.162841796875,0.9178619384765624,0.3352203369140625
261051,-0.1446685791015625,0.8767242431640625,0.37982177734375
261052,-0.135162353515625,0.8319244384765625,0.4031982421875
261053,-0.1557159423828125,0.7977447509765625,0.4216461181640625
261054,-0.1783294677734375,0.78314208984375,0.4306793212890625
261055,-0.1959686279296875,0.7886199951171875,0.454010009765625
261056,-0.208465576171875,0.81329345703125,0.4876861572265625
261057,-0.2188873291015625,0.847900390625,0.537139892578125
261058,-0.2186279296875,0.868377685546875,0.5666351318359375
261059,-0.1949920654296875,0.856842041015625,0.5493621826171875
261060,-0.188323974609375,0.833038330078125,0.5060882568359375
261061,-0.1995086669921875,0.794342041015625,0.4913330078125
261062,-0.2136077880859375,0.7555694580078125,0.5233306884765625
261063,-0.2305908203125,0.7434234619140625,0.584930419921875
261064,-0.2617034912109375,0.7553863525390625,0.6252288818359375
261065,-0.2845001220703125,0.7831878662109375,0.6533203125
261066,-0.2581329345703125,0.7928009033203125,0.6801605224609375
261067,-0.21722412109375,0.8234710693359375,0.6792449951171875
261068,-0.188140869140625,0.8578948974609375,0.6602325439453125
261069,-0.17742919921875,0.8857879638671875,0.627166748046875
261070,-0.182891845703125,0.9260101318359376,0.5806121826171875
261071,-0.1915130615234375,0.97705078125,0.523590087890625
261072,-0.18798828125,1.03558349609375,0.483795166015625
261073,-0.1779327392578125,1.0889892578125,0.442779541015625
261074,-0.1842193603515625,1.146209716796875,0.3742523193359375
261075,-0.194122314453125,1.201019287109375,0.3244171142578125
261076,-0.182891845703125,1.211883544921875,0.2875518798828125
261077,-0.1796417236328125,1.201507568359375,0.230743408203125
261078,-0.21600341796875,1.16046142578125,0.1943817138671875
261079,-0.257110595703125,1.068008422851562,0.17047119140625
261080,-0.2924041748046875,0.948516845703125,0.15338134765625
261081,-0.29443359375,0.8179931640625,0.12896728515625
261082,-0.2901153564453125,0.7833099365234375,0.129058837890625
261083,-0.3204193115234375,0.8044891357421875,0.191497802734375
261084,-0.3406982421875,0.77789306640625,0.2675323486328125
261085,-0.3481597900390625,0.765350341796875,0.336639404296875
261086,-0.318023681640625,0.802215576171875,0.3518829345703125
261087,-0.289825439453125,0.8340911865234375,0.3055572509765625
261088,-0.2539825439453125,0.8683013916015625,0.2754669189453125
261089,-0.251373291015625,0.893096923828125,0.273284912109375
261090,-0.2411346435546875,0.9134521484375,0.310699462890625
261091,-0.2185516357421875,0.9385528564453124,0.35968017578125
261092,-0.177825927734375,0.996063232421875,0.3720855712890625
261093,-0.0932464599609375,1.086959838867188,0.321014404296875
261094,0.0139312744140625,1.146743774414062,0.197967529296875
261095,0.1051483154296875,1.171524047851562,0.0723419189453125
261096,0.136688232421875,1.243820190429688,-0.0383148193359375
261097,0.1482391357421875,1.271286010742188,-0.09112548828125
261098,0.1608123779296875,1.212478637695312,-0.141265869140625
261099,0.12890625,1.14971923828125,-0.188995361328125
261100,0.0802459716796875,1.056106567382812,-0.1506195068359375
261101,0.0463714599609375,1.02252197265625,-0.066650390625
261102,0.0136566162109375,1.030364990234375,0.049163818359375
261103,0.0097808837890625,0.9748077392578124,0.1729736328125
261104,-0.01458740234375,0.88470458984375,0.2428741455078125
261105,-0.082794189453125,0.804779052734375,0.30584716796875
261106,-0.1810455322265625,0.7831268310546875,0.36688232421875
261107,-0.2664794921875,0.77728271484375,0.3892364501953125
261108,-0.3313446044921875,0.7927703857421875,0.370819091796875
261109,-0.3705596923828125,0.8159027099609375,0.3512725830078125
261110,-0.392059326171875,0.8483734130859375,0.35028076171875
261111,-0.4080657958984375,0.88165283203125,0.4036407470703125
261112,-0.4384765625,0.8870391845703125,0.44384765625
261113,-0.465850830078125,0.864013671875,0.482330322265625
261114,-0.4648284912109375,0.81231689453125,0.4972686767578125
261115,-0.4369049072265625,0.8016815185546875,0.4691009521484375
261116,-0.3844757080078125,0.811370849609375,0.4779815673828125
261117,-0.3291473388671875,0.8114166259765625,0.5247650146484375
261118,-0.294464111328125,0.816436767578125,0.5985870361328125
261119,-0.2781829833984375,0.82391357421875,0.6803131103515625
261120,-0.24908447265625,0.804718017578125,0.72271728515625
261121,-0.228485107421875,0.7778472900390625,0.7510986328125
261122,-0.2283935546875,0.7631378173828125,0.77288818359375
261123,-0.2476043701171875,0.7690277099609375,0.7624359130859375
261124,-0.2854461669921875,0.7781524658203125,0.7596588134765625
261125,-0.3389739990234375,0.7726287841796875,0.68817138671875
261126,-0.3843994140625,0.770599365234375,0.61053466796875
261127,-0.4026947021484375,0.7908172607421875,0.536590576171875
261128,-0.3986663818359375,0.8118133544921875,0.48516845703125
261129,-0.3916015625,0.799468994140625,0.471649169921875
261130,-0.4063873291015625,0.7543487548828125,0.4446868896484375
261131,-0.398956298828125,0.7443389892578125,0.42047119140625
261132,-0.38726806640625,0.7734375,0.40740966796875
261133,-0.39654541015625,0.8460235595703125,0.39422607421875
261134,-0.3828887939453125,0.928375244140625,0.4334564208984375
261135,-0.3670654296875,0.9970245361328124,0.477691650390625
261136,-0.3706817626953125,1.048660278320312,0.505401611328125
261137,-0.3674774169921875,1.085067749023438,0.5195465087890625
261138,-0.353363037109375,1.081192016601562,0.5255889892578125
261139,-0.3147125244140625,1.040390014648438,0.5143585205078125
261140,-0.2459716796875,0.9253997802734376,0.478179931640625
261141,-0.1784210205078125,0.77783203125,0.44146728515625
261142,-0.145660400390625,0.62762451171875,0.4514923095703125
261143,-0.1557769775390625,0.5139617919921875,0.4900054931640625
261144,-0.1832733154296875,0.50067138671875,0.510284423828125
261145,-0.20831298828125,0.6090545654296875,0.4960784912109375
261146,-0.2284393310546875,0.7961578369140625,0.404754638671875
261147,-0.2506103515625,1.031570434570312,0.25103759765625
261148,-0.2521820068359375,1.313995361328125,0.1325225830078125
261149,-0.2447052001953125,1.538360595703125,0.0817108154296875
261150,-0.20660400390625,1.6572265625,0.0624847412109375
261151,-0.1687164306640625,1.7513427734375,0.0353546142578125
261152,-0.1882781982421875,1.857101440429688,0.0254974365234375
261153,-0.230621337890625,1.81072998046875,0.0447540283203125
261154,-0.2284698486328125,1.514755249023438,0.0306549072265625
261155,-0.1962432861328125,1.215057373046875,-0.0174102783203125
261156,-0.1396636962890625,1.024322509765625,-0.0247802734375
261157,-0.1179962158203125,0.9022369384765624,-0.0429840087890625
261158,-0.105560302734375,0.828887939453125,0.01214599609375
261159,-0.1050262451171875,0.8004913330078125,0.060699462890625
261160,-0.1166229248046875,0.8149566650390625,0.1155242919921875
261161,-0.1190948486328125,0.821014404296875,0.19183349609375
261162,-0.1304473876953125,0.833251953125,0.2772216796875
261163,-0.138824462890625,0.873046875,0.3691253662109375
261164,-0.143707275390625,0.8689727783203125,0.4601287841796875
261165,-0.1587982177734375,0.82275390625,0.5374755859375
261166,-0.1751708984375,0.7446136474609375,0.572845458984375
261167,-0.2209320068359375,0.70672607421875,0.5514373779296875
261168,-0.262420654296875,0.6868133544921875,0.5192413330078125
261169,-0.2962493896484375,0.663421630859375,0.468475341796875
261170,-0.3413848876953125,0.6548919677734375,0.4365692138671875
261171,-0.3721160888671875,0.6454925537109375,0.4923095703125
261172,-0.3213043212890625,0.66729736328125,0.59197998046875
261173,-0.2437286376953125,0.702301025390625,0.6719970703125
261174,-0.21466064453125,0.69384765625,0.708465576171875
261175,-0.2101287841796875,0.6607513427734375,0.721649169921875
261176,-0.2070465087890625,0.6037750244140625,0.7735137939453125
261177,-0.20306396484375,0.5767974853515625,0.850189208984375
261178,-0.1932373046875,0.60833740234375,0.9229736328125
261179,-0.1859283447265625,0.68145751953125,0.962677001953125
261180,-0.1903228759765625,0.7514495849609375,0.97332763671875
261181,-0.199493408203125,0.813751220703125,0.960479736328125
261182,-0.199005126953125,0.872589111328125,0.902862548828125
261183,-0.18572998046875,0.91314697265625,0.8106536865234375
261184,-0.170074462890625,0.945556640625,0.7142333984375
261185,-0.1392669677734375,0.98797607421875,0.6189117431640625
261186,-0.1155242919921875,1.044509887695312,0.530517578125
261187,-0.2277679443359375,1.141281127929688,0.654571533203125
261188,-0.516510009765625,1.191665649414062,0.4773101806640625
261189,-0.5656585693359375,1.282440185546875,0.5170745849609375
261190,-0.0917510986328125,1.341293334960938,0.200225830078125
261191,0.1595916748046875,1.137786865234375,-0.071807861328125
261192,-0.0207977294921875,0.96002197265625,-0.0857391357421875
261193,-0.1690521240234375,0.7865142822265625,0.024932861328125
261194,-0.26824951171875,0.7822113037109375,0.329071044921875
261195,-0.289764404296875,0.7752685546875,0.3782501220703125
261196,-0.3082427978515625,0.7515106201171875,0.2826690673828125
261197,-0.3349609375,0.7480621337890625,0.22833251953125
261198,-0.333892822265625,0.6909027099609375,0.22119140625
261199,-0.344482421875,0.639434814453125,0.2560272216796875
261200,-0.3582611083984375,0.6737060546875,0.312713623046875
261201,-0.3441619873046875,0.7780303955078125,0.3761138916015625
261202,-0.2938079833984375,0.89031982421875,0.42755126953125
261203,-0.2565155029296875,0.9518585205078124,0.4833984375
261204,-0.2179412841796875,0.9736328125,0.5209808349609375
261205,-0.1660308837890625,0.987091064453125,0.5025634765625
261206,-0.1004486083984375,1.02349853515625,0.407989501953125
261207,-0.02496337890625,1.063262939453125,0.259857177734375
261208,0.055816650390625,1.107589721679688,0.1344146728515625
261209,0.1371002197265625,1.1558837890625,0.0638580322265625
261210,0.2674102783203125,1.227630615234375,0.062286376953125
261211,0.4020843505859375,1.314315795898438,0.0951080322265625
261212,0.438751220703125,1.339569091796875,0.124267578125
261213,0.30108642578125,1.210952758789062,0.16278076171875
261214,0.146270751953125,1.048355102539062,0.193023681640625
261215,0.0703125,0.964813232421875,0.199920654296875
261216,0.00494384765625,0.90771484375,0.209197998046875
261217,-0.0379791259765625,0.88360595703125,0.2483978271484375
261218,-0.0370330810546875,0.888763427734375,0.284942626953125
261219,-0.090667724609375,0.867431640625,0.362579345703125
261220,-0.12396240234375,0.8622894287109375,0.43707275390625
261221,-0.1532135009765625,0.8672332763671875,0.5327606201171875
261222,-0.186737060546875,0.8466644287109375,0.59051513671875
261223,-0.2032470703125,0.8089752197265625,0.585784912109375
261224,-0.2147674560546875,0.7686920166015625,0.55072021484375
261225,-0.249725341796875,0.75494384765625,0.5204010009765625
261226,-0.3084259033203125,0.7778472900390625,0.580291748046875
261227,-0.38525390625,0.8299560546875,0.6844635009765625
261228,-0.46734619140625,0.91650390625,0.778411865234375
261229,-0.548858642578125,1.001953125,0.854949951171875
261230,-0.605712890625,1.051834106445312,0.92181396484375
261231,-0.6425323486328125,1.031051635742188,0.99407958984375
261232,-0.6761474609375,0.96209716796875,1.0513916015625
261233,-0.717620849609375,0.89056396484375,1.046798706054688
261234,-0.740936279296875,0.8153228759765625,0.9629364013671876
261235,-0.72918701171875,0.736907958984375,0.8138885498046875
261236,-0.6813201904296875,0.6625213623046875,0.673919677734375
261237,-0.60760498046875,0.626861572265625,0.5703125
261238,-0.5388031005859375,0.6188812255859375,0.4675140380859375
261239,-0.4849700927734375,0.63458251953125,0.40631103515625
261240,-0.448089599609375,0.6859588623046875,0.3775177001953125
261241,-0.3979949951171875,0.761199951171875,0.3853759765625
261242,-0.29571533203125,0.8265533447265625,0.48101806640625
261243,-0.2076568603515625,0.8543548583984375,0.3801116943359375
261244,-0.165374755859375,0.962432861328125,0.230377197265625
261245,-0.1772003173828125,1.040420532226562,0.277618408203125
261246,-0.1331024169921875,0.975830078125,0.344146728515625
261247,0.03759765625,1.056365966796875,0.351531982421875
261248,0.1159210205078125,1.113494873046875,0.2415771484375
261249,0.09539794921875,1.11212158203125,0.1781158447265625
261250,0.1898345947265625,1.030792236328125,0.0923309326171875
261251,0.2448883056640625,0.9062652587890624,-0.0177764892578125
261252,0.1713409423828125,0.7903289794921875,0.02154541015625
261253,0.055389404296875,0.7294158935546875,0.099334716796875
261254,-0.06292724609375,0.68896484375,0.17169189453125
261255,-0.07666015625,0.7326507568359375,0.23797607421875
261256,-0.103851318359375,0.8083038330078125,0.2690277099609375
261257,-0.1002197265625,0.777587890625,0.3251495361328125
261258,-0.0545806884765625,0.8317413330078125,0.3798370361328125
261259,-0.0081024169921875,0.996124267578125,0.4522705078125
261260,-0.05010986328125,1.231536865234375,0.356201171875
261261,-0.0584716796875,1.427261352539062,0.244293212890625
261262,-0.020416259765625,1.605712890625,0.09027099609375
261263,-0.003265380859375,1.676483154296875,-0.0662689208984375
261264,-0.0543975830078125,1.645248413085938,-0.166473388671875
261265,-0.1017608642578125,1.492721557617188,-0.1037750244140625
261266,-0.1580963134765625,1.324813842773438,0.0272674560546875
261267,-0.2455596923828125,1.263824462890625,0.0143280029296875
261268,-0.2727203369140625,1.183319091796875,0.012786865234375
261269,-0.233612060546875,1.033065795898438,0.1190643310546875
261270,-0.2419586181640625,0.92816162109375,0.201507568359375
261271,-0.2484588623046875,0.85479736328125,0.215301513671875
261272,-0.2316741943359375,0.8038482666015625,0.1563568115234375
261273,-0.2052154541015625,0.76141357421875,0.1579742431640625
261274,-0.19647216796875,0.7500152587890625,0.252197265625
261275,-0.185760498046875,0.76312255859375,0.359039306640625
261276,-0.183929443359375,0.787841796875,0.441925048828125
261277,-0.197265625,0.8227386474609375,0.5144195556640625
261278,-0.215667724609375,0.8677978515625,0.5821075439453125
261279,-0.2372283935546875,0.9131317138671876,0.6205902099609375
261280,-0.2678070068359375,0.944610595703125,0.6338958740234375
261281,-0.3148345947265625,0.9672698974609376,0.646881103515625
261282,-0.375518798828125,0.9777679443359376,0.6649627685546875
261283,-0.42645263671875,0.9973907470703124,0.6945953369140625
261284,-0.4676513671875,1.011398315429688,0.7801666259765625
261285,-0.51123046875,0.9826812744140624,0.8785247802734375
261286,-0.539794921875,0.8839569091796875,0.92828369140625
261287,-0.54931640625,0.7745819091796875,0.8666534423828125
261288,-0.540191650390625,0.667572021484375,0.7889862060546875
261289,-0.48333740234375,0.581634521484375,0.765350341796875
261290,-0.3992767333984375,0.549713134765625,0.7787322998046875
261291,-0.3141021728515625,0.536163330078125,0.7830047607421875
261292,-0.2313079833984375,0.5472869873046875,0.7612457275390625
261293,-0.15423583984375,0.60577392578125,0.714111328125
261294,-0.101470947265625,0.6707763671875,0.6942901611328125
261295,-0.0761566162109375,0.739959716796875,0.6781005859375
261296,-0.05963134765625,0.8035125732421875,0.629547119140625
261297,-0.0541229248046875,0.8659515380859375,0.537567138671875
261298,-0.05902099609375,0.93426513671875,0.431915283203125
261299,-0.06121826171875,1.008316040039062,0.349151611328125
261300,-0.0594482421875,1.099456787109375,0.292022705078125
261301,-0.0668182373046875,1.170806884765625,0.2288818359375
261302,-0.068389892578125,1.18121337890625,0.1396331787109375
261303,-0.0924835205078125,1.14410400390625,0.0947418212890625
261304,-0.1371612548828125,1.091476440429688,0.0811309814453125
261305,-0.168212890625,1.009658813476562,0.0738525390625
261306,-0.177215576171875,0.9274444580078124,0.0951385498046875
261307,-0.1979217529296875,0.88714599609375,0.1448974609375
261308,-0.238861083984375,0.871307373046875,0.1912994384765625
261309,-0.2844696044921875,0.840484619140625,0.231170654296875
261310,-0.322479248046875,0.808837890625,0.256011962890625
261311,-0.3375396728515625,0.7913055419921875,0.2649383544921875
261312,-0.33624267578125,0.77142333984375,0.279541015625
261313,-0.3147735595703125,0.757080078125,0.31256103515625
261314,-0.2674560546875,0.7510223388671875,0.3576202392578125
261315,-0.1986846923828125,0.7796173095703125,0.393798828125
261316,-0.117218017578125,0.8480072021484375,0.400299072265625
261317,-0.043487548828125,0.9256439208984376,0.389373779296875
261318,0.017425537109375,0.9736480712890624,0.3498077392578125
261319,0.062744140625,1.009490966796875,0.27392578125
261320,0.1103363037109375,1.037063598632812,0.203216552734375
261321,0.1561126708984375,1.06622314453125,0.166534423828125
261322,0.18511962890625,1.080093383789062,0.164306640625
261323,0.1779937744140625,1.079925537109375,0.195709228515625
261324,0.133941650390625,1.084808349609375,0.21826171875
261325,0.0836639404296875,1.087738037109375,0.250762939453125
261326,0.02349853515625,1.08367919921875,0.2808685302734375
261327,-0.033721923828125,1.065017700195312,0.3112335205078125
261328,-0.0771636962890625,1.031600952148438,0.33734130859375
261329,-0.104339599609375,1.004913330078125,0.34002685546875
261330,-0.1129302978515625,0.9866790771484376,0.3494720458984375
261331,-0.1150970458984375,0.97882080078125,0.3724517822265625
261332,-0.122314453125,0.97698974609375,0.4219818115234375
261333,-0.1339111328125,0.9705810546875,0.47174072265625
261334,-0.1719818115234375,0.94378662109375,0.4906005859375
261335,-0.208587646484375,0.9269561767578124,0.5224151611328125
261336,-0.2464141845703125,0.928680419921875,0.575836181640625
261337,-0.2736968994140625,0.947509765625,0.6198577880859375
261338,-0.2920989990234375,0.9433135986328124,0.6551055908203125
261339,-0.310882568359375,0.8997802734375,0.6481781005859375
261340,-0.336029052734375,0.8184661865234375,0.6167144775390625
261341,-0.355804443359375,0.7283172607421875,0.583892822265625
261342,-0.3644256591796875,0.630523681640625,0.5564727783203125
261343,-0.36273193359375,0.543670654296875,0.5329437255859375
261344,-0.354278564453125,0.48828125,0.53009033203125
261345,-0.3468017578125,0.4761810302734375,0.562347412109375
261346,-0.35980224609375,0.5224761962890625,0.638397216796875
261347,-0.3817596435546875,0.606170654296875,0.71917724609375
261348,-0.38067626953125,0.686798095703125,0.7353515625
261349,-0.34326171875,0.76141357421875,0.6673126220703125
261350,-0.307891845703125,0.8199462890625,0.5518341064453125
261351,-0.2788238525390625,0.862640380859375,0.4271697998046875
261352,-0.248382568359375,0.8779296875,0.3017730712890625
261353,-0.2230987548828125,0.90020751953125,0.1998748779296875
261354,-0.2077178955078125,0.929779052734375,0.1293487548828125
261355,-0.178009033203125,0.948516845703125,0.0886688232421875
261356,-0.1600341796875,0.9993896484375,0.0862884521484375
261357,-0.122161865234375,1.128952026367188,0.14727783203125
261358,-0.0079193115234375,1.257064819335938,0.2534637451171875
261359,0.09515380859375,1.3260498046875,0.263153076171875
261360,0.184295654296875,1.401290893554688,0.227935791015625
261361,0.28631591796875,1.372360229492188,0.2455902099609375
261362,0.3390045166015625,1.241180419921875,0.2341461181640625
261363,0.3126068115234375,0.9814605712890624,0.22991943359375
261364,0.267578125,0.75335693359375,0.2766876220703125
261365,0.2254486083984375,0.635284423828125,0.409698486328125
261366,0.162689208984375,0.6082916259765625,0.5858154296875
261367,0.0984344482421875,0.65118408203125,0.68988037109375
261368,0.073699951171875,0.7230987548828125,0.6693878173828125
261369,0.08367919921875,0.7760162353515625,0.6099700927734375
261370,0.10247802734375,0.7978973388671875,0.59747314453125
261371,0.1182708740234375,0.7781982421875,0.62786865234375
261372,0.0995941162109375,0.723724365234375,0.65631103515625
261373,0.048797607421875,0.6347503662109375,0.650634765625
261374,-0.0304718017578125,0.5555419921875,0.612640380859375
261375,-0.108062744140625,0.508514404296875,0.592376708984375
261376,-0.1750335693359375,0.5189666748046875,0.5736846923828125
261377,-0.237548828125,0.599456787109375,0.5649871826171875
261378,-0.284088134765625,0.724090576171875,0.54168701171875
261379,-0.3111572265625,0.86346435546875,0.515472412109375
261380,-0.3326568603515625,1.0125732421875,0.4986114501953125
261381,-0.3404388427734375,1.17144775390625,0.46258544921875
261382,-0.3322906494140625,1.3509521484375,0.3804931640625
261383,-0.3058319091796875,1.537826538085938,0.2523956298828125
261384,-0.259033203125,1.711334228515625,0.1293182373046875
261385,-0.233489990234375,1.870452880859375,0.089324951171875
261386,-0.1141204833984375,1.915008544921875,-0.0672454833984375
261387,-0.0962982177734375,1.98486328125,-0.371856689453125
261388,0.0052032470703125,1.919784545898438,-0.3564910888671875
261389,0.14874267578125,1.75006103515625,-0.2093353271484375
261390,0.200714111328125,1.5426025390625,-0.0511016845703125
261391,0.1659393310546875,1.324722290039062,0.14471435546875
261392,0.113983154296875,1.135589599609375,0.305511474609375
261393,0.0445556640625,0.9934539794921876,0.3740386962890625
261394,-0.0373077392578125,0.91033935546875,0.383636474609375
261395,-0.11083984375,0.8903045654296875,0.4074859619140625
261396,-0.2089385986328125,0.9130401611328124,0.4553985595703125
261397,-0.2989349365234375,0.9211578369140624,0.520111083984375
261398,-0.367462158203125,0.8933563232421875,0.5711669921875
261399,-0.4522552490234375,0.8344268798828125,0.596282958984375
261400,-0.5071868896484375,0.7930145263671875,0.639312744140625
261401,-0.4994354248046875,0.7866363525390625,0.6029815673828125
261402,-0.4750518798828125,0.7107391357421875,0.4375152587890625
261403,-0.449249267578125,0.6359100341796875,0.3511810302734375
261404,-0.4445648193359375,0.5429534912109375,0.358917236328125
261405,-0.4380340576171875,0.4583587646484375,0.41754150390625
261406,-0.4023590087890625,0.54974365234375,0.49200439453125
261407,-0.34228515625,0.716522216796875,0.501678466796875
261408,-0.28521728515625,0.7976531982421875,0.4658966064453125
261409,-0.23358154296875,0.849395751953125,0.4449920654296875
261410,-0.2100982666015625,0.8485565185546875,0.4659423828125
261411,-0.1940155029296875,0.8275299072265625,0.488372802734375
261412,-0.1450347900390625,0.7786865234375,0.4771270751953125
261413,-0.0715789794921875,0.7232208251953125,0.49969482421875
261414,-0.0081787109375,0.6955413818359375,0.5207672119140625
261415,-0.006561279296875,0.668853759765625,0.5168609619140625
261416,-0.0066680908203125,0.6208648681640625,0.505645751953125
261417,0.0157012939453125,0.600067138671875,0.4575653076171875
261418,0.0011444091796875,0.6320343017578125,0.39532470703125
261419,-0.08319091796875,0.630767822265625,0.3877410888671875
261420,-0.1583099365234375,0.5937347412109375,0.4155731201171875
261421,-0.16888427734375,0.6096954345703125,0.3951416015625
261422,-0.1599884033203125,0.63958740234375,0.329193115234375
261423,-0.1512298583984375,0.6427459716796875,0.276763916015625
261424,-0.124420166015625,0.659820556640625,0.2396392822265625
261425,-0.113525390625,0.7231903076171875,0.2058868408203125
261426,-0.0872955322265625,0.790924072265625,0.180084228515625
261427,-0.021728515625,0.83056640625,0.1836090087890625
261428,-0.005859375,0.8557891845703125,0.2001800537109375
261429,-0.0690765380859375,0.9119873046875,0.219940185546875
261430,-0.1778717041015625,1.026168823242188,0.25250244140625
261431,-0.28179931640625,1.11798095703125,0.31903076171875
261432,-0.364288330078125,1.153274536132812,0.4236297607421875
261433,-0.4068450927734375,1.1402587890625,0.542999267578125
261434,-0.4310302734375,1.096542358398438,0.60845947265625
261435,-0.4664764404296875,1.051849365234375,0.5577850341796875
261436,-0.4951629638671875,0.988494873046875,0.4688720703125
261437,-0.511962890625,0.9315643310546876,0.4310302734375
261438,-0.5167694091796875,0.89105224609375,0.425750732421875
261439,-0.499847412109375,0.8565673828125,0.4018402099609375
261440,-0.4554443359375,0.8270721435546875,0.3617706298828125
261441,-0.3975677490234375,0.82720947265625,0.3533782958984375
261442,-0.332427978515625,0.8520050048828125,0.369873046875
261443,-0.267852783203125,0.871063232421875,0.389495849609375
261444,-0.20526123046875,0.8713531494140625,0.403656005859375
261445,-0.1525726318359375,0.85491943359375,0.4093017578125
261446,-0.1046142578125,0.8236846923828125,0.39788818359375
261447,-0.071990966796875,0.788421630859375,0.35919189453125
261448,-0.0520782470703125,0.74664306640625,0.326934814453125
261449,-0.0430450439453125,0.71990966796875,0.296295166015625
261450,-0.0467529296875,0.6980133056640625,0.2674560546875
261451,-0.0612335205078125,0.71136474609375,0.2457427978515625
261452,-0.08843994140625,0.7421112060546875,0.2357635498046875
261453,-0.1028289794921875,0.7681732177734375,0.2543792724609375
261454,-0.1011810302734375,0.788970947265625,0.2943115234375
261455,-0.1030426025390625,0.805084228515625,0.340850830078125
261456,-0.10595703125,0.83197021484375,0.3775634765625
261457,-0.108428955078125,0.8701629638671875,0.4005584716796875
261458,-0.11651611328125,0.921478271484375,0.4161834716796875
261459,-0.127410888671875,0.967926025390625,0.423492431640625
261460,-0.1414642333984375,1.008743286132812,0.419708251953125
261461,-0.1488800048828125,1.038192749023438,0.4353485107421875
261462,-0.1563720703125,1.060882568359375,0.44854736328125
261463,-0.1644744873046875,1.072509765625,0.4549407958984375
261464,-0.1648101806640625,1.071197509765625,0.455322265625
261465,-0.167633056640625,1.063140869140625,0.443359375
261466,-0.169647216796875,1.03753662109375,0.4328155517578125
261467,-0.1851348876953125,1.0068359375,0.4548187255859375
261468,-0.205322265625,0.9723663330078124,0.515533447265625
261469,-0.2403564453125,0.94305419921875,0.5768280029296875
261470,-0.2858734130859375,0.9168243408203124,0.6243896484375
261471,-0.319488525390625,0.8940277099609375,0.66680908203125
261472,-0.354217529296875,0.8858795166015625,0.739471435546875
261473,-0.3797149658203125,0.877044677734375,0.83447265625
261474,-0.4008026123046875,0.887359619140625,0.8867034912109375
261475,-0.4264984130859375,0.8982086181640625,0.8935546875
261476,-0.4468994140625,0.884063720703125,0.8376617431640625
261477,-0.4496917724609375,0.8563232421875,0.7614288330078125
261478,-0.4439697265625,0.8243865966796875,0.724090576171875
261479,-0.423309326171875,0.790771484375,0.721771240234375
261480,-0.400054931640625,0.78271484375,0.673431396484375
261481,-0.380401611328125,0.802459716796875,0.60162353515625
261482,-0.3685760498046875,0.8285369873046875,0.5365447998046875
261483,-0.3562469482421875,0.857879638671875,0.4882965087890625
261484,-0.33599853515625,0.8871307373046875,0.470611572265625
261485,-0.2961578369140625,0.932586669921875,0.4936370849609375
261486,-0.2456207275390625,0.9829254150390624,0.5336761474609375
261487,-0.1447296142578125,0.98773193359375,0.4981231689453125
261488,-0.0011444091796875,0.9583740234375,0.4078826904296875
261489,0.0547637939453125,0.9449462890625,0.2062835693359375
261490,0.0707244873046875,0.853729248046875,0.1407470703125
261491,0.016632080078125,0.7600555419921875,0.2803802490234375
261492,-0.0498046875,0.685089111328125,0.45794677734375
261493,-0.076507568359375,0.594146728515625,0.519744873046875
261494,-0.088470458984375,0.5579986572265625,0.5334625244140625
261495,-0.096405029296875,0.5526123046875,0.570648193359375
261496,-0.1392974853515625,0.5252838134765625,0.58636474609375
261497,-0.1651611328125,0.5087432861328125,0.5830535888671875
261498,-0.1651763916015625,0.5000762939453125,0.5617828369140625
261499,-0.1793975830078125,0.5085296630859375,0.5085601806640625
261500,-0.1871337890625,0.54559326171875,0.4456787109375
261501,-0.1883544921875,0.5860748291015625,0.3690948486328125
261502,-0.185211181640625,0.66357421875,0.3285675048828125
261503,-0.169342041015625,0.7903594970703125,0.32470703125
261504,-0.141998291015625,0.934722900390625,0.3485260009765625
261505,-0.107086181640625,1.107772827148438,0.3902130126953125
261506,-0.091064453125,1.322433471679688,0.415313720703125
261507,-0.035430908203125,1.456802368164062,0.44268798828125
261508,-0.07305908203125,1.561721801757812,0.2607421875
261509,-0.20709228515625,1.7464599609375,-0.0911407470703125
261510,-0.1923370361328125,1.806198120117188,-0.18572998046875
261511,-0.278656005859375,1.838729858398438,-0.152313232421875
261512,-0.243988037109375,1.730224609375,-0.0928192138671875
261513,-0.17108154296875,1.52252197265625,-0.056182861328125
261514,-0.107269287109375,1.277450561523438,-0.0390167236328125
261515,-0.0484161376953125,1.071060180664062,-0.03167724609375
261516,-0.03363037109375,0.920257568359375,-0.0479736328125
261517,-0.0333709716796875,0.822998046875,-0.067626953125
261518,-0.0364837646484375,0.81341552734375,-0.030548095703125
261519,-0.0679473876953125,0.8409881591796875,0.1180419921875
261520,-0.1067962646484375,0.88543701171875,0.509307861328125
261521,-0.1628265380859375,0.9038238525390624,0.9486541748046876
261522,-0.2224578857421875,0.8228759765625,1.014678955078125
261523,-0.266326904296875,0.737274169921875,0.753326416015625
261524,-0.2703094482421875,0.685089111328125,0.5044097900390625
261525,-0.2867889404296875,0.66802978515625,0.35943603515625
261526,-0.3256988525390625,0.63348388671875,0.4002838134765625
261527,-0.3899688720703125,0.653778076171875,0.625030517578125
261528,-0.393646240234375,0.7028961181640625,0.8369598388671875
261529,-0.4124755859375,0.801544189453125,0.8709869384765625
261530,-0.4098968505859375,0.8837127685546875,0.89794921875
261531,-0.4033050537109375,0.9568634033203124,1.05828857421875
261532,-0.412506103515625,0.9834136962890624,1.155487060546875
261533,-0.431396484375,0.8905792236328125,1.095046997070312
261534,-0.3474273681640625,0.7480621337890625,0.9686431884765624
261535,-0.22296142578125,0.7075042724609375,0.89215087890625
261536,-0.241363525390625,0.689483642578125,0.90936279296875
261537,-0.2933349609375,0.7165679931640625,0.760467529296875
261538,-0.260711669921875,0.8223419189453125,0.64312744140625
261539,-0.1689300537109375,0.7662353515625,0.64007568359375
261540,-0.1106414794921875,0.7179107666015625,0.7059783935546875
261541,-0.1117401123046875,0.65521240234375,0.65692138671875
261542,-0.123626708984375,0.62255859375,0.4731292724609375
261543,-0.0883331298828125,0.7067108154296875,0.35662841796875
261544,-0.045074462890625,0.7681732177734375,0.2162322998046875
261545,0.00634765625,0.8182830810546875,0.192779541015625
261546,0.0357818603515625,0.9460601806640624,0.22265625
261547,0.0155181884765625,1.021102905273438,0.2158355712890625
261548,-0.0642242431640625,0.947906494140625,0.198516845703125
261549,-0.1814117431640625,0.8782806396484375,0.15899658203125
261550,-0.24371337890625,0.8597564697265625,0.16046142578125
261551,-0.2750244140625,0.888671875,0.202484130859375
261552,-0.328277587890625,0.914642333984375,0.2222137451171875
261553,-0.4045867919921875,0.910797119140625,0.2027130126953125
261554,-0.49462890625,0.89544677734375,0.243988037109375
261555,-0.5495452880859375,0.8767547607421875,0.3227996826171875
261556,-0.538299560546875,0.884979248046875,0.361968994140625
261557,-0.4591522216796875,0.91314697265625,0.3454437255859375
261558,-0.3118896484375,0.969146728515625,0.2963714599609375
261559,-0.146514892578125,1.008682250976562,0.2532196044921875
261560,0.0044708251953125,1.001861572265625,0.2389678955078125
261561,0.1381072998046875,0.99945068359375,0.254150390625
261562,0.2348785400390625,1.042465209960938,0.2970123291015625
261563,0.285247802734375,1.12060546875,0.3541107177734375
261564,0.2802886962890625,1.204483032226562,0.3836669921875
261565,0.2325286865234375,1.270523071289062,0.3769683837890625
261566,0.155548095703125,1.287460327148438,0.3426971435546875
261567,0.065521240234375,1.260971069335938,0.2850341796875
261568,-0.0268402099609375,1.186996459960938,0.2436370849609375
261569,-0.099853515625,1.077926635742188,0.2299346923828125
261570,-0.1421661376953125,0.9718475341796876,0.236053466796875
261571,-0.161376953125,0.8938140869140625,0.252288818359375
261572,-0.155975341796875,0.840545654296875,0.28094482421875
261573,-0.13726806640625,0.806396484375,0.31317138671875
261574,-0.1219482421875,0.7892303466796875,0.3480987548828125
261575,-0.111785888671875,0.7877655029296875,0.410736083984375
261576,-0.120025634765625,0.7939910888671875,0.4852752685546875
261577,-0.148834228515625,0.79779052734375,0.5394744873046875
261578,-0.1765899658203125,0.7747039794921875,0.5633392333984375
261579,-0.1960601806640625,0.7614593505859375,0.5741729736328125
261580,-0.2101593017578125,0.7516937255859375,0.571533203125
261581,-0.21539306640625,0.7415618896484375,0.5489959716796875
261582,-0.2178802490234375,0.7237701416015625,0.5540313720703125
261583,-0.230316162109375,0.7259979248046875,0.5947265625
261584,-0.249114990234375,0.7647247314453125,0.6285552978515625
261585,-0.2683258056640625,0.8233795166015625,0.6702728271484375
261586,-0.290771484375,0.8660888671875,0.7034759521484375
261587,-0.316558837890625,0.88812255859375,0.711090087890625
261588,-0.333587646484375,0.8831024169921875,0.720458984375
261589,-0.3401336669921875,0.842681884765625,0.7407989501953125
261590,-0.3390960693359375,0.795135498046875,0.7571563720703125
261591,-0.3482513427734375,0.7509613037109375,0.769866943359375
261592,-0.3795928955078125,0.7023468017578125,0.777618408203125
261593,-0.4136505126953125,0.66949462890625,0.779998779296875
261594,-0.4064788818359375,0.6475372314453125,0.756866455078125
261595,-0.38604736328125,0.656005859375,0.712799072265625
261596,-0.3733978271484375,0.694091796875,0.651763916015625
261597,-0.37835693359375,0.7582244873046875,0.5892181396484375
261598,-0.388519287109375,0.822998046875,0.5444793701171875
261599,-0.3943939208984375,0.8729095458984375,0.4951171875
261600,-0.39898681640625,0.926788330078125,0.4297943115234375
261601,-0.3900604248046875,0.992156982421875,0.3437957763671875
261602,-0.3564453125,1.0546875,0.244873046875
261603,-0.325714111328125,1.112319946289062,0.169219970703125
261604,-0.2875213623046875,1.157272338867188,0.1299896240234375
261605,-0.2439117431640625,1.1907958984375,0.10858154296875
261606,-0.1930999755859375,1.211990356445312,0.0748748779296875
261607,-0.12042236328125,1.20611572265625,0.0425567626953125
261608,-0.04266357421875,1.174819946289062,0.041961669921875
261609,0.0133056640625,1.119857788085938,0.0554351806640625
261610,0.0375213623046875,1.040069580078125,0.073394775390625
261611,0.0504913330078125,0.9458465576171876,0.12200927734375
261612,0.061065673828125,0.879119873046875,0.1987762451171875
261613,0.069000244140625,0.843475341796875,0.2778167724609375
261614,0.0688934326171875,0.8486328125,0.342041015625
261615,0.0405426025390625,0.8925018310546875,0.3676605224609375
261616,-0.00579833984375,0.946929931640625,0.3274993896484375
261617,-0.038055419921875,0.990692138671875,0.2351226806640625
261618,-0.0694122314453125,1.026580810546875,0.1402130126953125
261619,-0.1062469482421875,1.054901123046875,0.09771728515625
261620,-0.15045166015625,1.098068237304688,0.1208038330078125
261621,-0.220672607421875,1.191299438476562,0.1754150390625
261622,-0.296173095703125,1.303298950195312,0.2021636962890625
261623,-0.35400390625,1.404373168945312,0.1800537109375
261624,-0.370208740234375,1.4678955078125,0.120941162109375
261625,-0.3547210693359375,1.460052490234375,0.0560455322265625
261626,-0.3272857666015625,1.378692626953125,-0.003082275390625
261627,-0.28521728515625,1.261337280273438,-0.04534912109375
261628,-0.2292938232421875,1.150299072265625,-0.03564453125
261629,-0.16534423828125,1.025070190429688,0.06121826171875
261630,-0.11187744140625,0.8614349365234375,0.188995361328125
261631,-0.0887451171875,0.6880645751953125,0.2958221435546875
261632,-0.100677490234375,0.572540283203125,0.355621337890625
261633,-0.14630126953125,0.5395355224609375,0.374359130859375
261634,-0.1936798095703125,0.5701446533203125,0.3622894287109375
261635,-0.219329833984375,0.6161651611328125,0.336669921875
261636,-0.222198486328125,0.677276611328125,0.29803466796875
261637,-0.2241973876953125,0.73651123046875,0.2663421630859375
261638,-0.232421875,0.792755126953125,0.25347900390625
261639,-0.214263916015625,0.8403472900390625,0.307373046875
261640,-0.1660003662109375,0.8716583251953125,0.416107177734375
261641,-0.1060028076171875,0.8893585205078125,0.528228759765625
261642,-0.0634765625,0.889556884765625,0.6356658935546875
261643,-0.0584564208984375,0.8505096435546875,0.70123291015625
261644,-0.0849609375,0.79742431640625,0.6909637451171875
261645,-0.1301422119140625,0.764404296875,0.6297454833984375
261646,-0.156402587890625,0.732635498046875,0.59014892578125
261647,-0.165771484375,0.6873016357421875,0.5914154052734375
261648,-0.167022705078125,0.635467529296875,0.6153411865234375
261649,-0.1598968505859375,0.599761962890625,0.638153076171875
261650,-0.141998291015625,0.591400146484375,0.658935546875
261651,-0.12774658203125,0.6192474365234375,0.6913909912109375
261652,-0.125457763671875,0.6780548095703125,0.7143402099609375
261653,-0.1398468017578125,0.7580108642578125,0.71636962890625
261654,-0.1531982421875,0.863037109375,0.6969757080078125
261655,-0.1563262939453125,0.94732666015625,0.682647705078125
261656,-0.1525726318359375,1.00946044921875,0.66796875
261657,-0.1498870849609375,1.09075927734375,0.628204345703125
261658,-0.14697265625,1.18475341796875,0.5833282470703125
261659,-0.1272430419921875,1.274261474609375,0.5469512939453125
261660,-0.113739013671875,1.337921142578125,0.5046844482421875
261661,-0.1156768798828125,1.352630615234375,0.43194580078125
261662,-0.12738037109375,1.297286987304688,0.341949462890625
261663,-0.1420135498046875,1.202499389648438,0.273162841796875
261664,-0.1747589111328125,1.077926635742188,0.26141357421875
261665,-0.20452880859375,0.962738037109375,0.2974090576171875
261666,-0.2379302978515625,0.9069061279296876,0.30535888671875
261667,-0.275146484375,0.8901824951171875,0.2602081298828125
261668,-0.3191375732421875,0.874359130859375,0.2008819580078125
261669,-0.36676025390625,0.848663330078125,0.1855316162109375
261670,-0.4013214111328125,0.82373046875,0.194915771484375
261671,-0.43414306640625,0.7800445556640625,0.207244873046875
261672,-0.4597015380859375,0.7213897705078125,0.2357177734375
261673,-0.4567413330078125,0.6531524658203125,0.28399658203125
261674,-0.429412841796875,0.601470947265625,0.3472900390625
261675,-0.362457275390625,0.5853271484375,0.3890380859375
261676,-0.26263427734375,0.641876220703125,0.384033203125
261677,-0.172027587890625,0.78411865234375,0.3979949951171875
261678,-0.1015167236328125,0.925628662109375,0.455169677734375
261679,-0.026092529296875,1.019271850585938,0.4584808349609375
261680,0.03271484375,1.063278198242188,0.3638153076171875
261681,0.062286376953125,1.087554931640625,0.240234375
261682,0.096710205078125,1.112319946289062,0.1413421630859375
261683,0.1357269287109375,1.14007568359375,0.091522216796875
261684,0.1717681884765625,1.154129028320312,0.083099365234375
261685,0.2000732421875,1.160110473632812,0.08502197265625
261686,0.2230987548828125,1.157546997070312,0.0998382568359375
261687,0.2299346923828125,1.141342163085938,0.1181488037109375
261688,0.2041473388671875,1.1094970703125,0.13177490234375
261689,0.150909423828125,1.073150634765625,0.1677093505859375
261690,0.0893096923828125,1.03082275390625,0.2417449951171875
261691,0.0206756591796875,0.985992431640625,0.318572998046875
261692,-0.051025390625,0.9520721435546876,0.3662567138671875
261693,-0.118560791015625,0.9196929931640624,0.371734619140625
261694,-0.17431640625,0.888885498046875,0.35052490234375
261695,-0.2207183837890625,0.859588623046875,0.343292236328125
261696,-0.25225830078125,0.8263702392578125,0.395111083984375
261697,-0.2773590087890625,0.7947998046875,0.4671478271484375
261698,-0.301513671875,0.76190185546875,0.5237579345703125
261699,-0.3301239013671875,0.752349853515625,0.5408782958984375
261700,-0.3477325439453125,0.75836181640625,0.5623779296875
261701,-0.3594970703125,0.79461669921875,0.6144256591796875
261702,-0.3575439453125,0.8502655029296875,0.6916351318359375
261703,-0.358978271484375,0.9061279296875,0.78704833984375
261704,-0.3687744140625,0.939361572265625,0.8576812744140625
261705,-0.3905487060546875,0.9542694091796876,0.9150238037109376
261706,-0.441009521484375,0.9356842041015624,0.9698486328125
261707,-0.4911956787109375,0.8768768310546875,0.9560699462890624
261708,-0.5279083251953125,0.798675537109375,0.8458099365234375
261709,-0.5476531982421875,0.7322235107421875,0.70941162109375
261710,-0.554534912109375,0.69940185546875,0.62115478515625
261711,-0.55535888671875,0.7108917236328125,0.5710296630859375
261712,-0.5548858642578125,0.7630157470703125,0.523681640625
261713,-0.54559326171875,0.847869873046875,0.4941558837890625
261714,-0.51885986328125,0.93841552734375,0.487457275390625
261715,-0.4619293212890625,1.017608642578125,0.4661712646484375
261716,-0.3784332275390625,1.062652587890625,0.39599609375
261717,-0.2857513427734375,1.077423095703125,0.3197021484375
261718,-0.165191650390625,1.073623657226562,0.2848052978515625
261719,-0.0594329833984375,1.05780029296875,0.281494140625
261720,0.00396728515625,1.015533447265625,0.2656097412109375
261721,0.03155517578125,0.9369049072265624,0.272705078125
261722,0.0503082275390625,0.867279052734375,0.2910919189453125
261723,0.04742431640625,0.801727294921875,0.2923583984375
261724,0.0506134033203125,0.76904296875,0.3052215576171875
261725,0.0490875244140625,0.76129150390625,0.320556640625
261726,0.0664520263671875,0.763641357421875,0.320068359375
261727,0.0722503662109375,0.7484130859375,0.315277099609375
261728,0.0690765380859375,0.7177734375,0.310943603515625
261729,0.076904296875,0.6919403076171875,0.2902984619140625
261730,0.0830535888671875,0.678497314453125,0.2784423828125
261731,0.0706634521484375,0.6844940185546875,0.2837982177734375
261732,0.0430450439453125,0.723785400390625,0.3098602294921875
261733,0.00885009765625,0.7958831787109375,0.327606201171875
261734,-0.023590087890625,0.9060516357421876,0.3219146728515625
261735,-0.060272216796875,1.038116455078125,0.290374755859375
261736,-0.0990142822265625,1.202880859375,0.2479400634765625
261737,-0.139617919921875,1.404891967773438,0.2012786865234375
261738,-0.174713134765625,1.588058471679688,0.10540771484375
261739,-0.2077484130859375,1.715072631835938,-0.0186920166015625
261740,-0.2315521240234375,1.7718505859375,-0.1226348876953125
261741,-0.226318359375,1.706588745117188,-0.17999267578125
261742,-0.20849609375,1.539947509765625,-0.156280517578125
261743,-0.1504364013671875,1.33197021484375,-0.0533599853515625
261744,-0.0921630859375,1.130996704101562,-0.02227783203125
261745,-0.0498046875,0.9900970458984376,0.01617431640625
261746,-0.009857177734375,0.893646240234375,0.0869140625
261747,0.0022125244140625,0.826904296875,0.1798095703125
261748,-0.01214599609375,0.7723236083984375,0.2750396728515625
261749,-0.05035400390625,0.7254486083984375,0.3347015380859375
261750,-0.0865936279296875,0.7097625732421875,0.3686370849609375
261751,-0.0995025634765625,0.70391845703125,0.39068603515625
261752,-0.114166259765625,0.712677001953125,0.421112060546875
261753,-0.140899658203125,0.7389678955078125,0.4808502197265625
261754,-0.17279052734375,0.7745513916015625,0.55181884765625
261755,-0.1838226318359375,0.814361572265625,0.595123291015625
261756,-0.1844635009765625,0.8546600341796875,0.59149169921875
261757,-0.1590118408203125,0.85174560546875,0.55609130859375
261758,-0.1368408203125,0.823974609375,0.5404052734375
261759,-0.1376800537109375,0.8112030029296875,0.5871734619140625
261760,-0.1645355224609375,0.8324737548828125,0.6808624267578125
261761,-0.208770751953125,0.8753662109375,0.752899169921875
261762,-0.2666778564453125,0.9196624755859376,0.8035736083984375
261763,-0.341400146484375,0.9654388427734376,0.8804931640625
261764,-0.3892974853515625,0.969024658203125,0.9456787109375
261765,-0.41290283203125,0.917236328125,0.994964599609375
261766,-0.4163665771484375,0.823883056640625,1.014739990234375
261767,-0.3466644287109375,0.735595703125,1.008819580078125
261768,-0.2412109375,0.6605377197265625,0.987152099609375
261769,-0.1531219482421875,0.624542236328125,0.9481964111328124
261770,-0.091278076171875,0.6367034912109375,0.88555908203125
261771,-0.053680419921875,0.6823883056640625,0.7944183349609375
261772,-0.04754638671875,0.760101318359375,0.6879119873046875
261773,-0.064544677734375,0.865203857421875,0.5991058349609375
261774,-0.073760986328125,0.9499664306640624,0.5290985107421875
261775,-0.0713348388671875,1.03271484375,0.475830078125
261776,-0.0653228759765625,1.100906372070312,0.43975830078125
261777,-0.071533203125,1.16497802734375,0.3837127685546875
261778,-0.066375732421875,1.225982666015625,0.291351318359375
261779,-0.061248779296875,1.248611450195312,0.1937255859375
261780,-0.0589141845703125,1.236007690429688,0.09320068359375
261781,-0.0679931640625,1.186676025390625,0.019500732421875
261782,-0.0850982666015625,1.058135986328125,0.0210723876953125
261783,-0.11004638671875,0.9175872802734376,0.0579833984375
261784,-0.163299560546875,0.8212432861328125,0.0932464599609375
261785,-0.20831298828125,0.7541656494140625,0.1298675537109375
261786,-0.269195556640625,0.70361328125,0.1632080078125
261787,-0.3386077880859375,0.669952392578125,0.219451904296875
261788,-0.395965576171875,0.656005859375,0.2791595458984375
261789,-0.4195404052734375,0.672149658203125,0.31378173828125
261790,-0.3826141357421875,0.7518463134765625,0.3309478759765625
261791,-0.274322509765625,0.856719970703125,0.3312225341796875
261792,-0.1614837646484375,0.932647705078125,0.3307342529296875
261793,-0.0718231201171875,0.987213134765625,0.359710693359375
261794,0.0126953125,1.034652709960938,0.3902740478515625
261795,0.097015380859375,1.086502075195312,0.38641357421875
261796,0.14898681640625,1.154434204101562,0.3363189697265625
261797,0.15155029296875,1.224685668945312,0.26275634765625
261798,0.1299285888671875,1.272674560546875,0.1966400146484375
261799,0.11370849609375,1.271270751953125,0.15631103515625
261800,0.0809783935546875,1.213409423828125,0.1505889892578125
261801,0.02593994140625,1.131332397460938,0.157989501953125
261802,-0.0294952392578125,1.058547973632812,0.1547393798828125
261803,-0.067962646484375,0.9910125732421876,0.1795196533203125
261804,-0.0878448486328125,0.9284820556640624,0.23870849609375
261805,-0.0884246826171875,0.87908935546875,0.30718994140625
261806,-0.0790863037109375,0.8311309814453125,0.3704071044921875
261807,-0.0697021484375,0.7984466552734375,0.415802001953125
261808,-0.0653839111328125,0.779205322265625,0.4368743896484375
261809,-0.062408447265625,0.7592926025390625,0.4328765869140625
261810,-0.067108154296875,0.75225830078125,0.4201507568359375
261811,-0.074554443359375,0.7701263427734375,0.434356689453125
261812,-0.0818023681640625,0.7843017578125,0.4805145263671875
261813,-0.105316162109375,0.80328369140625,0.5247955322265625
261814,-0.12933349609375,0.8131561279296875,0.5684661865234375
261815,-0.145782470703125,0.8231964111328125,0.608978271484375
261816,-0.18328857421875,0.81787109375,0.62939453125
261817,-0.2527618408203125,0.7982940673828125,0.6429901123046875
261818,-0.32342529296875,0.807098388671875,0.670318603515625
261819,-0.3649139404296875,0.843048095703125,0.697174072265625
261820,-0.3772430419921875,0.87744140625,0.74224853515625
261821,-0.3859100341796875,0.9161376953125,0.8054656982421875
261822,-0.3980255126953125,0.94476318359375,0.8787841796875
261823,-0.4132232666015625,0.93475341796875,0.92205810546875
261824,-0.43798828125,0.9011077880859376,0.9275665283203124
261825,-0.468994140625,0.8608551025390625,0.905487060546875
261826,-0.482940673828125,0.810211181640625,0.871795654296875
261827,-0.455718994140625,0.73284912109375,0.8273773193359375
261828,-0.4182281494140625,0.660247802734375,0.771881103515625
261829,-0.4004364013671875,0.617767333984375,0.68603515625
261830,-0.3920440673828125,0.6235198974609375,0.5648651123046875
261831,-0.3691864013671875,0.661468505859375,0.4386749267578125
261832,-0.337493896484375,0.70758056640625,0.34979248046875
261833,-0.2973175048828125,0.7423553466796875,0.28692626953125
261834,-0.2534637451171875,0.7827911376953125,0.239410400390625
261835,-0.2197265625,0.8198394775390625,0.2416839599609375
261836,-0.17144775390625,0.8409576416015625,0.250091552734375
261837,-0.1160736083984375,0.8546142578125,0.257171630859375
261838,-0.0806121826171875,0.8566741943359375,0.2758331298828125
261839,-0.0564117431640625,0.8616943359375,0.282623291015625
261840,-0.0274200439453125,0.8831787109375,0.2867889404296875
261841,-0.0010986328125,0.9099578857421876,0.294891357421875
261842,0.0247955322265625,0.934112548828125,0.330291748046875
261843,0.056549072265625,0.960662841796875,0.37274169921875
261844,0.0746917724609375,0.970306396484375,0.386810302734375
261845,0.0872039794921875,0.96624755859375,0.350616455078125
261846,0.083648681640625,0.963104248046875,0.3140869140625
261847,0.0738677978515625,0.973785400390625,0.33160400390625
261848,0.06280517578125,1.017730712890625,0.376556396484375
261849,0.0512542724609375,1.085128784179688,0.3888092041015625
261850,0.0279998779296875,1.179183959960938,0.3279876708984375
261851,-0.0106964111328125,1.297103881835938,0.2813720703125
261852,-0.0648956298828125,1.422088623046875,0.27374267578125
261853,-0.1139068603515625,1.507049560546875,0.2554473876953125
261854,-0.148681640625,1.530960083007812,0.181182861328125
261855,-0.1800689697265625,1.498947143554688,0.088958740234375
261856,-0.209320068359375,1.434768676757812,0.02972412109375
261857,-0.2244720458984375,1.347869873046875,0.031158447265625
261858,-0.22943115234375,1.25897216796875,0.07476806640625
261859,-0.218292236328125,1.162887573242188,0.1281280517578125
261860,-0.1978759765625,1.071136474609375,0.1637420654296875
261861,-0.1805877685546875,0.993682861328125,0.2064971923828125
261862,-0.1756744384765625,0.9339447021484376,0.2644195556640625
261863,-0.1734619140625,0.8704833984375,0.313690185546875
261864,-0.1740264892578125,0.8102264404296875,0.33184814453125
261865,-0.173004150390625,0.764251708984375,0.3347015380859375
261866,-0.1693878173828125,0.72979736328125,0.3455047607421875
261867,-0.1639404296875,0.718017578125,0.377899169921875
261868,-0.15557861328125,0.7108001708984375,0.3995361328125
261869,-0.1387786865234375,0.7008514404296875,0.412994384765625
261870,-0.1422271728515625,0.718841552734375,0.45098876953125
261871,-0.1646728515625,0.747528076171875,0.518829345703125
261872,-0.1809234619140625,0.7624664306640625,0.573028564453125
261873,-0.1978759765625,0.77203369140625,0.604736328125
261874,-0.219451904296875,0.782012939453125,0.6468353271484375
261875,-0.2523345947265625,0.781005859375,0.7013092041015625
261876,-0.280670166015625,0.7818603515625,0.73321533203125
261877,-0.29522705078125,0.7904052734375,0.7451629638671875
261878,-0.29571533203125,0.787628173828125,0.7171630859375
261879,-0.285186767578125,0.7703857421875,0.6730804443359375
261880,-0.27947998046875,0.7554931640625,0.661773681640625
261881,-0.2647705078125,0.7281341552734375,0.6972808837890625
261882,-0.24530029296875,0.69183349609375,0.7479095458984375
261883,-0.225982666015625,0.650665283203125,0.7730865478515625
261884,-0.2159271240234375,0.6011810302734375,0.7960968017578125
261885,-0.217742919921875,0.559478759765625,0.8055572509765625
261886,-0.2133941650390625,0.5451507568359375,0.7942047119140625
261887,-0.20697021484375,0.55682373046875,0.76776123046875
261888,-0.2005615234375,0.5844879150390625,0.7160186767578125
261889,-0.1863555908203125,0.622039794921875,0.635284423828125
261890,-0.175262451171875,0.6778717041015625,0.56329345703125
261891,-0.1721343994140625,0.7455291748046875,0.539398193359375
261892,-0.1494598388671875,0.8177337646484375,0.5300750732421875
261893,-0.13922119140625,0.922149658203125,0.5330352783203125
261894,-0.115997314453125,1.03863525390625,0.5275726318359375
261895,-0.10089111328125,1.169219970703125,0.487030029296875
261896,-0.0730743408203125,1.280624389648438,0.406829833984375
261897,-0.028778076171875,1.362579345703125,0.300262451171875
261898,-0.00469970703125,1.409500122070312,0.172637939453125
261899,0.0009002685546875,1.398025512695312,0.03619384765625
261900,-0.0160980224609375,1.331878662109375,-0.0277099609375
261901,-0.0767059326171875,1.198806762695312,-0.00323486328125
261902,-0.1909332275390625,1.08795166015625,0.069427490234375
261903,-0.2842559814453125,1.0137939453125,0.1379241943359375
261904,-0.361419677734375,0.9719696044921876,0.1702728271484375
261905,-0.4156951904296875,0.9437255859375,0.1800384521484375
261906,-0.44720458984375,0.9073333740234376,0.1870269775390625
261907,-0.46209716796875,0.88739013671875,0.2073822021484375
261908,-0.437835693359375,0.8874969482421875,0.2307586669921875
261909,-0.365509033203125,0.9161834716796876,0.2721710205078125
261910,-0.2610321044921875,0.958221435546875,0.336273193359375
261911,-0.1563720703125,0.9958648681640624,0.4055328369140625
261912,-0.053466796875,1.009414672851562,0.45745849609375
261913,0.0277862548828125,0.998046875,0.4624176025390625
261914,0.06829833984375,0.9778594970703124,0.416412353515625
261915,0.0792999267578125,0.96759033203125,0.3415679931640625
261916,0.0724029541015625,0.9731597900390624,0.267974853515625
261917,0.0489349365234375,0.9850616455078124,0.2156982421875
261918,0.01556396484375,0.995849609375,0.1927947998046875
261919,-0.017730712890625,0.9941253662109376,0.215118408203125
261920,-0.0419158935546875,0.9662322998046876,0.25775146484375
261921,-0.0562591552734375,0.9189453125,0.2900238037109375
261922,-0.0559234619140625,0.8700408935546875,0.3131256103515625
261923,-0.0469818115234375,0.834503173828125,0.336639404296875
261924,-0.031951904296875,0.8074951171875,0.3595123291015625
261925,-0.0133056640625,0.795013427734375,0.3865966796875
261926,0.002899169921875,0.79510498046875,0.4021759033203125
261927,0.01373291015625,0.784423828125,0.408905029296875
261928,0.006927490234375,0.77862548828125,0.4306182861328125
261929,0.004852294921875,0.7960968017578125,0.4713592529296875
261930,-0.0072479248046875,0.8231201171875,0.52850341796875
261931,-0.0275115966796875,0.84088134765625,0.54736328125
261932,-0.0538177490234375,0.8451385498046875,0.534332275390625
261933,-0.105377197265625,0.8386383056640625,0.5221099853515625
261934,-0.1847076416015625,0.8245086669921875,0.5150909423828125
261935,-0.254150390625,0.8143310546875,0.519073486328125
261936,-0.315093994140625,0.8168182373046875,0.53228759765625
261937,-0.372955322265625,0.8277130126953125,0.562774658203125
261938,-0.41748046875,0.839263916015625,0.629852294921875
261939,-0.4407806396484375,0.85888671875,0.7043609619140625
261940,-0.4331512451171875,0.871337890625,0.7701873779296875
261941,-0.3997344970703125,0.8683929443359375,0.8087615966796875
261942,-0.3577728271484375,0.8386077880859375,0.810577392578125
261943,-0.3456268310546875,0.7940216064453125,0.775390625
261944,-0.339019775390625,0.73779296875,0.7267303466796875
261945,-0.3054962158203125,0.6883392333984375,0.6734161376953125
