time_idx,accelerometerAccelerationX(G),accelerometerAccelerationY(G),accelerometerAccelerationZ(G)
300000,-0.4520416259765625,0.797760009765625,0.1789703369140625
300001,-0.45001220703125,0.7064056396484375,0.2094573974609375
300002,-0.448211669921875,0.6746978759765625,0.2740478515625
300003,-0.453125,0.6944122314453125,0.35498046875
300004,-0.4252471923828125,0.7559661865234375,0.419464111328125
300005,-0.350555419921875,0.8633270263671875,0.4158782958984375
300006,-0.27435302734375,0.9591064453125,0.3225555419921875
300007,-0.249481201171875,1.016708374023438,0.171875
300008,-0.239532470703125,1.047195434570312,0.040863037109375
300009,-0.23138427734375,1.059326171875,-0.0126953125
300010,-0.234588623046875,1.0264892578125,0.0312957763671875
300011,-0.230865478515625,0.967864990234375,0.1114349365234375
300012,-0.237152099609375,0.946044921875,0.1704254150390625
300013,-0.2826080322265625,0.981689453125,0.245758056640625
300014,-0.3773345947265625,1.03118896484375,0.3564605712890625
300015,-0.441864013671875,0.989044189453125,0.3811187744140625
300016,-0.4417877197265625,0.9389495849609376,0.3137664794921875
300017,-0.4161224365234375,0.930999755859375,0.2303924560546875
300018,-0.384735107421875,0.9561614990234376,0.174530029296875
300019,-0.36175537109375,0.9889678955078124,0.164154052734375
300020,-0.324615478515625,0.9853057861328124,0.179595947265625
300021,-0.293792724609375,0.9499359130859376,0.184478759765625
300022,-0.2781829833984375,0.92669677734375,0.1763153076171875
300023,-0.27166748046875,0.9147186279296876,0.1676788330078125
300024,-0.2750091552734375,0.9041900634765624,0.164154052734375
300025,-0.28546142578125,0.8931732177734375,0.1496124267578125
300026,-0.298187255859375,0.88323974609375,0.1263580322265625
300027,-0.3018951416015625,0.864593505859375,0.091796875
300028,-0.306243896484375,0.8517913818359375,0.0699310302734375
300029,-0.31561279296875,0.8423004150390625,0.06048583984375
300030,-0.323150634765625,0.8356170654296875,0.0432586669921875
300031,-0.3150787353515625,0.81597900390625,0.041839599609375
300032,-0.302001953125,0.79791259765625,0.023590087890625
300033,-0.29327392578125,0.79931640625,0.008880615234375
300034,-0.28546142578125,0.8215179443359375,-0.0027313232421875
300035,-0.2880096435546875,0.827880859375,0.00396728515625
300036,-0.2987060546875,0.8233184814453125,0.01641845703125
300037,-0.3046722412109375,0.823638916015625,0.0160064697265625
300038,-0.3170928955078125,0.8477783203125,0.008056640625
300039,-0.336578369140625,0.8809356689453125,0.0189666748046875
300040,-0.36724853515625,0.914520263671875,0.055755615234375
300041,-0.4037628173828125,0.9432525634765624,0.09820556640625
300042,-0.434661865234375,0.9595184326171876,0.1182403564453125
300043,-0.45367431640625,0.963348388671875,0.1079864501953125
300044,-0.4651031494140625,0.970458984375,0.0837860107421875
300045,-0.46307373046875,0.97698974609375,0.0692291259765625
300046,-0.447784423828125,0.991455078125,0.0816650390625
300047,-0.41595458984375,1.012191772460938,0.101318359375
300048,-0.375885009765625,1.031341552734375,0.1100616455078125
300049,-0.323944091796875,1.043930053710938,0.1362152099609375
300050,-0.2744293212890625,1.052902221679688,0.1695709228515625
300051,-0.2316436767578125,1.062911987304688,0.200286865234375
300052,-0.193603515625,1.076828002929688,0.2354583740234375
300053,-0.164398193359375,1.086410522460938,0.2495880126953125
300054,-0.150909423828125,1.080902099609375,0.2539215087890625
300055,-0.140533447265625,1.053207397460938,0.2127685546875
300056,-0.14227294921875,1.002395629882812,0.1514892578125
300057,-0.1545562744140625,0.953094482421875,0.12445068359375
300058,-0.1645660400390625,0.91357421875,0.1297454833984375
300059,-0.16680908203125,0.89013671875,0.1395111083984375
300060,-0.16082763671875,0.8827362060546875,0.153564453125
300061,-0.151275634765625,0.8757171630859375,0.171478271484375
300062,-0.1374359130859375,0.8766632080078125,0.194244384765625
300063,-0.126556396484375,0.893035888671875,0.203216552734375
300064,-0.108795166015625,0.9005584716796875,0.2191619873046875
300065,-0.0886077880859375,0.922882080078125,0.2362060546875
300066,-0.0677337646484375,0.951416015625,0.2503814697265625
300067,-0.0382843017578125,0.9709930419921876,0.2917633056640625
300068,-0.0118408203125,0.9944305419921876,0.3306732177734375
300069,-0.000579833984375,1.025131225585938,0.35986328125
300070,-0.00726318359375,1.050338745117188,0.3779449462890625
300071,-0.0303955078125,1.059616088867188,0.36981201171875
300072,-0.0598602294921875,1.064605712890625,0.343292236328125
300073,-0.0949554443359375,1.062942504882812,0.329986572265625
300074,-0.1201171875,1.05682373046875,0.34405517578125
300075,-0.13604736328125,1.047348022460938,0.3597564697265625
300076,-0.14886474609375,1.024612426757812,0.3669281005859375
300077,-0.1621551513671875,0.9968414306640624,0.3713531494140625
300078,-0.180908203125,0.9626312255859376,0.368072509765625
300079,-0.1897430419921875,0.927337646484375,0.3527984619140625
300080,-0.187591552734375,0.912353515625,0.3397369384765625
300081,-0.18023681640625,0.89837646484375,0.33941650390625
300082,-0.1732635498046875,0.8816986083984375,0.3489990234375
300083,-0.1678619384765625,0.870697021484375,0.373992919921875
300084,-0.16827392578125,0.8612213134765625,0.40643310546875
300085,-0.1726837158203125,0.8630523681640625,0.41119384765625
300086,-0.1775054931640625,0.8751068115234375,0.380523681640625
300087,-0.1805267333984375,0.8932342529296875,0.3470458984375
300088,-0.1810150146484375,0.9077606201171876,0.334014892578125
300089,-0.185302734375,0.92047119140625,0.3318328857421875
300090,-0.1951446533203125,0.9386749267578124,0.3372802734375
300091,-0.205108642578125,0.959808349609375,0.3460845947265625
300092,-0.2078094482421875,0.97613525390625,0.3416595458984375
300093,-0.2082061767578125,0.989990234375,0.3231048583984375
300094,-0.2041473388671875,0.99676513671875,0.2935333251953125
300095,-0.199005126953125,1.00299072265625,0.25689697265625
300096,-0.1929779052734375,1.009201049804688,0.2256317138671875
300097,-0.1746673583984375,1.0078125,0.1850433349609375
300098,-0.156463623046875,1.002059936523438,0.1350860595703125
300099,-0.1477203369140625,0.99658203125,0.12054443359375
300100,-0.18017578125,1.042037963867188,0.1577301025390625
300101,-0.2893218994140625,1.20062255859375,0.2263336181640625
300102,-0.3728179931640625,1.315109252929688,0.2393035888671875
300103,-0.3832855224609375,1.2406005859375,0.1435089111328125
300104,-0.3330230712890625,1.029266357421875,-0.0281219482421875
300105,-0.26416015625,0.815643310546875,-0.156982421875
300106,-0.18560791015625,0.65362548828125,-0.176422119140625
300107,-0.11871337890625,0.584136962890625,-0.1174468994140625
300108,-0.06549072265625,0.6055755615234375,-0.019134521484375
300109,-0.032623291015625,0.6979827880859375,0.128936767578125
300110,-0.043853759765625,0.842010498046875,0.290252685546875
300111,-0.0977935791015625,0.9597930908203124,0.439056396484375
300112,-0.1632232666015625,1.011581420898438,0.545654296875
300113,-0.226654052734375,1.015380859375,0.5433197021484375
300114,-0.2808990478515625,1.000869750976562,0.41241455078125
300115,-0.3170318603515625,0.985076904296875,0.2744293212890625
300116,-0.3498382568359375,0.975860595703125,0.1909027099609375
300117,-0.3890533447265625,0.9770050048828124,0.1663360595703125
300118,-0.4251861572265625,0.9743499755859376,0.181884765625
300119,-0.4427337646484375,0.9617919921875,0.21148681640625
300120,-0.4251251220703125,0.93670654296875,0.223724365234375
300121,-0.3802032470703125,0.921295166015625,0.236846923828125
300122,-0.3415679931640625,0.908843994140625,0.2535400390625
300123,-0.3081512451171875,0.8958282470703125,0.261138916015625
300124,-0.2693634033203125,0.8817138671875,0.2559814453125
300125,-0.2313995361328125,0.873138427734375,0.24267578125
300126,-0.2046966552734375,0.87109375,0.231536865234375
300127,-0.1918487548828125,0.87969970703125,0.2232513427734375
300128,-0.19183349609375,0.8963165283203125,0.212310791015625
300129,-0.197509765625,0.9064788818359376,0.2117462158203125
300130,-0.203643798828125,0.915557861328125,0.2123260498046875
300131,-0.211944580078125,0.92041015625,0.2130889892578125
300132,-0.2218170166015625,0.9264678955078124,0.21435546875
300133,-0.2310333251953125,0.9279327392578124,0.217620849609375
300134,-0.233917236328125,0.92156982421875,0.2225341796875
300135,-0.2411346435546875,0.9154205322265624,0.2209014892578125
300136,-0.245208740234375,0.9085845947265624,0.2200469970703125
300137,-0.235687255859375,0.9180755615234376,0.225982666015625
300138,-0.220428466796875,0.9365997314453124,0.2376708984375
300139,-0.211090087890625,0.95062255859375,0.2490386962890625
300140,-0.218597412109375,0.952728271484375,0.2575836181640625
300141,-0.23236083984375,0.9508819580078124,0.259552001953125
300142,-0.2521514892578125,0.9490203857421876,0.250244140625
300143,-0.262237548828125,0.9528350830078124,0.2453460693359375
300144,-0.2722015380859375,0.944610595703125,0.238555908203125
300145,-0.2810211181640625,0.9318084716796876,0.234771728515625
300146,-0.2881011962890625,0.916473388671875,0.239227294921875
300147,-0.285430908203125,0.9042510986328124,0.252532958984375
300148,-0.27740478515625,0.8966064453125,0.2612762451171875
300149,-0.2738037109375,0.8944854736328125,0.2739715576171875
300150,-0.27105712890625,0.8917694091796875,0.288543701171875
300151,-0.2668609619140625,0.8846893310546875,0.3134918212890625
300152,-0.26763916015625,0.9035186767578124,0.346893310546875
300153,-0.2421875,0.9455108642578124,0.3863067626953125
300154,-0.239227294921875,0.952423095703125,0.362396240234375
300155,-0.2777252197265625,0.92584228515625,0.38372802734375
300156,-0.3405914306640625,0.8280181884765625,0.3064422607421875
300157,-0.308624267578125,0.8119964599609375,0.2699127197265625
300158,-0.2484588623046875,0.8825531005859375,0.292816162109375
300159,-0.2436370849609375,0.904052734375,0.2989654541015625
300160,-0.262664794921875,0.89764404296875,0.3116912841796875
300161,-0.24713134765625,0.8897247314453125,0.3514556884765625
300162,-0.2358245849609375,0.877288818359375,0.3542938232421875
300163,-0.2380218505859375,0.8828125,0.344268798828125
300164,-0.2484130859375,0.8914642333984375,0.3305511474609375
300165,-0.2678375244140625,0.8906402587890625,0.3183441162109375
300166,-0.287353515625,0.8923797607421875,0.31915283203125
300167,-0.298126220703125,0.90362548828125,0.328369140625
300168,-0.3091278076171875,0.90740966796875,0.33135986328125
300169,-0.3104705810546875,0.9058685302734376,0.32855224609375
300170,-0.31011962890625,0.9050140380859376,0.332427978515625
300171,-0.31298828125,0.9023895263671876,0.330169677734375
300172,-0.3163299560546875,0.89739990234375,0.3202362060546875
300173,-0.3147430419921875,0.8983917236328125,0.31402587890625
300174,-0.3192596435546875,0.9006805419921875,0.3074951171875
300175,-0.3217620849609375,0.901275634765625,0.3113250732421875
300176,-0.316619873046875,0.9020233154296876,0.31768798828125
300177,-0.3110504150390625,0.9021148681640624,0.3160400390625
300178,-0.3103179931640625,0.89471435546875,0.3075408935546875
300179,-0.308380126953125,0.8976287841796875,0.2938385009765625
300180,-0.30615234375,0.8993072509765625,0.2881927490234375
300181,-0.3089599609375,0.893402099609375,0.2933349609375
300182,-0.312286376953125,0.893798828125,0.2983856201171875
300183,-0.3134613037109375,0.8852386474609375,0.31103515625
300184,-0.3067474365234375,0.8767242431640625,0.3184051513671875
300185,-0.3041229248046875,0.8868408203125,0.3212890625
300186,-0.2992706298828125,0.89068603515625,0.32452392578125
300187,-0.294097900390625,0.8906097412109375,0.3225860595703125
300188,-0.288177490234375,0.890472412109375,0.3198699951171875
300189,-0.2830963134765625,0.8896942138671875,0.3159027099609375
300190,-0.27923583984375,0.8907623291015625,0.314788818359375
300191,-0.276336669921875,0.89764404296875,0.3192596435546875
300192,-0.2786865234375,0.9056243896484376,0.3202056884765625
300193,-0.2808685302734375,0.9032135009765624,0.3183441162109375
300194,-0.28289794921875,0.8982391357421875,0.319793701171875
300195,-0.2843170166015625,0.8992156982421875,0.3227081298828125
300196,-0.2843475341796875,0.903839111328125,0.323974609375
300197,-0.28558349609375,0.9073028564453124,0.3204193115234375
300198,-0.28143310546875,0.90057373046875,0.3135986328125
300199,-0.2809600830078125,0.8990631103515625,0.3084259033203125
300200,-0.2879791259765625,0.905517578125,0.310089111328125
300201,-0.292755126953125,0.9046173095703124,0.31549072265625
300202,-0.30145263671875,0.9052886962890624,0.3184661865234375
300203,-0.3079986572265625,0.9079132080078124,0.3291778564453125
300204,-0.31207275390625,0.899505615234375,0.330047607421875
300205,-0.3160552978515625,0.8929443359375,0.327423095703125
300206,-0.3158416748046875,0.89324951171875,0.3262481689453125
300207,-0.313079833984375,0.8909759521484375,0.3253936767578125
300208,-0.3104705810546875,0.8941497802734375,0.323883056640625
300209,-0.3034820556640625,0.8914947509765625,0.320648193359375
300210,-0.3014373779296875,0.8956146240234375,0.3186187744140625
300211,-0.3034515380859375,0.9020538330078124,0.327362060546875
300212,-0.3032989501953125,0.8995208740234375,0.3321990966796875
300213,-0.299591064453125,0.8995513916015625,0.3328399658203125
300214,-0.2973175048828125,0.9015655517578124,0.3319091796875
300215,-0.29302978515625,0.9059295654296876,0.3341064453125
300216,-0.287811279296875,0.912261962890625,0.3345947265625
300217,-0.27947998046875,0.911712646484375,0.3330078125
300218,-0.269073486328125,0.9033966064453124,0.333404541015625
300219,-0.26153564453125,0.8985748291015625,0.3349151611328125
300220,-0.2584228515625,0.894866943359375,0.337921142578125
300221,-0.2588348388671875,0.892608642578125,0.340545654296875
300222,-0.26251220703125,0.8907012939453125,0.345428466796875
300223,-0.267608642578125,0.8888092041015625,0.35015869140625
300224,-0.2701873779296875,0.8872222900390625,0.3564910888671875
300225,-0.2744598388671875,0.885467529296875,0.360321044921875
300226,-0.2779998779296875,0.8868255615234375,0.3560791015625
300227,-0.2822265625,0.887054443359375,0.345428466796875
300228,-0.2860870361328125,0.8875579833984375,0.3354339599609375
300229,-0.28558349609375,0.8904876708984375,0.3280181884765625
300230,-0.2838897705078125,0.8921966552734375,0.3254852294921875
300231,-0.28271484375,0.892822265625,0.32525634765625
300232,-0.28363037109375,0.8955230712890625,0.33062744140625
300233,-0.2845306396484375,0.8969268798828125,0.33538818359375
300234,-0.286041259765625,0.8986968994140625,0.3388214111328125
300235,-0.28631591796875,0.9000396728515625,0.342742919921875
300236,-0.2906494140625,0.900787353515625,0.3452911376953125
300237,-0.29022216796875,0.89569091796875,0.349029541015625
300238,-0.287872314453125,0.891357421875,0.3523712158203125
300239,-0.2820587158203125,0.8885650634765625,0.3542022705078125
300240,-0.275054931640625,0.8904571533203125,0.3545379638671875
300241,-0.27032470703125,0.891021728515625,0.357940673828125
300242,-0.2685546875,0.888824462890625,0.3606109619140625
300243,-0.266021728515625,0.8882293701171875,0.365264892578125
300244,-0.2642364501953125,0.8902740478515625,0.368316650390625
300245,-0.2630767822265625,0.8901214599609375,0.3673248291015625
300246,-0.263702392578125,0.890472412109375,0.364410400390625
300247,-0.2666015625,0.8950347900390625,0.35662841796875
300248,-0.2705841064453125,0.89630126953125,0.3481903076171875
300249,-0.27581787109375,0.8936309814453125,0.3426361083984375
300250,-0.27801513671875,0.892608642578125,0.3399810791015625
300251,-0.27667236328125,0.8941650390625,0.3387908935546875
300252,-0.2725372314453125,0.8947296142578125,0.3371429443359375
300253,-0.268646240234375,0.8955841064453125,0.336700439453125
300254,-0.2663726806640625,0.895538330078125,0.3384857177734375
300255,-0.2617950439453125,0.894134521484375,0.34173583984375
300256,-0.2596435546875,0.895477294921875,0.3462371826171875
300257,-0.2631683349609375,0.8986663818359375,0.35333251953125
300258,-0.2694244384765625,0.8964385986328125,0.362548828125
300259,-0.2755279541015625,0.891357421875,0.3671875
300260,-0.2838592529296875,0.8905487060546875,0.36944580078125
300261,-0.2850799560546875,0.8909759521484375,0.3646240234375
300262,-0.2783355712890625,0.8898773193359375,0.3550567626953125
300263,-0.2708587646484375,0.8915252685546875,0.3451995849609375
300264,-0.267425537109375,0.89251708984375,0.3415069580078125
300265,-0.2671356201171875,0.894073486328125,0.3392181396484375
300266,-0.2688446044921875,0.8977813720703125,0.33380126953125
300267,-0.27410888671875,0.9010162353515624,0.3261871337890625
300268,-0.2777099609375,0.902374267578125,0.3273162841796875
300269,-0.2771148681640625,0.89886474609375,0.3345184326171875
300270,-0.2766876220703125,0.8930206298828125,0.33905029296875
300271,-0.275360107421875,0.889373779296875,0.3466644287109375
300272,-0.2744903564453125,0.8889617919921875,0.3519287109375
300273,-0.275665283203125,0.888275146484375,0.3466339111328125
300274,-0.2765655517578125,0.888641357421875,0.340484619140625
300275,-0.2777557373046875,0.8917236328125,0.3404388427734375
300276,-0.2783966064453125,0.8944549560546875,0.3418426513671875
300277,-0.2775421142578125,0.8938751220703125,0.343719482421875
300278,-0.276763916015625,0.8890838623046875,0.348602294921875
300279,-0.2761383056640625,0.8866729736328125,0.351959228515625
300280,-0.277099609375,0.88604736328125,0.3539886474609375
300281,-0.2767486572265625,0.88958740234375,0.35186767578125
300282,-0.2764739990234375,0.893646240234375,0.3455963134765625
300283,-0.2763214111328125,0.8985137939453125,0.337646484375
300284,-0.2754364013671875,0.899749755859375,0.3338165283203125
300285,-0.270660400390625,0.8966217041015625,0.3342437744140625
300286,-0.265655517578125,0.9017486572265624,0.33843994140625
300287,-0.26202392578125,0.9096527099609376,0.337799072265625
300288,-0.2586212158203125,0.909027099609375,0.33538818359375
300289,-0.2548675537109375,0.9018096923828124,0.3357086181640625
300290,-0.24932861328125,0.8964385986328125,0.3415679931640625
300291,-0.24298095703125,0.8950653076171875,0.3473052978515625
300292,-0.240966796875,0.89410400390625,0.349639892578125
300293,-0.2414703369140625,0.8950347900390625,0.349700927734375
300294,-0.242645263671875,0.89385986328125,0.350250244140625
300295,-0.2483367919921875,0.8946075439453125,0.3593597412109375
300296,-0.25616455078125,0.89459228515625,0.3659210205078125
300297,-0.263427734375,0.893218994140625,0.365142822265625
300298,-0.2700042724609375,0.8939666748046875,0.3560333251953125
300299,-0.2733917236328125,0.89825439453125,0.341522216796875
300300,-0.271484375,0.8998260498046875,0.32794189453125
300301,-0.2654876708984375,0.9003143310546875,0.3264312744140625
300302,-0.2611236572265625,0.901611328125,0.3332061767578125
300303,-0.2577056884765625,0.902740478515625,0.342193603515625
300304,-0.2559967041015625,0.8990631103515625,0.3453369140625
300305,-0.2573089599609375,0.890777587890625,0.348114013671875
300306,-0.257049560546875,0.88531494140625,0.352691650390625
300307,-0.256500244140625,0.8858184814453125,0.3556671142578125
300308,-0.2577362060546875,0.8905792236328125,0.355133056640625
300309,-0.2605743408203125,0.8922271728515625,0.3499298095703125
300310,-0.2629547119140625,0.893524169921875,0.3479766845703125
300311,-0.265869140625,0.894012451171875,0.349151611328125
300312,-0.2684173583984375,0.89227294921875,0.3567047119140625
300313,-0.2701263427734375,0.8904876708984375,0.3596954345703125
300314,-0.2707672119140625,0.891510009765625,0.3602447509765625
300315,-0.2701416015625,0.8922882080078125,0.357330322265625
300316,-0.2676239013671875,0.890228271484375,0.35906982421875
300317,-0.2623138427734375,0.88787841796875,0.3612518310546875
300318,-0.2616119384765625,0.88812255859375,0.3633575439453125
300319,-0.2639617919921875,0.88873291015625,0.3650970458984375
300320,-0.2697906494140625,0.8883819580078125,0.359649658203125
300321,-0.2731170654296875,0.8859710693359375,0.3534698486328125
300322,-0.273162841796875,0.8867950439453125,0.3506011962890625
300323,-0.2755126953125,0.893951416015625,0.3482818603515625
300324,-0.2765350341796875,0.8955535888671875,0.3485870361328125
300325,-0.2776947021484375,0.8933563232421875,0.3502197265625
300326,-0.2794647216796875,0.8925323486328125,0.357147216796875
300327,-0.278656005859375,0.8910675048828125,0.362518310546875
300328,-0.278167724609375,0.888397216796875,0.3654022216796875
300329,-0.2779998779296875,0.884674072265625,0.3638153076171875
300330,-0.2769012451171875,0.8837127685546875,0.3606109619140625
300331,-0.2745819091796875,0.883941650390625,0.3594970703125
300332,-0.2710113525390625,0.88494873046875,0.361083984375
300333,-0.2676239013671875,0.8865814208984375,0.360504150390625
300334,-0.265411376953125,0.8877105712890625,0.3596649169921875
300335,-0.2633056640625,0.8897705078125,0.359527587890625
300336,-0.2605743408203125,0.8929443359375,0.357025146484375
300337,-0.259002685546875,0.894805908203125,0.3574066162109375
300338,-0.2580718994140625,0.8946533203125,0.362213134765625
300339,-0.2568359375,0.8969879150390625,0.363372802734375
300340,-0.2559356689453125,0.89727783203125,0.36199951171875
300341,-0.2555694580078125,0.8936309814453125,0.35772705078125
300342,-0.2569580078125,0.893585205078125,0.3538360595703125
300343,-0.2598419189453125,0.89501953125,0.355926513671875
300344,-0.2627105712890625,0.8932037353515625,0.359619140625
300345,-0.2637481689453125,0.8882293701171875,0.36285400390625
300346,-0.263824462890625,0.88494873046875,0.364959716796875
300347,-0.262451171875,0.886444091796875,0.3661651611328125
300348,-0.261077880859375,0.887237548828125,0.3686065673828125
300349,-0.2587890625,0.888275146484375,0.367340087890625
300350,-0.2562103271484375,0.8907012939453125,0.365386962890625
300351,-0.252899169921875,0.891998291015625,0.361907958984375
300352,-0.25201416015625,0.8909759521484375,0.35650634765625
300353,-0.24951171875,0.8914031982421875,0.352447509765625
300354,-0.2469024658203125,0.891693115234375,0.352874755859375
300355,-0.245361328125,0.892669677734375,0.3516998291015625
300356,-0.2452392578125,0.8936004638671875,0.3535308837890625
300357,-0.246826171875,0.892120361328125,0.3583221435546875
300358,-0.250457763671875,0.8876800537109375,0.36474609375
300359,-0.255706787109375,0.882171630859375,0.36944580078125
300360,-0.2619476318359375,0.8792877197265625,0.372833251953125
300361,-0.2657318115234375,0.8779754638671875,0.371124267578125
300362,-0.268890380859375,0.884979248046875,0.3705596923828125
300363,-0.2682952880859375,0.887969970703125,0.3697662353515625
300364,-0.264923095703125,0.886932373046875,0.3655548095703125
300365,-0.262481689453125,0.8890380859375,0.368499755859375
300366,-0.2613067626953125,0.890838623046875,0.3723907470703125
300367,-0.2619781494140625,0.8894195556640625,0.369049072265625
300368,-0.2671966552734375,0.889190673828125,0.3646240234375
300369,-0.269989013671875,0.892364501953125,0.357147216796875
300370,-0.2708740234375,0.8928680419921875,0.35418701171875
300371,-0.2699432373046875,0.8961334228515625,0.3511199951171875
300372,-0.267242431640625,0.89862060546875,0.3486328125
300373,-0.26629638671875,0.897979736328125,0.3504180908203125
300374,-0.2642822265625,0.8960723876953125,0.3493499755859375
300375,-0.2624359130859375,0.8961029052734375,0.34796142578125
300376,-0.2625579833984375,0.8947906494140625,0.3469085693359375
300377,-0.262451171875,0.8916778564453125,0.346405029296875
300378,-0.2596588134765625,0.88885498046875,0.3483428955078125
300379,-0.257965087890625,0.88958740234375,0.3542327880859375
300380,-0.2572784423828125,0.894134521484375,0.3597564697265625
300381,-0.2566070556640625,0.8968048095703125,0.360870361328125
300382,-0.2549591064453125,0.8985595703125,0.35772705078125
300383,-0.2535858154296875,0.9008636474609376,0.3557586669921875
300384,-0.2506103515625,0.90118408203125,0.357391357421875
300385,-0.2487030029296875,0.9012603759765624,0.359161376953125
300386,-0.248016357421875,0.90118408203125,0.357421875
300387,-0.2453460693359375,0.903045654296875,0.3580169677734375
300388,-0.241790771484375,0.90521240234375,0.3592987060546875
300389,-0.23797607421875,0.9068145751953124,0.3590240478515625
300390,-0.234283447265625,0.9051055908203124,0.3564453125
300391,-0.234100341796875,0.9044189453125,0.3543853759765625
300392,-0.2345733642578125,0.904266357421875,0.353363037109375
300393,-0.2344207763671875,0.9076080322265624,0.3505859375
300394,-0.2325439453125,0.9094085693359376,0.34844970703125
300395,-0.2325439453125,0.91156005859375,0.3503875732421875
300396,-0.230560302734375,0.91064453125,0.3508453369140625
300397,-0.228515625,0.9069366455078124,0.3517608642578125
300398,-0.2285614013671875,0.9024200439453124,0.355224609375
300399,-0.2283477783203125,0.89874267578125,0.35357666015625
300400,-0.2282562255859375,0.8968353271484375,0.3509063720703125
300401,-0.227752685546875,0.8969573974609375,0.3504638671875
300402,-0.228515625,0.898284912109375,0.354217529296875
300403,-0.229034423828125,0.899017333984375,0.3620147705078125
300404,-0.230682373046875,0.898773193359375,0.36761474609375
300405,-0.23284912109375,0.9002685546875,0.366851806640625
300406,-0.23553466796875,0.897491455078125,0.3642425537109375
300407,-0.2361602783203125,0.8990020751953125,0.360443115234375
300408,-0.237152099609375,0.9001007080078125,0.3574066162109375
300409,-0.2390899658203125,0.9005126953125,0.358551025390625
300410,-0.238983154296875,0.8969573974609375,0.360626220703125
300411,-0.2402191162109375,0.8936309814453125,0.361602783203125
300412,-0.2458038330078125,0.8909454345703125,0.364776611328125
300413,-0.251251220703125,0.8891143798828125,0.3658447265625
300414,-0.2579498291015625,0.8873748779296875,0.3647003173828125
300415,-0.2641754150390625,0.8871002197265625,0.3603515625
300416,-0.269256591796875,0.888916015625,0.3579254150390625
300417,-0.2707977294921875,0.88983154296875,0.358001708984375
300418,-0.2698974609375,0.88848876953125,0.3616485595703125
300419,-0.268890380859375,0.8889617919921875,0.3660430908203125
300420,-0.2657928466796875,0.88922119140625,0.369232177734375
300421,-0.2616424560546875,0.8902435302734375,0.3730010986328125
300422,-0.2585601806640625,0.8922576904296875,0.3731231689453125
300423,-0.2549285888671875,0.8946075439453125,0.3729400634765625
300424,-0.2509918212890625,0.8951416015625,0.373016357421875
300425,-0.2481536865234375,0.8936614990234375,0.37530517578125
300426,-0.2471771240234375,0.8928680419921875,0.3789215087890625
300427,-0.24896240234375,0.8945159912109375,0.3785552978515625
300428,-0.2499847412109375,0.8960418701171875,0.3712615966796875
300429,-0.2494049072265625,0.895843505859375,0.3645172119140625
300430,-0.2481842041015625,0.8943939208984375,0.3593292236328125
300431,-0.246307373046875,0.892913818359375,0.3619232177734375
300432,-0.2465972900390625,0.8942108154296875,0.3652496337890625
300433,-0.2441864013671875,0.8941497802734375,0.3650360107421875
300434,-0.24200439453125,0.8936309814453125,0.3676605224609375
300435,-0.239959716796875,0.8947296142578125,0.3694610595703125
300436,-0.2400054931640625,0.8929443359375,0.3706817626953125
300437,-0.24005126953125,0.893768310546875,0.371337890625
300438,-0.2406158447265625,0.8948516845703125,0.374267578125
300439,-0.2392120361328125,0.8885498046875,0.376220703125
300440,-0.2389068603515625,0.88262939453125,0.377227783203125
300441,-0.2386016845703125,0.87908935546875,0.379150390625
300442,-0.239532470703125,0.8790740966796875,0.38250732421875
300443,-0.241180419921875,0.8824310302734375,0.38775634765625
300444,-0.2427978515625,0.8860321044921875,0.390625
300445,-0.24591064453125,0.8858795166015625,0.3896331787109375
300446,-0.2502593994140625,0.88360595703125,0.3857879638671875
300447,-0.255126953125,0.884185791015625,0.3865509033203125
300448,-0.2577972412109375,0.88543701171875,0.38665771484375
300449,-0.2604827880859375,0.8845672607421875,0.3897552490234375
300450,-0.266510009765625,0.8799591064453125,0.3992919921875
300451,-0.2734832763671875,0.8746490478515625,0.41217041015625
300452,-0.28192138671875,0.8703155517578125,0.4261932373046875
300453,-0.291412353515625,0.8695220947265625,0.43414306640625
300454,-0.301025390625,0.87451171875,0.4374847412109375
300455,-0.3095703125,0.8826141357421875,0.4296875
300456,-0.3173675537109375,0.8878936767578125,0.41204833984375
300457,-0.32574462890625,0.877655029296875,0.394378662109375
300458,-0.338958740234375,0.859405517578125,0.384002685546875
300459,-0.3493499755859375,0.8402099609375,0.3854827880859375
300460,-0.35614013671875,0.8284912109375,0.3843841552734375
300461,-0.361358642578125,0.8268890380859375,0.378753662109375
300462,-0.360198974609375,0.8337554931640625,0.3701324462890625
300463,-0.353515625,0.848846435546875,0.364410400390625
300464,-0.34320068359375,0.8585357666015625,0.3668975830078125
300465,-0.33740234375,0.857391357421875,0.377655029296875
300466,-0.3273468017578125,0.8585357666015625,0.392974853515625
300467,-0.3182525634765625,0.86163330078125,0.40252685546875
300468,-0.309326171875,0.8668212890625,0.40216064453125
300469,-0.2943267822265625,0.8665313720703125,0.3961944580078125
300470,-0.277923583984375,0.8760223388671875,0.3867340087890625
300471,-0.2632904052734375,0.8887786865234375,0.3828887939453125
300472,-0.245758056640625,0.8853912353515625,0.3940582275390625
300473,-0.2298126220703125,0.886688232421875,0.4031524658203125
300474,-0.21990966796875,0.8889312744140625,0.412139892578125
300475,-0.21197509765625,0.87945556640625,0.418487548828125
300476,-0.202789306640625,0.8830108642578125,0.419952392578125
300477,-0.2003021240234375,0.887420654296875,0.415069580078125
300478,-0.19024658203125,0.8915863037109375,0.4108428955078125
300479,-0.17828369140625,0.8996734619140625,0.4087677001953125
300480,-0.168975830078125,0.906341552734375,0.40972900390625
300481,-0.163665771484375,0.889434814453125,0.41180419921875
300482,-0.1627044677734375,0.887725830078125,0.4199371337890625
300483,-0.1656646728515625,0.899169921875,0.42962646484375
300484,-0.1708526611328125,0.8972015380859375,0.4327392578125
300485,-0.180450439453125,0.890777587890625,0.4297943115234375
300486,-0.19012451171875,0.8833160400390625,0.4261474609375
300487,-0.20281982421875,0.8813629150390625,0.425506591796875
300488,-0.2129058837890625,0.8754119873046875,0.4218902587890625
300489,-0.220855712890625,0.8721466064453125,0.4169158935546875
300490,-0.2349700927734375,0.8662567138671875,0.4173583984375
300491,-0.2454071044921875,0.86572265625,0.413909912109375
300492,-0.2544097900390625,0.864471435546875,0.4103851318359375
300493,-0.2629241943359375,0.8603973388671875,0.4064178466796875
300494,-0.2823486328125,0.855010986328125,0.4023284912109375
300495,-0.2944183349609375,0.8634490966796875,0.4020843505859375
300496,-0.28387451171875,0.8760986328125,0.393096923828125
300497,-0.278167724609375,0.8777313232421875,0.3939208984375
300498,-0.2724151611328125,0.8769073486328125,0.39599609375
300499,-0.2645111083984375,0.88330078125,0.3931884765625
300500,-0.2580413818359375,0.8927459716796875,0.3914337158203125
300501,-0.2512969970703125,0.8949432373046875,0.3896942138671875
300502,-0.241912841796875,0.8997344970703125,0.3891143798828125
300503,-0.23504638671875,0.898040771484375,0.3930511474609375
300504,-0.2214508056640625,0.9168853759765624,0.3871917724609375
300505,-0.2113800048828125,0.9112396240234376,0.3797454833984375
300506,-0.2053985595703125,0.9147796630859376,0.3735198974609375
300507,-0.1955413818359375,0.92681884765625,0.3626556396484375
300508,-0.1811676025390625,0.9238128662109376,0.3603515625
300509,-0.174407958984375,0.930816650390625,0.359771728515625
300510,-0.17364501953125,0.92596435546875,0.3692169189453125
300511,-0.174835205078125,0.918548583984375,0.374908447265625
300512,-0.1811981201171875,0.9115142822265624,0.381317138671875
300513,-0.185150146484375,0.9185943603515624,0.375732421875
300514,-0.1956787109375,0.9201812744140624,0.3747406005859375
300515,-0.32696533203125,0.8754119873046875,0.5063018798828125
300516,-0.4001312255859375,0.8077239990234375,0.41455078125
300517,-0.309112548828125,0.83831787109375,0.4068603515625
300518,-0.281494140625,0.8649749755859375,0.4326324462890625
300519,-0.262054443359375,0.86431884765625,0.3530426025390625
300520,-0.2337646484375,0.897064208984375,0.32330322265625
300521,-0.224334716796875,0.886322021484375,0.32244873046875
300522,-0.1891021728515625,0.9442901611328124,0.28289794921875
300523,-0.1379852294921875,0.9333038330078124,0.27783203125
300524,-0.173675537109375,0.735198974609375,0.34039306640625
300525,-0.19091796875,0.68524169921875,0.3838958740234375
300526,-0.282073974609375,0.82476806640625,0.44805908203125
300527,-0.42803955078125,0.9531097412109376,0.3968505859375
300528,-0.4452667236328125,0.9561767578125,0.3280487060546875
300529,-0.249755859375,0.84893798828125,0.3193206787109375
300530,-0.15814208984375,0.7310943603515625,0.361328125
300531,-0.22650146484375,0.850311279296875,0.4008026123046875
300532,-0.2380828857421875,1.019668579101562,0.3841552734375
300533,-0.203125,0.9897308349609376,0.3311767578125
300534,-0.2073822021484375,0.8940887451171875,0.336090087890625
300535,-0.16717529296875,0.85064697265625,0.349609375
300536,-0.04730224609375,0.9547271728515624,0.43218994140625
300537,0.092742919921875,1.176528930664062,0.402618408203125
300538,0.1468963623046875,1.2379150390625,0.2876129150390625
300539,-0.0030517578125,1.082504272460938,0.285003662109375
300540,-0.1473388671875,0.9577789306640624,0.2666778564453125
300541,-0.399078369140625,0.876068115234375,0.1840667724609375
300542,-0.583984375,0.7330474853515625,0.0762786865234375
300543,-0.622894287109375,0.6104583740234375,0.191802978515625
300544,-0.7387237548828125,0.6392974853515625,0.4058685302734375
300545,-0.768402099609375,0.795440673828125,0.3983306884765625
300546,-0.521942138671875,0.9813995361328124,0.4125518798828125
300547,-0.1760711669921875,1.061691284179688,0.4090423583984375
300548,-0.129638671875,0.9650726318359376,0.48248291015625
300549,-0.00079345703125,0.9439849853515624,0.3608551025390625
300550,-0.0423431396484375,0.9935150146484376,0.213287353515625
300551,-0.1531829833984375,0.9817352294921876,0.1111602783203125
300552,-0.14117431640625,0.7918701171875,0.1573333740234375
300553,0.218719482421875,0.499664306640625,0.2642364501953125
300554,0.0946044921875,0.6438751220703125,0.5707855224609375
300555,-0.298431396484375,0.7357330322265625,0.5533294677734375
300556,-0.4770660400390625,0.8888092041015625,0.5101318359375
300557,-0.56439208984375,0.97021484375,0.570037841796875
300558,-0.6309967041015625,1.005126953125,0.4053955078125
300559,-0.7002716064453125,1.041549682617188,0.207611083984375
300560,-0.7548675537109375,1.052291870117188,-0.0121307373046875
300561,-0.8249053955078125,1.02239990234375,-0.2763519287109375
300562,-0.885772705078125,0.9001007080078125,-0.3724517822265625
300563,-0.890716552734375,0.7020111083984375,-0.2886505126953125
300564,-0.855987548828125,0.5302276611328125,-0.06024169921875
300565,-0.7796173095703125,0.43182373046875,0.1583404541015625
300566,-0.95556640625,0.393280029296875,0.2992401123046875
300567,-0.9720458984375,0.2665252685546875,0.4317779541015625
300568,-1.367202758789062,0.187835693359375,0.331512451171875
300569,-1.241302490234375,0.4572296142578125,0.615203857421875
300570,-0.8939971923828125,0.5076751708984375,0.6515655517578125
300571,-0.522369384765625,0.390625,0.4163360595703125
300572,-0.28448486328125,0.3520660400390625,0.1253204345703125
300573,-0.2691497802734375,0.350189208984375,0.1224517822265625
300574,-0.4312896728515625,0.5275115966796875,0.28594970703125
300575,-0.4391632080078125,0.80780029296875,0.4279327392578125
300576,-0.264251708984375,0.9969329833984376,0.48333740234375
300577,-0.2146453857421875,1.068115234375,0.3718109130859375
300578,-0.2060546875,1.028976440429688,0.400177001953125
300579,-0.3901824951171875,0.965576171875,0.3629913330078125
300580,-0.504425048828125,0.861968994140625,0.3112945556640625
300581,-0.417327880859375,0.8986053466796875,0.304931640625
300582,-0.6295013427734375,0.8284149169921875,0.213592529296875
300583,-0.598907470703125,0.7503662109375,0.195526123046875
300584,-0.549530029296875,0.7681884765625,0.2853546142578125
300585,-0.5194854736328125,0.7344207763671875,0.32025146484375
300586,-0.46124267578125,0.757354736328125,0.42510986328125
300587,-0.446929931640625,0.7843780517578125,0.4469451904296875
300588,-0.4070281982421875,0.81884765625,0.4240875244140625
300589,-0.3691558837890625,0.8307952880859375,0.412628173828125
300590,-0.3497314453125,0.8480377197265625,0.374267578125
300591,-0.3640594482421875,0.8340301513671875,0.3020172119140625
300592,-0.38812255859375,0.835784912109375,0.3005218505859375
300593,-0.44677734375,0.8173828125,0.323577880859375
300594,-0.483428955078125,0.804534912109375,0.3560333251953125
300595,-0.4879302978515625,0.7799072265625,0.42376708984375
300596,-0.4426727294921875,0.802032470703125,0.4467315673828125
300597,-0.46435546875,0.8407745361328125,0.490570068359375
300598,-0.491119384765625,0.8806610107421875,0.56842041015625
300599,-0.3781280517578125,0.9105987548828124,0.415069580078125
300600,-0.2299041748046875,0.9389495849609376,0.356170654296875
300601,-0.2607574462890625,0.9337310791015624,0.41632080078125
300602,-0.2794189453125,0.99444580078125,0.38214111328125
300603,-0.222900390625,1.094818115234375,0.2257232666015625
300604,-0.2735595703125,1.067916870117188,0.053131103515625
300605,-0.304962158203125,1.111068725585938,-0.0887908935546875
300606,-0.3702239990234375,1.137496948242188,4.57763671875e-05
300607,-0.455413818359375,1.09588623046875,0.213897705078125
300608,-0.5205230712890625,1.111724853515625,0.59503173828125
300609,-0.6031036376953125,1.091888427734375,0.788330078125
300610,-0.6357421875,1.107955932617188,0.4510650634765625
300611,-0.649169921875,1.0731201171875,0.2597198486328125
300612,-0.6501007080078125,0.9818115234375,0.3151092529296875
300613,-0.6738739013671875,0.94683837890625,0.1350250244140625
300614,-0.72943115234375,0.8810577392578125,-0.192779541015625
300615,-0.75018310546875,0.862640380859375,-0.4112396240234375
300616,-0.66656494140625,0.976715087890625,-0.364654541015625
300617,-0.618072509765625,1.216171264648438,-0.14715576171875
300618,-0.655487060546875,1.398025512695312,0.4214935302734375
300619,-0.7965240478515625,1.230087280273438,0.7319488525390625
300620,-0.627349853515625,1.027923583984375,0.2432098388671875
300621,-0.35662841796875,1.101715087890625,-0.1507110595703125
300622,-0.2862091064453125,0.9777679443359376,-0.3020782470703125
300623,-0.281829833984375,0.9141693115234376,-0.1686859130859375
300624,-0.3624114990234375,0.96240234375,-0.14508056640625
300625,-0.3198699951171875,0.887481689453125,0.04510498046875
300626,-0.3223419189453125,0.8516082763671875,0.3631591796875
300627,-0.1356353759765625,0.70330810546875,0.5801544189453125
300628,-0.0979156494140625,0.7595062255859375,0.578094482421875
300629,-0.1892547607421875,0.8155364990234375,0.4408416748046875
300630,-0.2569427490234375,0.9326019287109376,0.117889404296875
300631,-0.265167236328125,1.012435913085938,-0.1310577392578125
300632,-0.3770599365234375,0.9483489990234376,-0.323638916015625
300633,-0.4571075439453125,0.9174957275390624,-0.4478759765625
300634,-0.60107421875,0.9057464599609376,-0.457672119140625
300635,-0.8655853271484375,0.9782867431640624,-0.3742523193359375
300636,-0.8887786865234375,0.9730682373046876,-0.59326171875
300637,-0.850830078125,0.9044036865234376,-0.6507110595703125
300638,-0.8625335693359375,0.8231201171875,-0.465972900390625
300639,-0.8581085205078125,0.769775390625,-0.317779541015625
300640,-0.8780059814453125,0.69842529296875,-0.461517333984375
300641,-0.879241943359375,0.6836700439453125,-0.6524505615234375
300642,-0.844451904296875,0.694610595703125,-0.6643218994140625
300643,-0.7934417724609375,0.6278228759765625,-0.56280517578125
300644,-0.6882781982421875,0.5638427734375,-0.49395751953125
300645,-0.546661376953125,0.5064544677734375,-0.43194580078125
300646,-0.3995513916015625,0.481231689453125,-0.3878936767578125
300647,-0.2852325439453125,0.4517364501953125,-0.3745269775390625
300648,-0.164154052734375,0.44140625,-0.34564208984375
300649,-0.0045623779296875,0.4078216552734375,-0.3443603515625
300650,0.1749420166015625,0.4140167236328125,-0.523193359375
300651,0.2044677734375,0.333343505859375,-0.667572021484375
300652,0.13739013671875,0.131622314453125,-0.693145751953125
300653,0.174957275390625,0.120697021484375,-0.6973876953125
300654,0.188995361328125,0.093170166015625,-0.7164459228515625
300655,0.140167236328125,0.06756591796875,-0.7622528076171875
300656,0.0901641845703125,0.09930419921875,-0.6668243408203125
300657,0.02728271484375,0.113250732421875,-0.490875244140625
300658,-0.047821044921875,0.1129608154296875,-0.41864013671875
300659,-0.0818634033203125,0.107757568359375,-0.4667816162109375
300660,-0.0890350341796875,0.0557098388671875,-0.5687255859375
300661,-0.07171630859375,-0.0235748291015625,-0.742950439453125
300662,-0.0760955810546875,-0.0841827392578125,-0.94866943359375
300663,-0.093048095703125,-0.0886993408203125,-1.094863891601562
300664,-0.1272125244140625,-0.0639495849609375,-1.158920288085938
300665,-0.1819305419921875,-0.02593994140625,-1.119873046875
300666,-0.2423858642578125,0.0175323486328125,-1.002639770507812
300667,-0.2954864501953125,0.046173095703125,-0.9029083251953124
300668,-0.3369293212890625,0.053466796875,-0.92822265625
300669,-0.352752685546875,0.0225677490234375,-1.089996337890625
300670,-0.330535888671875,0.0201568603515625,-1.28717041015625
300671,-0.3003082275390625,0.0312652587890625,-1.406936645507812
300672,-0.2825927734375,0.0396270751953125,-1.418960571289062
300673,-0.265167236328125,0.053009033203125,-1.3436279296875
300674,-0.258026123046875,0.0467529296875,-1.223403930664062
300675,-0.2465362548828125,0.0165252685546875,-1.109725952148438
300676,-0.2408447265625,-0.0502166748046875,-1.042343139648438
300677,-0.22564697265625,-0.12115478515625,-1.04046630859375
300678,-0.1856842041015625,-0.1532745361328125,-1.102783203125
300679,-0.1383209228515625,-0.1597747802734375,-1.1920166015625
300680,-0.105743408203125,-0.171112060546875,-1.234893798828125
300681,-0.089935302734375,-0.1788330078125,-1.22100830078125
300682,-0.0821380615234375,-0.1854400634765625,-1.176239013671875
300683,-0.077239990234375,-0.200469970703125,-1.094131469726562
300684,-0.07403564453125,-0.2415618896484375,-1.016845703125
300685,-0.07867431640625,-0.2823333740234375,-0.9862823486328124
300686,-0.0894622802734375,-0.303466796875,-0.9958953857421876
300687,-0.0793304443359375,-0.27069091796875,-1.049972534179688
300688,-0.074920654296875,-0.2316131591796875,-1.1151123046875
300689,-0.0904998779296875,-0.2256317138671875,-1.132827758789062
300690,-0.1310272216796875,-0.2169189453125,-1.245941162109375
300691,-0.20855712890625,-0.200714111328125,-1.181015014648438
300692,-0.219207763671875,-0.1482086181640625,-0.705963134765625
300693,-0.234130859375,-0.122406005859375,-0.5225982666015625
300694,-0.2566680908203125,-0.11993408203125,-0.59844970703125
300695,-0.2213592529296875,-0.0694122314453125,-0.6997528076171875
300696,-0.19720458984375,-0.0364990234375,-0.8023529052734375
300697,-0.1984710693359375,-0.0238189697265625,-0.968719482421875
300698,-0.185760498046875,-0.021392822265625,-1.09307861328125
300699,-0.08843994140625,-0.0443115234375,-1.256423950195312
300700,0.1477203369140625,-0.2527923583984375,-1.502227783203125
300701,0.0030364990234375,-0.3494415283203125,-1.351242065429688
300702,-0.02032470703125,-0.220489501953125,-1.31915283203125
300703,-0.1752166748046875,-0.216583251953125,-1.154052734375
300704,-0.35723876953125,-0.020294189453125,-0.906341552734375
300705,-0.3316650390625,-0.03997802734375,-0.933258056640625
300706,-0.24200439453125,-0.1483917236328125,-1.0460205078125
300707,-0.2848358154296875,-0.0701904296875,-0.99591064453125
300708,-0.34393310546875,-0.0343780517578125,-0.8648529052734375
300709,-0.31103515625,-0.10418701171875,-0.8613128662109375
300710,-0.2678070068359375,-0.193145751953125,-0.946929931640625
300711,-0.19036865234375,-0.2647705078125,-1.066726684570312
300712,-0.1160430908203125,-0.3510894775390625,-1.104949951171875
300713,-0.088714599609375,-0.4129791259765625,-1.05865478515625
300714,-0.0703582763671875,-0.4173736572265625,-0.9931640625
300715,-0.0648956298828125,-0.418914794921875,-0.9285430908203124
300716,-0.069000244140625,-0.4237823486328125,-0.8836669921875
300717,-0.1012420654296875,-0.4131927490234375,-0.88836669921875
300718,-0.152008056640625,-0.354217529296875,-0.9481201171875
300719,-0.189453125,-0.3051300048828125,-1.053253173828125
300720,-0.175811767578125,-0.316497802734375,-1.170883178710938
300721,-0.13262939453125,-0.3586578369140625,-1.196563720703125
300722,-0.1324005126953125,-0.356170654296875,-1.169906616210938
300723,-0.19873046875,-0.3755035400390625,-1.185302734375
300724,-0.2650909423828125,-0.4553070068359375,-1.193801879882812
300725,-0.2633209228515625,-0.5757293701171875,-1.148117065429688
300726,-0.2865753173828125,-0.7245025634765625,-1.099319458007812
300727,-0.313262939453125,-0.771942138671875,-1.08319091796875
300728,-0.2895660400390625,-0.7274627685546875,-1.111724853515625
300729,-0.2380218505859375,-0.68670654296875,-1.140487670898438
300730,-0.1576690673828125,-0.661468505859375,-1.119140625
300731,-0.1020050048828125,-0.6073150634765625,-1.036117553710938
300732,-0.066436767578125,-0.5255279541015625,-0.9554443359375
300733,-0.05328369140625,-0.4617919921875,-0.912109375
300734,-0.0851898193359375,-0.458740234375,-0.9100799560546876
300735,-0.130828857421875,-0.512725830078125,-0.91619873046875
300736,-0.165435791015625,-0.581207275390625,-0.89727783203125
300737,-0.19781494140625,-0.6317138671875,-0.8833465576171875
300738,-0.17999267578125,-0.67333984375,-0.8625946044921875
300739,-0.1594696044921875,-0.699188232421875,-0.85986328125
300740,-0.184814453125,-0.704620361328125,-0.86761474609375
300741,-0.2421417236328125,-0.6909027099609375,-0.8174591064453125
300742,-0.2404937744140625,-0.61090087890625,-0.7248687744140625
300743,-0.27557373046875,-0.5186614990234375,-0.7025146484375
300744,-0.3334197998046875,-0.4405364990234375,-0.752288818359375
300745,-0.3292388916015625,-0.4144439697265625,-0.7678985595703125
300746,-0.269927978515625,-0.4297332763671875,-0.71771240234375
300747,-0.227813720703125,-0.4374237060546875,-0.6443634033203125
300748,-0.2377471923828125,-0.403472900390625,-0.55792236328125
300749,-0.28265380859375,-0.3372802734375,-0.4969329833984375
300750,-0.3050994873046875,-0.2945556640625,-0.490234375
300751,-0.313934326171875,-0.2989044189453125,-0.4676055908203125
300752,-0.332366943359375,-0.3369293212890625,-0.4113922119140625
300753,-0.338836669921875,-0.3804473876953125,-0.3649749755859375
300754,-0.32061767578125,-0.4200592041015625,-0.3612518310546875
300755,-0.3354644775390625,-0.4336395263671875,-0.3222503662109375
300756,-0.416046142578125,-0.4445648193359375,-0.2424163818359375
300757,-0.4362335205078125,-0.479400634765625,-0.15087890625
300758,-0.4998931884765625,-0.48577880859375,-0.0849151611328125
300759,-0.66839599609375,-0.4707489013671875,-0.071197509765625
300760,-0.782806396484375,-0.5002593994140625,-0.0614471435546875
300761,-0.889434814453125,-0.5395050048828125,-0.09478759765625
300762,-0.964019775390625,-0.5159454345703125,-0.2102203369140625
300763,-0.993865966796875,-0.59234619140625,-0.2071075439453125
300764,-0.862091064453125,-0.7292938232421875,-0.1211700439453125
300765,-0.7958526611328125,-0.851715087890625,-0.14971923828125
300766,-0.7943572998046875,-0.9423675537109376,-0.015167236328125
300767,-0.808990478515625,-0.997772216796875,0.1027679443359375
300768,-0.82861328125,-0.9586181640625,0.09808349609375
300769,-0.83660888671875,-0.8213958740234375,0.0506439208984375
300770,-0.8120269775390625,-0.6658477783203125,0.0616455078125
300771,-0.773773193359375,-0.5665435791015625,0.123931884765625
300772,-0.7406463623046875,-0.48944091796875,0.1734771728515625
300773,-0.6956329345703125,-0.441497802734375,0.2016754150390625
300774,-0.6505126953125,-0.421966552734375,0.196929931640625
300775,-0.6151123046875,-0.410003662109375,0.1536712646484375
300776,-0.5837554931640625,-0.4092254638671875,0.1181793212890625
300777,-0.577178955078125,-0.4049224853515625,0.096710205078125
300778,-0.5769805908203125,-0.402923583984375,0.0519256591796875
300779,-0.5903472900390625,-0.3970947265625,-0.02288818359375
300780,-0.65496826171875,-0.3779144287109375,-0.0703582763671875
300781,-0.7551422119140625,-0.36358642578125,-0.0890045166015625
300782,-0.90533447265625,-0.37371826171875,-0.08538818359375
300783,-0.8602447509765625,-0.45428466796875,-0.0831756591796875
300784,-0.8232421875,-0.5086517333984375,-0.1284027099609375
300785,-0.9054718017578124,-0.503692626953125,-0.1049346923828125
300786,-0.930023193359375,-0.5222625732421875,-0.138336181640625
300787,-0.9204254150390624,-0.5786590576171875,-0.1839599609375
300788,-0.895416259765625,-0.648193359375,-0.1388397216796875
300789,-0.892547607421875,-0.6614990234375,-0.100341796875
300790,-0.91265869140625,-0.624176025390625,-0.072479248046875
300791,-0.9205322265625,-0.5996856689453125,-0.0468597412109375
300792,-0.91546630859375,-0.6065826416015625,-0.0067291259765625
300793,-0.853973388671875,-0.648345947265625,0.0311431884765625
300794,-0.7813720703125,-0.7027435302734375,-0.0167694091796875
300795,-0.62506103515625,-0.7773284912109375,-0.062591552734375
300796,-0.4580841064453125,-0.8162994384765625,-0.050079345703125
300797,-0.6441497802734375,-0.6566619873046875,-0.1170196533203125
300798,-0.86553955078125,-0.5309600830078125,-0.054931640625
300799,-0.648712158203125,-0.6802978515625,-0.087738037109375
300800,-0.671661376953125,-0.6418609619140625,-0.1409149169921875
300801,-0.752410888671875,-0.6446380615234375,-0.1645660400390625
300802,-0.7612152099609375,-0.6442108154296875,-0.1279296875
300803,-0.7255859375,-0.5996856689453125,-0.12811279296875
300804,-0.7365570068359375,-0.58245849609375,-0.093475341796875
300805,-0.700775146484375,-0.6219635009765625,-0.049346923828125
300806,-0.697021484375,-0.624542236328125,-0.0478973388671875
300807,-0.676971435546875,-0.5741729736328125,-0.00067138671875
300808,-0.6416778564453125,-0.5217132568359375,0.0585479736328125
300809,-0.629241943359375,-0.5332489013671875,0.1312713623046875
300810,-0.597747802734375,-0.5705413818359375,0.156982421875
300811,-0.5541839599609375,-0.5561981201171875,0.1147003173828125
300812,-0.5705718994140625,-0.575103759765625,0.093658447265625
300813,-0.5601348876953125,-0.6661834716796875,0.0717315673828125
300814,-0.5684661865234375,-0.7682647705078125,0.024322509765625
300815,-0.646270751953125,-0.7651824951171875,-0.029388427734375
300816,-0.7435302734375,-0.6339263916015625,-0.0170135498046875
300817,-0.813385009765625,-0.5468292236328125,-0.003509521484375
300818,-0.7913818359375,-0.561126708984375,-0.1221771240234375
300819,-0.8505706787109375,-0.585540771484375,-0.253631591796875
300820,-0.9068756103515624,-0.6328887939453125,-0.2658843994140625
300821,-0.918304443359375,-0.6714019775390625,-0.244140625
300822,-0.89508056640625,-0.6610107421875,-0.220550537109375
300823,-0.8944091796875,-0.6210479736328125,-0.1610260009765625
300824,-0.8598175048828125,-0.595703125,-0.0650482177734375
300825,-0.8188323974609375,-0.5229339599609375,-0.0439910888671875
300826,-0.874267578125,-0.4184722900390625,-0.1564178466796875
300827,-0.9321746826171876,-0.4459381103515625,-0.2463531494140625
300828,-0.9709014892578124,-0.585540771484375,-0.3252716064453125
300829,-1.010910034179688,-0.6954803466796875,-0.39886474609375
300830,-1.023818969726562,-0.721435546875,-0.4579315185546875
300831,-1.024490356445312,-0.723419189453125,-0.46575927734375
300832,-1.014175415039062,-0.707489013671875,-0.4325103759765625
300833,-0.9981536865234376,-0.702301025390625,-0.4035491943359375
300834,-1.014984130859375,-0.6672821044921875,-0.3140716552734375
300835,-1.042327880859375,-0.6067962646484375,-0.214691162109375
300836,-1.013290405273438,-0.547454833984375,-0.14678955078125
300837,-0.942901611328125,-0.4881439208984375,-0.1230010986328125
300838,-0.8996429443359375,-0.4409027099609375,-0.1676177978515625
300839,-0.8558807373046875,-0.4246063232421875,-0.2425384521484375
300840,-0.781219482421875,-0.4563446044921875,-0.2921142578125
300841,-0.72528076171875,-0.489959716796875,-0.313262939453125
300842,-0.739837646484375,-0.4934539794921875,-0.33599853515625
300843,-0.7904815673828125,-0.4839935302734375,-0.3872528076171875
300844,-0.7904510498046875,-0.5013275146484375,-0.4488677978515625
300845,-0.8042449951171875,-0.5267333984375,-0.5543975830078125
300846,-0.8300323486328125,-0.56488037109375,-0.60418701171875
300847,-0.8287811279296875,-0.6098785400390625,-0.5481719970703125
300848,-0.8111419677734375,-0.5904083251953125,-0.5031280517578125
300849,-0.81060791015625,-0.5460205078125,-0.4937744140625
300850,-0.821075439453125,-0.5194854736328125,-0.462310791015625
300851,-0.8085479736328125,-0.514862060546875,-0.4573822021484375
300852,-0.7996978759765625,-0.533477783203125,-0.4824066162109375
300853,-0.83734130859375,-0.5751495361328125,-0.539154052734375
300854,-0.8818359375,-0.6262664794921875,-0.6361541748046875
300855,-0.887054443359375,-0.6457366943359375,-0.695037841796875
300856,-0.8816680908203125,-0.63433837890625,-0.6486663818359375
300857,-0.886810302734375,-0.6078948974609375,-0.6751251220703125
300858,-0.8935089111328125,-0.526153564453125,-0.3604736328125
300859,-0.8348236083984375,-0.5234222412109375,-0.465850830078125
300860,-0.82574462890625,-0.485107421875,-0.4259033203125
300861,-0.8341217041015625,-0.4654388427734375,-0.3926544189453125
300862,-0.8139190673828125,-0.4717559814453125,-0.3828125
300863,-0.7964019775390625,-0.490478515625,-0.356658935546875
300864,-0.77069091796875,-0.52508544921875,-0.342529296875
300865,-0.7000579833984375,-0.56842041015625,-0.330078125
300866,-0.673553466796875,-0.600860595703125,-0.3571014404296875
300867,-0.6797637939453125,-0.60101318359375,-0.346038818359375
300868,-0.6825103759765625,-0.58154296875,-0.339508056640625
300869,-0.6811370849609375,-0.5750885009765625,-0.36126708984375
300870,-0.6759796142578125,-0.579254150390625,-0.3634185791015625
300871,-0.6910247802734375,-0.5653228759765625,-0.3251953125
300872,-0.6757965087890625,-0.554412841796875,-0.2587432861328125
300873,-0.6556854248046875,-0.55487060546875,-0.22528076171875
300874,-0.6779327392578125,-0.562591552734375,-0.21563720703125
300875,-0.70721435546875,-0.586822509765625,-0.20428466796875
300876,-0.6622467041015625,-0.6265411376953125,-0.2115478515625
300877,-0.642608642578125,-0.6644287109375,-0.2202911376953125
300878,-0.665771484375,-0.6767425537109375,-0.2491912841796875
300879,-0.6667938232421875,-0.691009521484375,-0.2683868408203125
300880,-0.653900146484375,-0.702301025390625,-0.27777099609375
300881,-0.6394500732421875,-0.714813232421875,-0.271636962890625
300882,-0.620941162109375,-0.7267913818359375,-0.2511138916015625
300883,-0.633941650390625,-0.7204132080078125,-0.1796875
300884,-0.6592864990234375,-0.728057861328125,-0.168609619140625
300885,-0.7058868408203125,-0.7436676025390625,-0.2236328125
300886,-0.6923980712890625,-0.7938690185546875,-0.1792755126953125
300887,-0.6487884521484375,-0.84722900390625,-0.1432342529296875
300888,-0.646270751953125,-0.85443115234375,-0.120849609375
300889,-0.6523284912109375,-0.8640289306640625,-0.14166259765625
300890,-0.6049957275390625,-0.904571533203125,-0.165313720703125
300891,-0.5548095703125,-0.910308837890625,-0.182464599609375
300892,-0.5308837890625,-0.8819122314453125,-0.2066192626953125
300893,-0.50091552734375,-0.859130859375,-0.201507568359375
300894,-0.48443603515625,-0.83038330078125,-0.2227783203125
300895,-0.45489501953125,-0.8513946533203125,-0.237335205078125
300896,-0.3874053955078125,-0.8980712890625,-0.1975555419921875
300897,-0.2982025146484375,-0.935791015625,-0.1565704345703125
300898,-0.2621307373046875,-0.9678497314453124,-0.1612396240234375
300899,-0.327484130859375,-0.9947509765625,-0.2009429931640625
300900,-0.4484710693359375,-1.009353637695312,-0.225433349609375
300901,-0.5528564453125,-1.037277221679688,-0.1845550537109375
300902,-0.5838470458984375,-1.019302368164062,-0.1552581787109375
300903,-0.6799774169921875,-0.9420166015625,-0.1375579833984375
300904,-0.755584716796875,-0.9119873046875,-0.0754547119140625
300905,-0.8011932373046875,-0.84832763671875,-0.0853118896484375
300906,-0.80120849609375,-0.7833099365234375,-0.1030120849609375
300907,-0.7812652587890625,-0.7271881103515625,-0.0455780029296875
300908,-0.802001953125,-0.639068603515625,0.0285797119140625
300909,-0.8162994384765625,-0.5942840576171875,0.0901947021484375
300910,-0.7595367431640625,-0.5612640380859375,0.1954498291015625
300911,-0.7077178955078125,-0.551727294921875,0.228424072265625
300912,-0.694793701171875,-0.97900390625,0.063262939453125
300913,-0.893218994140625,-0.359954833984375,0.041473388671875
300914,-0.8249664306640625,-0.5697174072265625,0.102783203125
300915,-0.7692108154296875,-0.830078125,0.0960540771484375
300916,-0.8893280029296875,-0.772735595703125,-0.027679443359375
300917,-0.853912353515625,-0.7364501953125,-0.1270751953125
300918,-0.81060791015625,-0.7024688720703125,0.0164642333984375
300919,-0.772491455078125,-0.5953826904296875,0.1722412109375
300920,-0.744873046875,-0.56158447265625,0.0086212158203125
300921,-0.7359161376953125,-0.5576171875,-0.022735595703125
300922,-0.7265777587890625,-0.5115966796875,0.0467529296875
300923,-0.738616943359375,-0.4576263427734375,0.088592529296875
300924,-0.76092529296875,-0.4440460205078125,0.0257568359375
300925,-0.7495574951171875,-0.48199462890625,-0.0102996826171875
300926,-0.8017120361328125,-0.47967529296875,0.0144805908203125
300927,-0.79376220703125,-0.5138092041015625,0.0521392822265625
300928,-0.772796630859375,-0.540283203125,0.1511993408203125
300929,-0.837615966796875,-0.4933319091796875,0.1762542724609375
300930,-0.7833099365234375,-0.52618408203125,0.260955810546875
300931,-0.7171173095703125,-0.5225830078125,0.27691650390625
300932,-0.762298583984375,-0.457672119140625,0.23248291015625
300933,-0.74969482421875,-0.4837646484375,0.23638916015625
300934,-0.72412109375,-0.4776458740234375,0.2875213623046875
300935,-0.71246337890625,-0.4253082275390625,0.3248291015625
300936,-0.6998291015625,-0.4225311279296875,0.3234405517578125
300937,-0.778289794921875,-0.4262542724609375,0.28619384765625
300938,-0.75732421875,-0.4920806884765625,0.3269805908203125
300939,-0.822052001953125,-0.4766082763671875,0.3851165771484375
300940,-0.7984771728515625,-0.5435943603515625,0.4013671875
300941,-0.7579803466796875,-0.5682830810546875,0.3045654296875
300942,-0.7962799072265625,-0.5428619384765625,0.2989349365234375
300943,-0.819488525390625,-0.5567169189453125,0.33221435546875
300944,-0.7865447998046875,-0.56256103515625,0.4084930419921875
300945,-0.762542724609375,-0.496917724609375,0.4663238525390625
300946,-0.7899322509765625,-0.457977294921875,0.459747314453125
300947,-0.808349609375,-0.49267578125,0.4260101318359375
300948,-0.7904205322265625,-0.520172119140625,0.34930419921875
300949,-0.754180908203125,-0.5172576904296875,0.29949951171875
300950,-0.748992919921875,-0.5183258056640625,0.2373046875
300951,-0.7382659912109375,-0.5590667724609375,0.2372283935546875
300952,-0.751556396484375,-0.5647735595703125,0.2057037353515625
300953,-0.779541015625,-0.57781982421875,0.2076873779296875
300954,-0.78515625,-0.5835723876953125,0.2392578125
300955,-0.7870025634765625,-0.55303955078125,0.23211669921875
300956,-0.864471435546875,-0.4843292236328125,0.2489013671875
300957,-0.8567047119140625,-0.47198486328125,0.248779296875
300958,-0.8397369384765625,-0.439453125,0.1753997802734375
300959,-0.92303466796875,-0.3824920654296875,0.14141845703125
300960,-0.832366943359375,-0.429412841796875,0.13641357421875
300961,-0.70794677734375,-0.49737548828125,0.030670166015625
300962,-0.72491455078125,-0.5253143310546875,-0.2193603515625
300963,-0.77935791015625,-0.57879638671875,-0.364501953125
300964,-0.766326904296875,-0.5628204345703125,-0.362091064453125
300965,-0.7497100830078125,-0.5262451171875,-0.3606719970703125
300966,-0.654815673828125,-0.472137451171875,-0.242431640625
300967,-0.53106689453125,-0.452545166015625,-0.038116455078125
300968,-0.473175048828125,-0.40618896484375,-0.018035888671875
300969,-0.5140533447265625,-0.3116912841796875,-0.092926025390625
300970,-0.5830230712890625,-0.2368621826171875,-0.096649169921875
300971,-0.6361083984375,-0.155853271484375,0.0416107177734375
300972,-0.6425628662109375,-0.0606842041015625,0.275970458984375
300973,-0.6326141357421875,0.02471923828125,0.5402374267578125
300974,-0.5296173095703125,0.0668792724609375,0.8914642333984375
300975,-0.3093719482421875,0.082794189453125,1.221755981445312
300976,-0.2652740478515625,0.105987548828125,1.340530395507812
300977,-0.2814178466796875,0.134765625,1.370834350585938
300978,-0.2773284912109375,0.179046630859375,1.318466186523438
300979,-0.29888916015625,0.218475341796875,1.16162109375
300980,-0.337860107421875,0.2472686767578125,1.156814575195312
300981,-0.373931884765625,0.2549896240234375,1.234268188476562
300982,-0.37176513671875,0.2200469970703125,1.35076904296875
300983,-0.3320770263671875,0.1655731201171875,1.406082153320312
300984,-0.3470458984375,0.1433563232421875,1.367340087890625
300985,-0.3650970458984375,0.144775390625,1.321319580078125
300986,-0.3574981689453125,0.1651763916015625,1.272689819335938
300987,-0.3636932373046875,0.176513671875,1.239639282226562
300988,-0.3525848388671875,0.1436004638671875,1.278518676757812
300989,-0.2896270751953125,0.090667724609375,1.279632568359375
300990,-0.2255096435546875,0.049560546875,1.225845336914062
300991,-0.182952880859375,-0.0088958740234375,1.152557373046875
300992,-0.1755828857421875,-0.07623291015625,1.05419921875
300993,-0.17083740234375,-0.1247711181640625,0.9900970458984376
300994,-0.10968017578125,-0.1479034423828125,0.9781646728515624
300995,-0.03155517578125,-0.143157958984375,0.98992919921875
300996,-0.0358734130859375,-0.1345367431640625,1.025558471679688
300997,-0.0148468017578125,-0.1443328857421875,1.079254150390625
300998,0.0578460693359375,-0.200927734375,0.92767333984375
300999,-0.0334014892578125,-0.2484588623046875,0.81005859375
301000,-0.051849365234375,-0.2395172119140625,0.8335723876953125
301001,-0.093780517578125,-0.2163848876953125,0.9038238525390624
301002,-0.111572265625,-0.1759033203125,0.982147216796875
301003,-0.04559326171875,-0.093353271484375,0.908966064453125
301004,0.0386199951171875,-0.0143890380859375,0.833099365234375
301005,0.074127197265625,0.0592803955078125,0.9892578125
301006,0.0995635986328125,0.12689208984375,0.853424072265625
301007,0.1283111572265625,0.120819091796875,0.7310028076171875
301008,0.1150665283203125,0.0827789306640625,0.763641357421875
301009,0.071197509765625,0.0838165283203125,0.8241119384765625
301010,0.0488433837890625,0.1190643310546875,0.9730987548828124
301011,0.109405517578125,0.1695404052734375,1.07183837890625
301012,0.2151947021484375,0.2024993896484375,1.091705322265625
301013,0.299774169921875,0.225555419921875,1.14056396484375
301014,0.3573150634765625,0.2422332763671875,1.153091430664062
301015,0.3472747802734375,0.2364044189453125,1.139373779296875
301016,0.2687530517578125,0.22979736328125,1.17059326171875
301017,0.172607421875,0.2202606201171875,1.179611206054688
301018,0.0969390869140625,0.2011871337890625,1.155105590820312
301019,0.0695953369140625,0.1956634521484375,1.0877685546875
301020,0.0625152587890625,0.2079315185546875,0.9657135009765624
301021,0.10113525390625,0.24395751953125,0.895660400390625
301022,0.153289794921875,0.279632568359375,0.8519439697265625
301023,0.174713134765625,0.2955169677734375,0.81884765625
301024,0.207000732421875,0.299835205078125,0.870452880859375
301025,0.25408935546875,0.30194091796875,0.9175872802734376
301026,0.2935943603515625,0.3207244873046875,0.9540252685546876
301027,0.323455810546875,0.3606719970703125,0.9575347900390624
301028,0.3252716064453125,0.3725738525390625,0.946929931640625
301029,0.3134613037109375,0.3229217529296875,1.001602172851562
301030,0.3070526123046875,0.2034759521484375,1.05169677734375
301031,0.3000946044921875,0.1179351806640625,1.017364501953125
301032,0.26556396484375,0.135345458984375,0.999420166015625
301033,0.2320098876953125,0.1720428466796875,1.037368774414062
301034,0.2099456787109375,0.1421966552734375,0.9752960205078124
301035,0.2184906005859375,0.1891326904296875,1.149246215820312
301036,0.23394775390625,0.3164825439453125,1.084213256835938
301037,0.323211669921875,0.2153472900390625,0.865631103515625
301038,0.315277099609375,0.1738433837890625,0.9210205078125
301039,0.3107147216796875,0.29833984375,0.9005889892578125
301040,0.3273468017578125,0.3943634033203125,0.96160888671875
301041,0.3424530029296875,0.3380279541015625,0.9630279541015624
301042,0.3400421142578125,0.3676300048828125,0.9560394287109376
301043,0.3481597900390625,0.3762359619140625,0.937255859375
301044,0.3595428466796875,0.3645782470703125,0.9282684326171876
301045,0.3650665283203125,0.3521881103515625,0.8465118408203125
301046,0.3444976806640625,0.2921295166015625,0.8105621337890625
301047,0.3374176025390625,0.1417388916015625,0.80255126953125
301048,0.316192626953125,0.054840087890625,0.8095550537109375
301049,0.26043701171875,0.0691070556640625,0.8281402587890625
301050,0.262481689453125,0.1601409912109375,0.8817596435546875
301051,0.2898712158203125,0.214385986328125,1.003097534179688
301052,0.34649658203125,0.2237091064453125,1.031402587890625
301053,0.3752288818359375,0.24725341796875,1.015640258789062
301054,0.374420166015625,0.276641845703125,0.9918365478515624
301055,0.3764190673828125,0.2636566162109375,0.9097442626953124
301056,0.364593505859375,0.268035888671875,0.8840484619140625
301057,0.3485260009765625,0.3001251220703125,0.9096527099609376
301058,0.351776123046875,0.312469482421875,0.91217041015625
301059,0.3687286376953125,0.308868408203125,0.9005126953125
301060,0.4035491943359375,0.2815399169921875,0.876495361328125
301061,0.431488037109375,0.302001953125,0.7975616455078125
301062,0.4581756591796875,0.3258819580078125,0.7692413330078125
301063,0.47930908203125,0.31103515625,0.7982330322265625
301064,0.489776611328125,0.2988433837890625,0.8128662109375
301065,0.5022735595703125,0.2815399169921875,0.7751617431640625
301066,0.531524658203125,0.26214599609375,0.731475830078125
301067,0.5766143798828125,0.243255615234375,0.680908203125
301068,0.6446990966796875,0.2393798828125,0.6378173828125
301069,0.6829071044921875,0.2431793212890625,0.5933837890625
301070,0.7009429931640625,0.2288055419921875,0.6568145751953125
301071,0.7844085693359375,0.1552581787109375,0.6461944580078125
301072,0.7337493896484375,0.1647796630859375,1.098541259765625
301073,0.6951904296875,0.1196441650390625,0.828399658203125
301074,0.6893463134765625,0.0712432861328125,0.883453369140625
301075,0.701690673828125,0.152191162109375,0.9874267578125
301076,0.7427520751953125,0.205963134765625,0.8585205078125
301077,0.76739501953125,0.2965545654296875,0.749786376953125
301078,0.78546142578125,0.3521270751953125,0.67340087890625
301079,0.78460693359375,0.3816070556640625,0.6008758544921875
301080,0.783355712890625,0.3942718505859375,0.5984344482421875
301081,0.7823333740234375,0.4024810791015625,0.53509521484375
301082,0.772308349609375,0.4151763916015625,0.455718994140625
301083,0.7523345947265625,0.405914306640625,0.3683013916015625
301084,0.7127532958984375,0.3975372314453125,0.2997283935546875
301085,0.6584014892578125,0.35064697265625,0.267791748046875
301086,0.5965118408203125,0.26702880859375,0.2540740966796875
301087,0.5442047119140625,0.1716461181640625,0.22723388671875
301088,0.50262451171875,0.1098480224609375,0.1868438720703125
301089,0.4739227294921875,0.0641021728515625,0.111358642578125
301090,0.4663543701171875,0.0143890380859375,0.0472412109375
301091,0.475006103515625,-0.0233001708984375,-0.004241943359375
301092,0.4859619140625,-0.061859130859375,-0.0014801025390625
301093,0.4997711181640625,-0.092010498046875,0.0439453125
301094,0.5362091064453125,-0.1177215576171875,0.1060791015625
301095,0.590423583984375,-0.1406097412109375,0.17266845703125
301096,0.6554107666015625,-0.14093017578125,0.245574951171875
301097,0.7339630126953125,-0.100433349609375,0.2502899169921875
301098,0.7780609130859375,-0.0630035400390625,0.2834625244140625
301099,0.82037353515625,-0.11468505859375,0.3066558837890625
301100,0.8733367919921875,-0.1522064208984375,0.35858154296875
301101,0.9267730712890624,-0.1751556396484375,0.43536376953125
301102,0.98980712890625,-0.1743011474609375,0.497467041015625
301103,1.062515258789062,-0.1458892822265625,0.5275421142578125
301104,1.112274169921875,-0.1086883544921875,0.5313262939453125
301105,1.13812255859375,-0.081695556640625,0.5525360107421875
301106,1.169464111328125,-0.0743408203125,0.5015869140625
301107,1.197174072265625,-0.0767364501953125,0.448455810546875
301108,1.23016357421875,-0.06585693359375,0.4365997314453125
301109,1.26519775390625,-0.08233642578125,0.4599456787109375
301110,1.294692993164062,-0.104217529296875,0.5861053466796875
301111,1.318923950195312,-0.0711822509765625,0.7183990478515625
301112,1.33953857421875,-0.0053253173828125,0.7545013427734375
301113,1.384979248046875,0.070465087890625,0.7870025634765625
301114,1.425872802734375,0.1337738037109375,0.759429931640625
301115,1.44293212890625,0.13494873046875,0.6615753173828125
301116,1.406600952148438,0.0870208740234375,0.5214080810546875
301117,1.352508544921875,0.0870361328125,0.3741302490234375
301118,1.315444946289062,0.1057586669921875,0.40814208984375
301119,1.271697998046875,0.101715087890625,0.5785675048828125
301120,1.211990356445312,0.1265869140625,0.6374053955078125
301121,0.93792724609375,0.110076904296875,0.5267333984375
301122,0.4638519287109375,-0.069366455078125,1.051361083984375
301123,0.8204345703125,0.1858978271484375,1.219894409179688
301124,1.051437377929688,0.4616241455078125,0.840911865234375
301125,1.102783203125,0.362335205078125,0.3902130126953125
301126,1.108718872070312,0.2454681396484375,0.0926666259765625
301127,1.13983154296875,0.2030029296875,-0.00634765625
301128,1.16876220703125,0.1920013427734375,-0.0434417724609375
301129,1.168899536132812,0.1977386474609375,-0.0663299560546875
301130,1.14129638671875,0.2061004638671875,-0.06878662109375
301131,1.11126708984375,0.2103424072265625,-0.0745849609375
301132,1.0748291015625,0.2061614990234375,-0.117401123046875
301133,1.037734985351562,0.203094482421875,-0.1250457763671875
301134,0.9821929931640624,0.171630859375,-0.16741943359375
301135,0.9646453857421876,0.1077117919921875,-0.269378662109375
301136,0.9593048095703124,0.069732666015625,-0.3881988525390625
301137,0.9451141357421876,0.0670166015625,-0.4525909423828125
301138,0.916778564453125,0.0770111083984375,-0.4710693359375
301139,0.8906402587890625,0.08245849609375,-0.4584808349609375
301140,0.87152099609375,0.0748138427734375,-0.4373779296875
301141,0.8458404541015625,0.05889892578125,-0.3358154296875
301142,0.7990570068359375,0.0731353759765625,-0.034423828125
301143,0.7161407470703125,0.129669189453125,0.418304443359375
301144,0.700653076171875,0.1990203857421875,0.4888763427734375
301145,0.7883453369140625,0.1828765869140625,0.1053619384765625
301146,0.831268310546875,0.1146087646484375,-0.2861175537109375
301147,0.8312225341796875,0.0978546142578125,-0.47259521484375
301148,0.859649658203125,0.11767578125,-0.5279693603515625
301149,0.899658203125,0.1494293212890625,-0.5394439697265625
301150,0.9360504150390624,0.18450927734375,-0.5648651123046875
301151,0.9877471923828124,0.182769775390625,-0.5361175537109375
301152,1.017486572265625,0.1862640380859375,-0.4972991943359375
301153,0.99627685546875,0.253021240234375,-0.474639892578125
301154,0.9527587890625,0.3037567138671875,-0.3892822265625
301155,0.9702606201171876,0.233062744140625,-0.287139892578125
301156,0.9040985107421876,0.2259368896484375,-0.258636474609375
301157,0.8519744873046875,0.272979736328125,-0.3794097900390625
301158,0.8425445556640625,0.2217559814453125,-0.4614105224609375
301159,0.8727264404296875,0.212921142578125,-0.510498046875
301160,0.9193572998046876,0.284515380859375,-0.4595184326171875
301161,0.9662933349609376,0.370513916015625,-0.3862762451171875
301162,0.96710205078125,0.3545684814453125,-0.36090087890625
301163,0.958282470703125,0.3145751953125,-0.427520751953125
301164,0.98248291015625,0.2398529052734375,-0.4421539306640625
301165,1.011825561523438,0.1890411376953125,-0.4516143798828125
301166,1.00799560546875,0.1711273193359375,-0.4284210205078125
301167,0.9704132080078124,0.158447265625,-0.3674774169921875
301168,0.9312591552734376,0.152618408203125,-0.355987548828125
301169,0.92254638671875,0.1214599609375,-0.37066650390625
301170,0.9448089599609376,0.09356689453125,-0.37347412109375
301171,0.951873779296875,0.0888824462890625,-0.3649749755859375
301172,0.946014404296875,0.0860748291015625,-0.379791259765625
301173,0.9220123291015624,0.068023681640625,-0.4389495849609375
301174,0.884796142578125,0.04779052734375,-0.481719970703125
301175,0.8513641357421875,0.0309906005859375,-0.4762420654296875
301176,0.818756103515625,0.0312652587890625,-0.451171875
301177,0.793182373046875,0.0469207763671875,-0.417083740234375
301178,0.792877197265625,0.0559844970703125,-0.383056640625
301179,0.810028076171875,0.0724029541015625,-0.3844146728515625
301180,0.834197998046875,0.095367431640625,-0.3769378662109375
301181,0.856719970703125,0.1108551025390625,-0.35516357421875
301182,0.87677001953125,0.1165771484375,-0.375640869140625
301183,0.88909912109375,0.109405517578125,-0.426910400390625
301184,0.904998779296875,0.0918121337890625,-0.445465087890625
301185,0.9208831787109376,0.0885467529296875,-0.44873046875
301186,0.920806884765625,0.1104278564453125,-0.4383392333984375
301187,0.919342041015625,0.12945556640625,-0.3949737548828125
301188,0.9123992919921876,0.1372833251953125,-0.3764495849609375
301189,0.8995819091796875,0.1446075439453125,-0.3751373291015625
301190,0.878204345703125,0.1549072265625,-0.351806640625
301191,0.866729736328125,0.1516876220703125,-0.33489990234375
301192,0.8628387451171875,0.1287078857421875,-0.3613128662109375
301193,0.869903564453125,0.10498046875,-0.4014129638671875
301194,0.8797454833984375,0.099456787109375,-0.409423828125
301195,0.88983154296875,0.112335205078125,-0.384918212890625
301196,0.903411865234375,0.1283111572265625,-0.362213134765625
301197,0.9137420654296876,0.139556884765625,-0.34539794921875
301198,0.9253387451171876,0.123870849609375,-0.361480712890625
301199,0.926177978515625,0.1122589111328125,-0.3968505859375
301200,0.92144775390625,0.1052703857421875,-0.4094085693359375
301201,0.920013427734375,0.0938873291015625,-0.4131622314453125
301202,0.9239654541015624,0.090240478515625,-0.419036865234375
301203,0.9244842529296876,0.0969696044921875,-0.4017486572265625
301204,0.921875,0.1110687255859375,-0.3680267333984375
301205,0.9113922119140624,0.1152191162109375,-0.3685302734375
301206,0.9012451171875,0.1087646484375,-0.3679046630859375
301207,0.9024505615234376,0.106170654296875,-0.360809326171875
301208,0.90753173828125,0.105621337890625,-0.373321533203125
301209,0.9144287109375,0.1130523681640625,-0.369384765625
301210,0.919677734375,0.1236572265625,-0.3510894775390625
301211,0.928192138671875,0.112457275390625,-0.3788909912109375
301212,0.963623046875,0.0871429443359375,-0.6964111328125
301213,1.006988525390625,-0.012603759765625,-0.5623626708984375
301214,0.954071044921875,0.1641845703125,-0.3154449462890625
301215,0.930633544921875,0.2095947265625,-0.1029815673828125
301216,0.860137939453125,0.0770263671875,-0.2349395751953125
301217,0.8637847900390625,0.076568603515625,-0.3176422119140625
301218,0.905181884765625,0.11492919921875,-0.3788299560546875
301219,0.9293365478515624,0.1074981689453125,-0.4185333251953125
301220,0.94635009765625,0.0997772216796875,-0.3989105224609375
301221,0.934783935546875,0.097747802734375,-0.398284912109375
301222,0.9588165283203124,0.091766357421875,-0.3657684326171875
301223,0.9866180419921876,0.1625518798828125,-0.2167510986328125
301224,0.9493865966796876,0.1267242431640625,-0.243682861328125
301225,0.9077911376953124,-0.0685577392578125,-0.875732421875
301226,0.8508758544921875,-0.0287628173828125,-0.3447418212890625
301227,0.943145751953125,0.131317138671875,-0.2324371337890625
301228,0.9940338134765624,0.179779052734375,-0.23321533203125
301229,0.97479248046875,0.150970458984375,-0.4131622314453125
301230,0.9188690185546876,0.0786285400390625,-0.39849853515625
301231,0.8872528076171875,0.0779571533203125,-0.39715576171875
301232,0.90570068359375,0.086273193359375,-0.3237457275390625
301233,0.912628173828125,0.0799560546875,-0.42388916015625
301234,0.918243408203125,0.063079833984375,-0.3861083984375
301235,0.93536376953125,0.0842742919921875,-0.34381103515625
301236,0.93408203125,0.0989990234375,-0.256683349609375
301237,0.940093994140625,0.1149444580078125,-0.2474212646484375
301238,0.95904541015625,0.106353759765625,-0.38916015625
301239,0.938812255859375,0.0524749755859375,-0.47357177734375
301240,0.9124908447265624,0.070037841796875,-0.3295135498046875
301241,0.8886260986328125,0.102813720703125,-0.3712158203125
301242,0.905548095703125,0.097503662109375,-0.3669891357421875
301243,0.91253662109375,0.09698486328125,-0.4066925048828125
301244,0.918243408203125,0.0835723876953125,-0.422821044921875
301245,0.9458770751953124,0.0928802490234375,-0.3971099853515625
301246,0.9333953857421876,0.0945892333984375,-0.35150146484375
301247,0.8943939208984375,0.080657958984375,-0.3801422119140625
301248,0.8867645263671875,0.069610595703125,-0.3995208740234375
301249,0.9089813232421876,0.0770111083984375,-0.3818511962890625
301250,0.9257659912109376,0.087982177734375,-0.378570556640625
301251,0.9258880615234376,0.0860137939453125,-0.3959503173828125
301252,0.9056243896484376,0.0775146484375,-0.417724609375
301253,0.8905181884765625,0.0826873779296875,-0.4247589111328125
301254,0.9041900634765624,0.09930419921875,-0.416473388671875
301255,0.9331512451171876,0.09759521484375,-0.4059600830078125
301256,0.9478912353515624,0.0991973876953125,-0.388153076171875
301257,0.9452056884765624,0.1089019775390625,-0.3671417236328125
301258,0.91650390625,0.087677001953125,-0.3802490234375
301259,0.901763916015625,0.0601959228515625,-0.4004058837890625
301260,0.911865234375,0.079986572265625,-0.388397216796875
301261,0.9286651611328124,0.09503173828125,-0.368804931640625
301262,0.8935699462890625,0.057464599609375,-0.42333984375
301263,0.8772735595703125,0.0452117919921875,-0.418060302734375
301264,0.931671142578125,0.0687713623046875,-0.3239898681640625
301265,0.9541168212890624,0.07757568359375,-0.3479156494140625
301266,0.9698944091796876,0.0640106201171875,-0.33111572265625
301267,1.003570556640625,0.1047515869140625,-0.317901611328125
301268,0.9000701904296875,0.0720977783203125,-0.362060546875
301269,0.905364990234375,0.05169677734375,-0.3606719970703125
301270,0.88507080078125,0.058837890625,-0.4525299072265625
301271,0.9111480712890624,0.0308837890625,-0.422210693359375
301272,0.9452667236328124,0.051971435546875,-0.37579345703125
301273,0.9310760498046876,0.07513427734375,-0.3378753662109375
301274,0.911590576171875,0.0592498779296875,-0.3282470703125
301275,0.90350341796875,0.0408935546875,-0.3359832763671875
301276,0.9205780029296876,0.035491943359375,-0.3774871826171875
301277,0.9486083984375,0.0299530029296875,-0.4603118896484375
301278,0.9691314697265624,0.0477294921875,-0.47564697265625
301279,0.960662841796875,0.0758514404296875,-0.3841400146484375
301280,0.933868408203125,0.081695556640625,-0.3452606201171875
301281,0.9079437255859376,0.0705413818359375,-0.3282470703125
301282,0.903350830078125,0.0504150390625,-0.3333587646484375
301283,0.9122161865234376,0.0460205078125,-0.290679931640625
301284,0.92767333984375,0.0582733154296875,-0.2826385498046875
301285,0.944427490234375,0.0605926513671875,-0.3832244873046875
301286,0.9461212158203124,0.050872802734375,-0.4886627197265625
301287,0.9556427001953124,0.0635986328125,-0.3747406005859375
301288,0.9379119873046876,0.0648345947265625,-0.3481292724609375
301289,0.92181396484375,0.0497283935546875,-0.3578643798828125
301290,0.9430389404296876,0.0563812255859375,-0.330047607421875
301291,0.9752197265625,0.0626220703125,-0.3454742431640625
301292,0.98284912109375,0.0557708740234375,-0.3964691162109375
301293,0.9643707275390624,0.0447845458984375,-0.398223876953125
301294,0.9356231689453124,0.0572967529296875,-0.3323516845703125
301295,0.9007720947265624,0.064697265625,-0.3993377685546875
301296,0.891937255859375,0.0309906005859375,-0.4300079345703125
301297,0.9316253662109376,0.0568695068359375,-0.2723846435546875
301298,0.9537811279296876,0.07843017578125,-0.3562469482421875
301299,0.963653564453125,0.0559844970703125,-0.4511871337890625
301300,0.9156951904296876,0.0612335205078125,-0.39349365234375
301301,0.908477783203125,0.0672760009765625,-0.320404052734375
301302,0.924774169921875,0.0631256103515625,-0.371368408203125
301303,0.92840576171875,0.0561676025390625,-0.389923095703125
301304,0.9283599853515624,0.0424957275390625,-0.3809661865234375
301305,0.9225311279296876,0.039154052734375,-0.387359619140625
301306,0.9159393310546876,0.0435028076171875,-0.37969970703125
301307,0.909454345703125,0.045501708984375,-0.406524658203125
301308,0.9123687744140624,0.0439605712890625,-0.3854217529296875
301309,0.9078521728515624,0.0554046630859375,-0.3445281982421875
301310,0.9142913818359376,0.0639190673828125,-0.313629150390625
301311,0.9263153076171876,0.068817138671875,-0.3302001953125
301312,0.942230224609375,0.0598907470703125,-0.344512939453125
301313,0.942047119140625,0.044097900390625,-0.3441314697265625
301314,0.9327239990234376,0.0418548583984375,-0.3408203125
301315,0.9360504150390624,0.0382232666015625,-0.332122802734375
301316,0.946533203125,0.0367584228515625,-0.3508758544921875
301317,0.9455413818359376,0.0338592529296875,-0.362945556640625
301318,0.9312286376953124,0.026702880859375,-0.34619140625
301319,0.9170074462890624,0.0396270751953125,-0.329254150390625
301320,0.9183349609375,0.04620361328125,-0.338287353515625
301321,0.933929443359375,0.0491180419921875,-0.349853515625
301322,0.9327392578125,0.0337677001953125,-0.3612213134765625
301323,0.9265289306640624,0.0246429443359375,-0.3462982177734375
301324,0.9283294677734376,0.028350830078125,-0.3548431396484375
301325,0.9372711181640624,0.028961181640625,-0.37139892578125
301326,0.9366912841796876,0.0265350341796875,-0.3748779296875
301327,0.9224700927734376,0.025482177734375,-0.36151123046875
301328,0.92333984375,0.0220794677734375,-0.3311004638671875
301329,0.93817138671875,0.020111083984375,-0.3574676513671875
301330,0.9521331787109376,0.0268707275390625,-0.35888671875
301331,0.9515228271484376,0.0318603515625,-0.385040283203125
301332,0.9540252685546876,0.0251007080078125,-0.426300048828125
301333,0.9718017578125,0.0220794677734375,-0.298065185546875
301334,0.9622955322265624,0.030242919921875,-0.3309173583984375
301335,0.921875,0.0125579833984375,-0.3836822509765625
301336,0.9150848388671876,0.003662109375,-0.347412109375
301337,0.9378814697265624,0.019989013671875,-0.336761474609375
301338,0.951904296875,0.0313873291015625,-0.3496856689453125
301339,0.94873046875,0.0299224853515625,-0.34503173828125
301340,0.9296417236328124,0.031524658203125,-0.338104248046875
301341,0.9293975830078124,0.025146484375,-0.3509979248046875
301342,0.9391937255859376,0.0269622802734375,-0.35577392578125
301343,0.9410247802734376,0.0283966064453125,-0.3699951171875
301344,0.9317779541015624,0.020416259765625,-0.3707275390625
301345,0.926422119140625,0.0213775634765625,-0.3587799072265625
301346,0.92974853515625,0.0272674560546875,-0.352508544921875
301347,0.9337921142578124,0.0319671630859375,-0.36517333984375
301348,0.926910400390625,0.0241851806640625,-0.3707122802734375
301349,0.9176177978515624,0.0175628662109375,-0.3652191162109375
301350,0.914886474609375,0.0151519775390625,-0.3697509765625
301351,0.9219818115234376,0.0104217529296875,-0.365997314453125
301352,0.9339141845703124,0.019927978515625,-0.356964111328125
301353,0.9434356689453124,0.032684326171875,-0.338043212890625
301354,0.9531707763671876,0.0374298095703125,-0.334503173828125
301355,0.956878662109375,0.03704833984375,-0.3452301025390625
301356,0.9550628662109376,0.03826904296875,-0.3648529052734375
301357,0.9577789306640624,0.035430908203125,-0.3739471435546875
301358,0.9552764892578124,0.033660888671875,-0.3743438720703125
301359,0.9475250244140624,0.0294952392578125,-0.3811187744140625
301360,0.93682861328125,0.023773193359375,-0.3819580078125
301361,0.931488037109375,0.020782470703125,-0.3694000244140625
301362,0.9267425537109376,0.0164947509765625,-0.3714752197265625
301363,0.923675537109375,0.012847900390625,-0.3663482666015625
301364,0.9305877685546876,0.01953125,-0.3594207763671875
301365,0.9390106201171876,0.0194091796875,-0.36822509765625
301366,0.942596435546875,0.014404296875,-0.37664794921875
301367,0.94586181640625,0.0143280029296875,-0.3709716796875
301368,0.94140625,0.00994873046875,-0.355865478515625
301369,0.9316253662109376,0.0087127685546875,-0.35845947265625
301370,0.927734375,0.0116119384765625,-0.3665008544921875
301371,0.93084716796875,0.0138092041015625,-0.3670501708984375
301372,0.9367828369140624,0.020843505859375,-0.3550872802734375
301373,0.9328155517578124,0.016448974609375,-0.3445892333984375
301374,0.928741455078125,0.0109100341796875,-0.346405029296875
301375,0.93341064453125,0.014251708984375,-0.3628692626953125
301376,0.94049072265625,0.0111236572265625,-0.34613037109375
301377,0.94927978515625,0.0140838623046875,-0.35076904296875
301378,0.946136474609375,0.0129241943359375,-0.3790740966796875
301379,0.9386138916015624,0.0164642333984375,-0.389373779296875
301380,0.93829345703125,0.014312744140625,-0.3802947998046875
301381,0.9324493408203124,0.019073486328125,-0.3532867431640625
301382,0.92181396484375,0.02215576171875,-0.3467254638671875
301383,0.9267730712890624,0.007720947265625,-0.32794189453125
301384,0.937835693359375,0.0077362060546875,-0.3406982421875
301385,0.9439239501953124,0.0124969482421875,-0.37713623046875
301386,0.9326324462890624,0.0084686279296875,-0.3878173828125
301387,0.9271697998046876,0.014312744140625,-0.3560333251953125
301388,0.92437744140625,0.007293701171875,-0.3555450439453125
301389,0.9196624755859376,-0.0149383544921875,-0.36138916015625
301390,0.9184112548828124,-0.010772705078125,-0.3576202392578125
301391,0.92840576171875,0.0091705322265625,-0.370361328125
301392,0.937255859375,0.01824951171875,-0.366973876953125
301393,0.9339141845703124,0.008636474609375,-0.3717803955078125
301394,0.9340972900390624,0.00665283203125,-0.3653564453125
301395,0.9382171630859376,0.0142059326171875,-0.364593505859375
301396,0.93658447265625,0.01708984375,-0.359405517578125
301397,0.9235382080078124,0.03070068359375,-0.363128662109375
301398,0.921234130859375,0.025421142578125,-0.3731842041015625
301399,0.919891357421875,0.010772705078125,-0.3796234130859375
301400,0.9226226806640624,0.007843017578125,-0.385040283203125
301401,0.9313201904296876,0.00738525390625,-0.3898468017578125
301402,0.9393157958984376,0.00604248046875,-0.3880767822265625
301403,0.940582275390625,0.0064849853515625,-0.376800537109375
301404,0.9357757568359376,0.003997802734375,-0.3600006103515625
301405,0.927703857421875,0.0008544921875,-0.3712310791015625
301406,0.9202117919921876,0.0013427734375,-0.3719635009765625
301407,0.9288787841796876,0.0054931640625,-0.371917724609375
301408,0.9408721923828124,0.0084381103515625,-0.3703765869140625
301409,0.934295654296875,0.0072174072265625,-0.3805389404296875
301410,0.9246978759765624,-0.0020294189453125,-0.3883056640625
301411,0.9242401123046876,-0.0088958740234375,-0.390045166015625
301412,0.9261016845703124,-0.0110015869140625,-0.3899078369140625
301413,0.9251861572265624,-0.0121307373046875,-0.3943634033203125
301414,0.9205322265625,-0.009429931640625,-0.3975677490234375
301415,0.919464111328125,0.000244140625,-0.37921142578125
301416,0.922607421875,0.0104522705078125,-0.3685760498046875
301417,0.9292449951171876,0.007354736328125,-0.367401123046875
301418,0.9309234619140624,0.0113983154296875,-0.3771209716796875
301419,0.9360198974609376,0.0182647705078125,-0.37408447265625
301420,0.933349609375,0.0158843994140625,-0.3593902587890625
301421,0.930755615234375,0.003082275390625,-0.376739501953125
301422,0.935455322265625,-0.017333984375,-0.3951568603515625
301423,0.9349212646484376,-0.018341064453125,-0.3926544189453125
301424,0.9321441650390624,-0.0101318359375,-0.3809967041015625
301425,0.9242706298828124,-0.0010223388671875,-0.3714752197265625
301426,0.916290283203125,0.003570556640625,-0.3679962158203125
301427,0.91973876953125,0.002593994140625,-0.3664093017578125
301428,0.9256591796875,-0.0027008056640625,-0.377777099609375
301429,0.9273834228515624,-0.008209228515625,-0.391021728515625
301430,0.9301910400390624,-0.0121002197265625,-0.3931427001953125
301431,0.8908843994140625,-0.0921783447265625,-0.65924072265625
301432,1.219024658203125,-0.0307769775390625,-1.056289672851562
301433,0.87109375,0.136810302734375,0.2287139892578125
301434,0.720703125,-0.1346435546875,-0.10791015625
301435,0.9798126220703124,0.0897979736328125,-0.332794189453125
301436,1.013015747070312,0.1931915283203125,0.1930694580078125
301437,0.6386871337890625,0.03802490234375,-0.19073486328125
301438,0.8506927490234375,0.006500244140625,-0.1904449462890625
301439,0.899322509765625,-0.09088134765625,-0.4819793701171875
301440,1.00347900390625,-0.0675201416015625,-0.592803955078125
301441,1.098251342773438,-0.0011138916015625,-0.4744873046875
301442,1.027130126953125,-0.0014190673828125,-0.4648895263671875
301443,0.9135894775390624,-0.03131103515625,-0.44696044921875
301444,0.894622802734375,-0.0009765625,-0.379180908203125
301445,0.9089202880859376,0.0259857177734375,-0.367706298828125
301446,0.9117889404296876,0.023651123046875,-0.3917388916015625
301447,0.914581298828125,0.013763427734375,-0.40478515625
301448,0.9232940673828124,0.013458251953125,-0.4068603515625
301449,0.93060302734375,0.013702392578125,-0.3975982666015625
301450,0.9340057373046876,0.0110015869140625,-0.3841400146484375
301451,0.8172454833984375,-0.04913330078125,-1.168609619140625
301452,0.494232177734375,-0.40069580078125,-1.24188232421875
301453,1.233078002929688,0.284088134765625,2.130706787109375
301454,1.68365478515625,0.380859375,-0.4089202880859375
301455,0.7488250732421875,-0.2107086181640625,-0.9730377197265624
301456,0.86993408203125,-0.023590087890625,0.01177978515625
301457,0.6511688232421875,0.0825042724609375,0.0207366943359375
301458,0.794952392578125,0.0643768310546875,-0.1604766845703125
301459,0.8926849365234375,-0.0122528076171875,-0.453338623046875
301460,0.9712677001953124,0.0292510986328125,-0.6248931884765625
301461,1.022293090820312,0.0365142822265625,-0.49432373046875
301462,0.9469757080078124,-0.029876708984375,-0.50897216796875
301463,0.930023193359375,-0.0407867431640625,-0.43902587890625
301464,0.90911865234375,-0.04217529296875,-0.4136199951171875
301465,0.886322021484375,-0.0374298095703125,-0.3822174072265625
301466,0.897308349609375,-0.0334320068359375,-0.3984527587890625
301467,0.9167327880859376,-0.0361175537109375,-0.4102020263671875
301468,0.919464111328125,-0.0282440185546875,-0.4141387939453125
301469,0.914031982421875,-0.0160675048828125,-0.4068450927734375
301470,0.91119384765625,-0.0126953125,-0.40142822265625
301471,0.919189453125,-0.013702392578125,-0.3863372802734375
301472,0.9337005615234376,-0.0111083984375,-0.376220703125
301473,0.943084716796875,-0.00714111328125,-0.373260498046875
301474,0.9457550048828124,-0.004608154296875,-0.3738555908203125
301475,0.9436187744140624,-0.0075531005859375,-0.3809814453125
301476,0.939361572265625,-0.0158233642578125,-0.398101806640625
301477,0.9378204345703124,-0.022796630859375,-0.415374755859375
301478,0.931976318359375,-0.02020263671875,-0.4254608154296875
301479,0.924041748046875,-0.014617919921875,-0.41937255859375
301480,0.91436767578125,-0.0088958740234375,-0.4144134521484375
301481,0.9094390869140624,-0.013641357421875,-0.4136505126953125
301482,0.9083099365234376,-0.012420654296875,-0.3953704833984375
301483,0.9073944091796876,-0.01373291015625,-0.3846893310546875
301484,0.9111480712890624,-0.016143798828125,-0.386322021484375
301485,0.912872314453125,-0.016204833984375,-0.385101318359375
301486,0.9087677001953124,-0.018157958984375,-0.3852996826171875
301487,0.9022064208984376,-0.0177459716796875,-0.386383056640625
301488,0.90380859375,-0.0160675048828125,-0.38922119140625
301489,0.9186248779296876,-0.0200042724609375,-0.3975677490234375
301490,0.93609619140625,-0.01910400390625,-0.403228759765625
301491,0.937408447265625,-0.0063018798828125,-0.3945465087890625
301492,0.928253173828125,0.0007781982421875,-0.4061279296875
301493,0.9260101318359376,0.005584716796875,-0.385223388671875
301494,0.924224853515625,0.0145263671875,-0.3831939697265625
301495,0.9234619140625,0.0124969482421875,-0.3787689208984375
301496,0.9275970458984376,0.0073089599609375,-0.3798065185546875
301497,0.92657470703125,0.004302978515625,-0.373931884765625
301498,0.925048828125,0.0003204345703125,-0.374267578125
301499,0.9249114990234376,-0.00860595703125,-0.3816986083984375
301500,0.924835205078125,-0.0138092041015625,-0.391754150390625
301501,0.91973876953125,-0.01531982421875,-0.3908843994140625
301502,0.9127960205078124,-0.0137786865234375,-0.399444580078125
301503,0.9108734130859376,-0.0133209228515625,-0.4048614501953125
301504,0.911956787109375,-0.00787353515625,-0.4053497314453125
301505,0.9119110107421876,-0.0021209716796875,-0.4045562744140625
301506,0.9166107177734376,0.0018463134765625,-0.3994598388671875
301507,0.9253082275390624,0.0007781982421875,-0.39990234375
301508,0.9290771484375,0.0,-0.406585693359375
301509,0.933197021484375,-0.0048675537109375,-0.4123382568359375
301510,0.932952880859375,-0.006195068359375,-0.4032135009765625
301511,0.9345855712890624,-0.0069580078125,-0.399566650390625
301512,0.9359283447265624,-0.0069122314453125,-0.391082763671875
301513,0.9361724853515624,-0.003936767578125,-0.3905792236328125
301514,0.935394287109375,-0.005767822265625,-0.396942138671875
301515,0.9330596923828124,-0.0082550048828125,-0.384063720703125
301516,0.9338226318359376,-0.0080718994140625,-0.379852294921875
301517,0.9358367919921876,-0.0076751708984375,-0.3844146728515625
301518,0.935882568359375,-0.0056304931640625,-0.3888092041015625
301519,0.9301300048828124,-0.004150390625,-0.39385986328125
301520,0.929534912109375,-0.0076904296875,-0.3936767578125
301521,0.9197235107421876,0.000579833984375,-0.395263671875
301522,0.917236328125,-0.0015411376953125,-0.3847503662109375
301523,0.9155120849609376,0.001312255859375,-0.382354736328125
301524,0.9224090576171876,-0.001739501953125,-0.3838653564453125
301525,0.9237518310546876,-0.001007080078125,-0.390289306640625
301526,0.9224700927734376,0.0029754638671875,-0.3906097412109375
301527,0.9195098876953124,0.004364013671875,-0.3797760009765625
301528,0.918975830078125,-0.0030059814453125,-0.377960205078125
301529,0.9218292236328124,-0.01397705078125,-0.384735107421875
301530,0.921661376953125,-0.0176849365234375,-0.3860321044921875
301531,0.9124603271484376,-0.0174560546875,-0.3756256103515625
301532,0.9105072021484376,-0.0189971923828125,-0.3739013671875
301533,0.916473388671875,-0.0153045654296875,-0.37030029296875
301534,0.9246673583984376,-0.012054443359375,-0.36602783203125
301535,0.93017578125,-0.0107421875,-0.374481201171875
301536,0.9326171875,-0.010894775390625,-0.37469482421875
301537,0.933349609375,-0.0052642822265625,-0.37664794921875
301538,0.92877197265625,-0.0053253173828125,-0.3746795654296875
301539,0.9227294921875,-0.0092926025390625,-0.3761444091796875
301540,0.9187164306640624,-0.013885498046875,-0.3771514892578125
301541,0.920196533203125,-0.0119781494140625,-0.3754730224609375
301542,0.91796875,-0.0108795166015625,-0.3782196044921875
301543,0.919677734375,-0.0160369873046875,-0.384307861328125
301544,0.9267120361328124,-0.02099609375,-0.390106201171875
301545,0.9272613525390624,-0.0214080810546875,-0.3873443603515625
301546,0.9273223876953124,-0.0238189697265625,-0.3794097900390625
301547,0.93701171875,-0.0260772705078125,-0.389404296875
301548,0.93536376953125,-0.018096923828125,-0.3708343505859375
301549,0.9241485595703124,-0.0051116943359375,-0.3765869140625
301550,0.9211578369140624,-0.0080413818359375,-0.3748779296875
301551,0.9258575439453124,-0.0219573974609375,-0.3589324951171875
301552,0.9227142333984376,-0.0269775390625,-0.37188720703125
301553,0.9247589111328124,-0.03741455078125,-0.3821258544921875
301554,0.93402099609375,-0.03887939453125,-0.3957366943359375
301555,0.9384307861328124,-0.0258941650390625,-0.388153076171875
301556,0.9358978271484376,-0.00634765625,-0.3818511962890625
301557,0.9268341064453124,0.003143310546875,-0.388458251953125
301558,0.92724609375,0.00537109375,-0.3834075927734375
301559,0.93408203125,0.01483154296875,-0.36700439453125
301560,0.9326171875,0.0164031982421875,-0.372406005859375
301561,0.932220458984375,0.0113983154296875,-0.366729736328125
301562,0.9314422607421876,0.0097503662109375,-0.365570068359375
301563,0.932281494140625,0.0067138671875,-0.381317138671875
301564,0.9440460205078124,-0.0110626220703125,-0.362823486328125
301565,0.9376678466796876,-0.0072174072265625,-0.389404296875
301566,0.930450439453125,-0.0033111572265625,-0.378021240234375
301567,0.928863525390625,-0.0074615478515625,-0.3620147705078125
301568,0.9285736083984376,-0.0069732666015625,-0.355560302734375
301569,0.9297027587890624,-0.00970458984375,-0.3477783203125
301570,0.929840087890625,-0.0193023681640625,-0.3395233154296875
301571,0.9221954345703124,-0.0219268798828125,-0.363525390625
301572,0.9292449951171876,-0.019500732421875,-0.3703155517578125
301573,0.940826416015625,-0.0084381103515625,-0.3988189697265625
301574,0.92742919921875,-0.0073394775390625,-0.42864990234375
301575,0.9254608154296876,-0.01080322265625,-0.4014892578125
301576,0.940826416015625,-0.002838134765625,-0.3553314208984375
301577,0.9384918212890624,0.020965576171875,-0.409759521484375
301578,0.9287109375,0.0082244873046875,-0.3700408935546875
301579,0.926910400390625,0.009185791015625,-0.3353271484375
301580,0.9294586181640624,0.0018157958984375,-0.3225555419921875
301581,0.9275360107421876,-0.0011749267578125,-0.350067138671875
301582,0.930572509765625,-0.011474609375,-0.3857879638671875
301583,0.9265899658203124,-0.0155181884765625,-0.3781280517578125
301584,0.9233245849609376,-0.00360107421875,-0.35089111328125
301585,0.9198760986328124,-0.00604248046875,-0.3536834716796875
301586,0.9079437255859376,-0.0223541259765625,-0.38214111328125
301587,0.92138671875,-0.0265045166015625,-0.4720916748046875
301588,0.9205474853515624,-0.0265655517578125,-0.389678955078125
301589,0.9198150634765624,0.0153045654296875,-0.3101043701171875
301590,0.9169769287109376,0.0101776123046875,-0.392791748046875
301591,0.9171142578125,-0.00543212890625,-0.3767242431640625
301592,0.918060302734375,-0.0057373046875,-0.3717803955078125
301593,0.919921875,-0.0005035400390625,-0.3549652099609375
301594,0.9217071533203124,0.002349853515625,-0.33038330078125
301595,0.917083740234375,0.0009765625,-0.3473968505859375
301596,0.916046142578125,-0.0059356689453125,-0.34600830078125
301597,0.9160614013671876,-0.010772705078125,-0.342803955078125
301598,0.9246673583984376,-0.0175018310546875,-0.336090087890625
301599,0.9329681396484376,-0.02386474609375,-0.3267974853515625
301600,0.9440155029296876,-0.0280303955078125,-0.320587158203125
301601,0.9535980224609376,-0.0359039306640625,-0.29437255859375
301602,0.962310791015625,-0.0456695556640625,-0.2789459228515625
301603,0.9566192626953124,-0.05340576171875,-0.2604217529296875
301604,0.951141357421875,-0.031463623046875,-0.2360382080078125
301605,0.9319000244140624,-0.0277557373046875,-0.26605224609375
301606,0.9146270751953124,-0.0505218505859375,-0.290069580078125
301607,0.908294677734375,-0.0692901611328125,-0.2647552490234375
301608,0.9023895263671876,-0.071929931640625,-0.2208099365234375
301609,0.9003143310546875,-0.066864013671875,-0.183563232421875
301610,0.903472900390625,-0.080810546875,-0.092987060546875
301611,0.9247283935546876,-0.1103363037109375,0.0241851806640625
301612,0.954559326171875,-0.1143341064453125,0.029693603515625
301613,0.985015869140625,-0.1185455322265625,-0.0283203125
301614,1.012664794921875,-0.11279296875,-0.12176513671875
301615,1.0286865234375,-0.1023712158203125,-0.1739959716796875
301616,1.03863525390625,-0.1023406982421875,-0.142333984375
301617,1.048126220703125,-0.1062164306640625,-0.151885986328125
301618,1.055831909179688,-0.1163482666015625,-0.1672515869140625
301619,1.063308715820312,-0.1138916015625,-0.174530029296875
301620,1.063461303710938,-0.0959320068359375,-0.1421051025390625
301621,1.060043334960938,-0.0752410888671875,-0.08258056640625
301622,1.051864624023438,-0.0635986328125,-0.01416015625
301623,1.036056518554688,-0.0529022216796875,0.051605224609375
301624,1.011245727539062,-0.05035400390625,0.1060638427734375
301625,0.987152099609375,-0.0697174072265625,0.131011962890625
301626,0.9734649658203124,-0.1023712158203125,0.1272735595703125
301627,0.972564697265625,-0.1387939453125,0.1251068115234375
301628,0.9893646240234376,-0.16632080078125,0.1490020751953125
301629,1.01263427734375,-0.1727294921875,0.1897125244140625
301630,1.026138305664062,-0.156890869140625,0.238067626953125
301631,1.036834716796875,-0.1475677490234375,0.294952392578125
301632,1.04071044921875,-0.1585693359375,0.3438720703125
301633,1.054489135742188,-0.1916961669921875,0.356842041015625
301634,1.064743041992188,-0.223876953125,0.3294677734375
301635,1.059310913085938,-0.2433624267578125,0.312225341796875
301636,1.055160522460938,-0.274444580078125,0.311859130859375
301637,1.05126953125,-0.290283203125,0.3221435546875
301638,1.05682373046875,-0.2930450439453125,0.3448944091796875
301639,1.060440063476562,-0.28411865234375,0.3907623291015625
301640,1.051193237304688,-0.273651123046875,0.4328155517578125
301641,1.04681396484375,-0.2838592529296875,0.4557647705078125
301642,1.039260864257812,-0.298492431640625,0.4739990234375
301643,1.025894165039062,-0.3263702392578125,0.4913787841796875
301644,1.019683837890625,-0.3698272705078125,0.5054779052734375
301645,1.01800537109375,-0.40460205078125,0.49932861328125
301646,1.016326904296875,-0.4283599853515625,0.4535675048828125
301647,1.009185791015625,-0.4229583740234375,0.375518798828125
301648,0.9962921142578124,-0.396087646484375,0.3578643798828125
301649,0.97686767578125,-0.3862762451171875,0.4349212646484375
301650,0.95458984375,-0.41485595703125,0.5419769287109375
301651,0.943145751953125,-0.46771240234375,0.611083984375
301652,0.9456787109375,-0.50799560546875,0.611419677734375
301653,0.9487152099609376,-0.5015106201171875,0.55169677734375
301654,0.94329833984375,-0.4658050537109375,0.4835205078125
301655,0.934051513671875,-0.43896484375,0.478973388671875
301656,0.9332427978515624,-0.4358978271484375,0.539520263671875
301657,0.9325103759765624,-0.4521636962890625,0.5760345458984375
301658,0.93597412109375,-0.4574737548828125,0.5432586669921875
301659,0.9280853271484376,-0.4428558349609375,0.461669921875
301660,0.90826416015625,-0.4169464111328125,0.4098663330078125
301661,0.89532470703125,-0.3988800048828125,0.417877197265625
301662,0.878814697265625,-0.3908538818359375,0.473541259765625
301663,0.8641204833984375,-0.407012939453125,0.519622802734375
301664,0.85711669921875,-0.422576904296875,0.52734375
301665,0.84991455078125,-0.42236328125,0.4922027587890625
301666,0.849090576171875,-0.410125732421875,0.431549072265625
301667,0.8511199951171875,-0.391082763671875,0.374237060546875
301668,0.858184814453125,-0.3847808837890625,0.35626220703125
301669,0.8669586181640625,-0.379547119140625,0.3793487548828125
301670,0.880706787109375,-0.3746795654296875,0.418426513671875
301671,0.8928070068359375,-0.3607177734375,0.449127197265625
301672,0.90386962890625,-0.3346099853515625,0.4625244140625
301673,0.898956298828125,-0.3062591552734375,0.45166015625
301674,0.89019775390625,-0.288360595703125,0.43707275390625
301675,0.87335205078125,-0.28424072265625,0.4419097900390625
301676,0.8566436767578125,-0.30242919921875,0.4467010498046875
301677,0.8441162109375,-0.3197784423828125,0.44757080078125
301678,0.8305816650390625,-0.318389892578125,0.4551239013671875
301679,0.8208770751953125,-0.3103179931640625,0.460845947265625
301680,0.8167266845703125,-0.292388916015625,0.46405029296875
301681,0.808837890625,-0.26458740234375,0.4715423583984375
301682,0.79852294921875,-0.242645263671875,0.4723358154296875
301683,0.791351318359375,-0.2345733642578125,0.47283935546875
301684,0.7860565185546875,-0.2209014892578125,0.4683074951171875
301685,0.7787017822265625,-0.2029266357421875,0.459259033203125
301686,0.7711944580078125,-0.1891021728515625,0.4552459716796875
301687,0.7649078369140625,-0.1787261962890625,0.46533203125
301688,0.759552001953125,-0.188629150390625,0.4828948974609375
301689,0.75799560546875,-0.203765869140625,0.498931884765625
301690,0.7519683837890625,-0.1961669921875,0.5167236328125
301691,0.7399749755859375,-0.1787109375,0.521270751953125
301692,0.7210235595703125,-0.16827392578125,0.5060272216796875
301693,0.703277587890625,-0.1694793701171875,0.4857025146484375
301694,0.6898956298828125,-0.1746673583984375,0.4620208740234375
301695,0.6833343505859375,-0.18511962890625,0.436004638671875
301696,0.6901092529296875,-0.198394775390625,0.4384307861328125
301697,0.706298828125,-0.1927947998046875,0.46014404296875
301698,0.7225189208984375,-0.1700286865234375,0.460693359375
301699,0.7380218505859375,-0.148406982421875,0.4413604736328125
301700,0.7520294189453125,-0.135284423828125,0.4255523681640625
301701,0.76434326171875,-0.136993408203125,0.427032470703125
301702,0.778045654296875,-0.1390228271484375,0.4279937744140625
301703,0.7924041748046875,-0.1333465576171875,0.43048095703125
301704,0.807342529296875,-0.129791259765625,0.4508056640625
301705,0.8230438232421875,-0.130859375,0.480438232421875
301706,0.836761474609375,-0.1311798095703125,0.495391845703125
301707,0.846923828125,-0.128814697265625,0.4944915771484375
301708,0.8580474853515625,-0.1307830810546875,0.479766845703125
301709,0.8643951416015625,-0.1232757568359375,0.470550537109375
301710,0.8660736083984375,-0.112823486328125,0.4666595458984375
301711,0.865570068359375,-0.102142333984375,0.4693145751953125
301712,0.8555450439453125,-0.093109130859375,0.47796630859375
301713,0.840667724609375,-0.0936737060546875,0.48828125
301714,0.82611083984375,-0.1014556884765625,0.4932861328125
301715,0.80999755859375,-0.1124725341796875,0.4937896728515625
301716,0.7973175048828125,-0.1203460693359375,0.494537353515625
301717,0.788360595703125,-0.122222900390625,0.496185302734375
301718,0.783233642578125,-0.1180419921875,0.49127197265625
301719,0.7839813232421875,-0.1166229248046875,0.482666015625
301720,0.78948974609375,-0.1090240478515625,0.4835968017578125
301721,0.795623779296875,-0.0994873046875,0.487579345703125
301722,0.8028564453125,-0.095977783203125,0.49554443359375
301723,0.8102874755859375,-0.092071533203125,0.5043792724609375
301724,0.8131256103515625,-0.09246826171875,0.503814697265625
301725,0.818939208984375,-0.0948333740234375,0.4924163818359375
301726,0.823089599609375,-0.09771728515625,0.4775848388671875
301727,0.82684326171875,-0.0995941162109375,0.4586181640625
301728,0.83355712890625,-0.10089111328125,0.4495849609375
301729,0.837432861328125,-0.1005401611328125,0.4569854736328125
301730,0.8413543701171875,-0.1015625,0.4768524169921875
301731,0.8510894775390625,-0.1041412353515625,0.4931640625
301732,0.85992431640625,-0.1007537841796875,0.5022735595703125
301733,0.8669586181640625,-0.099456787109375,0.500885009765625
301734,0.8716888427734375,-0.1026611328125,0.5002593994140625
301735,0.8762359619140625,-0.1103363037109375,0.498321533203125
301736,0.880615234375,-0.1204376220703125,0.49664306640625
301737,0.8831939697265625,-0.1249237060546875,0.4942169189453125
301738,0.8833770751953125,-0.1224822998046875,0.494140625
301739,0.881439208984375,-0.1137847900390625,0.4983673095703125
301740,0.8724822998046875,-0.1084442138671875,0.5046539306640625
301741,0.863525390625,-0.116119384765625,0.520050048828125
301742,0.8548736572265625,-0.1241912841796875,0.5251922607421875
301743,0.845458984375,-0.1288299560546875,0.5232696533203125
301744,0.8368072509765625,-0.1317291259765625,0.5239410400390625
301745,0.8295135498046875,-0.1331329345703125,0.5280303955078125
301746,0.8224639892578125,-0.1320648193359375,0.5286407470703125
301747,0.81536865234375,-0.13763427734375,0.52508544921875
301748,0.8114166259765625,-0.148834228515625,0.53118896484375
301749,0.814422607421875,-0.159149169921875,0.5366058349609375
301750,0.8181610107421875,-0.157257080078125,0.53460693359375
301751,0.818450927734375,-0.1476287841796875,0.527252197265625
301752,0.818023681640625,-0.143280029296875,0.513885498046875
301753,0.8148193359375,-0.1380157470703125,0.508880615234375
301754,0.8104705810546875,-0.136871337890625,0.4970855712890625
301755,0.8077545166015625,-0.1428070068359375,0.4766693115234375
301756,0.8045501708984375,-0.14483642578125,0.4623565673828125
301757,0.8028411865234375,-0.14599609375,0.4525299072265625
301758,0.8037567138671875,-0.1459503173828125,0.4505615234375
301759,0.8023223876953125,-0.1486968994140625,0.4443817138671875
301760,0.802093505859375,-0.15850830078125,0.4305419921875
301761,0.81134033203125,-0.169647216796875,0.4322662353515625
301762,0.8219451904296875,-0.1724395751953125,0.4393310546875
301763,0.8339080810546875,-0.1731414794921875,0.4393157958984375
301764,0.844879150390625,-0.1666412353515625,0.4498138427734375
301765,0.850860595703125,-0.1641082763671875,0.45794677734375
301766,0.85107421875,-0.1678924560546875,0.4533233642578125
301767,0.85418701171875,-0.1755828857421875,0.4487152099609375
301768,0.8591461181640625,-0.177001953125,0.4467010498046875
301769,0.86444091796875,-0.1680908203125,0.435546875
301770,0.868499755859375,-0.165771484375,0.42974853515625
301771,0.8701171875,-0.172119140625,0.4354095458984375
301772,0.8702545166015625,-0.178558349609375,0.445404052734375
301773,0.87298583984375,-0.1819915771484375,0.456939697265625
301774,0.872467041015625,-0.1793975830078125,0.4709625244140625
301775,0.86962890625,-0.178619384765625,0.477203369140625
301776,0.8697052001953125,-0.18377685546875,0.474822998046875
301777,0.8727264404296875,-0.1884307861328125,0.47235107421875
301778,0.8775177001953125,-0.187896728515625,0.4725341796875
301779,0.886077880859375,-0.1875,0.475616455078125
301780,0.89605712890625,-0.1881103515625,0.484527587890625
301781,0.90594482421875,-0.18231201171875,0.4873809814453125
301782,0.9082489013671876,-0.166595458984375,0.481964111328125
301783,0.90380859375,-0.1587982177734375,0.4785308837890625
301784,0.89617919921875,-0.1617431640625,0.4832763671875
301785,0.8909454345703125,-0.170562744140625,0.4857940673828125
301786,0.886322021484375,-0.17193603515625,0.491668701171875
301787,0.878570556640625,-0.16595458984375,0.4930419921875
301788,0.872344970703125,-0.16473388671875,0.484771728515625
301789,0.8680877685546875,-0.16741943359375,0.48248291015625
301790,0.8662109375,-0.1704254150390625,0.481048583984375
301791,0.8691558837890625,-0.17559814453125,0.4732513427734375
301792,0.87744140625,-0.1772918701171875,0.4691162109375
301793,0.8827362060546875,-0.170379638671875,0.4720916748046875
301794,0.882965087890625,-0.168548583984375,0.4706268310546875
301795,0.885101318359375,-0.17657470703125,0.4694061279296875
301796,0.888885498046875,-0.185302734375,0.47314453125
301797,0.89208984375,-0.1832733154296875,0.4744720458984375
301798,0.892181396484375,-0.17889404296875,0.474090576171875
301799,0.8892822265625,-0.1775360107421875,0.4744110107421875
301800,0.8875885009765625,-0.1826171875,0.4770050048828125
301801,0.8874053955078125,-0.188934326171875,0.4850311279296875
301802,0.885406494140625,-0.194183349609375,0.4940338134765625
301803,0.8856201171875,-0.2076416015625,0.5039215087890625
301804,0.8870849609375,-0.2231903076171875,0.5123443603515625
301805,0.890289306640625,-0.2249603271484375,0.5180816650390625
301806,0.8920745849609375,-0.212066650390625,0.5188446044921875
301807,0.890289306640625,-0.1934967041015625,0.51739501953125
301808,0.8856658935546875,-0.1802825927734375,0.506561279296875
301809,0.8787384033203125,-0.1745452880859375,0.494781494140625
301810,0.870025634765625,-0.173126220703125,0.485137939453125
301811,0.860626220703125,-0.1759796142578125,0.4765625
301812,0.8461761474609375,-0.1772308349609375,0.465057373046875
301813,0.8278961181640625,-0.1781005859375,0.4541168212890625
301814,0.7408599853515625,-0.21258544921875,0.4782562255859375
301815,0.59796142578125,-0.260528564453125,0.472442626953125
301816,0.525054931640625,-0.2472686767578125,0.3667144775390625
301817,0.5875244140625,-0.1667022705078125,0.2798614501953125
301818,0.821685791015625,-0.0269317626953125,0.198944091796875
301819,0.9432373046875,-0.0085601806640625,0.329925537109375
301820,0.8872833251953125,-0.1514129638671875,0.5555877685546875
301821,0.8855438232421875,-0.1786651611328125,0.5114898681640625
301822,0.9724884033203124,-0.120452880859375,0.47296142578125
301823,1.016937255859375,-0.133453369140625,0.5490264892578125
301824,0.925689697265625,-0.1832275390625,0.612884521484375
301825,0.8920440673828125,-0.1861114501953125,0.542633056640625
301826,0.9232635498046876,-0.175048828125,0.5044708251953125
301827,0.9676361083984376,-0.18310546875,0.5126495361328125
301828,1.0147705078125,-0.1915283203125,0.464996337890625
301829,1.041915893554688,-0.1775054931640625,0.4329071044921875
301830,1.05450439453125,-0.1502532958984375,0.3896636962890625
301831,1.0545654296875,-0.1351165771484375,0.3310394287109375
301832,1.049407958984375,-0.1152801513671875,0.30780029296875
301833,1.0528564453125,-0.104949951171875,0.310699462890625
301834,1.074676513671875,-0.104034423828125,0.3023223876953125
301835,1.07159423828125,-0.1048736572265625,0.28729248046875
301836,1.030502319335938,-0.1151580810546875,0.263702392578125
301837,1.024307250976562,-0.112274169921875,0.2131805419921875
301838,1.02825927734375,-0.0965728759765625,0.14892578125
301839,1.0272216796875,-0.101531982421875,0.0596771240234375
301840,1.043807983398438,-0.112396240234375,-0.0049896240234375
301841,1.0650634765625,-0.13714599609375,-0.013092041015625
301842,1.074966430664062,-0.1607666015625,-0.0442657470703125
301843,1.076156616210938,-0.159820556640625,-0.093841552734375
301844,1.0738525390625,-0.175994873046875,-0.1264495849609375
301845,1.0386962890625,-0.1883544921875,-0.13385009765625
301846,1.025665283203125,-0.193511962890625,-0.10107421875
301847,1.05584716796875,-0.22088623046875,-0.095977783203125
301848,1.021392822265625,-0.196929931640625,-0.0485687255859375
301849,0.9720611572265624,-0.0792999267578125,0.0069580078125
301850,0.9657745361328124,0.0503692626953125,-0.0289764404296875
301851,0.9800567626953124,0.010162353515625,-0.1564483642578125
301852,0.994842529296875,-0.0416259765625,-0.3140869140625
301853,0.98382568359375,-0.0665435791015625,-0.4638671875
301854,0.9849395751953124,-0.0743560791015625,-0.564788818359375
301855,0.9595794677734376,-0.08306884765625,-0.6095123291015625
301856,0.9261932373046876,-0.0971527099609375,-0.6420135498046875
301857,0.9003448486328125,-0.1150665283203125,-0.671417236328125
301858,0.8581390380859375,-0.130340576171875,-0.6750640869140625
301859,0.8021240234375,-0.1491546630859375,-0.6480255126953125
301860,0.742218017578125,-0.164520263671875,-0.564605712890625
301861,0.6986846923828125,-0.161712646484375,-0.482574462890625
301862,0.6944122314453125,-0.15142822265625,-0.4345550537109375
301863,0.667388916015625,-0.1838531494140625,-0.48455810546875
301864,0.634002685546875,-0.2614288330078125,-0.5753173828125
301865,0.631195068359375,-0.3097991943359375,-0.6527862548828125
301866,0.632659912109375,-0.32354736328125,-0.6883697509765625
301867,0.6113128662109375,-0.3265533447265625,-0.72100830078125
301868,0.559173583984375,-0.313507080078125,-0.762786865234375
301869,0.462158203125,-0.320404052734375,-0.773529052734375
301870,0.3801422119140625,-0.3328399658203125,-0.7356414794921875
301871,0.34893798828125,-0.373779296875,-0.6925201416015625
301872,0.3381805419921875,-0.4456787109375,-0.61553955078125
301873,0.35736083984375,-0.490631103515625,-0.54449462890625
301874,0.41656494140625,-0.5146636962890625,-0.5520477294921875
301875,0.4877166748046875,-0.518035888671875,-0.6157379150390625
301876,0.5804290771484375,-0.4822540283203125,-0.7006988525390625
301877,0.6303863525390625,-0.426544189453125,-0.8187255859375
301878,0.6259613037109375,-0.370849609375,-0.94189453125
301879,0.5835418701171875,-0.2991485595703125,-1.000762939453125
301880,0.4929656982421875,-0.255126953125,-0.9875030517578124
301881,0.42041015625,-0.2295074462890625,-0.8754730224609375
301882,0.3797149658203125,-0.213134765625,-0.815399169921875
301883,0.3567352294921875,-0.2342529296875,-0.7976837158203125
301884,0.3612060546875,-0.25225830078125,-0.801361083984375
301885,0.35162353515625,-0.266265869140625,-0.855865478515625
301886,0.32733154296875,-0.2881011962890625,-0.8929290771484375
301887,0.2864990234375,-0.3029632568359375,-0.8978271484375
301888,0.275604248046875,-0.282470703125,-0.879547119140625
301889,0.2967529296875,-0.2278289794921875,-0.8959197998046875
301890,0.3072052001953125,-0.2061767578125,-0.9058074951171876
301891,0.326812744140625,-0.207672119140625,-0.924407958984375
301892,0.3431396484375,-0.2245941162109375,-0.9473876953125
301893,0.3426361083984375,-0.2412261962890625,-0.9678802490234376
301894,0.3303070068359375,-0.2483673095703125,-0.966583251953125
301895,0.3095855712890625,-0.246795654296875,-0.951568603515625
301896,0.28582763671875,-0.243072509765625,-0.95001220703125
301897,0.2621917724609375,-0.2314453125,-0.9379730224609376
301898,0.2559661865234375,-0.189849853515625,-0.9280853271484376
301899,0.2353668212890625,-0.139129638671875,-0.93292236328125
301900,0.180450439453125,-0.1312713623046875,-0.977508544921875
301901,0.1865386962890625,-0.1372528076171875,-1.014328002929688
301902,0.2301025390625,-0.162841796875,-1.079452514648438
301903,0.28094482421875,-0.204071044921875,-1.135910034179688
301904,0.3169403076171875,-0.2529144287109375,-1.166030883789062
301905,0.3199615478515625,-0.28765869140625,-1.155792236328125
301906,0.293243408203125,-0.3034515380859375,-1.082763671875
301907,0.2452545166015625,-0.293182373046875,-1.002471923828125
301908,0.194671630859375,-0.2710113525390625,-0.950714111328125
301909,0.157989501953125,-0.23431396484375,-0.9205474853515624
301910,0.122711181640625,-0.2065887451171875,-0.9227142333984376
301911,0.104217529296875,-0.2121734619140625,-0.9378509521484376
301912,0.1067047119140625,-0.230712890625,-0.9356231689453124
301913,0.123809814453125,-0.250885009765625,-0.925445556640625
301914,0.15655517578125,-0.271453857421875,-0.9205780029296876
301915,0.182281494140625,-0.2835845947265625,-0.919921875
301916,0.2039031982421875,-0.281768798828125,-0.896087646484375
301917,0.2208099365234375,-0.2982635498046875,-0.859130859375
301918,0.22637939453125,-0.3253021240234375,-0.8390960693359375
301919,0.21234130859375,-0.3686676025390625,-0.8143768310546875
301920,0.203765869140625,-0.3762054443359375,-0.7997894287109375
301921,0.225341796875,-0.3776092529296875,-0.8154449462890625
301922,0.2239837646484375,-0.3731231689453125,-0.8542633056640625
301923,0.2338104248046875,-0.360198974609375,-0.8966522216796875
301924,0.227752685546875,-0.3543853759765625,-0.9280548095703124
301925,0.2228546142578125,-0.371063232421875,-0.9206085205078124
