time_idx,accelerometerAccelerationX(G),accelerometerAccelerationY(G),accelerometerAccelerationZ(G)
60000,-0.2487945556640625,0.90625,0.4777984619140625
60001,-0.25238037109375,0.8738250732421875,0.437103271484375
60002,-0.242645263671875,0.82098388671875,0.4141845703125
60003,-0.2464752197265625,0.7725830078125,0.42645263671875
60004,-0.2774658203125,0.7329254150390625,0.4725341796875
60005,-0.331451416015625,0.6983642578125,0.5309295654296875
60006,-0.3751373291015625,0.6813812255859375,0.57080078125
60007,-0.385955810546875,0.65411376953125,0.5735321044921875
60008,-0.3796234130859375,0.6152801513671875,0.5621490478515625
60009,-0.366668701171875,0.582122802734375,0.5421142578125
60010,-0.357208251953125,0.551971435546875,0.5369720458984375
60011,-0.37115478515625,0.54827880859375,0.5680694580078125
60012,-0.3896026611328125,0.6299285888671875,0.62176513671875
60013,-0.3820343017578125,0.6919403076171875,0.6805419921875
60014,-0.3610382080078125,0.7000579833984375,0.7035980224609375
60015,-0.355865478515625,0.72283935546875,0.65673828125
60016,-0.36627197265625,0.7816925048828125,0.5987548828125
60017,-0.3758544921875,0.8485260009765625,0.548492431640625
60018,-0.3868255615234375,0.9316558837890624,0.4876251220703125
60019,-0.3835906982421875,1.01171875,0.40875244140625
60020,-0.3554534912109375,1.076828002929688,0.34930419921875
60021,-0.2991180419921875,1.133132934570312,0.3016204833984375
60022,-0.2472686767578125,1.184722900390625,0.26806640625
60023,-0.190216064453125,1.234542846679688,0.235992431640625
60024,-0.1235809326171875,1.265472412109375,0.2253570556640625
60025,-0.0602264404296875,1.281845092773438,0.20111083984375
60026,0.00885009765625,1.278976440429688,0.1966552734375
60027,0.077056884765625,1.224319458007812,0.21484375
60028,0.1270294189453125,1.082000732421875,0.22998046875
60029,0.1207275390625,0.9315643310546876,0.252044677734375
60030,0.0674896240234375,0.843414306640625,0.313720703125
60031,0.01171875,0.810089111328125,0.3976287841796875
60032,-0.0216522216796875,0.7910308837890625,0.454864501953125
60033,-0.033050537109375,0.78009033203125,0.4802093505859375
60034,-0.0331268310546875,0.7677459716796875,0.4860992431640625
60035,-0.029022216796875,0.7660675048828125,0.4828643798828125
60036,-0.0330352783203125,0.7867584228515625,0.4520111083984375
60037,-0.051177978515625,0.8284912109375,0.4044342041015625
60038,-0.081878662109375,0.89404296875,0.35687255859375
60039,-0.12152099609375,0.968170166015625,0.328125
60040,-0.1568145751953125,1.066497802734375,0.2716217041015625
60041,-0.1810150146484375,1.208297729492188,0.177459716796875
60042,-0.19647216796875,1.347396850585938,0.103271484375
60043,-0.2003021240234375,1.44573974609375,0.064056396484375
60044,-0.2017822265625,1.486953735351562,0.0559539794921875
60045,-0.2028961181640625,1.458465576171875,0.0533294677734375
60046,-0.2075347900390625,1.376571655273438,0.036041259765625
60047,-0.19793701171875,1.266220092773438,0.01031494140625
60048,-0.17987060546875,1.157669067382812,-0.015289306640625
60049,-0.1676483154296875,1.055099487304688,-0.019134521484375
60050,-0.1620635986328125,0.9682464599609376,-0.0012969970703125
60051,-0.1540374755859375,0.8949432373046875,0.039459228515625
60052,-0.140625,0.8406982421875,0.112518310546875
60053,-0.1297760009765625,0.79803466796875,0.1966094970703125
60054,-0.1315765380859375,0.770965576171875,0.2723236083984375
60055,-0.13348388671875,0.756134033203125,0.34375
60056,-0.1367950439453125,0.75201416015625,0.41180419921875
60057,-0.1625823974609375,0.7602691650390625,0.4832305908203125
60058,-0.211395263671875,0.789825439453125,0.54254150390625
60059,-0.27215576171875,0.8079071044921875,0.5689849853515625
60060,-0.3360748291015625,0.8043975830078125,0.5916900634765625
60061,-0.381378173828125,0.8082122802734375,0.580657958984375
60062,-0.4031219482421875,0.822601318359375,0.536376953125
60063,-0.387420654296875,0.835662841796875,0.502960205078125
60064,-0.328125,0.85028076171875,0.5131683349609375
60065,-0.2513580322265625,0.8401336669921875,0.560089111328125
60066,-0.176910400390625,0.7902069091796875,0.6066436767578125
60067,-0.1317596435546875,0.7212982177734375,0.6481475830078125
60068,-0.12896728515625,0.64996337890625,0.701416015625
60069,-0.162994384765625,0.60528564453125,0.7452392578125
60070,-0.205078125,0.6020050048828125,0.74774169921875
60071,-0.2354888916015625,0.62371826171875,0.7024688720703125
60072,-0.2606353759765625,0.6602783203125,0.6591644287109375
60073,-0.2755584716796875,0.7011260986328125,0.642913818359375
60074,-0.27459716796875,0.747314453125,0.6473236083984375
60075,-0.2635498046875,0.803131103515625,0.6500244140625
60076,-0.24505615234375,0.8625030517578125,0.623138427734375
60077,-0.2175140380859375,0.9251861572265624,0.5711669921875
60078,-0.1855316162109375,0.9896697998046876,0.4972991943359375
60079,-0.1512451171875,1.056884765625,0.4331207275390625
60080,-0.119384765625,1.124679565429688,0.381927490234375
60081,-0.0771636962890625,1.187088012695312,0.314208984375
60082,-0.03472900390625,1.239517211914062,0.2388153076171875
60083,-0.0106658935546875,1.287948608398438,0.156890869140625
60084,-0.0072021484375,1.29052734375,0.067596435546875
60085,-0.0115203857421875,1.238388061523438,0.01153564453125
60086,-0.019256591796875,1.147109985351562,-0.0270538330078125
60087,-0.0396575927734375,1.058380126953125,-0.049407958984375
60088,-0.0690765380859375,0.9823150634765624,-0.0439910888671875
60089,-0.10540771484375,0.90692138671875,-0.0008544921875
60090,-0.1433563232421875,0.8414764404296875,0.0532684326171875
60091,-0.1790771484375,0.77471923828125,0.0818939208984375
60092,-0.2176513671875,0.7093963623046875,0.121612548828125
60093,-0.266448974609375,0.6577911376953125,0.1877288818359375
60094,-0.3268890380859375,0.6376800537109375,0.2626190185546875
60095,-0.3899688720703125,0.657135009765625,0.3453826904296875
60096,-0.404144287109375,0.7220306396484375,0.4163665771484375
60097,-0.3501739501953125,0.815093994140625,0.4215850830078125
60098,-0.2639617919921875,0.908477783203125,0.3910980224609375
60099,-0.17913818359375,0.994171142578125,0.3734588623046875
60100,-0.10577392578125,1.093994140625,0.368804931640625
60101,-0.0367431640625,1.183731079101562,0.3598175048828125
60102,0.027099609375,1.249465942382812,0.3244476318359375
60103,0.0940399169921875,1.277450561523438,0.2813720703125
60104,0.1637725830078125,1.247146606445312,0.2335357666015625
60105,0.2039642333984375,1.161407470703125,0.17022705078125
60106,0.1905975341796875,1.066482543945312,0.1280975341796875
60107,0.117095947265625,1.0047607421875,0.1373138427734375
60108,0.031951904296875,0.97283935546875,0.1732330322265625
60109,-0.032196044921875,0.952178955078125,0.215789794921875
60110,-0.081573486328125,0.9453887939453124,0.268646240234375
60111,-0.1224822998046875,0.9453582763671876,0.32318115234375
60112,-0.1525115966796875,0.948699951171875,0.3654022216796875
60113,-0.1759033203125,0.9593353271484376,0.39166259765625
60114,-0.1909637451171875,0.9649505615234376,0.4225616455078125
60115,-0.2092742919921875,0.963470458984375,0.45220947265625
60116,-0.2196044921875,0.9644012451171876,0.443450927734375
60117,-0.22406005859375,0.9621734619140624,0.4223785400390625
60118,-0.22369384765625,0.9310760498046876,0.4224853515625
60119,-0.2147369384765625,0.88385009765625,0.438140869140625
60120,-0.22088623046875,0.8441925048828125,0.4344940185546875
60121,-0.23968505859375,0.8296356201171875,0.409149169921875
60122,-0.252044677734375,0.829132080078125,0.3829345703125
60123,-0.2619781494140625,0.8391265869140625,0.3750152587890625
60124,-0.270599365234375,0.849578857421875,0.398681640625
60125,-0.2804107666015625,0.85675048828125,0.4524993896484375
60126,-0.289215087890625,0.8611602783203125,0.5250396728515625
60127,-0.3035125732421875,0.870513916015625,0.60723876953125
60128,-0.3533477783203125,0.8766937255859375,0.6764068603515625
60129,-0.4082489013671875,0.8751220703125,0.6717529296875
60130,-0.44366455078125,0.8415679931640625,0.621978759765625
60131,-0.4447021484375,0.7763519287109375,0.5932159423828125
60132,-0.4301300048828125,0.7239990234375,0.5508270263671875
60133,-0.4110107421875,0.7055816650390625,0.486907958984375
60134,-0.3883056640625,0.7213897705078125,0.421844482421875
60135,-0.3633880615234375,0.7739105224609375,0.3896636962890625
60136,-0.3336029052734375,0.8464813232421875,0.377349853515625
60137,-0.295440673828125,0.9097442626953124,0.3555755615234375
60138,-0.2413330078125,0.949859619140625,0.3121337890625
60139,-0.1741485595703125,0.9927825927734376,0.252899169921875
60140,-0.122344970703125,1.016647338867188,0.19451904296875
60141,-0.0859375,1.030288696289062,0.1534423828125
60142,-0.04852294921875,1.04718017578125,0.1323089599609375
60143,-0.0049285888671875,1.056182861328125,0.1344451904296875
60144,0.024017333984375,1.075775146484375,0.12591552734375
60145,0.0337066650390625,1.07806396484375,0.1060028076171875
60146,0.0484466552734375,1.073944091796875,0.109710693359375
60147,0.04754638671875,1.050506591796875,0.1618194580078125
60148,0.0519866943359375,0.9682769775390624,0.24493408203125
60149,0.0606536865234375,0.8397979736328125,0.344329833984375
60150,0.0606689453125,0.7487945556640625,0.429443359375
60151,0.038726806640625,0.7181396484375,0.4683685302734375
60152,0.0066375732421875,0.7476043701171875,0.44189453125
60153,-0.0169677734375,0.8175811767578125,0.3609771728515625
60154,-0.0467529296875,0.94378662109375,0.263397216796875
60155,-0.0884857177734375,1.084426879882812,0.1702117919921875
60156,-0.1283111572265625,1.185012817382812,0.0989227294921875
60157,-0.161895751953125,1.25091552734375,0.041168212890625
60158,-0.17742919921875,1.300262451171875,0.004241943359375
60159,-0.163421630859375,1.3475341796875,-0.03131103515625
60160,-0.1295013427734375,1.39166259765625,-0.06011962890625
60161,-0.1032562255859375,1.435684204101562,-0.0635528564453125
60162,-0.090423583984375,1.459136962890625,-0.0544281005859375
60163,-0.084075927734375,1.429840087890625,-0.0226898193359375
60164,-0.0870819091796875,1.345748901367188,0.02142333984375
60165,-0.091064453125,1.21630859375,0.052581787109375
60166,-0.09014892578125,1.069183349609375,0.0320587158203125
60167,-0.1024322509765625,0.9734649658203124,0.0546112060546875
60168,-0.1015472412109375,0.8984222412109375,0.0845184326171875
60169,-0.1053619384765625,0.8456268310546875,0.1013641357421875
60170,-0.119842529296875,0.828826904296875,0.1157379150390625
60171,-0.1297149658203125,0.8232879638671875,0.152801513671875
60172,-0.140869140625,0.8184051513671875,0.212738037109375
60173,-0.156463623046875,0.8194122314453125,0.2867279052734375
60174,-0.165069580078125,0.815155029296875,0.3678131103515625
60175,-0.174468994140625,0.81451416015625,0.4361572265625
60176,-0.1977691650390625,0.834808349609375,0.50677490234375
60177,-0.2325592041015625,0.8837432861328125,0.5899658203125
60178,-0.2624664306640625,0.9372100830078124,0.705047607421875
60179,-0.2838897705078125,0.962188720703125,0.8030242919921875
60180,-0.2751007080078125,0.9601287841796876,0.8236236572265625
60181,-0.2421112060546875,0.9334869384765624,0.763885498046875
60182,-0.2040252685546875,0.8697052001953125,0.707061767578125
60183,-0.1892242431640625,0.814788818359375,0.70391845703125
60184,-0.1883544921875,0.778228759765625,0.7392425537109375
60185,-0.198028564453125,0.7757720947265625,0.811614990234375
60186,-0.2286529541015625,0.798095703125,0.860870361328125
60187,-0.2534637451171875,0.7969512939453125,0.842529296875
60188,-0.2512664794921875,0.7625579833984375,0.7771759033203125
60189,-0.237213134765625,0.7216644287109375,0.71942138671875
60190,-0.2213897705078125,0.6838836669921875,0.690673828125
60191,-0.2030487060546875,0.675750732421875,0.6694183349609375
60192,-0.1824493408203125,0.7243804931640625,0.67645263671875
60193,-0.13824462890625,0.84417724609375,0.740814208984375
60194,-0.0762481689453125,0.9566497802734376,0.7801971435546875
60195,-0.03717041015625,1.0374755859375,0.7469635009765625
60196,-0.0040740966796875,1.110427856445312,0.6807098388671875
60197,0.028900146484375,1.156295776367188,0.5859375
60198,0.0178375244140625,1.180191040039062,0.4392547607421875
60199,-0.05426025390625,1.178756713867188,0.3011016845703125
60200,-0.1383209228515625,1.171554565429688,0.2413330078125
60201,-0.1855316162109375,1.200408935546875,0.2005157470703125
60202,-0.208831787109375,1.243545532226562,0.1507720947265625
60203,-0.232940673828125,1.253890991210938,0.1167449951171875
60204,-0.266143798828125,1.197921752929688,0.067535400390625
60205,-0.2906341552734375,1.106185913085938,-0.015869140625
60206,-0.3040313720703125,1.006134033203125,-0.12615966796875
60207,-0.31488037109375,0.8983154296875,-0.2328643798828125
60208,-0.325164794921875,0.7932281494140625,-0.3503265380859375
60209,-0.3397064208984375,0.712799072265625,-0.4331817626953125
60210,-0.333404541015625,0.68939208984375,-0.446075439453125
60211,-0.2967529296875,0.7460174560546875,-0.371612548828125
60212,-0.2366485595703125,0.8663177490234375,-0.2092437744140625
60213,-0.1616973876953125,0.9724273681640624,-0.0818023681640625
60214,-0.08612060546875,1.066558837890625,-0.03125
60215,-0.028594970703125,1.11767578125,-0.0643463134765625
60216,0.026458740234375,1.108200073242188,-0.1638031005859375
60217,0.0986480712890625,1.071884155273438,-0.2505950927734375
60218,0.1615753173828125,1.043792724609375,-0.251129150390625
60219,0.216278076171875,1.048446655273438,-0.1771392822265625
60220,0.2688446044921875,1.049346923828125,-0.1110687255859375
60221,0.28631591796875,1.050277709960938,-0.08917236328125
60222,0.27197265625,1.041549682617188,-0.08563232421875
60223,0.2141571044921875,1.01190185546875,-0.09393310546875
60224,0.1625823974609375,1.022689819335938,-0.099395751953125
60225,0.111083984375,1.020675659179688,-0.0670623779296875
60226,0.065155029296875,1.014846801757812,-0.0396270751953125
60227,0.014678955078125,0.987213134765625,-0.0147552490234375
60228,-0.03997802734375,0.9345550537109376,0.0101470947265625
60229,-0.0879364013671875,0.856719970703125,0.0318603515625
60230,-0.1192626953125,0.77685546875,0.0560760498046875
60231,-0.1268768310546875,0.7166290283203125,0.0853424072265625
60232,-0.120361328125,0.6862030029296875,0.124847412109375
60233,-0.114532470703125,0.6862335205078125,0.1555023193359375
60234,-0.0945892333984375,0.704681396484375,0.16925048828125
60235,-0.0601654052734375,0.7181549072265625,0.1632080078125
60236,-0.020599365234375,0.7297210693359375,0.1418609619140625
60237,0.0035247802734375,0.729278564453125,0.133514404296875
60238,-0.0054473876953125,0.7213287353515625,0.1497802734375
60239,-0.0317840576171875,0.7386932373046875,0.172454833984375
60240,-0.0823516845703125,0.8082733154296875,0.2515716552734375
60241,-0.1591796875,0.8831634521484375,0.448974609375
60242,-0.2555389404296875,0.9772491455078124,0.848175048828125
60243,-0.357330322265625,1.103927612304688,1.308380126953125
60244,-0.3727569580078125,1.113052368164062,1.055313110351562
60245,-0.34149169921875,1.042556762695312,0.64898681640625
60246,-0.358673095703125,1.059356689453125,0.39239501953125
60247,-0.37945556640625,1.144500732421875,0.3851470947265625
60248,-0.34356689453125,1.167510986328125,0.5632476806640625
60249,-0.304595947265625,1.147842407226562,0.684814453125
60250,-0.2994842529296875,1.101516723632812,0.6981658935546875
60251,-0.310821533203125,1.063140869140625,0.6311798095703125
60252,-0.321624755859375,1.043121337890625,0.5316009521484375
60253,-0.3403778076171875,1.057586669921875,0.423095703125
60254,-0.3542633056640625,1.09698486328125,0.31915283203125
60255,-0.355804443359375,1.149703979492188,0.2314300537109375
60256,-0.3414764404296875,1.201324462890625,0.1858978271484375
60257,-0.32647705078125,1.24847412109375,0.141876220703125
60258,-0.31207275390625,1.278579711914062,0.078216552734375
60259,-0.287841796875,1.290863037109375,0.0202484130859375
60260,-0.282073974609375,1.317703247070312,0.0437774658203125
60261,-0.2384490966796875,1.286758422851562,0.122894287109375
60262,-0.1734771728515625,1.220062255859375,0.1466522216796875
60263,-0.125335693359375,1.158355712890625,0.1472930908203125
60264,-0.093170166015625,1.108047485351562,0.12689208984375
60265,-0.04986572265625,1.079025268554688,0.1595458984375
60266,-0.00067138671875,1.055618286132812,0.251312255859375
60267,0.0397186279296875,1.00543212890625,0.367950439453125
60268,0.0646209716796875,0.8918609619140625,0.46270751953125
60269,0.07037353515625,0.776153564453125,0.4835357666015625
60270,0.0677947998046875,0.6899261474609375,0.4531097412109375
60271,0.0628509521484375,0.659637451171875,0.42315673828125
60272,0.06158447265625,0.6766815185546875,0.3825531005859375
60273,0.059295654296875,0.73431396484375,0.3565673828125
60274,0.0442962646484375,0.808807373046875,0.30975341796875
60275,0.0163116455078125,0.88372802734375,0.2526092529296875
60276,-0.0259552001953125,0.944305419921875,0.2054595947265625
60277,-0.067108154296875,0.9853057861328124,0.1627197265625
60278,-0.099761962890625,1.024627685546875,0.1099395751953125
60279,-0.1259002685546875,1.087936401367188,0.056121826171875
60280,-0.13189697265625,1.185592651367188,0.0259246826171875
60281,-0.123565673828125,1.297103881835938,0.040435791015625
60282,-0.10833740234375,1.376953125,0.0602569580078125
60283,-0.0929412841796875,1.420761108398438,0.0437469482421875
60284,-0.074951171875,1.426788330078125,0.0496063232421875
60285,-0.0523529052734375,1.321563720703125,-0.0438995361328125
60286,-0.0653228759765625,1.203338623046875,-0.1820220947265625
60287,-0.0601348876953125,1.143951416015625,-0.1341094970703125
60288,-0.039154052734375,1.035308837890625,-0.0241241455078125
60289,-0.041900634765625,0.9267730712890624,0.035858154296875
60290,-0.0509185791015625,0.8615264892578125,0.0971221923828125
60291,-0.0516204833984375,0.8298492431640625,0.19329833984375
60292,-0.059906005859375,0.8102264404296875,0.2993621826171875
60293,-0.073944091796875,0.7952728271484375,0.376129150390625
60294,-0.0861968994140625,0.792327880859375,0.41064453125
60295,-0.10784912109375,0.8119659423828125,0.425567626953125
60296,-0.1370086669921875,0.8312225341796875,0.4639129638671875
60297,-0.154144287109375,0.8440399169921875,0.5192413330078125
60298,-0.1767578125,0.845672607421875,0.5648345947265625
60299,-0.2068328857421875,0.8513031005859375,0.58203125
60300,-0.223114013671875,0.8548736572265625,0.601348876953125
60301,-0.224334716796875,0.84783935546875,0.635589599609375
60302,-0.213775634765625,0.8328399658203125,0.652130126953125
60303,-0.177642822265625,0.7770843505859375,0.6433563232421875
60304,-0.1613616943359375,0.725738525390625,0.603363037109375
60305,-0.156982421875,0.67999267578125,0.5364227294921875
60306,-0.1613006591796875,0.6287689208984375,0.5080108642578125
60307,-0.168853759765625,0.581939697265625,0.524749755859375
60308,-0.173492431640625,0.550567626953125,0.548675537109375
60309,-0.17578125,0.5366363525390625,0.5695953369140625
60310,-0.1897735595703125,0.558746337890625,0.574249267578125
60311,-0.2144317626953125,0.6075439453125,0.560028076171875
60312,-0.2436981201171875,0.675323486328125,0.5321197509765625
60313,-0.2696075439453125,0.7531890869140625,0.4875030517578125
60314,-0.2714385986328125,0.8332977294921875,0.4293212890625
60315,-0.25018310546875,0.9285736083984376,0.3933258056640625
60316,-0.2174224853515625,1.037796020507812,0.3592529296875
60317,-0.1660919189453125,1.145980834960938,0.3280792236328125
60318,-0.114837646484375,1.23895263671875,0.3098297119140625
60319,-0.051177978515625,1.27264404296875,0.2249603271484375
60320,-0.0029296875,1.320724487304688,0.110870361328125
60321,0.0581512451171875,1.330596923828125,0.0311279296875
60322,0.1222686767578125,1.25634765625,-0.021759033203125
60323,0.166351318359375,1.133407592773438,-0.0696868896484375
60324,0.1641998291015625,1.015228271484375,-0.1094970703125
60325,0.1397857666015625,0.936737060546875,-0.13134765625
60326,0.089111328125,0.9269561767578124,-0.066558837890625
60327,0.0088653564453125,0.9558868408203124,0.0751190185546875
60328,-0.0732269287109375,0.95880126953125,0.1530609130859375
60329,-0.1706695556640625,0.93115234375,0.179962158203125
60330,-0.2623443603515625,0.90081787109375,0.2247314453125
60331,-0.33026123046875,0.8826141357421875,0.289520263671875
60332,-0.3551788330078125,0.873992919921875,0.3672332763671875
60333,-0.321502685546875,0.8985137939453125,0.42108154296875
60334,-0.2369842529296875,0.984649658203125,0.417938232421875
60335,-0.14349365234375,1.074066162109375,0.4039459228515625
60336,-0.0525665283203125,1.163009643554688,0.3935546875
60337,0.0251922607421875,1.245346069335938,0.369415283203125
60338,0.090423583984375,1.285247802734375,0.310791015625
60339,0.1441650390625,1.2635498046875,0.2157440185546875
60340,0.17608642578125,1.184310913085938,0.1355743408203125
60341,0.1764068603515625,1.090240478515625,0.1208038330078125
60342,0.13531494140625,1.026199340820312,0.19232177734375
60343,0.060638427734375,0.9913330078125,0.2707672119140625
60344,-0.0265045166015625,0.9728851318359376,0.28912353515625
60345,-0.09393310546875,0.981292724609375,0.2364654541015625
60346,-0.1399993896484375,1.005355834960938,0.1640472412109375
60347,-0.167236328125,1.045257568359375,0.1543121337890625
60348,-0.18438720703125,1.052276611328125,0.2132568359375
60349,-0.20001220703125,1.055862426757812,0.29913330078125
60350,-0.2209320068359375,1.037872314453125,0.4080963134765625
60351,-0.2343292236328125,1.007537841796875,0.493255615234375
60352,-0.2412109375,0.977813720703125,0.5418243408203125
60353,-0.24346923828125,0.93548583984375,0.534698486328125
60354,-0.243255615234375,0.9033050537109376,0.4802093505859375
60355,-0.233795166015625,0.8752899169921875,0.44207763671875
60356,-0.23052978515625,0.862884521484375,0.41497802734375
60357,-0.2226104736328125,0.8411865234375,0.384613037109375
60358,-0.218719482421875,0.815460205078125,0.3689117431640625
60359,-0.2327117919921875,0.8035736083984375,0.366729736328125
60360,-0.2440948486328125,0.7884979248046875,0.3980255126953125
60361,-0.24041748046875,0.7540130615234375,0.42230224609375
60362,-0.2429046630859375,0.71612548828125,0.41851806640625
60363,-0.240997314453125,0.6723480224609375,0.429473876953125
60364,-0.233306884765625,0.62762451171875,0.441192626953125
60365,-0.235504150390625,0.583770751953125,0.44818115234375
60366,-0.24554443359375,0.544921875,0.4533843994140625
60367,-0.2875213623046875,0.5496826171875,0.45245361328125
60368,-0.3530426025390625,0.6223297119140625,0.4449310302734375
60369,-0.392547607421875,0.72088623046875,0.464141845703125
60370,-0.400970458984375,0.785552978515625,0.5314178466796875
60371,-0.3814544677734375,0.83526611328125,0.6020660400390625
60372,-0.35888671875,0.8966217041015625,0.5850067138671875
60373,-0.3433380126953125,0.98712158203125,0.471954345703125
60374,-0.3201141357421875,1.086502075195312,0.34478759765625
60375,-0.3019866943359375,1.167266845703125,0.27447509765625
60376,-0.280914306640625,1.204254150390625,0.1936798095703125
60377,-0.2664031982421875,1.20623779296875,0.1109161376953125
60378,-0.2405242919921875,1.191802978515625,0.02947998046875
60379,-0.21258544921875,1.160293579101562,-0.0395050048828125
60380,-0.187469482421875,1.107940673828125,-0.03912353515625
60381,-0.170562744140625,1.06304931640625,0.0276947021484375
60382,-0.1477203369140625,1.036636352539062,0.0978851318359375
60383,-0.1199798583984375,1.003631591796875,0.121673583984375
60384,-0.0864105224609375,0.9617767333984376,0.125885009765625
60385,-0.0469207763671875,0.914520263671875,0.1479034423828125
60386,-0.0303802490234375,0.847381591796875,0.17645263671875
60387,-0.0152587890625,0.8046417236328125,0.188079833984375
60388,-9.1552734375e-05,0.805450439453125,0.189361572265625
60389,-0.0018157958984375,0.83599853515625,0.195037841796875
60390,-0.020843505859375,0.8799285888671875,0.2083740234375
60391,-0.05731201171875,0.938995361328125,0.214447021484375
60392,-0.103271484375,1.006210327148438,0.2164764404296875
60393,-0.156158447265625,1.056365966796875,0.2161102294921875
60394,-0.20880126953125,1.088302612304688,0.21282958984375
60395,-0.250946044921875,1.136093139648438,0.23077392578125
60396,-0.2792816162109375,1.2171630859375,0.2697296142578125
60397,-0.2802886962890625,1.300308227539062,0.2923736572265625
60398,-0.2576904296875,1.376571655273438,0.2744293212890625
60399,-0.233184814453125,1.424591064453125,0.2249908447265625
60400,-0.202850341796875,1.430770874023438,0.1522064208984375
60401,-0.180572509765625,1.377639770507812,0.074554443359375
60402,-0.152618408203125,1.260848999023438,0.0366363525390625
60403,-0.135284423828125,1.124237060546875,0.0532379150390625
60404,-0.1466827392578125,1.015548706054688,0.0929412841796875
60405,-0.167877197265625,0.953948974609375,0.1467437744140625
60406,-0.1868896484375,0.89361572265625,0.193145751953125
60407,-0.208709716796875,0.853057861328125,0.2178497314453125
60408,-0.2276763916015625,0.828857421875,0.2290496826171875
60409,-0.24298095703125,0.81103515625,0.240478515625
60410,-0.2534332275390625,0.7959442138671875,0.2660369873046875
60411,-0.2576904296875,0.79742431640625,0.2903900146484375
60412,-0.2608489990234375,0.7837982177734375,0.3185882568359375
60413,-0.267913818359375,0.7762298583984375,0.364044189453125
60414,-0.2689208984375,0.7896575927734375,0.411834716796875
60415,-0.2625732421875,0.78594970703125,0.461639404296875
60416,-0.256317138671875,0.7874298095703125,0.5248260498046875
60417,-0.2650146484375,0.8031463623046875,0.6053619384765625
60418,-0.27880859375,0.8306427001953125,0.6703948974609375
60419,-0.2831268310546875,0.8426513671875,0.6949615478515625
60420,-0.2784881591796875,0.8364715576171875,0.67388916015625
60421,-0.267242431640625,0.7999725341796875,0.649810791015625
60422,-0.243621826171875,0.68719482421875,0.6320343017578125
60423,-0.22662353515625,0.5208892822265625,0.5790863037109375
60424,-0.2392425537109375,0.4460601806640625,0.5259246826171875
60425,-0.253021240234375,0.4397125244140625,0.526763916015625
60426,-0.2537689208984375,0.457000732421875,0.542449951171875
60427,-0.2602691650390625,0.4918212890625,0.5528106689453125
60428,-0.2742462158203125,0.5428009033203125,0.5710906982421875
60429,-0.2960968017578125,0.6143798828125,0.5870819091796875
60430,-0.3208465576171875,0.6931304931640625,0.568084716796875
60431,-0.339141845703125,0.759796142578125,0.519195556640625
60432,-0.3411102294921875,0.8172454833984375,0.4618988037109375
60433,-0.3133544921875,0.8892669677734375,0.4231414794921875
60434,-0.2408294677734375,1.009063720703125,0.3726654052734375
60435,-0.1558837890625,1.164108276367188,0.300933837890625
60436,-0.0890350341796875,1.311065673828125,0.266998291015625
60437,-0.011444091796875,1.440353393554688,0.2547607421875
60438,0.0782623291015625,1.505538940429688,0.192901611328125
60439,0.163909912109375,1.491806030273438,0.048126220703125
60440,0.219207763671875,1.438125610351562,-0.061004638671875
60441,0.207733154296875,1.288223266601562,-0.067047119140625
60442,0.07489013671875,1.121658325195312,0.020172119140625
60443,-0.0841217041015625,1.049911499023438,0.1149444580078125
60444,-0.1904449462890625,1.001022338867188,0.2045745849609375
60445,-0.257110595703125,0.9391937255859376,0.3017578125
60446,-0.307159423828125,0.8883819580078125,0.352447509765625
60447,-0.359619140625,0.8661346435546875,0.3451690673828125
60448,-0.385986328125,0.8459930419921875,0.3575592041015625
60449,-0.369781494140625,0.816375732421875,0.36724853515625
60450,-0.337860107421875,0.818145751953125,0.345489501953125
60451,-0.2696075439453125,0.8655548095703125,0.328369140625
60452,-0.1829986572265625,0.9627685546875,0.34375
60453,-0.10528564453125,1.076400756835938,0.386932373046875
60454,-0.031494140625,1.156448364257812,0.4304962158203125
60455,0.0330810546875,1.198013305664062,0.449951171875
60456,0.0883636474609375,1.180374145507812,0.416290283203125
60457,0.1195526123046875,1.11505126953125,0.34222412109375
60458,0.12591552734375,1.051483154296875,0.266632080078125
60459,0.113250732421875,1.019500732421875,0.208770751953125
60460,0.0837554931640625,1.022064208984375,0.15960693359375
60461,0.053070068359375,1.038055419921875,0.1398162841796875
60462,0.023101806640625,1.045791625976562,0.15093994140625
60463,-0.006591796875,1.0362548828125,0.1822967529296875
60464,-0.0297393798828125,1.018997192382812,0.21026611328125
60465,-0.0448455810546875,1.000717163085938,0.2297515869140625
60466,-0.0543975830078125,0.9793701171875,0.258514404296875
60467,-0.06036376953125,0.96002197265625,0.301361083984375
60468,-0.0833282470703125,0.9210968017578124,0.2912750244140625
60469,-0.11944580078125,0.9000244140625,0.3042755126953125
60470,-0.1399383544921875,0.8905181884765625,0.362823486328125
60471,-0.149169921875,0.8902740478515625,0.3929595947265625
60472,-0.15655517578125,0.8882293701171875,0.4013824462890625
60473,-0.165435791015625,0.8857574462890625,0.4011688232421875
60474,-0.1781005859375,0.87530517578125,0.3965301513671875
60475,-0.192596435546875,0.861968994140625,0.4052734375
60476,-0.2133331298828125,0.846527099609375,0.4242401123046875
60477,-0.243804931640625,0.82781982421875,0.4289093017578125
60478,-0.265655517578125,0.8079071044921875,0.4297332763671875
60479,-0.2796783447265625,0.7799530029296875,0.420623779296875
60480,-0.29974365234375,0.76678466796875,0.426727294921875
60481,-0.3064422607421875,0.72833251953125,0.4372100830078125
60482,-0.318206787109375,0.6934814453125,0.4407501220703125
60483,-0.3303680419921875,0.6650848388671875,0.44488525390625
60484,-0.3271484375,0.634033203125,0.4556121826171875
60485,-0.3163604736328125,0.6164398193359375,0.4706878662109375
60486,-0.2986602783203125,0.608978271484375,0.4943389892578125
60487,-0.27178955078125,0.6146392822265625,0.5371856689453125
60488,-0.2403106689453125,0.63275146484375,0.56622314453125
60489,-0.224151611328125,0.6718597412109375,0.577606201171875
60490,-0.2247314453125,0.7313995361328125,0.57403564453125
60491,-0.2385711669921875,0.7999114990234375,0.550933837890625
60492,-0.25311279296875,0.8698577880859375,0.508880615234375
60493,-0.25445556640625,0.930084228515625,0.4384307861328125
60494,-0.2428131103515625,0.98529052734375,0.3465423583984375
60495,-0.224151611328125,1.037750244140625,0.2516021728515625
60496,-0.191314697265625,1.084671020507812,0.1807708740234375
60497,-0.138397216796875,1.131637573242188,0.1202392578125
60498,-0.076324462890625,1.169570922851562,0.059906005859375
60499,-0.0078125,1.194473266601562,0.0130615234375
60500,0.060455322265625,1.181793212890625,-0.0083770751953125
60501,0.090087890625,1.132049560546875,0.0170135498046875
60502,0.0735931396484375,1.0841064453125,0.115081787109375
60503,0.027740478515625,1.012588500976562,0.23675537109375
60504,-0.020904541015625,0.9325103759765624,0.3380126953125
60505,-0.06475830078125,0.8717193603515625,0.41851806640625
60506,-0.0982208251953125,0.8468170166015625,0.4720916748046875
60507,-0.12078857421875,0.850830078125,0.50640869140625
60508,-0.1282806396484375,0.872314453125,0.5063934326171875
60509,-0.1215362548828125,0.9041900634765624,0.4980621337890625
60510,-0.1001434326171875,0.9403228759765624,0.49737548828125
60511,-0.0811309814453125,0.9769134521484376,0.4703369140625
60512,-0.068450927734375,1.014923095703125,0.4311676025390625
60513,-0.05987548828125,1.050018310546875,0.4136962890625
60514,-0.065185546875,1.10845947265625,0.4134979248046875
60515,-0.06976318359375,1.187591552734375,0.4195098876953125
60516,-0.075775146484375,1.26788330078125,0.4195556640625
60517,-0.0774078369140625,1.33221435546875,0.4022064208984375
60518,-0.0750274658203125,1.357650756835938,0.3500823974609375
60519,-0.0799407958984375,1.343765258789062,0.265350341796875
60520,-0.089111328125,1.2689208984375,0.1771087646484375
60521,-0.0958404541015625,1.160430908203125,0.1353759765625
60522,-0.0940704345703125,1.067626953125,0.12249755859375
60523,-0.080047607421875,1.001724243164062,0.1289825439453125
60524,-0.0642242431640625,0.9578704833984376,0.140960693359375
60525,-0.0529937744140625,0.923583984375,0.1510772705078125
60526,-0.046051025390625,0.8943023681640625,0.1683197021484375
60527,-0.048583984375,0.874359130859375,0.177215576171875
60528,-0.0583343505859375,0.8513946533203125,0.18487548828125
60529,-0.0744781494140625,0.8328704833984375,0.197509765625
60530,-0.0932464599609375,0.8163909912109375,0.2362060546875
60531,-0.116607666015625,0.8087921142578125,0.307861328125
60532,-0.1364288330078125,0.81689453125,0.3732147216796875
60533,-0.1507568359375,0.8301849365234375,0.4510955810546875
60534,-0.1621856689453125,0.843902587890625,0.5348052978515625
60535,-0.1619415283203125,0.845947265625,0.59259033203125
60536,-0.145782470703125,0.8413238525390625,0.5840606689453125
60537,-0.1309814453125,0.8195953369140625,0.53118896484375
60538,-0.10797119140625,0.797607421875,0.50946044921875
60539,-0.0814666748046875,0.7662811279296875,0.51873779296875
60540,-0.070037841796875,0.7083282470703125,0.554962158203125
60541,-0.083099365234375,0.6463165283203125,0.596435546875
60542,-0.1136932373046875,0.5976715087890625,0.6145172119140625
60543,-0.1493682861328125,0.5657958984375,0.614990234375
60544,-0.1781158447265625,0.559112548828125,0.6239166259765625
60545,-0.2051544189453125,0.5789337158203125,0.6409912109375
60546,-0.2357177734375,0.617523193359375,0.6641998291015625
60547,-0.2772369384765625,0.680572509765625,0.6732330322265625
60548,-0.3216400146484375,0.750823974609375,0.6595001220703125
60549,-0.3610076904296875,0.798248291015625,0.626068115234375
60550,-0.3672332763671875,0.8278656005859375,0.594482421875
60551,-0.3342132568359375,0.8790283203125,0.575469970703125
60552,-0.2637176513671875,0.9872283935546876,0.5646820068359375
60553,-0.189208984375,1.123306274414062,0.550872802734375
60554,-0.12432861328125,1.249542236328125,0.52154541015625
60555,-0.07257080078125,1.328445434570312,0.4728240966796875
60556,-0.045318603515625,1.328720092773438,0.3695526123046875
60557,-0.05743408203125,1.272781372070312,0.2252044677734375
60558,-0.0943603515625,1.1953125,0.095947265625
60559,-0.12030029296875,1.105194091796875,0.01947021484375
60560,-0.1370391845703125,0.98553466796875,0.00689697265625
60561,-0.168914794921875,0.8699188232421875,0.03961181640625
60562,-0.208465576171875,0.772064208984375,0.0926666259765625
60563,-0.240631103515625,0.7166748046875,0.1510467529296875
60564,-0.2610321044921875,0.6889190673828125,0.2061004638671875
60565,-0.2727203369140625,0.6793670654296875,0.2485198974609375
60566,-0.286834716796875,0.6727752685546875,0.260894775390625
60567,-0.29461669921875,0.682525634765625,0.25543212890625
60568,-0.2928314208984375,0.7113189697265625,0.25177001953125
60569,-0.28485107421875,0.77294921875,0.24908447265625
60570,-0.2717437744140625,0.86309814453125,0.26898193359375
60571,-0.2288970947265625,0.9709320068359376,0.3300018310546875
60572,-0.1551361083984375,1.081558227539062,0.36077880859375
60573,-0.0574798583984375,1.184982299804688,0.3455047607421875
60574,0.0709228515625,1.261520385742188,0.29132080078125
60575,0.20050048828125,1.294998168945312,0.20654296875
60576,0.3119354248046875,1.313507080078125,0.1082916259765625
60577,0.378875732421875,1.327423095703125,0.0005340576171875
60578,0.3820037841796875,1.333908081054688,-0.08843994140625
60579,0.3392486572265625,1.32305908203125,-0.1143798828125
60580,0.2764892578125,1.334915161132812,-0.0305633544921875
60581,0.20062255859375,1.273483276367188,-0.0772552490234375
60582,0.1232757568359375,1.170257568359375,-0.1004791259765625
60583,0.04620361328125,1.161209106445312,0.08197021484375
60584,-0.0369873046875,1.140426635742188,0.304779052734375
60585,-0.113616943359375,1.08245849609375,0.459869384765625
60586,-0.2050628662109375,1.039337158203125,0.5312042236328125
60587,-0.2902984619140625,1.069076538085938,0.5009918212890625
60588,-0.3603363037109375,1.106002807617188,0.3974151611328125
60589,-0.40704345703125,1.089096069335938,0.3203277587890625
60590,-0.4225616455078125,1.018142700195312,0.326751708984375
60591,-0.4138946533203125,0.906707763671875,0.38409423828125
60592,-0.394500732421875,0.8124847412109375,0.4785919189453125
60593,-0.373321533203125,0.755157470703125,0.5628204345703125
60594,-0.3512115478515625,0.7291107177734375,0.581024169921875
60595,-0.3396148681640625,0.7394561767578125,0.5276336669921875
60596,-0.340545654296875,0.75592041015625,0.484710693359375
60597,-0.322662353515625,0.7426605224609375,0.4970703125
60598,-0.3118743896484375,0.699493408203125,0.512359619140625
60599,-0.317718505859375,0.648712158203125,0.5543060302734375
60600,-0.34912109375,0.6172943115234375,0.6270904541015625
60601,-0.4210052490234375,0.6265106201171875,0.6808929443359375
60602,-0.464508056640625,0.659454345703125,0.6587066650390625
60603,-0.449371337890625,0.6689605712890625,0.61053466796875
60604,-0.41131591796875,0.676544189453125,0.55450439453125
60605,-0.367340087890625,0.7079315185546875,0.4892730712890625
60606,-0.331268310546875,0.7480926513671875,0.4307708740234375
60607,-0.299285888671875,0.7982177734375,0.361480712890625
60608,-0.2763671875,0.87225341796875,0.2884521484375
60609,-0.254058837890625,0.9369659423828124,0.23956298828125
60610,-0.2353668212890625,1.006103515625,0.185150146484375
60611,-0.2143402099609375,1.064071655273438,0.117462158203125
60612,-0.1894989013671875,1.131484985351562,0.0770111083984375
60613,-0.1540069580078125,1.208816528320312,0.057159423828125
60614,-0.1309814453125,1.266006469726562,0.0382537841796875
60615,-0.0912322998046875,1.2930908203125,0.027557373046875
60616,-0.0329132080078125,1.283554077148438,0.0277862548828125
60617,0.0391998291015625,1.2340087890625,0.040557861328125
60618,0.0797882080078125,1.075637817382812,0.077484130859375
60619,0.080596923828125,0.905731201171875,0.1386871337890625
60620,0.052337646484375,0.8079986572265625,0.2284088134765625
60621,0.0137786865234375,0.7733612060546875,0.297332763671875
60622,-0.0143280029296875,0.771636962890625,0.34429931640625
60623,-0.0366058349609375,0.7826690673828125,0.37237548828125
60624,-0.04718017578125,0.7892608642578125,0.3758392333984375
60625,-0.0315704345703125,0.778594970703125,0.3715972900390625
60626,-0.00347900390625,0.76275634765625,0.351654052734375
60627,-0.002655029296875,0.75421142578125,0.327362060546875
60628,-0.0377044677734375,0.781341552734375,0.3243408203125
60629,-0.09130859375,0.847686767578125,0.33221435546875
60630,-0.1371917724609375,0.94012451171875,0.319580078125
60631,-0.161224365234375,1.05352783203125,0.29229736328125
60632,-0.168701171875,1.186233520507812,0.28271484375
60633,-0.1679840087890625,1.318572998046875,0.2675323486328125
60634,-0.1561737060546875,1.415481567382812,0.212310791015625
60635,-0.1424407958984375,1.4638671875,0.1344146728515625
60636,-0.1340789794921875,1.451004028320312,0.0643463134765625
60637,-0.1356201171875,1.383224487304688,0.0184326171875
60638,-0.140594482421875,1.293670654296875,0.015716552734375
60639,-0.1429595947265625,1.22113037109375,0.0289459228515625
60640,-0.1418304443359375,1.184066772460938,0.05181884765625
60641,-0.1136932373046875,1.12615966796875,0.063323974609375
60642,-0.07794189453125,1.024948120117188,0.0204620361328125
60643,-0.08038330078125,0.98724365234375,0.0256805419921875
60644,-0.0947418212890625,0.971832275390625,0.074005126953125
60645,-0.09454345703125,0.9441070556640624,0.1334075927734375
60646,-0.0946044921875,0.9277496337890624,0.203765869140625
60647,-0.1139373779296875,0.9234466552734376,0.29327392578125
60648,-0.1309967041015625,0.9134521484375,0.411865234375
60649,-0.1540374755859375,0.89959716796875,0.5382080078125
60650,-0.1823577880859375,0.8721771240234375,0.6179046630859375
60651,-0.19769287109375,0.836639404296875,0.6285858154296875
60652,-0.209320068359375,0.791778564453125,0.6145172119140625
60653,-0.2241668701171875,0.7414093017578125,0.5984039306640625
60654,-0.2225341796875,0.6849517822265625,0.5760040283203125
60655,-0.21002197265625,0.6103515625,0.5506591796875
60656,-0.2041015625,0.5615234375,0.5348052978515625
60657,-0.2059173583984375,0.5540771484375,0.5331878662109375
60658,-0.2068023681640625,0.5434417724609375,0.5373077392578125
60659,-0.2088775634765625,0.5264434814453125,0.5733489990234375
60660,-0.215301513671875,0.5076446533203125,0.6379852294921875
60661,-0.2288055419921875,0.5095062255859375,0.718414306640625
60662,-0.2511749267578125,0.550689697265625,0.785552978515625
60663,-0.2887420654296875,0.649261474609375,0.807830810546875
60664,-0.31683349609375,0.7801513671875,0.752471923828125
60665,-0.3243560791015625,0.894378662109375,0.66424560546875
60666,-0.3148040771484375,0.9931793212890624,0.590576171875
60667,-0.28057861328125,1.099502563476562,0.510345458984375
60668,-0.221466064453125,1.220108032226562,0.45733642578125
60669,-0.1514739990234375,1.34033203125,0.4446563720703125
60670,-0.081878662109375,1.442047119140625,0.46429443359375
60671,-0.0035858154296875,1.476486206054688,0.45806884765625
60672,0.0646209716796875,1.46630859375,0.3674163818359375
60673,0.0806121826171875,1.4251708984375,0.2225494384765625
60674,0.0513153076171875,1.3443603515625,0.09027099609375
60675,0.0015869140625,1.223129272460938,-0.018646240234375
60676,-0.0418243408203125,1.082992553710938,-0.100921630859375
60677,-0.07861328125,0.9579925537109376,-0.143341064453125
60678,-0.1052093505859375,0.8571319580078125,-0.1402435302734375
60679,-0.1508636474609375,0.7802886962890625,-0.1275482177734375
60680,-0.240692138671875,0.748687744140625,-0.0982818603515625
60681,-0.33453369140625,0.7435760498046875,-0.0253448486328125
60682,-0.3966217041015625,0.744720458984375,0.0869903564453125
60683,-0.4260101318359375,0.75408935546875,0.2065277099609375
60684,-0.421600341796875,0.783050537109375,0.3049774169921875
60685,-0.38818359375,0.8153228759765625,0.3658294677734375
60686,-0.3455047607421875,0.8524627685546875,0.3824005126953125
60687,-0.2829437255859375,0.89447021484375,0.346343994140625
60688,-0.1887359619140625,0.9332122802734376,0.288848876953125
60689,-0.0726165771484375,0.965972900390625,0.246734619140625
60690,0.0414581298828125,1.00079345703125,0.2339019775390625
60691,0.1508026123046875,1.029022216796875,0.266754150390625
60692,0.240875244140625,1.07391357421875,0.282073974609375
60693,0.30096435546875,1.113174438476562,0.222625732421875
60694,0.32275390625,1.142410278320312,0.133575439453125
60695,0.2875518798828125,1.155517578125,0.0387115478515625
60696,0.1970977783203125,1.130859375,-0.01446533203125
60697,0.070556640625,1.075485229492188,-0.0059661865234375
60698,-0.0150604248046875,1.0264892578125,-0.02081298828125
60699,-0.0716094970703125,1.001724243164062,-0.0845489501953125
60700,-0.099090576171875,0.9906768798828124,-0.139312744140625
60701,-0.097930908203125,0.974395751953125,-0.1561126708984375
60702,-0.0843505859375,0.9698638916015624,-0.1314239501953125
60703,-0.07623291015625,0.96136474609375,-0.08642578125
60704,-0.061767578125,0.9423065185546876,0.0001983642578125
60705,-0.0559844970703125,0.9212188720703124,0.1042633056640625
60706,-0.0595245361328125,0.9061126708984376,0.1805419921875
60707,-0.0776519775390625,0.8980560302734375,0.220855712890625
60708,-0.1049957275390625,0.8785400390625,0.2555084228515625
60709,-0.138824462890625,0.8588409423828125,0.3070526123046875
60710,-0.1707916259765625,0.84002685546875,0.3747100830078125
60711,-0.217315673828125,0.845977783203125,0.41986083984375
60712,-0.26751708984375,0.864654541015625,0.46807861328125
60713,-0.30908203125,0.894866943359375,0.50543212890625
60714,-0.34906005859375,0.9139556884765624,0.5083160400390625
60715,-0.364990234375,0.911407470703125,0.52783203125
60716,-0.369110107421875,0.8764190673828125,0.5198211669921875
60717,-0.3621063232421875,0.8380126953125,0.50750732421875
60718,-0.3634185791015625,0.8125457763671875,0.5361785888671875
60719,-0.4054412841796875,0.7979278564453125,0.61834716796875
60720,-0.4420013427734375,0.8057861328125,0.7039642333984375
60721,-0.45355224609375,0.829803466796875,0.7718505859375
60722,-0.4332275390625,0.8456573486328125,0.8037261962890625
60723,-0.4026641845703125,0.8565826416015625,0.779998779296875
60724,-0.3765411376953125,0.864776611328125,0.7315826416015625
60725,-0.369415283203125,0.8857574462890625,0.6934356689453125
60726,-0.3805999755859375,0.9274444580078124,0.641998291015625
60727,-0.386566162109375,0.986236572265625,0.551849365234375
60728,-0.363067626953125,1.051925659179688,0.4427490234375
60729,-0.3203125,1.114944458007812,0.341949462890625
60730,-0.277069091796875,1.160018920898438,0.2639312744140625
60731,-0.217559814453125,1.20452880859375,0.1956634521484375
60732,-0.1573486328125,1.233016967773438,0.130096435546875
60733,-0.0913238525390625,1.244903564453125,0.131866455078125
60734,-0.0238037109375,1.235275268554688,0.154632568359375
60735,0.0465240478515625,1.18798828125,0.1661224365234375
60736,0.1465911865234375,1.085906982421875,0.164093017578125
60737,0.2067108154296875,0.9673614501953124,0.17974853515625
60738,0.2034149169921875,0.84674072265625,0.2060546875
60739,0.15789794921875,0.7745513916015625,0.2529449462890625
60740,0.1063079833984375,0.7533416748046875,0.32965087890625
60741,0.06695556640625,0.7677764892578125,0.3889617919921875
60742,0.03759765625,0.7910919189453125,0.409027099609375
60743,0.0175628662109375,0.79327392578125,0.4047393798828125
60744,-0.0075836181640625,0.7938385009765625,0.376373291015625
60745,-0.038818359375,0.81378173828125,0.334136962890625
60746,-0.08154296875,0.86993408203125,0.288604736328125
60747,-0.1220855712890625,0.9573516845703124,0.23602294921875
60748,-0.154815673828125,1.069351196289062,0.1887359619140625
60749,-0.162628173828125,1.190277099609375,0.1548004150390625
60750,-0.146392822265625,1.279327392578125,0.129302978515625
60751,-0.11822509765625,1.327316284179688,0.1226806640625
60752,-0.0951995849609375,1.3441162109375,0.1218719482421875
60753,-0.083984375,1.330230712890625,0.1232147216796875
60754,-0.0772857666015625,1.287704467773438,0.112335205078125
60755,-0.0621490478515625,1.215225219726562,0.0942840576171875
60756,-0.056427001953125,1.139053344726562,0.0719451904296875
60757,-0.0564422607421875,1.061691284179688,0.063812255859375
60758,-0.0600128173828125,1.007110595703125,0.06982421875
60759,-0.0684356689453125,0.96710205078125,0.08380126953125
60760,-0.0840911865234375,0.93829345703125,0.114349365234375
60761,-0.106048583984375,0.9206085205078124,0.1595611572265625
60762,-0.13427734375,0.91558837890625,0.2144012451171875
60763,-0.1634979248046875,0.927734375,0.2741851806640625
60764,-0.1893157958984375,0.9276580810546876,0.3326263427734375
60765,-0.2084808349609375,0.9122467041015624,0.407073974609375
60766,-0.2195281982421875,0.89013671875,0.5122833251953125
60767,-0.228118896484375,0.8651275634765625,0.606292724609375
60768,-0.2308349609375,0.847808837890625,0.6849822998046875
60769,-0.23699951171875,0.8563232421875,0.7302093505859375
60770,-0.2562255859375,0.86376953125,0.7369232177734375
60771,-0.27923583984375,0.8650665283203125,0.7232666015625
60772,-0.300933837890625,0.8695220947265625,0.6953277587890625
60773,-0.2890472412109375,0.8490753173828125,0.68023681640625
60774,-0.212554931640625,0.7478485107421875,0.6773223876953125
60775,-0.1241455078125,0.6214599609375,0.666717529296875
60776,-0.0808258056640625,0.5902099609375,0.662872314453125
60777,-0.068634033203125,0.60137939453125,0.6419219970703125
60778,-0.074310302734375,0.6084747314453125,0.6158447265625
60779,-0.1002960205078125,0.6244659423828125,0.6009521484375
60780,-0.1412506103515625,0.655670166015625,0.5982818603515625
60781,-0.1959228515625,0.7060394287109375,0.5954437255859375
60782,-0.2438201904296875,0.772491455078125,0.5596771240234375
60783,-0.2810821533203125,0.8331756591796875,0.4954376220703125
60784,-0.3081512451171875,0.8885955810546875,0.42724609375
60785,-0.3265228271484375,0.922607421875,0.382781982421875
60786,-0.3245086669921875,0.9528045654296876,0.3450164794921875
60787,-0.2845001220703125,1.002838134765625,0.296844482421875
60788,-0.221466064453125,1.076202392578125,0.2382659912109375
60789,-0.1764068603515625,1.171585083007812,0.194671630859375
60790,-0.154022216796875,1.25982666015625,0.173858642578125
60791,-0.1067352294921875,1.27978515625,0.1159820556640625
60792,-0.0656280517578125,1.25115966796875,0.010009765625
60793,-0.0512542724609375,1.18792724609375,-0.06951904296875
60794,-0.0428924560546875,1.071075439453125,-0.06561279296875
60795,-0.06829833984375,0.9546051025390624,-0.059295654296875
60796,-0.1230926513671875,0.8720703125,-0.0567779541015625
60797,-0.1747894287109375,0.830169677734375,-0.00439453125
60798,-0.231475830078125,0.8154754638671875,0.0873565673828125
60799,-0.2838897705078125,0.8160400390625,0.1773223876953125
60800,-0.3116912841796875,0.8087005615234375,0.2382965087890625
60801,-0.3236846923828125,0.781402587890625,0.259765625
60802,-0.3230743408203125,0.759735107421875,0.2785797119140625
60803,-0.2912139892578125,0.78271484375,0.3088836669921875
60804,-0.2386932373046875,0.8551025390625,0.34326171875
60805,-0.19482421875,0.94012451171875,0.376373291015625
60806,-0.153167724609375,1.00396728515625,0.3876800537109375
60807,-0.1081695556640625,1.064437866210938,0.3816070556640625
60808,-0.0706787109375,1.117431640625,0.3456878662109375
60809,-0.0349884033203125,1.154037475585938,0.2976531982421875
60810,4.57763671875e-05,1.176055908203125,0.237579345703125
60811,0.0289764404296875,1.195098876953125,0.1627044677734375
60812,0.0613861083984375,1.207412719726562,0.091644287109375
60813,0.0926971435546875,1.196334838867188,0.0336761474609375
60814,0.114471435546875,1.187896728515625,0.003509521484375
60815,0.11798095703125,1.185073852539062,0.0152587890625
60816,0.0948333740234375,1.18231201171875,0.076141357421875
60817,0.0650482177734375,1.16845703125,0.09014892578125
60818,0.0332794189453125,1.122894287109375,0.0509185791015625
60819,-0.0204925537109375,1.1024169921875,0.0756378173828125
60820,-0.08013916015625,1.072158813476562,0.1555938720703125
60821,-0.1285858154296875,1.020401000976562,0.2284088134765625
60822,-0.1665496826171875,0.9667205810546876,0.28668212890625
60823,-0.2113189697265625,0.9273834228515624,0.3128204345703125
60824,-0.2529754638671875,0.8882598876953125,0.3187713623046875
60825,-0.30267333984375,0.8617401123046875,0.325347900390625
60826,-0.3390655517578125,0.824951171875,0.343719482421875
60827,-0.3572235107421875,0.788177490234375,0.3836822509765625
60828,-0.3515625,0.778594970703125,0.426025390625
60829,-0.3354339599609375,0.803680419921875,0.4578704833984375
60830,-0.338409423828125,0.8558807373046875,0.50830078125
60831,-0.322235107421875,0.8487396240234375,0.5500335693359375
60832,-0.32440185546875,0.8179931640625,0.598541259765625
60833,-0.35015869140625,0.7599639892578125,0.650177001953125
60834,-0.381866455078125,0.7092132568359375,0.662689208984375
60835,-0.4040679931640625,0.68316650390625,0.6473236083984375
60836,-0.42401123046875,0.66278076171875,0.607879638671875
60837,-0.4464874267578125,0.6602935791015625,0.57354736328125
60838,-0.473480224609375,0.67755126953125,0.5570526123046875
60839,-0.482208251953125,0.7004241943359375,0.5662841796875
60840,-0.472686767578125,0.735565185546875,0.56201171875
60841,-0.455078125,0.7816162109375,0.5396728515625
60842,-0.435272216796875,0.838348388671875,0.517486572265625
60843,-0.4170074462890625,0.8919830322265625,0.491058349609375
60844,-0.3902435302734375,0.9356689453125,0.4460906982421875
60845,-0.3639068603515625,0.99462890625,0.3563079833984375
60846,-0.3345184326171875,1.045852661132812,0.2660064697265625
60847,-0.30267333984375,1.085845947265625,0.191802978515625
60848,-0.2806243896484375,1.129074096679688,0.1629638671875
60849,-0.262451171875,1.131866455078125,0.1735076904296875
60850,-0.241607666015625,1.113540649414062,0.179290771484375
60851,-0.234588623046875,1.09893798828125,0.1786651611328125
60852,-0.21063232421875,1.0792236328125,0.174896240234375
60853,-0.1739959716796875,1.048614501953125,0.1968994140625
60854,-0.124908447265625,0.9918212890625,0.2370758056640625
60855,-0.040069580078125,0.9532623291015624,0.278472900390625
60856,0.0328216552734375,0.9078521728515624,0.34649658203125
60857,0.03466796875,0.8672943115234375,0.40130615234375
60858,-0.0059814453125,0.8666534423828125,0.4256744384765625
60859,-0.0547332763671875,0.8973236083984375,0.418975830078125
60860,-0.098480224609375,0.9426116943359376,0.3615264892578125
60861,-0.1511383056640625,0.9863739013671876,0.2794036865234375
60862,-0.21624755859375,1.0218505859375,0.2077484130859375
60863,-0.2763214111328125,1.062957763671875,0.156494140625
60864,-0.3222808837890625,1.122695922851562,0.12628173828125
60865,-0.3395538330078125,1.191436767578125,0.116455078125
60866,-0.32525634765625,1.24566650390625,0.108123779296875
60867,-0.2935333251953125,1.274932861328125,0.099700927734375
60868,-0.2484130859375,1.278366088867188,0.087799072265625
60869,-0.2022857666015625,1.26715087890625,0.07586669921875
60870,-0.1597442626953125,1.247161865234375,0.0619049072265625
60871,-0.12152099609375,1.203216552734375,0.0402069091796875
60872,-0.090545654296875,1.131942749023438,0.022705078125
60873,-0.07672119140625,1.057144165039062,0.024200439453125
60874,-0.084625244140625,0.9835662841796876,0.0472869873046875
60875,-0.1121826171875,0.919830322265625,0.0847930908203125
60876,-0.147796630859375,0.8758392333984375,0.114471435546875
60877,-0.185028076171875,0.829803466796875,0.148834228515625
60878,-0.2177734375,0.7858734130859375,0.2036895751953125
60879,-0.249237060546875,0.7466278076171875,0.263336181640625
60880,-0.2733306884765625,0.71136474609375,0.3107452392578125
60881,-0.2908477783203125,0.69775390625,0.3112945556640625
60882,-0.3197479248046875,0.73150634765625,0.284332275390625
60883,-0.335784912109375,0.804290771484375,0.3018646240234375
60884,-0.3363800048828125,0.8603515625,0.385650634765625
60885,-0.3275299072265625,0.9148406982421876,0.4830474853515625
60886,-0.3121490478515625,0.94146728515625,0.577362060546875
60887,-0.288909912109375,0.9190216064453124,0.6376495361328125
60888,-0.2609100341796875,0.88690185546875,0.6356048583984375
60889,-0.2303619384765625,0.8471832275390625,0.5992889404296875
60890,-0.199127197265625,0.7852630615234375,0.5622711181640625
60891,-0.172698974609375,0.718017578125,0.537506103515625
60892,-0.154693603515625,0.65606689453125,0.5233154296875
60893,-0.136322021484375,0.6190338134765625,0.515167236328125
60894,-0.1289825439453125,0.61822509765625,0.519744873046875
60895,-0.1365509033203125,0.642242431640625,0.5412445068359375
60896,-0.160919189453125,0.6797027587890625,0.570098876953125
60897,-0.1942291259765625,0.72210693359375,0.5883941650390625
60898,-0.2284393310546875,0.7652587890625,0.570526123046875
60899,-0.2557220458984375,0.8093414306640625,0.52813720703125
60900,-0.268402099609375,0.865875244140625,0.4754180908203125
60901,-0.265533447265625,0.9372100830078124,0.4315338134765625
60902,-0.2462005615234375,1.027084350585938,0.394134521484375
60903,-0.2099761962890625,1.123336791992188,0.3529205322265625
60904,-0.1669464111328125,1.202041625976562,0.2986907958984375
60905,-0.1232452392578125,1.234085083007812,0.2244873046875
60906,-0.08538818359375,1.22735595703125,0.139862060546875
60907,-0.0640411376953125,1.191802978515625,0.064666748046875
60908,-0.070831298828125,1.1334228515625,0.0191650390625
60909,-0.1011505126953125,1.056549072265625,0.0217742919921875
60910,-0.146484375,0.9952239990234376,0.0513458251953125
60911,-0.1985626220703125,0.9478302001953124,0.08929443359375
60912,-0.257720947265625,0.9025726318359376,0.1548004150390625
60913,-0.3170318603515625,0.8671722412109375,0.2276611328125
60914,-0.3628082275390625,0.814300537109375,0.2826385498046875
60915,-0.3910369873046875,0.7513427734375,0.3155059814453125
60916,-0.40081787109375,0.6900787353515625,0.325225830078125
60917,-0.3965911865234375,0.63702392578125,0.3348541259765625
60918,-0.38409423828125,0.598480224609375,0.350677490234375
60919,-0.36578369140625,0.59588623046875,0.3749542236328125
60920,-0.3274383544921875,0.64971923828125,0.396240234375
60921,-0.2618408203125,0.7699432373046875,0.4021148681640625
60922,-0.199432373046875,0.905364990234375,0.411865234375
60923,-0.1242523193359375,1.020217895507812,0.4237060546875
60924,-0.043914794921875,1.118148803710938,0.4005279541015625
60925,0.0345458984375,1.20111083984375,0.33856201171875
60926,0.10205078125,1.263656616210938,0.2762908935546875
60927,0.1573486328125,1.308486938476562,0.2034912109375
60928,0.198089599609375,1.3468017578125,0.0982208251953125
60929,0.21405029296875,1.364227294921875,-0.007354736328125
60930,0.186920166015625,1.352081298828125,-0.0722503662109375
60931,0.1195831298828125,1.3154296875,-0.115081787109375
60932,0.0453033447265625,1.282989501953125,-0.074371337890625
60933,-0.0075836181640625,1.203842163085938,-0.1266937255859375
60934,-0.0485992431640625,1.088836669921875,-0.1702880859375
60935,-0.0859222412109375,1.059158325195312,-0.0453643798828125
60936,-0.1529541015625,1.0701904296875,0.143829345703125
60937,-0.218780517578125,1.05560302734375,0.300048828125
60938,-0.26800537109375,1.013275146484375,0.398162841796875
60939,-0.3210296630859375,0.996856689453125,0.4133758544921875
60940,-0.369598388671875,1.01898193359375,0.384033203125
60941,-0.3844451904296875,1.033050537109375,0.392303466796875
60942,-0.375091552734375,1.002853393554688,0.45245361328125
60943,-0.3464813232421875,0.9442596435546876,0.540008544921875
60944,-0.3265228271484375,0.9040985107421876,0.6074066162109375
60945,-0.32073974609375,0.882293701171875,0.592987060546875
60946,-0.30755615234375,0.8597259521484375,0.5347747802734375
60947,-0.2845001220703125,0.8353118896484375,0.4672088623046875
60948,-0.2483062744140625,0.7964630126953125,0.4103240966796875
60949,-0.222900390625,0.7840576171875,0.374176025390625
60950,-0.22283935546875,0.8151092529296875,0.38018798828125
60951,-0.2617340087890625,0.8510284423828125,0.4257659912109375
60952,-0.2939300537109375,0.831695556640625,0.4478607177734375
60953,-0.3051910400390625,0.7873687744140625,0.44903564453125
60954,-0.3037261962890625,0.7676849365234375,0.4260406494140625
60955,-0.28887939453125,0.7488250732421875,0.3936614990234375
60956,-0.26690673828125,0.7223968505859375,0.36248779296875
60957,-0.2494964599609375,0.702178955078125,0.3282012939453125
60958,-0.2466888427734375,0.7011566162109375,0.2795257568359375
60959,-0.2546539306640625,0.7202911376953125,0.2300567626953125
60960,-0.2791900634765625,0.75958251953125,0.188629150390625
60961,-0.3095245361328125,0.818359375,0.1667327880859375
60962,-0.3363494873046875,0.8936920166015625,0.1634521484375
60963,-0.3489532470703125,0.9693145751953124,0.174346923828125
60964,-0.3492279052734375,1.028579711914062,0.16314697265625
60965,-0.3386383056640625,1.06768798828125,0.1423797607421875
60966,-0.32867431640625,1.085769653320312,0.1069488525390625
60967,-0.3213043212890625,1.0863037109375,0.0751190185546875
60968,-0.2898101806640625,1.076522827148438,0.072967529296875
60969,-0.2386016845703125,1.056304931640625,0.0975494384765625
60970,-0.1510772705078125,1.046234130859375,0.1466522216796875
60971,-0.040069580078125,1.015625,0.200286865234375
60972,0.0520782470703125,0.96435546875,0.259613037109375
60973,0.111663818359375,0.91986083984375,0.3285980224609375
60974,0.131439208984375,0.881195068359375,0.3855743408203125
60975,0.116851806640625,0.85205078125,0.3943023681640625
60976,0.078704833984375,0.853485107421875,0.391143798828125
60977,0.0442352294921875,0.8719329833984375,0.410369873046875
60978,0.0158233642578125,0.89404296875,0.437896728515625
60979,-0.020843505859375,0.92041015625,0.4564208984375
60980,-0.065887451171875,0.958831787109375,0.4543609619140625
60981,-0.1179046630859375,0.9871673583984376,0.4346466064453125
60982,-0.1673126220703125,1.004623413085938,0.377777099609375
60983,-0.2029266357421875,1.045303344726562,0.315765380859375
60984,-0.2296905517578125,1.128875732421875,0.2960357666015625
60985,-0.24835205078125,1.204193115234375,0.3110809326171875
60986,-0.2521209716796875,1.252349853515625,0.3172760009765625
60987,-0.24310302734375,1.285232543945312,0.2813720703125
60988,-0.218292236328125,1.307113647460938,0.215576171875
60989,-0.1810302734375,1.29388427734375,0.1455841064453125
60990,-0.1314849853515625,1.222015380859375,0.1002044677734375
60991,-0.077239990234375,1.101715087890625,0.0934295654296875
60992,-0.0558929443359375,0.9885711669921876,0.120208740234375
60993,-0.063507080078125,0.910797119140625,0.150634765625
60994,-0.09039306640625,0.8606414794921875,0.171875
60995,-0.13043212890625,0.8261871337890625,0.1905059814453125
60996,-0.1703033447265625,0.806671142578125,0.20245361328125
60997,-0.2003936767578125,0.7923583984375,0.2106170654296875
60998,-0.22564697265625,0.8012847900390625,0.23077392578125
60999,-0.2416839599609375,0.829833984375,0.262542724609375
61000,-0.2476654052734375,0.8689727783203125,0.303436279296875
61001,-0.251739501953125,0.9220733642578124,0.3743743896484375
61002,-0.2542266845703125,0.963531494140625,0.4647979736328125
61003,-0.257781982421875,0.982879638671875,0.544158935546875
61004,-0.2593536376953125,0.9763641357421876,0.5926055908203125
61005,-0.26007080078125,0.9454803466796876,0.603485107421875
61006,-0.2686920166015625,0.9005889892578125,0.60272216796875
61007,-0.26654052734375,0.8325347900390625,0.611968994140625
61008,-0.261077880859375,0.7636260986328125,0.6224822998046875
61009,-0.2483367919921875,0.710601806640625,0.6353912353515625
61010,-0.23492431640625,0.6654510498046875,0.648529052734375
61011,-0.2264556884765625,0.6295623779296875,0.64617919921875
61012,-0.2286376953125,0.6092681884765625,0.6312408447265625
61013,-0.235137939453125,0.6140899658203125,0.6216888427734375
61014,-0.262939453125,0.649078369140625,0.625885009765625
61015,-0.2884063720703125,0.7032928466796875,0.6518096923828125
61016,-0.30120849609375,0.7601470947265625,0.658966064453125
61017,-0.3057861328125,0.81121826171875,0.647918701171875
61018,-0.2874908447265625,0.8583984375,0.599151611328125
61019,-0.2584075927734375,0.903717041015625,0.5314178466796875
61020,-0.2153472900390625,0.941650390625,0.477142333984375
61021,-0.164642333984375,0.9945220947265624,0.4343719482421875
61022,-0.1200103759765625,1.063552856445312,0.4009552001953125
61023,-0.0687255859375,1.12738037109375,0.37896728515625
61024,-0.006622314453125,1.185791015625,0.33837890625
61025,0.0382080078125,1.215530395507812,0.2841033935546875
61026,0.0931854248046875,1.174270629882812,0.1984710693359375
61027,0.1079864501953125,1.148544311523438,0.062286376953125
61028,0.0786895751953125,1.11029052734375,-0.0331573486328125
61029,0.0445404052734375,1.03546142578125,-0.041839599609375
61030,-0.025665283203125,0.957427978515625,-0.0439605712890625
61031,-0.1170654296875,0.883758544921875,-0.0304412841796875
61032,-0.1890716552734375,0.831878662109375,0.01153564453125
61033,-0.2501220703125,0.80072021484375,0.0338897705078125
61034,-0.3141937255859375,0.7902984619140625,0.054443359375
61035,-0.362823486328125,0.7875823974609375,0.10980224609375
61036,-0.3965911865234375,0.7837066650390625,0.1832275390625
61037,-0.4160919189453125,0.7936553955078125,0.257293701171875
61038,-0.3827362060546875,0.8305511474609375,0.322601318359375
61039,-0.3007049560546875,0.8822021484375,0.3463897705078125
61040,-0.2001953125,0.927734375,0.3177032470703125
61041,-0.105255126953125,0.9564361572265624,0.2794036865234375
61042,-0.024322509765625,0.9796905517578124,0.2523040771484375
61043,0.038665771484375,1.015609741210938,0.234222412109375
61044,0.095458984375,1.052505493164062,0.2362060546875
61045,0.1437225341796875,1.082046508789062,0.2270965576171875
61046,0.186370849609375,1.097885131835938,0.2001495361328125
61047,0.2237701416015625,1.09033203125,0.18255615234375
61048,0.24267578125,1.06927490234375,0.172882080078125
61049,0.2345123291015625,1.047073364257812,0.1685638427734375
61050,0.20556640625,1.029067993164062,0.1657257080078125
61051,0.161346435546875,1.00909423828125,0.1806488037109375
61052,0.107269287109375,0.988555908203125,0.224884033203125
61053,0.0522003173828125,0.9647674560546876,0.2909698486328125
61054,-0.000152587890625,0.9407958984375,0.3513031005859375
61055,-0.0532989501953125,0.92108154296875,0.382293701171875
61056,-0.1084136962890625,0.9091033935546876,0.38177490234375
61057,-0.1596832275390625,0.9056854248046876,0.384429931640625
61058,-0.1957550048828125,0.914276123046875,0.3699188232421875
61059,-0.2299041748046875,0.921966552734375,0.37286376953125
61060,-0.2584381103515625,0.928955078125,0.3763580322265625
61061,-0.2720184326171875,0.94342041015625,0.3736572265625
61062,-0.2913055419921875,0.9587554931640624,0.379638671875
61063,-0.3091583251953125,0.9778289794921876,0.3930511474609375
61064,-0.311431884765625,1.00555419921875,0.422607421875
61065,-0.314178466796875,1.029571533203125,0.4869537353515625
61066,-0.3138275146484375,1.039520263671875,0.5666961669921875
61067,-0.318878173828125,1.039779663085938,0.6077423095703125
61068,-0.3242950439453125,1.012359619140625,0.5933380126953125
61069,-0.327789306640625,0.96319580078125,0.5462646484375
61070,-0.330474853515625,0.909210205078125,0.50323486328125
61071,-0.32635498046875,0.854217529296875,0.4724273681640625
61072,-0.3365478515625,0.8060302734375,0.453033447265625
61073,-0.3401947021484375,0.7610626220703125,0.4567108154296875
61074,-0.3520965576171875,0.7361907958984375,0.4702911376953125
61075,-0.3673248291015625,0.7304840087890625,0.477325439453125
61076,-0.381591796875,0.7586212158203125,0.4824371337890625
61077,-0.38299560546875,0.800384521484375,0.4874267578125
61078,-0.3665008544921875,0.83697509765625,0.4791717529296875
61079,-0.3462371826171875,0.8750762939453125,0.4681549072265625
61080,-0.3236083984375,0.9178924560546876,0.43768310546875
61081,-0.309417724609375,0.9647674560546876,0.3943939208984375
61082,-0.301513671875,1.003509521484375,0.3550262451171875
61083,-0.2983245849609375,1.04010009765625,0.3114776611328125
61084,-0.2863922119140625,1.07379150390625,0.2350311279296875
61085,-0.24969482421875,1.0924072265625,0.144287109375
61086,-0.2096099853515625,1.08819580078125,0.064788818359375
61087,-0.1692047119140625,1.074264526367188,0.0090179443359375
61088,-0.13531494140625,1.046112060546875,-0.0099334716796875
61089,-0.10626220703125,1.028671264648438,-0.014312744140625
61090,-0.085296630859375,0.9990692138671876,-0.00592041015625
61091,-0.0601959228515625,0.9849395751953124,0.0325164794921875
61092,-0.0252685546875,0.974212646484375,0.08551025390625
61093,0.012847900390625,0.956787109375,0.15380859375
61094,0.03533935546875,0.923736572265625,0.2315521240234375
61095,0.0228271484375,0.8792724609375,0.31549072265625
61096,-0.007659912109375,0.8613739013671875,0.37725830078125
61097,-0.04168701171875,0.88922119140625,0.397247314453125
61098,-0.063690185546875,0.9554595947265624,0.37359619140625
61099,-0.077392578125,1.040069580078125,0.3255615234375
61100,-0.0861358642578125,1.107559204101562,0.2552947998046875
61101,-0.095489501953125,1.143447875976562,0.165374755859375
61102,-0.1117095947265625,1.15283203125,0.1015777587890625
61103,-0.1356048583984375,1.1480712890625,0.0931243896484375
61104,-0.1622161865234375,1.151016235351562,0.1404876708984375
61105,-0.1826629638671875,1.1773681640625,0.2010955810546875
61106,-0.1907196044921875,1.219818115234375,0.2409820556640625
61107,-0.1848602294921875,1.24566650390625,0.23681640625
61108,-0.1791229248046875,1.241744995117188,0.18597412109375
61109,-0.1748809814453125,1.224716186523438,0.128814697265625
61110,-0.16546630859375,1.186294555664062,0.101715087890625
61111,-0.1629180908203125,1.152389526367188,0.1044921875
61112,-0.157135009765625,1.1016845703125,0.1344757080078125
61113,-0.148956298828125,1.038742065429688,0.166534423828125
61114,-0.1389923095703125,0.9642486572265624,0.18975830078125
61115,-0.1327362060546875,0.89508056640625,0.2146453857421875
61116,-0.1276397705078125,0.8245697021484375,0.2454681396484375
61117,-0.1295166015625,0.7663421630859375,0.2772064208984375
61118,-0.13043212890625,0.7230072021484375,0.3106231689453125
61119,-0.134979248046875,0.6990814208984375,0.334808349609375
61120,-0.1447906494140625,0.70074462890625,0.3559417724609375
61121,-0.153839111328125,0.71435546875,0.38311767578125
61122,-0.16033935546875,0.7385406494140625,0.4079742431640625
61123,-0.167205810546875,0.7621307373046875,0.4307098388671875
61124,-0.1760711669921875,0.78240966796875,0.451629638671875
61125,-0.18365478515625,0.8035125732421875,0.4636077880859375
61126,-0.1887054443359375,0.8229827880859375,0.48114013671875
61127,-0.190093994140625,0.8388214111328125,0.51068115234375
61128,-0.1876068115234375,0.840667724609375,0.545623779296875
61129,-0.1831817626953125,0.833740234375,0.5609893798828125
61130,-0.178619384765625,0.81488037109375,0.55120849609375
61131,-0.1828155517578125,0.7768096923828125,0.5277862548828125
61132,-0.181549072265625,0.7527618408203125,0.4873809814453125
61133,-0.1860809326171875,0.7546539306640625,0.4700927734375
61134,-0.2054901123046875,0.742340087890625,0.4697723388671875
61135,-0.230865478515625,0.742401123046875,0.4727020263671875
61136,-0.24639892578125,0.753387451171875,0.4825286865234375
61137,-0.2636566162109375,0.760650634765625,0.51202392578125
61138,-0.292755126953125,0.7698822021484375,0.545928955078125
61139,-0.313995361328125,0.7864990234375,0.5687713623046875
61140,-0.3123626708984375,0.80780029296875,0.5783233642578125
61141,-0.2904815673828125,0.8214874267578125,0.567352294921875
61142,-0.2574920654296875,0.8283233642578125,0.5415191650390625
61143,-0.223388671875,0.840118408203125,0.5162353515625
61144,-0.182769775390625,0.8550567626953125,0.4875946044921875
61145,-0.1419830322265625,0.878875732421875,0.447967529296875
61146,-0.1049957275390625,0.906097412109375,0.4051361083984375
61147,-0.0758819580078125,0.933013916015625,0.3654937744140625
61148,-0.05560302734375,0.9586944580078124,0.3211822509765625
61149,-0.0482940673828125,0.9888458251953124,0.2715911865234375
61150,-0.048797607421875,1.0142822265625,0.222412109375
61151,-0.0551605224609375,1.031204223632812,0.161285400390625
61152,-0.0648193359375,1.033157348632812,0.0884857177734375
61153,-0.082916259765625,1.017181396484375,0.0284423828125
61154,-0.1088104248046875,0.9940032958984376,-0.015533447265625
61155,-0.1453857421875,0.9731903076171876,-0.0340423583984375
61156,-0.2003173828125,0.9811553955078124,0.0059356689453125
61157,-0.2588043212890625,1.002777099609375,0.0923309326171875
61158,-0.3035736083984375,0.9750823974609376,0.1756744384765625
61159,-0.34954833984375,0.9311370849609376,0.2515411376953125
61160,-0.37969970703125,0.8851776123046875,0.3287353515625
61161,-0.392547607421875,0.857177734375,0.3934478759765625
61162,-0.412017822265625,0.868377685546875,0.4481201171875
61163,-0.4248046875,0.8811798095703125,0.49261474609375
61164,-0.4208984375,0.8820343017578125,0.5274810791015625
61165,-0.411956787109375,0.868682861328125,0.53662109375
61166,-0.392303466796875,0.8627166748046875,0.515289306640625
61167,-0.342193603515625,0.8789825439453125,0.4957427978515625
61168,-0.2841033935546875,0.891571044921875,0.466217041015625
61169,-0.2339019775390625,0.908355712890625,0.430328369140625
61170,-0.1841888427734375,0.94134521484375,0.397369384765625
61171,-0.125823974609375,0.9762115478515624,0.3628692626953125
61172,-0.0538482666015625,1.015213012695312,0.3077545166015625
61173,0.0043182373046875,1.060287475585938,0.2364044189453125
61174,0.0215606689453125,1.099807739257812,0.1652374267578125
61175,0.0178070068359375,1.126296997070312,0.1032562255859375
61176,0.0054931640625,1.140762329101562,0.03875732421875
61177,-0.01055908203125,1.13812255859375,-0.0167999267578125
61178,-0.0194091796875,1.129898071289062,-0.0401763916015625
61179,-0.0263671875,1.133438110351562,-0.01593017578125
61180,-0.0311126708984375,1.14935302734375,0.0726318359375
61181,-0.03961181640625,1.110870361328125,0.0389404296875
61182,-0.0548095703125,1.034469604492188,-0.012420654296875
61183,-0.08001708984375,1.0079345703125,0.0483245849609375
61184,-0.1161651611328125,0.9666748046875,0.156036376953125
61185,-0.149627685546875,0.9014739990234376,0.1944122314453125
61186,-0.18475341796875,0.862579345703125,0.189697265625
61187,-0.2126617431640625,0.8755340576171875,0.2056427001953125
61188,-0.201202392578125,0.900238037109375,0.2353057861328125
61189,-0.202667236328125,0.925628662109375,0.257476806640625
61190,-0.2169342041015625,0.9415283203125,0.2835235595703125
61191,-0.228240966796875,0.94000244140625,0.3259429931640625
61192,-0.24066162109375,0.929412841796875,0.3832550048828125
61193,-0.2558746337890625,0.904205322265625,0.4461212158203125
61194,-0.2795257568359375,0.846405029296875,0.53961181640625
61195,-0.30133056640625,0.793701171875,0.5872650146484375
61196,-0.3118896484375,0.8132476806640625,0.5603485107421875
61197,-0.316925048828125,0.8268280029296875,0.5471038818359375
61198,-0.3242645263671875,0.82891845703125,0.56683349609375
61199,-0.341583251953125,0.8335723876953125,0.612823486328125
61200,-0.3594818115234375,0.839263916015625,0.68670654296875
61201,-0.3728179931640625,0.83966064453125,0.760894775390625
61202,-0.39581298828125,0.8320465087890625,0.78546142578125
61203,-0.4346771240234375,0.81243896484375,0.771820068359375
61204,-0.457061767578125,0.774383544921875,0.7227325439453125
61205,-0.467620849609375,0.743865966796875,0.6652374267578125
61206,-0.4776763916015625,0.736724853515625,0.6118621826171875
61207,-0.4958038330078125,0.751617431640625,0.561065673828125
61208,-0.5091705322265625,0.789703369140625,0.501434326171875
61209,-0.4992828369140625,0.84521484375,0.41619873046875
61210,-0.4697113037109375,0.8917999267578125,0.311553955078125
61211,-0.4331817626953125,0.93505859375,0.205352783203125
61212,-0.385101318359375,0.9830169677734376,0.1192169189453125
61213,-0.3299713134765625,1.0098876953125,0.086669921875
61214,-0.2818450927734375,1.026275634765625,0.1118316650390625
61215,-0.248931884765625,1.03680419921875,0.221893310546875
61216,-0.228912353515625,1.023193359375,0.3152313232421875
61217,-0.1989288330078125,0.9772491455078124,0.3746337890625
61218,-0.1864471435546875,0.9143218994140624,0.3929901123046875
61219,-0.16131591796875,0.8522186279296875,0.410614013671875
61220,-0.1348419189453125,0.8040924072265625,0.409637451171875
61221,-0.1056671142578125,0.7789154052734375,0.4060821533203125
61222,-0.0814666748046875,0.7882843017578125,0.40777587890625
61223,-0.0712127685546875,0.804901123046875,0.417572021484375
61224,-0.070159912109375,0.8253326416015625,0.43212890625
61225,-0.079437255859375,0.858734130859375,0.440399169921875
61226,-0.1117095947265625,0.9047698974609376,0.4104156494140625
61227,-0.1607666015625,0.940948486328125,0.3609771728515625
61228,-0.2309417724609375,0.9770050048828124,0.2940826416015625
61229,-0.292877197265625,1.046401977539062,0.22509765625
61230,-0.33935546875,1.155181884765625,0.1734466552734375
61231,-0.363983154296875,1.286544799804688,0.1325531005859375
61232,-0.3466644287109375,1.417236328125,0.1048126220703125
61233,-0.2993316650390625,1.488128662109375,0.0855560302734375
61234,-0.232879638671875,1.5035400390625,0.0567779541015625
61235,-0.180633544921875,1.483444213867188,0.0059814453125
61236,-0.1172637939453125,1.406600952148438,-0.0339202880859375
61237,-0.0491790771484375,1.309249877929688,-0.0417327880859375
61238,0.0015869140625,1.215591430664062,-0.0198516845703125
61239,0.0341796875,1.119857788085938,0.019378662109375
61240,0.046112060546875,1.014877319335938,0.0522308349609375
61241,0.029754638671875,0.9246978759765624,0.096099853515625
61242,-0.0120086669921875,0.8729095458984375,0.1674957275390625
61243,-0.0639190673828125,0.85504150390625,0.2540740966796875
61244,-0.1256256103515625,0.8480682373046875,0.331939697265625
61245,-0.1920623779296875,0.840118408203125,0.3951263427734375
61246,-0.26025390625,0.82220458984375,0.43035888671875
61247,-0.3097686767578125,0.795806884765625,0.4493865966796875
61248,-0.3353424072265625,0.755126953125,0.4662628173828125
61249,-0.3415374755859375,0.71142578125,0.4886322021484375
61250,-0.3429718017578125,0.685028076171875,0.5083770751953125
61251,-0.3397064208984375,0.6789093017578125,0.540069580078125
61252,-0.3217620849609375,0.6889190673828125,0.5753173828125
61253,-0.3018341064453125,0.7127532958984375,0.5998687744140625
61254,-0.272003173828125,0.7324066162109375,0.602630615234375
61255,-0.2412567138671875,0.7256927490234375,0.6021270751953125
61256,-0.2145538330078125,0.682098388671875,0.6027374267578125
61257,-0.210662841796875,0.6143646240234375,0.6099090576171875
61258,-0.229827880859375,0.5505828857421875,0.6443939208984375
61259,-0.26776123046875,0.520111083984375,0.6903839111328125
61260,-0.3094635009765625,0.5176849365234375,0.7054595947265625
61261,-0.3456573486328125,0.5394287109375,0.708770751953125
61262,-0.367034912109375,0.5830841064453125,0.7193450927734375
61263,-0.3769683837890625,0.63641357421875,0.7387847900390625
61264,-0.36480712890625,0.69244384765625,0.7469940185546875
61265,-0.3365020751953125,0.7494659423828125,0.730224609375
61266,-0.3001251220703125,0.8117828369140625,0.6883087158203125
61267,-0.2453460693359375,0.878509521484375,0.6302032470703125
61268,-0.1857452392578125,0.9443206787109376,0.579315185546875
61269,-0.127197265625,1.017684936523438,0.5379638671875
61270,-0.07379150390625,1.097518920898438,0.5003814697265625
61271,-0.0235137939453125,1.162734985351562,0.4632720947265625
61272,0.0077362060546875,1.207199096679688,0.41632080078125
61273,0.01251220703125,1.218765258789062,0.36138916015625
61274,0.002593994140625,1.203094482421875,0.289154052734375
61275,-0.0163116455078125,1.177459716796875,0.1979217529296875
61276,-0.0473480224609375,1.117340087890625,0.1142578125
61277,-0.0755157470703125,1.031173706054688,0.0435638427734375
61278,-0.0957794189453125,0.95013427734375,-0.007476806640625
61279,-0.1166229248046875,0.8822479248046875,-0.0329132080078125
61280,-0.1503448486328125,0.8272247314453125,-0.01849365234375
61281,-0.1950836181640625,0.7865753173828125,0.03997802734375
61282,-0.251373291015625,0.7697601318359375,0.1201019287109375
61283,-0.320281982421875,0.777740478515625,0.2185211181640625
61284,-0.3837432861328125,0.79595947265625,0.315338134765625
61285,-0.431488037109375,0.79791259765625,0.381683349609375
61286,-0.4503326416015625,0.7987518310546875,0.4111175537109375
61287,-0.4113006591796875,0.810638427734375,0.3937835693359375
61288,-0.3083038330078125,0.8429718017578125,0.3638153076171875
61289,-0.221099853515625,0.914886474609375,0.3650665283203125
61290,-0.1565093994140625,0.9864654541015624,0.4023590087890625
61291,-0.107757568359375,1.055160522460938,0.4326934814453125
61292,-0.0613555908203125,1.105804443359375,0.4400787353515625
61293,-0.0226593017578125,1.135025024414062,0.4315185546875
61294,0.0155487060546875,1.144760131835938,0.42266845703125
61295,0.0563201904296875,1.138656616210938,0.4315338134765625
61296,0.076751708984375,1.107528686523438,0.4382781982421875
61297,0.059173583984375,1.059906005859375,0.39935302734375
61298,0.002655029296875,1.0013427734375,0.3227081298828125
61299,-0.0800933837890625,0.9561920166015624,0.258697509765625
61300,-0.1580963134765625,0.9466552734375,0.2162017822265625
61301,-0.2072906494140625,0.9706573486328124,0.1915740966796875
61302,-0.21978759765625,1.003768920898438,0.192657470703125
61303,-0.2128753662109375,1.040267944335938,0.2364654541015625
61304,-0.1970367431640625,1.070831298828125,0.2766571044921875
61305,-0.1807861328125,1.088851928710938,0.30902099609375
61306,-0.16558837890625,1.064971923828125,0.36077880859375
61307,-0.1495819091796875,1.025192260742188,0.3777923583984375
61308,-0.1457366943359375,0.9661712646484376,0.3755950927734375
61309,-0.1443634033203125,0.8937835693359375,0.3543243408203125
61310,-0.136871337890625,0.82598876953125,0.3254852294921875
61311,-0.1348419189453125,0.7822265625,0.3127288818359375
61312,-0.133544921875,0.7756195068359375,0.3362579345703125
61313,-0.136077880859375,0.7987060546875,0.3860015869140625
61314,-0.148681640625,0.8419189453125,0.426544189453125
61315,-0.18365478515625,0.86126708984375,0.4517364501953125
61316,-0.2301483154296875,0.84820556640625,0.464447021484375
61317,-0.2830810546875,0.8041839599609375,0.470458984375
61318,-0.321624755859375,0.762237548828125,0.480804443359375
61319,-0.343109130859375,0.742034912109375,0.4835052490234375
61320,-0.358856201171875,0.73345947265625,0.484039306640625
61321,-0.369659423828125,0.7397308349609375,0.5086822509765625
61322,-0.3719024658203125,0.751007080078125,0.5627593994140625
61323,-0.3672637939453125,0.7569427490234375,0.6183319091796875
61324,-0.36822509765625,0.7513580322265625,0.6392669677734375
61325,-0.372650146484375,0.753173828125,0.617431640625
61326,-0.365386962890625,0.7484130859375,0.5852203369140625
61327,-0.3468170166015625,0.734405517578125,0.5499114990234375
61328,-0.3240509033203125,0.7265777587890625,0.510711669921875
61329,-0.3084869384765625,0.746063232421875,0.462371826171875
61330,-0.300506591796875,0.7966766357421875,0.4120330810546875
61331,-0.297027587890625,0.86346435546875,0.3729095458984375
61332,-0.2878875732421875,0.9241943359375,0.3466644287109375
61333,-0.27606201171875,0.985198974609375,0.319305419921875
61334,-0.2554931640625,1.04632568359375,0.29522705078125
61335,-0.2263031005859375,1.09991455078125,0.2618255615234375
61336,-0.1929931640625,1.130935668945312,0.2368011474609375
61337,-0.1519622802734375,1.1556396484375,0.2145843505859375
61338,-0.1143646240234375,1.165603637695312,0.197998046875
61339,-0.081787109375,1.174072265625,0.181884765625
61340,-0.0529937744140625,1.174911499023438,0.1816864013671875
61341,-0.0432891845703125,1.159912109375,0.195892333984375
61342,-0.0206756591796875,1.127853393554688,0.217071533203125
61343,0.006439208984375,1.035873413085938,0.260284423828125
61344,0.030975341796875,0.95330810546875,0.3066253662109375
61345,0.0458831787109375,0.8926544189453125,0.35833740234375
61346,0.030242919921875,0.843963623046875,0.427825927734375
61347,-0.0026397705078125,0.811920166015625,0.5100250244140625
61348,-0.040008544921875,0.8007049560546875,0.58203125
61349,-0.0659942626953125,0.798736572265625,0.6197662353515625
61350,-0.0916290283203125,0.8162841796875,0.6025543212890625
61351,-0.1280059814453125,0.8622589111328125,0.53155517578125
61352,-0.169158935546875,0.93609619140625,0.438507080078125
61353,-0.2142791748046875,1.010482788085938,0.3471832275390625
61354,-0.2614288330078125,1.083023071289062,0.2750091552734375
61355,-0.30029296875,1.169723510742188,0.200286865234375
61356,-0.3121185302734375,1.28485107421875,0.124755859375
61357,-0.29815673828125,1.396652221679688,0.0952301025390625
61358,-0.262664794921875,1.444961547851562,0.1075592041015625
61359,-0.22430419921875,1.42462158203125,0.108734130859375
61360,-0.1952362060546875,1.334884643554688,0.074676513671875
61361,-0.163848876953125,1.210678100585938,0.0309906005859375
61362,-0.127288818359375,1.098358154296875,0.0102996826171875
61363,-0.095184326171875,1.003936767578125,0.014190673828125
61364,-0.0755767822265625,0.930877685546875,0.0428619384765625
61365,-0.0604095458984375,0.8631591796875,0.0919036865234375
61366,-0.05084228515625,0.8130950927734375,0.129180908203125
61367,-0.03668212890625,0.762908935546875,0.15069580078125
61368,-0.0278167724609375,0.7204437255859375,0.1729278564453125
61369,-0.0453643798828125,0.7032928466796875,0.198577880859375
61370,-0.0864105224609375,0.7146453857421875,0.244903564453125
61371,-0.1294097900390625,0.7316436767578125,0.31622314453125
61372,-0.1673583984375,0.749725341796875,0.3885650634765625
61373,-0.1951751708984375,0.76934814453125,0.4514617919921875
61374,-0.2340240478515625,0.78094482421875,0.4881591796875
61375,-0.2780303955078125,0.8037567138671875,0.523651123046875
61376,-0.3202362060546875,0.8298797607421875,0.57098388671875
61377,-0.3584747314453125,0.857391357421875,0.6354217529296875
61378,-0.397552490234375,0.9020233154296876,0.6803436279296875
61379,-0.419464111328125,0.9421539306640624,0.7204132080078125
61380,-0.4040069580078125,0.9395751953125,0.753753662109375
61381,-0.3390655517578125,0.8316650390625,0.744354248046875
61382,-0.2526702880859375,0.646087646484375,0.7190704345703125
61383,-0.228790283203125,0.539581298828125,0.697540283203125
61384,-0.236724853515625,0.4996337890625,0.6907806396484375
61385,-0.2578887939453125,0.5380859375,0.6601715087890625
61386,-0.2426605224609375,0.5074462890625,0.6772613525390625
61387,-0.2791900634765625,0.5712890625,0.6526336669921875
61388,-0.293426513671875,0.6060028076171875,0.6389617919921875
61389,-0.2997589111328125,0.65655517578125,0.6133880615234375
61390,-0.3114166259765625,0.716827392578125,0.575347900390625
61391,-0.3250274658203125,0.780364990234375,0.535614013671875
61392,-0.3201904296875,0.8453216552734375,0.492706298828125
61393,-0.3008575439453125,0.9205780029296876,0.4533538818359375
61394,-0.2757110595703125,1.00054931640625,0.4215087890625
61395,-0.2445068359375,1.089599609375,0.39447021484375
61396,-0.2016143798828125,1.181671142578125,0.3739013671875
61397,-0.1421051025390625,1.268295288085938,0.3624114990234375
61398,-0.0911102294921875,1.329177856445312,0.3140106201171875
61399,-0.0576629638671875,1.336685180664062,0.19580078125
61400,-0.0440826416015625,1.299148559570312,0.038055419921875
61401,-0.04693603515625,1.21307373046875,-0.073486328125
61402,-0.053497314453125,1.084991455078125,-0.0954132080078125
61403,-0.0843048095703125,0.9644317626953124,-0.052276611328125
61404,-0.1304779052734375,0.897308349609375,0.00775146484375
61405,-0.1724090576171875,0.845184326171875,0.084381103515625
61406,-0.2122802734375,0.7981109619140625,0.179229736328125
61407,-0.2539520263671875,0.7732086181640625,0.257171630859375
61408,-0.2931060791015625,0.7835845947265625,0.3073577880859375
61409,-0.31268310546875,0.81689453125,0.329742431640625
61410,-0.3064727783203125,0.8674468994140625,0.3082427978515625
61411,-0.259857177734375,0.939605712890625,0.2662811279296875
61412,-0.189178466796875,1.028396606445312,0.241790771484375
61413,-0.128173828125,1.12060546875,0.2492523193359375
61414,-0.0726318359375,1.205520629882812,0.2971649169921875
61415,-0.0283203125,1.293243408203125,0.3316650390625
61416,0.0090789794921875,1.351806640625,0.3027191162109375
61417,0.0458526611328125,1.355026245117188,0.219573974609375
61418,0.0726470947265625,1.307479858398438,0.1046905517578125
61419,0.080963134765625,1.23138427734375,0.0087890625
61420,0.053070068359375,1.141220092773438,-0.0206756591796875
61421,0.0100555419921875,1.073577880859375,0.0267333984375
61422,-0.0341796875,1.030303955078125,0.121368408203125
61423,-0.073150634765625,0.9969024658203124,0.2080535888671875
61424,-0.0987548828125,0.974395751953125,0.2750091552734375
61425,-0.1175689697265625,0.95452880859375,0.3550872802734375
61426,-0.1373748779296875,0.9407196044921876,0.409423828125
61427,-0.161651611328125,0.9349212646484376,0.4218597412109375
61428,-0.1928863525390625,0.9229888916015624,0.398284912109375
61429,-0.2173004150390625,0.91253662109375,0.383026123046875
61430,-0.2282867431640625,0.8979949951171875,0.4100341796875
61431,-0.2346649169921875,0.8858795166015625,0.46600341796875
61432,-0.238555908203125,0.8593597412109375,0.5390472412109375
61433,-0.2418212890625,0.8171234130859375,0.60760498046875
61434,-0.266754150390625,0.7894134521484375,0.6240234375
61435,-0.29248046875,0.7666168212890625,0.5808868408203125
61436,-0.318878173828125,0.7579498291015625,0.51678466796875
61437,-0.34124755859375,0.75140380859375,0.463592529296875
61438,-0.3649139404296875,0.743133544921875,0.4377593994140625
61439,-0.387481689453125,0.718658447265625,0.4662322998046875
61440,-0.396453857421875,0.688323974609375,0.4893035888671875
61441,-0.395355224609375,0.659423828125,0.4867095947265625
61442,-0.3858184814453125,0.63031005859375,0.4726104736328125
61443,-0.363128662109375,0.60400390625,0.4551849365234375
61444,-0.3338470458984375,0.5779876708984375,0.4524078369140625
61445,-0.3372039794921875,0.6106109619140625,0.4902191162109375
61446,-0.3565826416015625,0.6547088623046875,0.538482666015625
61447,-0.3491668701171875,0.6462249755859375,0.5701904296875
61448,-0.338348388671875,0.6478424072265625,0.586181640625
61449,-0.334503173828125,0.682159423828125,0.5815582275390625
61450,-0.339508056640625,0.7418212890625,0.5493316650390625
61451,-0.3571624755859375,0.8251190185546875,0.5127105712890625
61452,-0.3770294189453125,0.916717529296875,0.475921630859375
61453,-0.3812408447265625,0.9996337890625,0.411376953125
61454,-0.3686065673828125,1.063644409179688,0.3324737548828125
61455,-0.3499755859375,1.116348266601562,0.2497100830078125
61456,-0.3186798095703125,1.1531982421875,0.16162109375
61457,-0.277496337890625,1.185440063476562,0.08843994140625
61458,-0.2278594970703125,1.204177856445312,0.04742431640625
61459,-0.1809234619140625,1.199417114257812,0.0357666015625
61460,-0.126220703125,1.207366943359375,0.0418243408203125
61461,-0.0537109375,1.202987670898438,0.097625732421875
61462,-0.008758544921875,1.16748046875,0.1709442138671875
61463,0.0196685791015625,1.110610961914062,0.2462921142578125
61464,0.05316162109375,1.016128540039062,0.2824249267578125
61465,0.074951171875,0.9232177734375,0.3134002685546875
61466,0.0770721435546875,0.85504150390625,0.34136962890625
61467,0.0566864013671875,0.8201904296875,0.3879547119140625
61468,0.0294342041015625,0.822357177734375,0.4497528076171875
61469,0.0070343017578125,0.833160400390625,0.496246337890625
61470,-0.009552001953125,0.8620147705078125,0.51458740234375
61471,-0.0412750244140625,0.910003662109375,0.4931182861328125
61472,-0.0846710205078125,0.985107421875,0.4298858642578125
61473,-0.12554931640625,1.061248779296875,0.3428497314453125
61474,-0.155670166015625,1.107666015625,0.2552947998046875
61475,-0.1834564208984375,1.146759033203125,0.2009124755859375
61476,-0.213653564453125,1.217636108398438,0.1628875732421875
61477,-0.231689453125,1.314163208007812,0.1288604736328125
61478,-0.224517822265625,1.404403686523438,0.087310791015625
61479,-0.2050018310546875,1.445953369140625,0.0427093505859375
61480,-0.1912078857421875,1.419509887695312,0.0079498291015625
61481,-0.184783935546875,1.315872192382812,0.001434326171875
61482,-0.1868133544921875,1.17535400390625,0.0120086669921875
61483,-0.1926116943359375,1.060134887695312,0.0204925537109375
61484,-0.1909637451171875,0.9738311767578124,0.031829833984375
61485,-0.1871795654296875,0.9099578857421876,0.0605621337890625
61486,-0.175079345703125,0.8538818359375,0.095001220703125
61487,-0.16571044921875,0.8072052001953125,0.1263580322265625
61488,-0.1535797119140625,0.772674560546875,0.15509033203125
61489,-0.148284912109375,0.7490997314453125,0.1792144775390625
61490,-0.1516876220703125,0.7393341064453125,0.196868896484375
61491,-0.1583404541015625,0.7369232177734375,0.2139892578125
61492,-0.178436279296875,0.741790771484375,0.2361907958984375
61493,-0.206634521484375,0.753082275390625,0.2700042724609375
61494,-0.2350616455078125,0.7593994140625,0.3369140625
61495,-0.25762939453125,0.7733306884765625,0.4120941162109375
61496,-0.2769622802734375,0.7907562255859375,0.503326416015625
61497,-0.2986602783203125,0.815460205078125,0.58233642578125
61498,-0.3125457763671875,0.837493896484375,0.6313018798828125
61499,-0.3101043701171875,0.85699462890625,0.650177001953125
61500,-0.2860260009765625,0.85870361328125,0.6476287841796875
61501,-0.2438201904296875,0.834747314453125,0.6264190673828125
61502,-0.1882476806640625,0.7826385498046875,0.5801849365234375
61503,-0.1378631591796875,0.696044921875,0.5367431640625
61504,-0.118377685546875,0.60894775390625,0.511444091796875
61505,-0.122283935546875,0.547119140625,0.510772705078125
61506,-0.1385345458984375,0.5318603515625,0.5294647216796875
61507,-0.15850830078125,0.5428924560546875,0.5663604736328125
61508,-0.19097900390625,0.5855255126953125,0.5936279296875
61509,-0.224273681640625,0.6416015625,0.593505859375
61510,-0.2466888427734375,0.7057647705078125,0.5850830078125
61511,-0.258331298828125,0.7722930908203125,0.5781402587890625
61512,-0.2579498291015625,0.8453216552734375,0.5664825439453125
61513,-0.2372283935546875,0.92608642578125,0.545867919921875
61514,-0.2032623291015625,1.016494750976562,0.5185394287109375
61515,-0.16558837890625,1.1119384765625,0.4927215576171875
61516,-0.122406005859375,1.1925048828125,0.476348876953125
61517,-0.0781707763671875,1.235519409179688,0.47601318359375
61518,-0.0459136962890625,1.250900268554688,0.4626617431640625
61519,-0.030731201171875,1.254287719726562,0.4147796630859375
61520,-0.0243377685546875,1.253250122070312,0.3202362060546875
61521,-0.0183563232421875,1.227859497070312,0.2145538330078125
61522,-0.019378662109375,1.158004760742188,0.132110595703125
61523,-0.035736083984375,1.073516845703125,0.085479736328125
61524,-0.0623779296875,0.9949188232421876,0.0760040283203125
61525,-0.1013336181640625,0.9279022216796876,0.1115264892578125
61526,-0.14849853515625,0.8861541748046875,0.1783294677734375
61527,-0.197418212890625,0.853240966796875,0.248565673828125
61528,-0.24664306640625,0.815093994140625,0.300689697265625
61529,-0.286895751953125,0.7787017822265625,0.326934814453125
61530,-0.3102569580078125,0.7478179931640625,0.3184661865234375
61531,-0.3056640625,0.74102783203125,0.3055419921875
61532,-0.27520751953125,0.7824859619140625,0.304931640625
61533,-0.2360992431640625,0.8667755126953125,0.3284759521484375
61534,-0.1662445068359375,0.9723663330078124,0.36480712890625
61535,-0.0727691650390625,1.07257080078125,0.40234375
61536,0.03302001953125,1.163406372070312,0.422119140625
61537,0.1358184814453125,1.234329223632812,0.397216796875
61538,0.2139129638671875,1.26812744140625,0.3367462158203125
61539,0.2592926025390625,1.2606201171875,0.25732421875
61540,0.2553253173828125,1.2139892578125,0.1893768310546875
61541,0.193695068359375,1.147140502929688,0.15478515625
61542,0.112274169921875,1.101715087890625,0.142852783203125
61543,0.0429840087890625,1.079742431640625,0.149078369140625
61544,-0.0198822021484375,1.062957763671875,0.1698760986328125
61545,-0.06829833984375,1.0372314453125,0.203887939453125
61546,-0.103302001953125,1.008132934570312,0.2322540283203125
61547,-0.1253814697265625,0.9761199951171876,0.236480712890625
61548,-0.132232666015625,0.94708251953125,0.2318878173828125
61549,-0.132537841796875,0.926025390625,0.23486328125
61550,-0.1343994140625,0.9116363525390624,0.259490966796875
61551,-0.1357879638671875,0.899871826171875,0.303131103515625
61552,-0.1376190185546875,0.8763885498046875,0.3556976318359375
61553,-0.1503143310546875,0.8556671142578125,0.4040069580078125
61554,-0.1764068603515625,0.83197021484375,0.4339752197265625
61555,-0.2222442626953125,0.81787109375,0.43426513671875
61556,-0.2767791748046875,0.8174896240234375,0.4406585693359375
61557,-0.34564208984375,0.84820556640625,0.462554931640625
61558,-0.418548583984375,0.8849334716796875,0.4844512939453125
61559,-0.46844482421875,0.864105224609375,0.5096282958984375
61560,-0.4724884033203125,0.81634521484375,0.49468994140625
61561,-0.444000244140625,0.7736358642578125,0.440948486328125
61562,-0.3942413330078125,0.7411346435546875,0.408538818359375
61563,-0.3311004638671875,0.707794189453125,0.4386138916015625
61564,-0.26861572265625,0.6823577880859375,0.511566162109375
61565,-0.2192840576171875,0.6701507568359375,0.581298828125
61566,-0.187103271484375,0.658294677734375,0.617950439453125
61567,-0.181182861328125,0.644439697265625,0.6506500244140625
61568,-0.215789794921875,0.6271209716796875,0.700775146484375
61569,-0.2649383544921875,0.60015869140625,0.7221527099609375
61570,-0.304779052734375,0.5877685546875,0.691558837890625
61571,-0.346160888671875,0.614532470703125,0.623565673828125
61572,-0.369873046875,0.6789398193359375,0.5462493896484375
61573,-0.3767547607421875,0.7695465087890625,0.4674224853515625
61574,-0.3612823486328125,0.8656463623046875,0.3945465087890625
61575,-0.3262176513671875,0.9528350830078124,0.3323211669921875
61576,-0.27886962890625,1.031051635742188,0.2821197509765625
61577,-0.233489990234375,1.08612060546875,0.229217529296875
61578,-0.19012451171875,1.11505126953125,0.17742919921875
61579,-0.1644439697265625,1.117904663085938,0.158111572265625
61580,-0.159423828125,1.109954833984375,0.1742706298828125
61581,-0.1670989990234375,1.091461181640625,0.219024658203125
61582,-0.172454833984375,1.0650634765625,0.2644805908203125
61583,-0.17156982421875,1.050384521484375,0.2987518310546875
61584,-0.177886962890625,1.03662109375,0.332489013671875
61585,-0.1939697265625,1.000747680664062,0.371826171875
61586,-0.209869384765625,0.9455413818359376,0.4120635986328125
61587,-0.22052001953125,0.887359619140625,0.4345703125
61588,-0.2186279296875,0.8465423583984375,0.4232025146484375
61589,-0.2086029052734375,0.845123291015625,0.384185791015625
61590,-0.18035888671875,0.8826446533203125,0.336456298828125
61591,-0.1358642578125,0.9441986083984376,0.2776336669921875
61592,-0.0911865234375,1.011672973632812,0.2287445068359375
61593,-0.0578155517578125,1.077056884765625,0.192596435546875
61594,-0.04852294921875,1.130935668945312,0.1845855712890625
61595,-0.064361572265625,1.167556762695312,0.184539794921875
61596,-0.09088134765625,1.203048706054688,0.1938934326171875
61597,-0.117431640625,1.247970581054688,0.20269775390625
61598,-0.139373779296875,1.305740356445312,0.1663818359375
61599,-0.164276123046875,1.392486572265625,0.107147216796875
61600,-0.1609039306640625,1.466720581054688,0.045440673828125
61601,-0.157989501953125,1.51678466796875,-0.081512451171875
61602,-0.1546173095703125,1.538925170898438,-0.1002044677734375
61603,-0.1123199462890625,1.488525390625,-0.013885498046875
61604,-0.090179443359375,1.3963623046875,0.0463714599609375
61605,-0.08319091796875,1.292572021484375,0.0716094970703125
61606,-0.069091796875,1.1990966796875,0.0767364501953125
61607,-0.0626678466796875,1.1182861328125,0.076263427734375
61608,-0.064788818359375,1.04888916015625,0.0929718017578125
61609,-0.06793212890625,0.994354248046875,0.1109161376953125
61610,-0.0780792236328125,0.9558868408203124,0.11993408203125
61611,-0.09442138671875,0.9290924072265624,0.122650146484375
61612,-0.115509033203125,0.896759033203125,0.1260986328125
61613,-0.129058837890625,0.8518524169921875,0.1219482421875
61614,-0.14154052734375,0.8167572021484375,0.104034423828125
61615,-0.1472930908203125,0.79986572265625,0.06915283203125
61616,-0.15020751953125,0.7813873291015625,0.03875732421875
61617,-0.145233154296875,0.7591400146484375,0.0022735595703125
61618,-0.136688232421875,0.736328125,-0.028045654296875
61619,-0.1274566650390625,0.715667724609375,-0.0308074951171875
61620,-0.12664794921875,0.7013397216796875,-0.0114288330078125
61621,-0.14324951171875,0.6956787109375,0.0345458984375
61622,-0.1728668212890625,0.696319580078125,0.1002044677734375
61623,-0.2026519775390625,0.6941680908203125,0.17315673828125
61624,-0.215087890625,0.6829071044921875,0.289520263671875
61625,-0.2038116455078125,0.6597747802734375,0.42364501953125
61626,-0.170623779296875,0.640533447265625,0.4471893310546875
61627,-0.1320648193359375,0.64129638671875,0.373809814453125
61628,-0.1200408935546875,0.6641693115234375,0.292236328125
61629,-0.1258087158203125,0.6859130859375,0.2350311279296875
61630,-0.13470458984375,0.694580078125,0.1985015869140625
61631,-0.1451263427734375,0.69464111328125,0.1648712158203125
61632,-0.153106689453125,0.6906585693359375,0.132598876953125
61633,-0.1574249267578125,0.68402099609375,0.095428466796875
61634,-0.158447265625,0.67767333984375,0.0587310791015625
61635,-0.1603240966796875,0.67742919921875,0.03106689453125
61636,-0.163818359375,0.68695068359375,0.0002899169921875
61637,-0.16644287109375,0.7141571044921875,-0.03564453125
61638,-0.17230224609375,0.7740631103515625,-0.0764007568359375
61639,-0.17193603515625,0.86260986328125,-0.1144561767578125
61640,-0.15863037109375,0.9826202392578124,-0.1515350341796875
61641,-0.1402130126953125,1.167449951171875,-0.134124755859375
61642,-0.056243896484375,1.252532958984375,-0.1688232421875
61643,0.031524658203125,1.312942504882812,-0.348968505859375
61644,0.1104278564453125,1.368972778320312,-0.5028533935546875
61645,0.131256103515625,1.43756103515625,-0.6048583984375
61646,0.097259521484375,1.485641479492188,-0.5767669677734375
61647,0.0217132568359375,1.415390014648438,-0.4150390625
61648,-0.114227294921875,1.301193237304688,-0.2202301025390625
61649,-0.2493438720703125,1.227676391601562,-0.0258636474609375
61650,-0.3468170166015625,1.1611328125,0.1609649658203125
61651,-0.4052581787109375,1.0980224609375,0.358489990234375
61652,-0.4501495361328125,1.036239624023438,0.59832763671875
61653,-0.5015716552734375,1.00048828125,0.78045654296875
61654,-0.5074310302734375,1.005874633789062,0.5855865478515625
61655,-0.473419189453125,0.9988861083984376,0.3242340087890625
61656,-0.443267822265625,0.973968505859375,0.2322845458984375
61657,-0.4422454833984375,0.9680633544921876,0.173858642578125
61658,-0.42010498046875,0.9726104736328124,0.159912109375
61659,-0.3854522705078125,1.016616821289062,0.17730712890625
61660,-0.3330230712890625,1.067840576171875,0.1611480712890625
61661,-0.264373779296875,1.096923828125,0.1038360595703125
61662,-0.1998291015625,1.120285034179688,0.04052734375
61663,-0.1445770263671875,1.124267578125,-0.0165863037109375
61664,-0.1008758544921875,1.118453979492188,-0.0588226318359375
61665,-0.0693206787109375,1.110137939453125,-0.06317138671875
61666,-0.0343475341796875,1.092086791992188,-0.001953125
61667,0.003570556640625,1.037689208984375,0.0179901123046875
61668,0.013946533203125,0.9869537353515624,0.00238037109375
61669,0.014495849609375,0.966278076171875,-0.0037384033203125
61670,0.00946044921875,0.9439697265625,0.00616455078125
61671,-0.000274658203125,0.9156646728515624,0.01788330078125
61672,-0.008087158203125,0.8916778564453125,0.03192138671875
61673,-0.018890380859375,0.8699951171875,0.0378875732421875
61674,-0.026885986328125,0.85577392578125,0.0444488525390625
61675,-0.0309295654296875,0.843353271484375,0.0745697021484375
61676,-0.0464630126953125,0.8468017578125,0.090911865234375
61677,-0.09991455078125,0.870452880859375,0.15625
61678,-0.188140869140625,0.918731689453125,0.3447723388671875
61679,-0.2679290771484375,0.9296722412109376,0.4856414794921875
61680,-0.3253631591796875,0.886138916015625,0.4659881591796875
61681,-0.3707122802734375,0.85150146484375,0.386505126953125
61682,-0.4058990478515625,0.836761474609375,0.2867431640625
61683,-0.424530029296875,0.82763671875,0.2352142333984375
61684,-0.42657470703125,0.8278350830078125,0.2582244873046875
61685,-0.4224090576171875,0.8316802978515625,0.309478759765625
61686,-0.42718505859375,0.8406982421875,0.345458984375
61687,-0.4401702880859375,0.8404083251953125,0.396148681640625
61688,-0.4544525146484375,0.8274078369140625,0.4575653076171875
61689,-0.46246337890625,0.8004150390625,0.4906463623046875
61690,-0.4601593017578125,0.77630615234375,0.4824676513671875
61691,-0.4537506103515625,0.7755126953125,0.4468994140625
61692,-0.443634033203125,0.79913330078125,0.4004364013671875
61693,-0.4316864013671875,0.848114013671875,0.350982666015625
61694,-0.41595458984375,0.896148681640625,0.2943572998046875
61695,-0.3915863037109375,0.947601318359375,0.222564697265625
61696,-0.3699951171875,0.9994049072265624,0.13690185546875
61697,-0.34686279296875,1.065200805664062,0.079620361328125
61698,-0.318511962890625,1.130569458007812,0.058349609375
61699,-0.287841796875,1.17431640625,0.0546722412109375
61700,-0.2542877197265625,1.189315795898438,0.0678863525390625
61701,-0.211181640625,1.168853759765625,0.0844573974609375
61702,-0.1794586181640625,1.122970581054688,0.1092071533203125
61703,-0.147064208984375,1.05120849609375,0.152252197265625
61704,-0.1264495849609375,0.97027587890625,0.198577880859375
61705,-0.112091064453125,0.901458740234375,0.2498016357421875
61706,-0.103424072265625,0.857025146484375,0.3014984130859375
61707,-0.101287841796875,0.8332061767578125,0.34466552734375
61708,-0.0970306396484375,0.819488525390625,0.38104248046875
61709,-0.0830078125,0.8106231689453125,0.3896026611328125
61710,-0.076873779296875,0.826324462890625,0.374420166015625
61711,-0.077178955078125,0.864288330078125,0.3339080810546875
61712,-0.086883544921875,0.91766357421875,0.283721923828125
61713,-0.122802734375,0.97625732421875,0.2299957275390625
61714,-0.181976318359375,1.02392578125,0.1810302734375
61715,-0.246826171875,1.03765869140625,0.1327667236328125
61716,-0.31451416015625,1.027603149414062,0.112060546875
61717,-0.362762451171875,1.029388427734375,0.1072845458984375
61718,-0.3839111328125,1.05810546875,0.1030120849609375
61719,-0.3750152587890625,1.11083984375,0.0890960693359375
61720,-0.34527587890625,1.1839599609375,0.07568359375
61721,-0.2973480224609375,1.250457763671875,0.06011962890625
61722,-0.2380218505859375,1.29888916015625,0.0287322998046875
61723,-0.16680908203125,1.31597900390625,-0.0185699462890625
61724,-0.082489013671875,1.295623779296875,-0.044677734375
61725,-0.0066375732421875,1.21661376953125,-0.0325775146484375
61726,0.031646728515625,1.107208251953125,0.00048828125
61727,0.0228118896484375,1.002899169921875,0.0274200439453125
61728,-0.0296478271484375,0.91900634765625,0.0521087646484375
61729,-0.0875701904296875,0.8587799072265625,0.056549072265625
61730,-0.1306304931640625,0.8122711181640625,0.0545654296875
61731,-0.1621246337890625,0.7779541015625,0.0557708740234375
61732,-0.18865966796875,0.7667083740234375,0.0574951171875
61733,-0.208343505859375,0.7729034423828125,0.058563232421875
61734,-0.22320556640625,0.78546142578125,0.073028564453125
61735,-0.2370758056640625,0.7979278564453125,0.0910491943359375
61736,-0.2517547607421875,0.813446044921875,0.1333770751953125
61737,-0.26629638671875,0.841644287109375,0.2400665283203125
61738,-0.291900634765625,0.9157562255859376,0.5106353759765625
61739,-0.3168182373046875,1.002029418945312,0.7230377197265625
61740,-0.3166046142578125,1.02880859375,0.734100341796875
61741,-0.30633544921875,1.003890991210938,0.618896484375
61742,-0.29541015625,0.9857330322265624,0.5301666259765625
61743,-0.277130126953125,0.977447509765625,0.5292816162109375
61744,-0.252716064453125,0.9576416015625,0.58831787109375
61745,-0.238494873046875,0.8822479248046875,0.659149169921875
61746,-0.2446136474609375,0.733001708984375,0.6899566650390625
61747,-0.248199462890625,0.65185546875,0.6826934814453125
61748,-0.2550201416015625,0.670318603515625,0.677825927734375
61749,-0.249908447265625,0.72137451171875,0.6814422607421875
61750,-0.2279052734375,0.7697906494140625,0.6728668212890625
61751,-0.208404541015625,0.8138580322265625,0.64990234375
61752,-0.1985626220703125,0.84100341796875,0.616241455078125
61753,-0.1919403076171875,0.86419677734375,0.5668182373046875
61754,-0.1774444580078125,0.8915863037109375,0.4976043701171875
61755,-0.1574249267578125,0.9273834228515624,0.431121826171875
61756,-0.1397247314453125,0.964080810546875,0.3788299560546875
61757,-0.1226959228515625,0.9980316162109376,0.335693359375
61758,-0.10186767578125,1.024688720703125,0.2962493896484375
61759,-0.0844879150390625,1.03546142578125,0.2584991455078125
61760,-0.071502685546875,1.033645629882812,0.2207183837890625
61761,-0.06610107421875,1.017379760742188,0.1822357177734375
61762,-0.076019287109375,0.995635986328125,0.1441650390625
61763,-0.10052490234375,0.9701080322265624,0.1075897216796875
61764,-0.1309967041015625,0.931854248046875,0.0883026123046875
61765,-0.1659698486328125,0.889495849609375,0.10791015625
61766,-0.2026519775390625,0.851776123046875,0.149932861328125
61767,-0.2356414794921875,0.820770263671875,0.2053070068359375
61768,-0.2626800537109375,0.791168212890625,0.246734619140625
61769,-0.2827911376953125,0.7678375244140625,0.26409912109375
61770,-0.29541015625,0.7686767578125,0.27154541015625
61771,-0.2894134521484375,0.8006134033203125,0.269012451171875
61772,-0.25830078125,0.8492889404296875,0.256103515625
61773,-0.21331787109375,0.8935394287109375,0.2382354736328125
61774,-0.167388916015625,0.93572998046875,0.2320404052734375
61775,-0.11309814453125,0.9865875244140624,0.2508544921875
61776,-0.051025390625,1.040191650390625,0.2885284423828125
61777,0.0117034912109375,1.083404541015625,0.318023681640625
61778,0.0738067626953125,1.1134033203125,0.3182525634765625
61779,0.1271820068359375,1.13006591796875,0.2880401611328125
61780,0.163818359375,1.142547607421875,0.2417755126953125
61781,0.1755218505859375,1.153793334960938,0.182891845703125
61782,0.1488037109375,1.154449462890625,0.099945068359375
61783,0.0937042236328125,1.150421142578125,0.0276336669921875
61784,0.016357421875,1.143707275390625,0.0175628662109375
61785,-0.07550048828125,1.114532470703125,0.0655975341796875
61786,-0.13897705078125,1.06732177734375,0.1294708251953125
61787,-0.1826324462890625,1.021881103515625,0.192230224609375
61788,-0.2079315185546875,0.983367919921875,0.2623748779296875
61789,-0.2132110595703125,0.960845947265625,0.321502685546875
61790,-0.2100067138671875,0.9433441162109376,0.3324432373046875
61791,-0.20306396484375,0.9344635009765624,0.311309814453125
61792,-0.1915435791015625,0.936370849609375,0.2775421142578125
61793,-0.185455322265625,0.927886962890625,0.2658233642578125
61794,-0.1787872314453125,0.9291534423828124,0.2722930908203125
61795,-0.167755126953125,0.935394287109375,0.308746337890625
61796,-0.162384033203125,0.9496307373046876,0.3635406494140625
61797,-0.1641387939453125,0.9628143310546876,0.434967041015625
61798,-0.184295654296875,0.9732513427734376,0.50732421875
61799,-0.2262725830078125,0.96368408203125,0.55706787109375
61800,-0.28619384765625,0.92047119140625,0.6008453369140625
61801,-0.3450469970703125,0.8717041015625,0.5883331298828125
61802,-0.3878173828125,0.821502685546875,0.53564453125
61803,-0.415771484375,0.785552978515625,0.490234375
61804,-0.41888427734375,0.7748870849609375,0.484344482421875
61805,-0.4151153564453125,0.775726318359375,0.52557373046875
61806,-0.4044342041015625,0.780364990234375,0.5989990234375
61807,-0.3948822021484375,0.7810516357421875,0.6702880859375
61808,-0.3965301513671875,0.778533935546875,0.707305908203125
61809,-0.376617431640625,0.7506103515625,0.7026214599609375
61810,-0.343597412109375,0.72637939453125,0.659942626953125
61811,-0.3278961181640625,0.726837158203125,0.59503173828125
61812,-0.3229522705078125,0.7517852783203125,0.5208740234375
61813,-0.324737548828125,0.8009033203125,0.4485321044921875
61814,-0.32208251953125,0.8483123779296875,0.386688232421875
61815,-0.3094329833984375,0.8870391845703125,0.3219451904296875
61816,-0.29833984375,0.9196014404296876,0.25152587890625
61817,-0.2836761474609375,0.94366455078125,0.19879150390625
61818,-0.26904296875,0.9542999267578124,0.1569366455078125
61819,-0.259490966796875,0.9613494873046876,0.12353515625
61820,-0.2418212890625,0.9725341796875,0.109161376953125
61821,-0.212738037109375,0.993743896484375,0.1026153564453125
61822,-0.186431884765625,1.001174926757812,0.1145782470703125
61823,-0.15594482421875,1.027359008789062,0.1330413818359375
61824,-0.1160430908203125,1.0682373046875,0.15283203125
61825,-0.0795440673828125,1.089797973632812,0.17681884765625
61826,-0.0364837646484375,1.075912475585938,0.1934661865234375
61827,-0.013153076171875,1.039871215820312,0.21539306640625
61828,-0.0040740966796875,0.9913177490234376,0.2448577880859375
61829,-0.001190185546875,0.9362335205078124,0.2821807861328125
61830,-0.01116943359375,0.88629150390625,0.3281097412109375
61831,-0.0352325439453125,0.84674072265625,0.3787994384765625
61832,-0.0614013671875,0.812347412109375,0.419891357421875
61833,-0.074798583984375,0.7977142333984375,0.4389495849609375
61834,-0.063812255859375,0.800994873046875,0.43780517578125
61835,-0.048797607421875,0.81915283203125,0.4263458251953125
61836,-0.053466796875,0.8650665283203125,0.4025115966796875
61837,-0.06036376953125,0.914276123046875,0.3678131103515625
61838,-0.070831298828125,0.9635772705078124,0.333343505859375
61839,-0.09100341796875,1.030258178710938,0.301055908203125
61840,-0.1183013916015625,1.114547729492188,0.2728118896484375
61841,-0.1515350341796875,1.207107543945312,0.261322021484375
61842,-0.180572509765625,1.284103393554688,0.270416259765625
61843,-0.2017669677734375,1.328094482421875,0.267120361328125
61844,-0.2122344970703125,1.328399658203125,0.238067626953125
61845,-0.2145538330078125,1.29833984375,0.1894989013671875
61846,-0.2110443115234375,1.242218017578125,0.1292877197265625
61847,-0.1953582763671875,1.170608520507812,0.0873565673828125
61848,-0.1709136962890625,1.1031494140625,0.0775299072265625
61849,-0.1485748291015625,1.04510498046875,0.0965728759765625
61850,-0.13238525390625,1.002029418945312,0.1389312744140625
61851,-0.128570556640625,0.957733154296875,0.1808013916015625
61852,-0.1376800537109375,0.91168212890625,0.223785400390625
61853,-0.156951904296875,0.8736572265625,0.27386474609375
61854,-0.180450439453125,0.8585357666015625,0.3162841796875
61855,-0.204498291015625,0.841339111328125,0.3407745361328125
61856,-0.2218170166015625,0.8318939208984375,0.364532470703125
61857,-0.2399444580078125,0.8336181640625,0.3964996337890625
61858,-0.2611846923828125,0.8418731689453125,0.4354400634765625
61859,-0.2749176025390625,0.83978271484375,0.47589111328125
61860,-0.28851318359375,0.8259735107421875,0.4886016845703125
61861,-0.283050537109375,0.8004302978515625,0.4802398681640625
61862,-0.272552490234375,0.7738800048828125,0.4833221435546875
61863,-0.26947021484375,0.7616119384765625,0.4977874755859375
61864,-0.25946044921875,0.7585296630859375,0.509368896484375
61865,-0.2500457763671875,0.7631072998046875,0.5281219482421875
61866,-0.2433319091796875,0.768218994140625,0.5575103759765625
61867,-0.2381439208984375,0.7671356201171875,0.6049346923828125
61868,-0.2351226806640625,0.7639923095703125,0.670562744140625
61869,-0.2401885986328125,0.7447967529296875,0.7288818359375
61870,-0.251220703125,0.6971588134765625,0.753173828125
61871,-0.2418060302734375,0.6621856689453125,0.738433837890625
61872,-0.232269287109375,0.6703338623046875,0.714141845703125
61873,-0.22711181640625,0.7005462646484375,0.6917877197265625
61874,-0.22454833984375,0.7383575439453125,0.662384033203125
61875,-0.2218017578125,0.7786712646484375,0.6166839599609375
61876,-0.2218780517578125,0.823760986328125,0.56402587890625
61877,-0.2209625244140625,0.8701629638671875,0.510528564453125
61878,-0.214263916015625,0.9188232421875,0.455780029296875
61879,-0.202667236328125,0.971405029296875,0.393341064453125
61880,-0.190032958984375,1.023834228515625,0.335418701171875
61881,-0.1756744384765625,1.070053100585938,0.282470703125
61882,-0.157623291015625,1.10235595703125,0.233428955078125
61883,-0.1372222900390625,1.119293212890625,0.1757049560546875
61884,-0.111480712890625,1.11358642578125,0.09869384765625
61885,-0.0806884765625,1.09686279296875,0.011932373046875
61886,-0.0626220703125,1.047821044921875,-0.048858642578125
61887,-0.06146240234375,0.97943115234375,-0.0808563232421875
61888,-0.0830230712890625,0.915863037109375,-0.06256103515625
61889,-0.1269073486328125,0.8766326904296875,0.014862060546875
61890,-0.18707275390625,0.8544769287109375,0.1416015625
61891,-0.2422943115234375,0.8396759033203125,0.264678955078125
61892,-0.2890167236328125,0.813232421875,0.3327484130859375
61893,-0.322509765625,0.7859344482421875,0.352813720703125
61894,-0.3426055908203125,0.7715911865234375,0.34326171875
61895,-0.3511810302734375,0.786468505859375,0.3355712890625
61896,-0.3397216796875,0.834747314453125,0.33685302734375
61897,-0.3083648681640625,0.9085845947265624,0.3347930908203125
61898,-0.2689056396484375,0.9774627685546876,0.331329345703125
61899,-0.2342376708984375,1.030532836914062,0.323699951171875
61900,-0.2154693603515625,1.084197998046875,0.318572998046875
61901,-0.1927490234375,1.12237548828125,0.3294677734375
61902,-0.16827392578125,1.137313842773438,0.34576416015625
61903,-0.1407012939453125,1.124191284179688,0.3025360107421875
61904,-0.1112823486328125,1.100997924804688,0.2125244140625
61905,-0.07708740234375,1.096710205078125,0.12457275390625
61906,-0.0442657470703125,1.111572265625,0.061187744140625
61907,-0.0178375244140625,1.135543823242188,0.04254150390625
61908,-0.002105712890625,1.14208984375,0.07037353515625
61909,0.00054931640625,1.124954223632812,0.1376495361328125
61910,-0.005889892578125,1.08551025390625,0.2047119140625
61911,-0.012939453125,1.040145874023438,0.2529296875
61912,-0.0219573974609375,0.99444580078125,0.2718658447265625
61913,-0.0450286865234375,0.959075927734375,0.274505615234375
61914,-0.0788116455078125,0.93804931640625,0.2786407470703125
61915,-0.1094207763671875,0.9366302490234376,0.297454833984375
61916,-0.1364898681640625,0.9277191162109376,0.3350067138671875
61917,-0.168853759765625,0.900146484375,0.3648529052734375
61918,-0.190826416015625,0.8743896484375,0.3984222412109375
61919,-0.2021026611328125,0.85009765625,0.4322509765625
61920,-0.213226318359375,0.830780029296875,0.465240478515625
61921,-0.2289886474609375,0.8223876953125,0.48504638671875
61922,-0.2475128173828125,0.8113861083984375,0.5169677734375
61923,-0.2701416015625,0.807220458984375,0.538360595703125
61924,-0.301177978515625,0.8089141845703125,0.545867919921875
61925,-0.3338775634765625,0.8028411865234375,0.5611724853515625
61926,-0.3592987060546875,0.7870941162109375,0.59075927734375
61927,-0.39019775390625,0.76416015625,0.627471923828125
61928,-0.412567138671875,0.760955810546875,0.6476898193359375
61929,-0.41748046875,0.76654052734375,0.6588592529296875
61930,-0.422119140625,0.76251220703125,0.6492767333984375
61931,-0.4395599365234375,0.755889892578125,0.646484375
61932,-0.436431884765625,0.7301788330078125,0.6669921875
61933,-0.4052581787109375,0.7261962890625,0.6745758056640625
61934,-0.37823486328125,0.7592620849609375,0.6546783447265625
61935,-0.35736083984375,0.8054351806640625,0.6177520751953125
61936,-0.346923828125,0.8642578125,0.567626953125
61937,-0.337188720703125,0.9337310791015624,0.49139404296875
61938,-0.331146240234375,0.98675537109375,0.41265869140625
61939,-0.32244873046875,1.042755126953125,0.339813232421875
61940,-0.2895355224609375,1.104141235351562,0.27685546875
61941,-0.2591552734375,1.126129150390625,0.227081298828125
61942,-0.23779296875,1.1243896484375,0.196533203125
61943,-0.2134552001953125,1.099105834960938,0.1694183349609375
61944,-0.19586181640625,1.066619873046875,0.150421142578125
61945,-0.179351806640625,1.044021606445312,0.1427764892578125
61946,-0.15716552734375,1.000579833984375,0.151458740234375
61947,-0.130645751953125,0.932464599609375,0.1766357421875
61948,-0.09515380859375,0.875701904296875,0.2239532470703125
61949,-0.0645294189453125,0.8349761962890625,0.273681640625
61950,-0.037872314453125,0.8045501708984375,0.305877685546875
61951,-0.02349853515625,0.79052734375,0.3369293212890625
61952,-0.0313568115234375,0.78887939453125,0.3665618896484375
61953,-0.044708251953125,0.805419921875,0.3819122314453125
61954,-0.056854248046875,0.8305206298828125,0.3748931884765625
61955,-0.067108154296875,0.8676300048828125,0.355316162109375
61956,-0.0842742919921875,0.9213714599609376,0.3213958740234375
61957,-0.1135711669921875,0.973236083984375,0.271026611328125
61958,-0.1467132568359375,1.021408081054688,0.2163848876953125
61959,-0.1724700927734375,1.0887451171875,0.1755523681640625
61960,-0.186309814453125,1.193893432617188,0.1561431884765625
61961,-0.1800384521484375,1.296661376953125,0.15325927734375
61962,-0.158355712890625,1.373336791992188,0.15386962890625
61963,-0.1324920654296875,1.42352294921875,0.1563568115234375
61964,-0.1061248779296875,1.425003051757812,0.122100830078125
61965,-0.0797576904296875,1.389175415039062,0.0587310791015625
61966,-0.0656280517578125,1.3143310546875,0.0036773681640625
61967,-0.065765380859375,1.223724365234375,-0.0202178955078125
61968,-0.0744171142578125,1.136444091796875,0.00482177734375
61969,-0.0850830078125,1.057174682617188,0.0769500732421875
61970,-0.098846435546875,0.9902496337890624,0.165557861328125
61971,-0.1126708984375,0.9346923828125,0.2418060302734375
61972,-0.1321868896484375,0.8890533447265625,0.29931640625
61973,-0.164520263671875,0.858306884765625,0.320465087890625
61974,-0.1981353759765625,0.8416748046875,0.3229827880859375
