time_idx,accelerometerAccelerationX(G),accelerometerAccelerationY(G),accelerometerAccelerationZ(G)
100000,-1.749893188476562,-0.15496826171875,-0.8057098388671875
100001,-1.403121948242188,-0.1336212158203125,-0.6575927734375
100002,-1.157821655273438,-0.1115264892578125,-0.563934326171875
100003,-0.988189697265625,-0.0722503662109375,-0.5659332275390625
100004,-0.8307647705078125,-0.0459747314453125,-0.524993896484375
100005,-0.6380157470703125,-0.0359954833984375,-0.4565887451171875
100006,-0.4117431640625,-0.0233917236328125,-0.3918914794921875
100007,-0.19000244140625,0.0036773681640625,-0.3570556640625
100008,0.0045013427734375,0.0269622802734375,-0.3303985595703125
100009,0.1417999267578125,0.05316162109375,-0.1870880126953125
100010,0.21002197265625,0.1087188720703125,0.01800537109375
100011,0.1811065673828125,0.2098846435546875,0.056396484375
100012,0.089202880859375,0.28594970703125,0.0036773681640625
100013,-0.0432891845703125,0.2623443603515625,-0.0089111328125
100014,-0.117919921875,0.215789794921875,-0.0542755126953125
100015,-0.117919921875,0.215789794921875,-0.0542755126953125
100016,-0.253143310546875,0.1960906982421875,-0.1227569580078125
100017,-0.372100830078125,0.17608642578125,-0.1139373779296875
100018,-0.4582977294921875,0.154541015625,-0.1082305908203125
100019,-0.5157012939453125,0.143035888671875,-0.131988525390625
100020,-0.579345703125,0.1198577880859375,-0.1255035400390625
100021,-0.6484222412109375,0.0848541259765625,-0.0605316162109375
100022,-0.7153167724609375,0.0452728271484375,0.0431060791015625
100023,-0.8017730712890625,0.0136871337890625,0.1648101806640625
100024,-0.9106597900390624,-0.034149169921875,0.3047332763671875
100025,-1.054153442382812,-0.117767333984375,0.4570770263671875
100026,-1.256134033203125,-0.2215118408203125,0.60809326171875
100027,-1.5218505859375,-0.3661041259765625,0.727142333984375
100028,-1.784881591796875,-0.58575439453125,0.8731231689453125
100029,-1.975296020507812,-0.8774261474609375,0.9024658203125
100030,-2.126205444335938,-1.18365478515625,0.676483154296875
100031,-2.059768676757812,-1.37890625,0.331512451171875
100032,-1.48858642578125,-1.21514892578125,0.04254150390625
100033,-1.004135131835938,-0.864349365234375,-0.0688018798828125
100034,-0.6960601806640625,-0.5440826416015625,-0.181793212890625
100035,-0.4501800537109375,-0.3072052001953125,-0.3233642578125
100036,-0.310028076171875,-0.1451263427734375,-0.3899688720703125
100037,-0.21923828125,-0.072052001953125,-0.4013519287109375
100038,-0.095977783203125,-0.0535430908203125,-0.4196014404296875
100039,0.0126190185546875,0.004852294921875,-0.3662872314453125
100040,0.0693511962890625,0.06280517578125,-0.28466796875
100041,0.0809478759765625,0.1053924560546875,-0.1907806396484375
100042,0.0639801025390625,0.0812530517578125,-0.1168670654296875
100043,-0.08111572265625,0.033050537109375,-0.25714111328125
100044,-0.08111572265625,0.033050537109375,-0.25714111328125
100045,-0.179443359375,0.0300750732421875,-0.296417236328125
100046,-0.2652435302734375,0.042999267578125,-0.27008056640625
100047,-0.54730224609375,-0.0456390380859375,-0.1893463134765625
100048,-0.54730224609375,-0.0456390380859375,-0.1893463134765625
100049,-0.7398681640625,-0.080413818359375,-0.2051849365234375
100050,-0.8863983154296875,-0.1367034912109375,-0.297576904296875
100051,-0.8863983154296875,-0.1367034912109375,-0.297576904296875
100052,-0.9953765869140624,-0.165985107421875,-0.46173095703125
100053,-1.033370971679688,-0.1336212158203125,-0.53082275390625
100054,-1.08807373046875,-0.012451171875,-0.6143035888671875
100055,-1.17205810546875,0.1201934814453125,-0.6261749267578125
100056,-1.285507202148438,0.2096710205078125,-0.5604095458984375
100057,-1.468475341796875,0.236480712890625,-0.3832244873046875
100058,-1.821624755859375,0.2088165283203125,-0.18536376953125
100059,-2.403366088867188,0.13134765625,-0.0156707763671875
100060,-3.276779174804688,-0.01605224609375,0.1504058837890625
100061,-4.552291870117188,-0.4746856689453125,0.2225494384765625
100062,-4.827590942382812,-0.829376220703125,0.151336669921875
100063,-3.352066040039062,-0.6591796875,-0.2025299072265625
100064,-2.399307250976562,-0.0914306640625,-0.861968994140625
100065,-2.251678466796875,-0.210418701171875,-1.220306396484375
100066,-1.944000244140625,-0.1927337646484375,-1.153121948242188
100067,-1.49945068359375,0.073760986328125,-0.821533203125
100068,-1.49945068359375,0.073760986328125,-0.821533203125
100069,-1.349777221679688,0.0868988037109375,-0.6683807373046875
100070,-1.181060791015625,0.0791168212890625,-0.53167724609375
100071,-0.87109375,0.08563232421875,-0.380157470703125
100072,-0.87109375,0.08563232421875,-0.380157470703125
100073,-0.72381591796875,0.0926361083984375,-0.3399200439453125
100074,-0.5663299560546875,0.090240478515625,-0.32781982421875
100075,-0.24530029296875,0.0630950927734375,-0.1653900146484375
100076,-0.24530029296875,0.0630950927734375,-0.1653900146484375
100077,-0.1137237548828125,0.0596466064453125,-0.098602294921875
100078,-0.0089874267578125,0.0779876708984375,-0.0686492919921875
100079,0.058441162109375,0.100128173828125,-0.0630340576171875
100080,0.0795135498046875,0.12005615234375,-0.0493316650390625
100081,0.0663604736328125,0.137451171875,-0.033172607421875
100082,0.0192108154296875,0.1363983154296875,-0.03424072265625
100083,-0.0574798583984375,0.100616455078125,-0.0561981201171875
100084,-0.1115570068359375,0.0895538330078125,-0.10382080078125
100085,-0.1635284423828125,0.082977294921875,-0.1309814453125
100086,-0.2239990234375,0.09326171875,-0.1392669677734375
100087,-0.2633209228515625,0.075439453125,-0.2629852294921875
100088,-0.2633209228515625,0.075439453125,-0.2629852294921875
100089,-0.296234130859375,0.06195068359375,-0.2013397216796875
100090,-0.3475189208984375,0.03680419921875,-0.0770111083984375
100091,-0.429962158203125,-0.002166748046875,0.032196044921875
100092,-0.5474395751953125,-0.0676422119140625,0.1507110595703125
100093,-0.7270965576171875,-0.14044189453125,0.2762603759765625
100094,-1.01593017578125,-0.2117767333984375,0.4037933349609375
100095,-1.789825439453125,-0.49053955078125,0.6002044677734375
100096,-1.789825439453125,-0.49053955078125,0.6002044677734375
100097,-2.152603149414062,-0.685394287109375,0.689727783203125
100098,-2.417205810546875,-0.8454742431640625,0.57525634765625
100099,-2.408905029296875,-0.84039306640625,0.22882080078125
100100,-1.987518310546875,-0.599700927734375,-0.00982666015625
100101,-1.498046875,-0.2987823486328125,-0.0877532958984375
100102,-1.0975341796875,-0.1391448974609375,-0.0972442626953125
100103,-0.7948760986328125,-0.0741424560546875,-0.0782470703125
100104,-0.5801544189453125,-0.0417327880859375,-0.1058502197265625
100105,-0.427734375,-0.05145263671875,-0.14019775390625
100106,-0.325592041015625,-0.1040496826171875,-0.0897216796875
100107,-0.2284088134765625,-0.1790771484375,-0.0059967041015625
100108,-0.111358642578125,-0.2445526123046875,0.0201263427734375
100109,-0.0221099853515625,-0.2527923583984375,-0.000885009765625
100110,0.0295257568359375,-0.2496490478515625,-0.0671844482421875
100111,0.049468994140625,-0.184967041015625,-0.38568115234375
100112,0.049468994140625,-0.184967041015625,-0.38568115234375
100113,0.00457763671875,-0.1214752197265625,-0.490570068359375
100114,-0.0752716064453125,-0.05401611328125,-0.5504608154296875
100115,-0.3150177001953125,0.0815582275390625,-0.44366455078125
100116,-0.3150177001953125,0.0815582275390625,-0.44366455078125
100117,-0.4488372802734375,0.0656280517578125,-0.1916351318359375
100118,-0.6036224365234375,0.0275726318359375,-0.0648345947265625
100119,-0.7033538818359375,0.003631591796875,-0.1247711181640625
100120,-0.79388427734375,0.0017547607421875,-0.20770263671875
100121,-0.9257965087890624,-0.0100250244140625,-0.254852294921875
100122,-1.047561645507812,-0.009735107421875,-0.388397216796875
100123,-1.206085205078125,0.09893798828125,-0.5626068115234375
100124,-1.206085205078125,0.09893798828125,-0.5626068115234375
100125,-1.316650390625,0.16534423828125,-0.5417327880859375
100126,-1.567092895507812,0.1982574462890625,-0.37200927734375
100127,-2.003570556640625,0.1912841796875,-0.0946807861328125
100128,-2.697830200195312,0.1745147705078125,0.121368408203125
100129,-3.676513671875,0.1090087890625,0.2150726318359375
100130,-4.8214111328125,-0.210968017578125,0.1417694091796875
100131,-3.757705688476562,-0.5586090087890625,-0.55438232421875
100132,-3.757705688476562,-0.5586090087890625,-0.55438232421875
100133,-2.72186279296875,-0.228302001953125,-0.72869873046875
100134,-2.380752563476562,-0.2381439208984375,-0.8375091552734375
100135,-1.569839477539062,-0.0524444580078125,-0.7248992919921875
100136,-1.569839477539062,-0.0524444580078125,-0.7248992919921875
100137,-1.384963989257812,0.010772705078125,-0.638092041015625
100138,-1.251022338867188,0.0228729248046875,-0.5478515625
100139,-0.96527099609375,0.15869140625,-0.44171142578125
100140,-0.96527099609375,0.15869140625,-0.44171142578125
100141,-0.755218505859375,0.2002716064453125,-0.3687286376953125
100142,-0.51104736328125,0.1973114013671875,-0.2573394775390625
100143,-0.108489990234375,0.13311767578125,-0.118438720703125
100144,-0.108489990234375,0.13311767578125,-0.118438720703125
100145,0.0168304443359375,0.1028594970703125,-0.0963134765625
100146,0.1152191162109375,0.0796356201171875,-0.098846435546875
100147,0.2017364501953125,0.087066650390625,-0.1042633056640625
100148,0.2017364501953125,0.087066650390625,-0.1042633056640625
100149,0.152923583984375,0.1382293701171875,-0.0649261474609375
100150,0.0208740234375,0.1648101806640625,-0.0520172119140625
100151,-0.0888824462890625,0.195953369140625,-0.0657501220703125
100152,-0.162384033203125,0.244964599609375,-0.093292236328125
100153,-0.233428955078125,0.2558746337890625,-0.1484222412109375
100154,-0.3112335205078125,0.2493896484375,-0.174102783203125
100155,-0.3795013427734375,0.2054595947265625,-0.138092041015625
100156,-0.43768310546875,0.1626434326171875,-0.0837554931640625
100157,-0.5086669921875,0.0753326416015625,-0.0310211181640625
100158,-0.5919647216796875,-9.1552734375e-05,0.035736083984375
100159,-0.7800445556640625,-0.087493896484375,0.22735595703125
100160,-0.7800445556640625,-0.087493896484375,0.22735595703125
100161,-0.95074462890625,-0.1327667236328125,0.3711395263671875
100162,-1.210830688476562,-0.1818695068359375,0.5352630615234375
100163,-1.925582885742188,-0.3273162841796875,0.894073486328125
100164,-1.925582885742188,-0.3273162841796875,0.894073486328125
100165,-2.16705322265625,-0.5119781494140625,1.047576904296875
100166,-2.22589111328125,-0.7544403076171875,1.041793823242188
100167,-2.22589111328125,-0.7544403076171875,1.041793823242188
100168,-1.441024780273438,-0.6822967529296875,0.518585205078125
100169,-1.028732299804688,-0.4266815185546875,0.316619873046875
100170,-0.7246551513671875,-0.3131866455078125,0.035552978515625
100171,-0.2940521240234375,-0.23681640625,-0.59588623046875
100172,-0.2940521240234375,-0.23681640625,-0.59588623046875
100173,-0.1970672607421875,-0.2235565185546875,-0.47509765625
100174,-0.15960693359375,-0.2514190673828125,-0.1815643310546875
100175,-0.2153472900390625,-0.4340667724609375,0.0863494873046875
100176,-0.2153472900390625,-0.4340667724609375,0.0863494873046875
100177,-0.279144287109375,-0.522216796875,0.0030517578125
100178,-0.3806610107421875,-0.494781494140625,-0.2333831787109375
100179,-0.4568023681640625,-0.342926025390625,-0.6345367431640625
100180,-0.4568023681640625,-0.342926025390625,-0.6345367431640625
100181,-0.5117034912109375,-0.2241058349609375,-0.850006103515625
100182,-0.5868072509765625,-0.0286865234375,-0.9820098876953124
100183,-0.7956390380859375,0.07122802734375,-0.5070648193359375
100184,-0.7956390380859375,0.07122802734375,-0.5070648193359375
100185,-0.8555145263671875,0.0893707275390625,-0.3188018798828125
100186,-0.788116455078125,0.2481842041015625,-0.313018798828125
100187,-0.554473876953125,0.4124908447265625,-0.2949981689453125
100188,-0.554473876953125,0.4124908447265625,-0.2949981689453125
100189,-0.5018463134765625,0.386749267578125,-0.264984130859375
100190,-0.5181732177734375,0.3162841796875,-0.23699951171875
100191,-0.74139404296875,0.1170196533203125,-0.279632568359375
100192,-0.74139404296875,0.1170196533203125,-0.279632568359375
100193,-1.010528564453125,0.0802764892578125,-0.4031829833984375
100194,-1.451690673828125,0.127655029296875,-0.5123443603515625
100195,-2.580307006835938,0.2456817626953125,-0.7631378173828125
100196,-2.580307006835938,0.2456817626953125,-0.7631378173828125
100197,-3.295074462890625,0.2375640869140625,-0.861602783203125
100198,-3.94921875,0.0731048583984375,-0.7355804443359375
100199,-4.25225830078125,-0.5063018798828125,-0.062591552734375
100200,-4.25225830078125,-0.5063018798828125,-0.062591552734375
100201,-3.30352783203125,-0.4747314453125,-0.39306640625
100202,-2.483306884765625,-0.203765869140625,-0.6533660888671875
100203,-2.0555419921875,-0.047149658203125,-0.84918212890625
100204,-1.523223876953125,0.022430419921875,-0.710205078125
100205,-1.523223876953125,0.022430419921875,-0.710205078125
100206,-1.345413208007812,0.014312744140625,-0.563568115234375
100207,-0.937347412109375,-0.0030517578125,-0.3766021728515625
100208,-0.937347412109375,-0.0030517578125,-0.3766021728515625
100209,-0.770599365234375,-0.0157928466796875,-0.3046417236328125
100210,-0.599822998046875,-0.018646240234375,-0.248138427734375
100211,-0.2324066162109375,-0.02874755859375,-0.13897705078125
100212,-0.2324066162109375,-0.02874755859375,-0.13897705078125
100213,-0.075714111328125,-0.0329132080078125,-0.072784423828125
100214,0.0433349609375,-0.01898193359375,-0.0244598388671875
100215,0.1433868408203125,0.05096435546875,0.0383453369140625
100216,0.1433868408203125,0.05096435546875,0.0383453369140625
100217,0.143707275390625,0.093048095703125,0.056243896484375
100218,0.1151123046875,0.143402099609375,0.0669708251953125
100219,-0.0560760498046875,0.139984130859375,0.037811279296875
100220,-0.0560760498046875,0.139984130859375,0.037811279296875
100221,-0.132171630859375,0.128570556640625,0.0182952880859375
100222,-0.2184600830078125,0.132171630859375,-0.0167236328125
100223,-0.36883544921875,0.1178741455078125,-0.12188720703125
100224,-0.36883544921875,0.1178741455078125,-0.12188720703125
100225,-0.4917755126953125,0.1138916015625,-0.125701904296875
100226,-0.6257781982421875,0.0842437744140625,0.055206298828125
100227,-0.9504547119140624,-0.021820068359375,0.2710113525390625
100228,-0.9504547119140624,-0.021820068359375,0.2710113525390625
100229,-1.163314819335938,-0.2353973388671875,-0.0503387451171875
100230,-1.395065307617188,-0.5859375,-0.27886962890625
100231,-1.395065307617188,-0.5859375,-0.27886962890625
100232,-2.11517333984375,-0.9317626953125,0.312591552734375
100233,-2.40777587890625,-1.0364990234375,0.7125701904296875
100234,-2.468109130859375,-1.003341674804688,1.103530883789062
100235,-1.571640014648438,-0.427154541015625,0.4042205810546875
100236,-1.571640014648438,-0.427154541015625,0.4042205810546875
100237,-1.12725830078125,-0.2603302001953125,0.1488494873046875
100238,-0.731048583984375,-0.17291259765625,0.0327301025390625
100239,-0.241180419921875,-0.0557403564453125,-0.0681610107421875
100240,-0.241180419921875,-0.0557403564453125,-0.0681610107421875
100241,-0.126739501953125,-0.02099609375,-0.069244384765625
100242,-0.063751220703125,0.0019378662109375,-0.067291259765625
100243,-0.0157928466796875,0.0355072021484375,-0.101409912109375
100244,-0.0157928466796875,0.0355072021484375,-0.101409912109375
100245,0.0171966552734375,0.0169525146484375,-0.1273193359375
100246,0.029266357421875,-0.0394287109375,-0.1737060546875
100247,-0.1270904541015625,-0.2245025634765625,-0.30035400390625
100248,-0.1270904541015625,-0.2245025634765625,-0.30035400390625
100249,-0.2390594482421875,-0.2641754150390625,-0.4271240234375
100250,-0.2961273193359375,-0.2675323486328125,-0.5775146484375
100251,-0.4419403076171875,0.0350799560546875,-0.843963623046875
100252,-0.4419403076171875,0.0350799560546875,-0.843963623046875
100253,-0.61322021484375,0.1423187255859375,-0.774444580078125
100254,-0.764312744140625,0.1693878173828125,-0.5755615234375
100255,-0.8289794921875,0.1015625,-0.28607177734375
100256,-0.8289794921875,0.1015625,-0.28607177734375
100257,-0.8354034423828125,0.141845703125,-0.3147430419921875
100258,-0.9010772705078124,0.193084716796875,-0.35369873046875
100259,-1.0413818359375,0.16973876953125,-0.4922637939453125
100260,-1.0413818359375,0.16973876953125,-0.4922637939453125
100261,-1.145156860351562,0.145599365234375,-0.5387420654296875
100262,-1.338424682617188,0.1807098388671875,-0.5497589111328125
100263,-2.020858764648438,0.246246337890625,-0.115264892578125
100264,-2.020858764648438,0.246246337890625,-0.115264892578125
100265,-2.566162109375,0.1833343505859375,0.154632568359375
100266,-3.301895141601562,0.011871337890625,0.31561279296875
100267,-4.4710693359375,-0.590850830078125,0.39947509765625
100268,-4.4710693359375,-0.590850830078125,0.39947509765625
100269,-3.473464965820312,-1.102951049804688,0.2059173583984375
100270,-2.430999755859375,-0.4076385498046875,-0.4850921630859375
100271,-1.820953369140625,0.0408477783203125,-1.174087524414062
100272,-1.820953369140625,0.0408477783203125,-1.174087524414062
100273,-1.678955078125,0.0299530029296875,-0.8367767333984375
100274,-1.485687255859375,0.1869354248046875,-0.5316009521484375
100275,-1.135848999023438,0.1373748779296875,-0.356842041015625
100276,-1.135848999023438,0.1373748779296875,-0.356842041015625
100277,-0.9587249755859376,0.0833740234375,-0.3334808349609375
100278,-0.7943572998046875,0.0658111572265625,-0.3172607421875
100279,-0.3495941162109375,0.0307464599609375,-0.2855987548828125
100280,-0.3495941162109375,0.0307464599609375,-0.2855987548828125
100281,-0.12750244140625,0.0100555419921875,-0.25653076171875
100282,0.0580902099609375,0.008880615234375,-0.28778076171875
100283,0.2500457763671875,0.0726470947265625,-0.3278656005859375
100284,0.2500457763671875,0.0726470947265625,-0.3278656005859375
100285,0.2267608642578125,0.141143798828125,-0.2269134521484375
100286,0.14642333984375,0.212127685546875,-0.1098785400390625
100287,-0.1482391357421875,0.27880859375,-0.1233367919921875
100288,-0.1482391357421875,0.27880859375,-0.1233367919921875
100289,-0.3054046630859375,0.2866058349609375,-0.1490478515625
100290,-0.47369384765625,0.24951171875,-0.1891326904296875
100291,-0.68902587890625,0.2458648681640625,-0.2109832763671875
100292,-0.68902587890625,0.2458648681640625,-0.2109832763671875
100293,-0.76849365234375,0.2036895751953125,-0.106292724609375
100294,-0.8415374755859375,0.157501220703125,0.040985107421875
100295,-0.888214111328125,0.078033447265625,0.3105316162109375
100296,-0.888214111328125,0.078033447265625,0.3105316162109375
100297,-0.9113922119140624,0.026123046875,0.4117584228515625
100298,-0.974273681640625,-0.0339508056640625,0.5223846435546875
100299,-1.279861450195312,-0.2053375244140625,0.743927001953125
100300,-1.279861450195312,-0.2053375244140625,0.743927001953125
100301,-1.56982421875,-0.3043975830078125,0.91448974609375
100302,-1.919708251953125,-0.581085205078125,1.0987548828125
100303,-2.213134765625,-1.017288208007812,1.0872802734375
100304,-2.213134765625,-1.017288208007812,1.0872802734375
100305,-1.87042236328125,-0.8947601318359375,0.815887451171875
100306,-1.497970581054688,-0.75067138671875,0.65576171875
100307,-0.5762939453125,-0.8500823974609375,-0.3907470703125
100308,-0.5762939453125,-0.8500823974609375,-0.3907470703125
100309,-0.343902587890625,-0.5938720703125,-0.5325775146484375
100310,-0.060089111328125,-0.464691162109375,-0.718414306640625
100311,0.3108978271484375,-0.2588958740234375,-0.61602783203125
100312,0.3108978271484375,-0.2588958740234375,-0.61602783203125
100313,0.36602783203125,-0.158660888671875,-0.398590087890625
100314,0.321868896484375,-0.091094970703125,-0.10589599609375
100315,-0.0396728515625,0.0344696044921875,0.044921875
100316,-0.0396728515625,0.0344696044921875,0.044921875
100317,-0.267303466796875,0.0787353515625,-0.1324005126953125
100318,-0.3660888671875,0.134429931640625,-0.4285430908203125
100319,-0.4225311279296875,0.0735321044921875,-0.739776611328125
100320,-0.4225311279296875,0.0735321044921875,-0.739776611328125
100321,-0.5377655029296875,0.0781402587890625,-0.5931396484375
100322,-0.7233428955078125,0.0563812255859375,-0.4067840576171875
100323,-1.116455078125,0.0982818603515625,-0.3541259765625
100324,-1.116455078125,0.0982818603515625,-0.3541259765625
100325,-1.14324951171875,0.118133544921875,-0.5497589111328125
100326,-1.020370483398438,0.00933837890625,-0.7192230224609375
100327,-1.140121459960938,-0.0281982421875,-0.7367401123046875
100328,-1.140121459960938,-0.0281982421875,-0.7367401123046875
100329,-1.307022094726562,-0.00823974609375,-0.7828521728515625
100330,-1.467010498046875,0.0396881103515625,-0.7578582763671875
100331,-2.00274658203125,0.1926116943359375,-0.2161407470703125
100332,-2.00274658203125,0.1926116943359375,-0.2161407470703125
100333,-2.532806396484375,0.205413818359375,0.0485687255859375
100334,-3.2255859375,0.1017913818359375,0.1583099365234375
100335,-3.968643188476562,-0.569976806640625,-0.1310577392578125
100336,-3.968643188476562,-0.569976806640625,-0.1310577392578125
100337,-2.9776611328125,-0.569366455078125,-0.4400177001953125
100338,-2.167724609375,-0.361663818359375,-0.4673004150390625
100339,-1.645797729492188,-0.0891571044921875,-0.73681640625
100340,-1.645797729492188,-0.0891571044921875,-0.73681640625
100341,-1.475250244140625,-0.0117340087890625,-0.625457763671875
100342,-1.348068237304688,0.0287322998046875,-0.4831695556640625
100343,-1.096221923828125,-0.0229644775390625,-0.3218994140625
100344,-1.096221923828125,-0.0229644775390625,-0.3218994140625
100345,-0.966400146484375,-0.0389862060546875,-0.2823333740234375
100346,-0.8195648193359375,-0.02801513671875,-0.2668609619140625
100347,-0.4941558837890625,-0.0127410888671875,-0.2326202392578125
100348,-0.4941558837890625,-0.0127410888671875,-0.2326202392578125
100349,-0.3418426513671875,0.001220703125,-0.197418212890625
100350,-0.197357177734375,0.020660400390625,-0.1570587158203125
100351,0.0093231201171875,0.0954132080078125,-0.138916015625
100352,0.0093231201171875,0.0954132080078125,-0.138916015625
100353,0.0318603515625,0.1436309814453125,-0.155181884765625
100354,-0.0014801025390625,0.17156982421875,-0.18780517578125
100355,-0.1693115234375,0.2064361572265625,-0.24853515625
100356,-0.1693115234375,0.2064361572265625,-0.24853515625
100357,-0.25994873046875,0.2127685546875,-0.3073577880859375
100358,-0.345489501953125,0.1964111328125,-0.3394927978515625
100359,-0.53607177734375,0.1015625,-0.189361572265625
100360,-0.53607177734375,0.1015625,-0.189361572265625
100361,-0.6392822265625,0.0508575439453125,-0.043212890625
100362,-0.7580413818359375,-0.0002288818359375,0.0934906005859375
100363,-1.041412353515625,-0.1035003662109375,0.330291748046875
100364,-1.041412353515625,-0.1035003662109375,0.330291748046875
100365,-1.225982666015625,-0.1454925537109375,0.44830322265625
100366,-1.465438842773438,-0.1966400146484375,0.584869384765625
100367,-1.964614868164062,-0.4387359619140625,0.953125
100368,-1.964614868164062,-0.4387359619140625,0.953125
100369,-2.220382690429688,-0.7916717529296875,1.066619873046875
100370,-2.428436279296875,-1.10394287109375,1.082595825195312
100371,-1.596954345703125,-0.7604827880859375,0.7893218994140625
100372,-1.596954345703125,-0.7604827880859375,0.7893218994140625
100373,-1.138641357421875,-0.5247344970703125,0.5252685546875
100374,-0.8352203369140625,-0.3619232177734375,0.3123321533203125
100375,-0.3421478271484375,-0.1317138671875,-0.1941986083984375
100376,-0.3421478271484375,-0.1317138671875,-0.1941986083984375
100377,-0.126312255859375,-0.0512542724609375,-0.4151763916015625
100378,0.0343170166015625,0.028167724609375,-0.5374908447265625
100379,0.24395751953125,0.0563201904296875,-0.449066162109375
100380,0.24395751953125,0.0563201904296875,-0.449066162109375
100381,0.2494659423828125,-0.0130462646484375,-0.154754638671875
100382,0.1505279541015625,-0.0973968505859375,0.008087158203125
100383,-0.12603759765625,-0.128509521484375,-0.251312255859375
100384,-0.12603759765625,-0.128509521484375,-0.251312255859375
100385,-0.211639404296875,-0.137664794921875,-0.3818359375
100386,-0.27374267578125,-0.1261749267578125,-0.5407562255859375
100387,-0.5138397216796875,0.04351806640625,-0.566131591796875
100388,-0.5138397216796875,0.04351806640625,-0.566131591796875
100389,-0.56500244140625,0.167816162109375,-0.5056610107421875
100390,-0.7054290771484375,0.223297119140625,-0.411651611328125
100391,-0.8979034423828125,0.2345428466796875,-0.52783203125
100392,-0.8979034423828125,0.2345428466796875,-0.52783203125
100393,-0.939727783203125,0.3003692626953125,-0.6156005859375
100394,-0.9814453125,0.3379974365234375,-0.633697509765625
100395,-1.036239624023438,0.2649078369140625,-0.528656005859375
100396,-1.036239624023438,0.2649078369140625,-0.528656005859375
100397,-1.147857666015625,0.14398193359375,-0.5633392333984375
100398,-1.355010986328125,0.0578155517578125,-0.6892852783203125
100399,-2.126312255859375,-0.177886962890625,-0.414306640625
100400,-2.126312255859375,-0.177886962890625,-0.414306640625
100401,-2.814117431640625,-0.331024169921875,-0.144378662109375
100402,-3.6287841796875,-0.5874481201171875,-0.06341552734375
100403,-3.462753295898438,-1.2086181640625,0.16064453125
100404,-3.462753295898438,-1.2086181640625,0.16064453125
100405,-2.434585571289062,-0.8115386962890625,0.1942138671875
100406,-2.10565185546875,-0.39666748046875,-0.2232513427734375
100407,-1.83453369140625,-0.1083526611328125,-0.9647064208984376
100408,-1.83453369140625,-0.1083526611328125,-0.9647064208984376
100409,-1.644760131835938,0.07305908203125,-0.88201904296875
100410,-1.522079467773438,0.182342529296875,-0.6606292724609375
100411,-1.321929931640625,0.1041717529296875,-0.4315643310546875
100412,-1.321929931640625,0.1041717529296875,-0.4315643310546875
100413,-1.18475341796875,0.044281005859375,-0.34466552734375
100414,-1.0135498046875,0.013214111328125,-0.284027099609375
100415,-0.537200927734375,0.01788330078125,-0.2400665283203125
100416,-0.537200927734375,0.01788330078125,-0.2400665283203125
100417,-0.329376220703125,0.0340118408203125,-0.1579132080078125
100418,-0.165679931640625,0.0548095703125,-0.0965728759765625
100419,0.044158935546875,0.1129913330078125,-0.0654144287109375
100420,0.044158935546875,0.1129913330078125,-0.0654144287109375
100421,0.0811614990234375,0.1540985107421875,-0.1060333251953125
100422,0.0669403076171875,0.19134521484375,-0.1609039306640625
100423,-0.1028289794921875,0.1933746337890625,-0.1849517822265625
100424,-0.1028289794921875,0.1933746337890625,-0.1849517822265625
100425,-0.1956787109375,0.1688690185546875,-0.11285400390625
100426,-0.28118896484375,0.14788818359375,-0.0496368408203125
100427,-0.4280548095703125,0.1048126220703125,-0.0282440185546875
100428,-0.4280548095703125,0.1048126220703125,-0.0282440185546875
100429,-0.506103515625,0.0576324462890625,-0.0682830810546875
100430,-0.6053466796875,-0.0205535888671875,-0.126678466796875
100431,-0.917266845703125,-0.208526611328125,-0.129913330078125
100432,-0.917266845703125,-0.208526611328125,-0.129913330078125
100433,-1.099822998046875,-0.343017578125,-0.03839111328125
100434,-1.271392822265625,-0.5422821044921875,0.1326904296875
100435,-1.54058837890625,-1.243728637695312,0.3021240234375
100436,-1.54058837890625,-1.243728637695312,0.3021240234375
100437,-1.661087036132812,-1.592361450195312,0.2262725830078125
100438,-1.719345092773438,-1.643798828125,0.2494964599609375
100439,-1.50164794921875,-0.9595794677734376,0.3113555908203125
100440,-1.50164794921875,-0.9595794677734376,0.3113555908203125
100441,-1.2601318359375,-0.6164093017578125,0.151824951171875
100442,-1.020065307617188,-0.4118804931640625,0.086578369140625
100443,-0.6104278564453125,-0.19921875,0.020111083984375
100444,-0.6104278564453125,-0.19921875,0.020111083984375
100445,-0.477020263671875,-0.1547088623046875,-0.0704803466796875
100446,-0.3798828125,-0.12664794921875,-0.19622802734375
100447,-0.3128204345703125,-0.0850830078125,-0.27532958984375
100448,-0.3128204345703125,-0.0850830078125,-0.27532958984375
100449,-0.2120361328125,0.01495361328125,-0.15875244140625
100450,-0.1517333984375,0.03057861328125,-0.0767669677734375
100451,-0.017669677734375,0.0719757080078125,-0.0847015380859375
100452,-0.017669677734375,0.0719757080078125,-0.0847015380859375
100453,0.02935791015625,0.0797119140625,-0.1158294677734375
100454,0.0376739501953125,0.1086273193359375,-0.1627197265625
100455,-0.042755126953125,0.16455078125,-0.2469482421875
100456,-0.042755126953125,0.16455078125,-0.2469482421875
100457,-0.132415771484375,0.249908447265625,-0.318878173828125
100458,-0.2913970947265625,0.3544769287109375,-0.4215240478515625
100459,-0.6269378662109375,0.25689697265625,-0.5713958740234375
100460,-0.6269378662109375,0.25689697265625,-0.5713958740234375
100461,-0.750244140625,0.0137786865234375,-0.480133056640625
100462,-0.8541717529296875,-0.1561279296875,-0.445587158203125
100463,-0.929229736328125,-0.40234375,-0.58819580078125
100464,-0.929229736328125,-0.40234375,-0.58819580078125
100465,-0.9466400146484376,-0.50933837890625,-0.5595703125
100466,-1.087448120117188,-0.55938720703125,-0.4816741943359375
100467,-1.816787719726562,-0.3101654052734375,-0.518035888671875
100468,-1.816787719726562,-0.3101654052734375,-0.518035888671875
100469,-2.239654541015625,-0.0489501953125,-0.493560791015625
100470,-2.77752685546875,0.18353271484375,-0.3729400634765625
100471,-3.431228637695312,0.343353271484375,-0.29986572265625
100472,-4.0650634765625,0.2331390380859375,-0.231109619140625
100473,-4.376007080078125,-0.3439483642578125,-0.2866058349609375
100474,-3.456893920898438,-0.4358978271484375,-0.3994598388671875
100475,-2.231185913085938,-0.3031768798828125,-0.8333740234375
100476,-2.231185913085938,-0.3031768798828125,-0.8333740234375
100477,-1.799362182617188,-0.200927734375,-0.8326263427734375
100478,-1.509628295898438,-0.1209564208984375,-0.7381591796875
100479,-1.18115234375,-0.0291290283203125,-0.497802734375
100480,-1.18115234375,-0.0291290283203125,-0.497802734375
100481,-1.055892944335938,-0.0214080810546875,-0.4160919189453125
100482,-0.9084014892578124,-0.005645751953125,-0.357421875
100483,-0.5871124267578125,0.0518646240234375,-0.3303375244140625
100484,-0.5871124267578125,0.0518646240234375,-0.3303375244140625
100485,-0.4118499755859375,0.0719451904296875,-0.2616729736328125
100486,-0.2417449951171875,0.08258056640625,-0.162933349609375
100487,0.0186767578125,0.104644775390625,-0.0340576171875
100488,0.0186767578125,0.104644775390625,-0.0340576171875
100489,0.0914306640625,0.121063232421875,-0.0245819091796875
100490,0.1201171875,0.1393890380859375,-0.0480499267578125
100491,0.0761566162109375,0.1613922119140625,-0.1074371337890625
100492,0.0761566162109375,0.1613922119140625,-0.1074371337890625
100493,-0.00836181640625,0.153411865234375,-0.095855712890625
100494,-0.09490966796875,0.19390869140625,-0.09466552734375
100495,-0.3498382568359375,0.23944091796875,-0.112579345703125
100496,-0.3498382568359375,0.23944091796875,-0.112579345703125
100497,-0.5052642822265625,0.2299652099609375,-0.1260986328125
100498,-0.61590576171875,0.17718505859375,-0.146484375
100499,-0.816131591796875,-0.0914306640625,-0.168182373046875
100500,-0.816131591796875,-0.0914306640625,-0.168182373046875
100501,-0.92138671875,-0.1951141357421875,-0.12518310546875
100502,-1.047042846679688,-0.263580322265625,-0.009002685546875
100503,-1.374038696289062,-0.4188385009765625,0.266082763671875
100504,-1.374038696289062,-0.4188385009765625,0.266082763671875
100505,-1.583892822265625,-0.5442657470703125,0.4429473876953125
100506,-1.815475463867188,-0.714752197265625,0.5988616943359375
100507,-2.058181762695312,-1.063812255859375,0.4962921142578125
100508,-2.058181762695312,-1.063812255859375,0.4962921142578125
100509,-1.9232177734375,-0.990997314453125,0.4554290771484375
100510,-1.553695678710938,-0.653350830078125,0.4081878662109375
100511,-0.8636322021484375,-0.195281982421875,0.1002044677734375
100512,-0.8636322021484375,-0.195281982421875,0.1002044677734375
100513,-0.607666015625,-0.1613311767578125,-0.015625
100514,-0.378265380859375,-0.1530303955078125,-0.102630615234375
100515,-0.073394775390625,-0.0965728759765625,-0.1932830810546875
100516,-0.073394775390625,-0.0965728759765625,-0.1932830810546875
100517,0.0327301025390625,-0.0661163330078125,-0.1960906982421875
100518,0.1074066162109375,-0.0652923583984375,-0.254058837890625
100519,0.0960540771484375,-0.1650238037109375,-0.258056640625
100520,0.0960540771484375,-0.1650238037109375,-0.258056640625
100521,0.01904296875,-0.2025299072265625,-0.2728118896484375
100522,-0.1060028076171875,-0.192657470703125,-0.308258056640625
100523,-0.3405609130859375,-0.1069488525390625,-0.3058929443359375
100524,-0.3405609130859375,-0.1069488525390625,-0.3058929443359375
100525,-0.4434051513671875,-0.0625762939453125,-0.278350830078125
100526,-0.53399658203125,-0.03729248046875,-0.2553863525390625
100527,-0.7209625244140625,-0.093017578125,-0.1419525146484375
100528,-0.7209625244140625,-0.093017578125,-0.1419525146484375
100529,-0.85906982421875,-0.093536376953125,-0.1364898681640625
100530,-0.9794769287109376,-0.07611083984375,-0.24139404296875
100531,-1.030242919921875,-0.0137176513671875,-0.3228912353515625
100532,-1.041107177734375,0.04541015625,-0.4022979736328125
100533,-1.072250366210938,0.09295654296875,-0.468475341796875
100534,-1.17333984375,0.1311798095703125,-0.4003448486328125
100535,-1.688507080078125,0.1132965087890625,0.0328826904296875
100536,-1.688507080078125,0.1132965087890625,0.0328826904296875
100537,-2.338226318359375,-0.244232177734375,0.1688995361328125
100538,-3.1075439453125,-0.627044677734375,0.3778533935546875
100539,-3.384063720703125,-0.800018310546875,0.73870849609375
100540,-3.384063720703125,-0.800018310546875,0.73870849609375
100541,-2.864227294921875,-0.5785980224609375,0.3017730712890625
100542,-2.406051635742188,-0.2002410888671875,-0.4177398681640625
100543,-2.116073608398438,-0.024810791015625,-0.9615936279296876
100544,-2.116073608398438,-0.024810791015625,-0.9615936279296876
100545,-1.789688110351562,0.051025390625,-1.125350952148438
100546,-1.728622436523438,0.134521484375,-0.8970947265625
100547,-1.603988647460938,0.0527801513671875,-0.4881134033203125
100548,-1.603988647460938,0.0527801513671875,-0.4881134033203125
100549,-1.534164428710938,-0.066558837890625,-0.3097381591796875
100550,-1.313583374023438,-0.0753021240234375,-0.2176055908203125
100551,-0.782562255859375,-0.04827880859375,-0.1621856689453125
100552,-0.782562255859375,-0.04827880859375,-0.1621856689453125
100553,-0.57415771484375,-0.0101776123046875,-0.1612396240234375
100554,-0.370269775390625,0.0116729736328125,-0.1375579833984375
100555,-0.04046630859375,0.04925537109375,-0.1080169677734375
100556,-0.04046630859375,0.04925537109375,-0.1080169677734375
100557,0.0563201904296875,0.0986480712890625,-0.14447021484375
100558,0.1090545654296875,0.150634765625,-0.2070770263671875
100559,0.1170196533203125,0.195098876953125,-0.254974365234375
100560,0.0762939453125,0.21826171875,-0.256195068359375
100561,-0.011627197265625,0.2044525146484375,-0.2075042724609375
100562,-0.1138763427734375,0.1946258544921875,-0.162353515625
100563,-0.3472442626953125,0.1634063720703125,-0.21685791015625
100564,-0.3472442626953125,0.1634063720703125,-0.21685791015625
100565,-0.43951416015625,0.139892578125,-0.2912445068359375
100566,-0.503753662109375,0.09130859375,-0.3109130859375
100567,-0.69097900390625,-0.07550048828125,-0.12591552734375
100568,-0.69097900390625,-0.07550048828125,-0.12591552734375
100569,-0.83306884765625,-0.1339263916015625,-0.02947998046875
100570,-0.9964599609375,-0.2244873046875,0.08465576171875
100571,-1.408065795898438,-0.44866943359375,0.354339599609375
100572,-1.408065795898438,-0.44866943359375,0.354339599609375
100573,-1.661300659179688,-0.6689453125,0.4685211181640625
100574,-1.92816162109375,-1.056304931640625,0.49749755859375
100575,-2.142730712890625,-1.419937133789062,0.250885009765625
100576,-2.222412109375,-1.542526245117188,0.0980224609375
100577,-2.038497924804688,-1.300628662109375,0.2404632568359375
100578,-1.619461059570312,-0.8246917724609375,0.3648529052734375
100579,-0.8820648193359375,-0.27215576171875,0.20904541015625
100580,-0.8820648193359375,-0.27215576171875,0.20904541015625
100581,-0.609222412109375,-0.13739013671875,0.1295623779296875
100582,-0.390594482421875,-0.0507049560546875,-0.0120697021484375
100583,-0.200592041015625,-0.0162811279296875,-0.1485137939453125
100584,-0.200592041015625,-0.0162811279296875,-0.1485137939453125
100585,0.0375213623046875,0.0441741943359375,-0.3122406005859375
100586,0.122222900390625,0.0588531494140625,-0.41522216796875
100587,0.15380859375,0.0123291015625,-0.3847808837890625
100588,0.0534515380859375,-0.063262939453125,-0.2965240478515625
100589,-0.0589447021484375,-0.0756378173828125,-0.279266357421875
100590,-0.1270904541015625,-0.0655975341796875,-0.31329345703125
100591,-0.1880950927734375,-0.0318450927734375,-0.4015045166015625
100592,-0.1880950927734375,-0.0318450927734375,-0.4015045166015625
100593,-0.453277587890625,0.1231842041015625,-0.3959503173828125
100594,-0.494964599609375,0.173492431640625,-0.4120330810546875
100595,-0.4521026611328125,0.1121826171875,-0.3381805419921875
100596,-0.4521026611328125,0.1121826171875,-0.3381805419921875
100597,-0.5068359375,0.0296783447265625,-0.3840179443359375
100598,-0.6053619384765625,-0.0310821533203125,-0.488189697265625
100599,-0.821441650390625,-0.0795440673828125,-0.537139892578125
100600,-0.821441650390625,-0.0795440673828125,-0.537139892578125
100601,-0.94769287109375,-0.095947265625,-0.5554656982421875
100602,-1.140213012695312,-0.1345062255859375,-0.62469482421875
100603,-1.786285400390625,-0.248809814453125,-0.5807647705078125
100604,-1.786285400390625,-0.248809814453125,-0.5807647705078125
100605,-2.23382568359375,-0.21539306640625,-0.385406494140625
100606,-2.74407958984375,-0.1217193603515625,-0.1700897216796875
100607,-3.611557006835938,-0.1473846435546875,0.173980712890625
100608,-3.611557006835938,-0.1473846435546875,0.173980712890625
100609,-3.7518310546875,-0.404266357421875,0.314422607421875
100610,-3.384735107421875,-0.637420654296875,0.1437225341796875
100611,-2.788299560546875,-0.6100311279296875,-0.3370361328125
100612,-2.361190795898438,-0.380950927734375,-0.8706512451171875
100613,-2.0599365234375,-0.1809234619140625,-0.935791015625
100614,-1.831298828125,-0.06341552734375,-0.667327880859375
100615,-1.270095825195312,-0.04815673828125,-0.7927398681640625
100616,-1.270095825195312,-0.04815673828125,-0.7927398681640625
100617,-0.9136505126953124,-0.12255859375,-0.684295654296875
100618,-0.565460205078125,-0.119293212890625,-0.5260009765625
100619,-0.205474853515625,-0.066986083984375,-0.3979339599609375
100620,0.097503662109375,-0.0420989990234375,-0.3386993408203125
100621,0.333526611328125,-0.0085296630859375,-0.2488555908203125
100622,0.474945068359375,0.017852783203125,-0.0989837646484375
100623,0.545928955078125,0.0397491455078125,0.052398681640625
100624,0.5746612548828125,0.0807342529296875,0.158203125
100625,0.575164794921875,0.13653564453125,0.1824188232421875
100626,0.601226806640625,0.2020263671875,0.079559326171875
100627,0.629058837890625,0.35968017578125,-0.1060333251953125
100628,0.629058837890625,0.35968017578125,-0.1060333251953125
100629,0.5278167724609375,0.3533935546875,-0.0582733154296875
100630,0.4176025390625,0.2782745361328125,-0.0078887939453125
100631,0.2802581787109375,0.105682373046875,-0.0848846435546875
100632,0.2802581787109375,0.105682373046875,-0.0848846435546875
100633,0.2533111572265625,0.0516815185546875,-0.1563720703125
100634,0.2120819091796875,-0.0048675537109375,-0.1671142578125
100635,0.029632568359375,-0.1034393310546875,-0.080230712890625
100636,0.029632568359375,-0.1034393310546875,-0.080230712890625
100637,-0.1172332763671875,-0.1586761474609375,0.0536041259765625
100638,-0.492340087890625,-0.457427978515625,0.0436859130859375
100639,-1.70050048828125,-1.222824096679688,-0.235687255859375
100640,-1.70050048828125,-1.222824096679688,-0.235687255859375
100641,-3.879379272460938,-0.7611083984375,-0.900238037109375
100642,-4.4931640625,-0.5187530517578125,-0.6655426025390625
100643,-4.563812255859375,-0.8203582763671875,0.0084991455078125
100644,-4.779067993164062,-1.370010375976562,0.0912322998046875
100645,-3.533950805664062,-0.2886199951171875,-0.168365478515625
100646,-2.390533447265625,0.19061279296875,-0.6462554931640625
100647,-1.662261962890625,0.163787841796875,-1.776046752929688
100648,-1.662261962890625,0.163787841796875,-1.776046752929688
100649,-1.458511352539062,-0.041656494140625,-1.526123046875
100650,-1.209457397460938,-0.1446533203125,-0.9271087646484376
100651,-0.997222900390625,-0.1894378662109375,-0.681549072265625
100652,-0.997222900390625,-0.1894378662109375,-0.681549072265625
100653,-0.6522979736328125,-0.1934967041015625,-0.6733856201171875
100654,-0.4985198974609375,-0.1963043212890625,-0.5641632080078125
100655,-0.3248291015625,-0.1818084716796875,-0.370391845703125
100656,-0.164276123046875,-0.13165283203125,-0.2403717041015625
100657,-0.0291900634765625,-0.0785980224609375,-0.164794921875
100658,0.08203125,-0.0454559326171875,-0.1200714111328125
100659,0.1465911865234375,-0.00665283203125,-0.1019744873046875
100660,0.1465911865234375,-0.00665283203125,-0.1019744873046875
100661,0.0948638916015625,0.0216217041015625,-0.1427154541015625
100662,-0.0034637451171875,0.0531768798828125,-0.1741485595703125
100663,-0.1783905029296875,0.132659912109375,-0.113067626953125
100664,-0.1783905029296875,0.132659912109375,-0.113067626953125
100665,-0.3072509765625,0.1666717529296875,-0.061859130859375
100666,-0.4316558837890625,0.15570068359375,0.00445556640625
100667,-0.5553741455078125,0.0990753173828125,0.02996826171875
100668,-0.6811065673828125,0.0429840087890625,0.045501708984375
100669,-0.817138671875,-0.0207366943359375,0.077972412109375
100670,-0.9596710205078124,-0.1117095947265625,0.1288299560546875
100671,-1.10260009765625,-0.23822021484375,0.26116943359375
100672,-1.10260009765625,-0.23822021484375,0.26116943359375
100673,-1.403762817382812,-0.675567626953125,0.601898193359375
100674,-1.606353759765625,-1.007583618164062,0.682373046875
100675,-1.964096069335938,-1.397247314453125,0.54931640625
100676,-1.964096069335938,-1.397247314453125,0.54931640625
100677,-1.927825927734375,-1.183547973632812,0.4651031494140625
100678,-1.883193969726562,-0.94085693359375,0.6377716064453125
100679,-1.467071533203125,-0.5886688232421875,0.7173919677734375
100680,-1.467071533203125,-0.5886688232421875,0.7173919677734375
100681,-1.142730712890625,-0.3863067626953125,0.5541534423828125
100682,-0.8469696044921875,-0.17315673828125,0.3746490478515625
100683,-0.382171630859375,0.092010498046875,0.0410614013671875
100684,-0.382171630859375,0.092010498046875,0.0410614013671875
100685,-0.1783294677734375,0.1670684814453125,-0.12469482421875
100686,-0.03033447265625,0.242828369140625,-0.22021484375
100687,0.1331939697265625,0.4073638916015625,-0.510162353515625
100688,0.1331939697265625,0.4073638916015625,-0.510162353515625
100689,0.07958984375,0.4687347412109375,-0.571197509765625
100690,-0.1511383056640625,0.3839263916015625,-0.573028564453125
100691,-0.5518035888671875,0.158447265625,-0.790618896484375
100692,-0.5518035888671875,0.158447265625,-0.790618896484375
100693,-0.6930084228515625,0.0210418701171875,-0.4541778564453125
100694,-0.796417236328125,-0.0998687744140625,-0.081817626953125
100695,-0.8427276611328125,-0.15142822265625,-0.031982421875
100696,-0.8427276611328125,-0.15142822265625,-0.031982421875
100697,-0.740875244140625,-0.0371246337890625,-0.233795166015625
100698,-0.6326141357421875,0.06695556640625,-0.4104766845703125
100699,-0.4970855712890625,0.1310882568359375,-0.552459716796875
100700,-0.387725830078125,0.1768341064453125,-0.657562255859375
100701,-0.3516998291015625,0.164581298828125,-0.6282196044921875
100702,-0.354248046875,0.1305999755859375,-0.541259765625
100703,-0.37359619140625,0.1313934326171875,-0.501708984375
100704,-0.37359619140625,0.1313934326171875,-0.501708984375
100705,-0.5545196533203125,0.2249908447265625,-0.5941925048828125
100706,-0.756317138671875,0.2713470458984375,-0.59564208984375
100707,-1.214874267578125,0.292388916015625,-0.3022308349609375
100708,-1.214874267578125,0.292388916015625,-0.3022308349609375
100709,-1.497512817382812,0.2464141845703125,-0.159881591796875
100710,-1.9029541015625,0.1578216552734375,-0.0441741943359375
100711,-3.753631591796875,-0.5433349609375,0.0913238525390625
100712,-3.753631591796875,-0.5433349609375,0.0913238525390625
100713,-4.952499389648438,-1.203277587890625,0.4735870361328125
100714,-4.636505126953125,-1.819061279296875,0.6381378173828125
100715,-2.517379760742188,-1.131866455078125,-0.26055908203125
100716,-2.517379760742188,-1.131866455078125,-0.26055908203125
100717,-2.239990234375,-0.4152374267578125,-0.8002166748046875
100718,-1.988449096679688,-0.10052490234375,-1.310592651367188
100719,-1.418960571289062,0.0523834228515625,-0.9290924072265624
100720,-1.418960571289062,0.0523834228515625,-0.9290924072265624
100721,-1.205352783203125,-0.05731201171875,-0.7140960693359375
100722,-0.9554595947265624,-0.093505859375,-0.6426239013671875
100723,-0.725830078125,-0.1413421630859375,-0.54266357421875
100724,-0.725830078125,-0.1413421630859375,-0.54266357421875
100725,-0.346649169921875,-0.15289306640625,-0.314788818359375
100726,-0.1873016357421875,-0.129241943359375,-0.2195587158203125
100727,0.0821533203125,-0.031646728515625,-0.164703369140625
100728,0.0821533203125,-0.031646728515625,-0.164703369140625
100729,0.162811279296875,0.0131683349609375,-0.1532135009765625
100730,0.203887939453125,0.0466766357421875,-0.172119140625
100731,0.2202911376953125,0.0749969482421875,-0.2023773193359375
100732,0.2202911376953125,0.0749969482421875,-0.2023773193359375
100733,0.15338134765625,0.1243743896484375,-0.2481231689453125
100734,0.0601348876953125,0.195770263671875,-0.26171875
100735,-0.207550048828125,0.2398223876953125,-0.2136993408203125
100736,-0.207550048828125,0.2398223876953125,-0.2136993408203125
100737,-0.3479156494140625,0.1391754150390625,-0.1795654296875
100738,-0.4583587646484375,0.039093017578125,-0.179718017578125
100739,-0.603302001953125,-0.0313873291015625,-0.200653076171875
100740,-0.7841796875,-0.0639190673828125,-0.1945037841796875
100741,-0.9780731201171876,-0.116455078125,-0.1338043212890625
100742,-1.170745849609375,-0.21649169921875,0.0087127685546875
100743,-1.34649658203125,-0.351837158203125,0.18927001953125
100744,-1.519241333007812,-0.5002288818359375,0.470062255859375
100745,-1.698623657226562,-0.7529449462890625,0.8119964599609375
100746,-1.858642578125,-1.12786865234375,0.8093109130859375
100747,-1.90338134765625,-1.315658569335938,0.5966796875
100748,-1.806427001953125,-1.283050537109375,0.6277618408203125
100749,-1.613510131835938,-1.099105834960938,0.701873779296875
100750,-1.390670776367188,-0.8011474609375,0.591278076171875
100751,-0.8487548828125,-0.294403076171875,0.189971923828125
100752,-0.8487548828125,-0.294403076171875,0.189971923828125
100753,-0.594390869140625,-0.100494384765625,0.022003173828125
100754,-0.3848114013671875,0.0301666259765625,-0.1631317138671875
100755,-0.18621826171875,0.10565185546875,-0.3144378662109375
100756,-0.0346832275390625,0.14630126953125,-0.389495849609375
100757,0.0466766357421875,0.160247802734375,-0.3876800537109375
100758,0.08367919921875,0.171142578125,-0.3220062255859375
100759,0.08929443359375,0.1809844970703125,-0.2126617431640625
100760,0.0601043701171875,0.2132110595703125,-0.2017059326171875
100761,-0.001861572265625,0.2581939697265625,-0.337860107421875
100762,-0.071685791015625,0.2952880859375,-0.43695068359375
100763,-0.1355743408203125,0.329559326171875,-0.385711669921875
100764,-0.1355743408203125,0.329559326171875,-0.385711669921875
100765,-0.3505706787109375,0.35028076171875,-0.0934906005859375
100766,-0.5047149658203125,0.323760986328125,-0.1057281494140625
100767,-0.8290252685546875,0.1751251220703125,-0.3559417724609375
100768,-0.8290252685546875,0.1751251220703125,-0.3559417724609375
100769,-0.9397430419921876,0.02569580078125,-0.5071868896484375
100770,-0.977691650390625,-0.191986083984375,-0.5709381103515625
100771,-0.7993621826171875,-0.283233642578125,-0.6218719482421875
100772,-0.7993621826171875,-0.283233642578125,-0.6218719482421875
100773,-0.7551422119140625,-0.149749755859375,-0.572418212890625
100774,-0.8072052001953125,-0.0768280029296875,-0.50567626953125
100775,-1.158279418945312,-0.166656494140625,-0.3520965576171875
100776,-1.158279418945312,-0.166656494140625,-0.3520965576171875
100777,-1.53680419921875,-0.2959747314453125,-0.318511962890625
100778,-2.249282836914062,-0.48968505859375,-0.328155517578125
100779,-3.576217651367188,-0.998321533203125,-0.4418182373046875
100780,-4.38671875,-1.245468139648438,-0.025115966796875
100781,-4.110916137695312,-1.101043701171875,0.0662384033203125
100782,-3.12799072265625,-0.543548583984375,-0.081268310546875
100783,-2.366439819335938,0.3126678466796875,-1.177597045898438
100784,-2.366439819335938,0.3126678466796875,-1.177597045898438
100785,-2.101913452148438,0.2059783935546875,-1.2633056640625
100786,-1.87750244140625,0.0199127197265625,-1.211898803710938
100787,-1.47064208984375,-0.26910400390625,-0.7686309814453125
100788,-1.47064208984375,-0.26910400390625,-0.7686309814453125
100789,-1.3489990234375,-0.3858795166015625,-0.6121978759765625
100790,-1.150726318359375,-0.274810791015625,-0.480224609375
100791,-0.646453857421875,-0.1209869384765625,-0.435882568359375
100792,-0.646453857421875,-0.1209869384765625,-0.435882568359375
100793,-0.4369659423828125,-0.1121368408203125,-0.3378753662109375
100794,-0.2320404052734375,-0.084320068359375,-0.228973388671875
100795,-0.061431884765625,-0.05596923828125,-0.1469573974609375
100796,0.072265625,-0.01763916015625,-0.067901611328125
100797,0.156646728515625,0.016265869140625,-0.0174560546875
100798,0.1947174072265625,0.0366668701171875,-0.034515380859375
100799,0.2084197998046875,0.0667877197265625,-0.08111572265625
100800,0.2094573974609375,0.106201171875,-0.143035888671875
100801,0.1812744140625,0.152130126953125,-0.2318267822265625
100802,0.123199462890625,0.198333740234375,-0.3238525390625
100803,0.007293701171875,0.265228271484375,-0.405364990234375
100804,0.007293701171875,0.265228271484375,-0.405364990234375
100805,-0.371856689453125,0.1987457275390625,-0.29534912109375
100806,-0.5693359375,0.05438232421875,-0.1694183349609375
100807,-0.7643890380859375,-0.029693603515625,-0.065704345703125
100808,-1.009475708007812,-0.060089111328125,0.0450897216796875
100809,-1.322555541992188,-0.2130279541015625,0.226837158203125
100810,-1.67791748046875,-0.45843505859375,0.456787109375
100811,-2.116241455078125,-1.196746826171875,0.6068267822265625
100812,-2.116241455078125,-1.196746826171875,0.6068267822265625
100813,-2.069168090820312,-1.326019287109375,0.3319854736328125
100814,-1.890274047851562,-1.24267578125,0.478912353515625
100815,-1.428375244140625,-0.65863037109375,0.603912353515625
100816,-1.428375244140625,-0.65863037109375,0.603912353515625
100817,-1.2178955078125,-0.4330902099609375,0.4152069091796875
100818,-0.96136474609375,-0.299407958984375,0.333648681640625
100819,-0.435028076171875,-0.063995361328125,0.2863922119140625
100820,-0.435028076171875,-0.063995361328125,0.2863922119140625
100821,-0.271942138671875,0.0631256103515625,0.2411956787109375
100822,-0.1348724365234375,0.151611328125,0.163238525390625
100823,-0.0152435302734375,0.1973724365234375,0.0331573486328125
100824,-0.0152435302734375,0.1973724365234375,0.0331573486328125
100825,0.1131591796875,0.295318603515625,-0.238006591796875
100826,0.081146240234375,0.3719024658203125,-0.305999755859375
100827,-0.0510711669921875,0.4309539794921875,-0.4551544189453125
100828,-0.16815185546875,0.4748687744140625,-0.72137451171875
100829,-0.2998046875,0.4952239990234375,-0.6518402099609375
100830,-0.482940673828125,0.5078277587890625,-0.4210357666015625
100831,-0.566070556640625,0.3918609619140625,-0.2357330322265625
100832,-0.5646514892578125,0.1902923583984375,-0.2234039306640625
100833,-0.5795440673828125,0.0215301513671875,-0.43585205078125
100834,-0.52490234375,-0.051666259765625,-0.606475830078125
100835,-0.4069366455078125,-0.04010009765625,-0.6620025634765625
100836,-0.4069366455078125,-0.04010009765625,-0.6620025634765625
100837,-0.3883209228515625,0.0819244384765625,-0.497467041015625
100838,-0.43670654296875,0.0988006591796875,-0.4028778076171875
100839,-0.5011749267578125,0.144012451171875,-0.36798095703125
100840,-0.61798095703125,0.1796112060546875,-0.409088134765625
100841,-0.8616485595703125,0.183929443359375,-0.52789306640625
100842,-1.2203369140625,0.10308837890625,-0.65899658203125
100843,-1.621627807617188,-0.041473388671875,-0.71307373046875
100844,-2.1318359375,-0.1858062744140625,-0.7414703369140625
100845,-2.86529541015625,-0.3533477783203125,-0.7187652587890625
100846,-3.746383666992188,-0.6517181396484375,-0.7294158935546875
100847,-4.294723510742188,-1.598434448242188,-0.1576690673828125
100848,-4.294723510742188,-1.598434448242188,-0.1576690673828125
100849,-3.090316772460938,-1.174057006835938,0.056488037109375
100850,-2.46697998046875,-0.474945068359375,-0.631622314453125
100851,-2.180892944335938,-0.0942840576171875,-1.261138916015625
100852,-1.914352416992188,-0.0591278076171875,-1.387451171875
100853,-1.68731689453125,-0.1332855224609375,-1.132720947265625
100854,-1.489791870117188,-0.0870819091796875,-0.8459320068359375
100855,-1.30914306640625,-0.10345458984375,-0.6284637451171875
100856,-1.120697021484375,-0.1075439453125,-0.5386199951171875
100857,-0.9222412109375,-0.1125335693359375,-0.4440765380859375
100858,-0.7382354736328125,-0.1266021728515625,-0.372772216796875
100859,-0.5531463623046875,-0.105743408203125,-0.3338775634765625
100860,-0.372161865234375,-0.072296142578125,-0.287109375
100861,-0.2305755615234375,-0.03863525390625,-0.246002197265625
100862,-0.106048583984375,-0.01806640625,-0.1958770751953125
100863,0.0859375,0.0280609130859375,-0.096160888671875
100864,0.0859375,0.0280609130859375,-0.096160888671875
100865,0.1454315185546875,0.053466796875,-0.1314697265625
100866,0.16827392578125,0.06488037109375,-0.2093048095703125
100867,0.0575714111328125,0.105010986328125,-0.2352752685546875
100868,0.0575714111328125,0.105010986328125,-0.2352752685546875
100869,-0.064788818359375,0.12066650390625,-0.205322265625
100870,-0.1662445068359375,0.0901336669921875,-0.1648406982421875
100871,-0.3719329833984375,-0.02020263671875,-0.238037109375
100872,-0.3719329833984375,-0.02020263671875,-0.238037109375
100873,-0.4732208251953125,-0.0699310302734375,-0.265960693359375
100874,-0.5439910888671875,-0.107635498046875,-0.2335968017578125
100875,-0.592926025390625,-0.1351776123046875,-0.173187255859375
100876,-0.6500244140625,-0.170928955078125,-0.08154296875
100877,-0.7442626953125,-0.2243804931640625,0.0638427734375
100878,-0.9197540283203124,-0.3095245361328125,0.27301025390625
100879,-1.163955688476562,-0.4344482421875,0.5000457763671875
100880,-1.438003540039062,-0.62652587890625,0.7016448974609375
100881,-1.748641967773438,-0.887481689453125,0.7610931396484375
100882,-2.014312744140625,-1.161163330078125,0.582122802734375
100883,-2.144027709960938,-1.223983764648438,0.3543243408203125
100884,-2.1048583984375,-1.114273071289062,0.356964111328125
100885,-1.842254638671875,-0.86590576171875,0.540252685546875
100886,-1.44244384765625,-0.57806396484375,0.56268310546875
100887,-1.059417724609375,-0.360626220703125,0.4201507568359375
100888,-0.7506256103515625,-0.197265625,0.258209228515625
100889,-0.491912841796875,-0.0593719482421875,0.0738677978515625
100890,-0.2523345947265625,0.021697998046875,-0.095672607421875
100891,-0.05322265625,0.0632476806640625,-0.2543487548828125
100892,0.1089630126953125,0.1219024658203125,-0.37567138671875
100893,0.23052978515625,0.1738128662109375,-0.40362548828125
100894,0.3238525390625,0.2206268310546875,-0.3549041748046875
100895,0.35791015625,0.2953643798828125,-0.4394683837890625
100896,0.35791015625,0.2953643798828125,-0.4394683837890625
100897,0.12042236328125,0.4015045166015625,-0.79583740234375
100898,-0.092041015625,0.454010009765625,-0.63958740234375
100899,-0.3368682861328125,0.5324859619140625,-0.43505859375
100900,-0.5580596923828125,0.4606781005859375,-0.2008209228515625
100901,-0.629058837890625,0.3333282470703125,-0.1287689208984375
100902,-0.6122589111328125,0.2413177490234375,-0.217193603515625
100903,-0.6354217529296875,0.10504150390625,-0.5126190185546875
100904,-0.6354217529296875,0.10504150390625,-0.5126190185546875
100905,-0.5864715576171875,-0.0330352783203125,-0.702789306640625
100906,-0.621063232421875,-0.153594970703125,-0.8264617919921875
100907,-0.7057647705078125,-0.2097320556640625,-0.8263092041015625
100908,-0.779083251953125,-0.184112548828125,-0.7782745361328125
100909,-0.8990631103515625,-0.09014892578125,-0.8966522216796875
100910,-1.08062744140625,0.026397705078125,-1.131683349609375
100911,-1.749435424804688,0.068115234375,-1.331939697265625
100912,-1.749435424804688,0.068115234375,-1.331939697265625
100913,-2.365386962890625,0.00250244140625,-1.164520263671875
100914,-3.148269653320312,-0.110260009765625,-1.137603759765625
100915,-3.849365234375,-0.2864532470703125,-1.32489013671875
100916,-3.849365234375,-0.2864532470703125,-1.32489013671875
100917,-3.65643310546875,-1.1097412109375,-0.8729705810546875
100918,-2.872451782226562,-1.129409790039062,-0.784912109375
100919,-2.30194091796875,-0.595306396484375,-0.9585418701171876
100920,-1.851959228515625,-0.3270111083984375,-1.11468505859375
100921,-1.486434936523438,-0.3037261962890625,-1.0325927734375
100922,-1.190216064453125,-0.329315185546875,-0.8659820556640625
100923,-0.9786376953125,-0.3674468994140625,-0.7231903076171875
100924,-0.858123779296875,-0.404022216796875,-0.577850341796875
100925,-0.7718505859375,-0.39312744140625,-0.406951904296875
100926,-0.6751861572265625,-0.3563995361328125,-0.233551025390625
100927,-0.564788818359375,-0.2955322265625,-0.1526336669921875
100928,-0.439910888671875,-0.2438201904296875,-0.1261138916015625
100929,-0.2985076904296875,-0.213348388671875,-0.07427978515625
100930,-0.17144775390625,-0.189544677734375,-0.0471038818359375
100931,0.007110595703125,-0.0879364013671875,-0.092376708984375
100932,0.007110595703125,-0.0879364013671875,-0.092376708984375
100933,0.026702880859375,-0.03515625,-0.17657470703125
100934,0.006256103515625,0.007110595703125,-0.2813720703125
100935,-0.1190948486328125,0.095611572265625,-0.3832550048828125
100936,-0.1190948486328125,0.095611572265625,-0.3832550048828125
100937,-0.2247314453125,0.165313720703125,-0.36090087890625
100938,-0.316680908203125,0.21527099609375,-0.3011016845703125
100939,-0.400970458984375,0.2387237548828125,-0.2018585205078125
100940,-0.465179443359375,0.257568359375,-0.1353302001953125
100941,-0.52728271484375,0.2290191650390625,-0.08697509765625
100942,-0.6033782958984375,0.169464111328125,-0.002227783203125
100943,-0.8079681396484375,0.056304931640625,0.1256866455078125
100944,-0.8079681396484375,0.056304931640625,0.1256866455078125
100945,-0.9489288330078124,-0.02679443359375,0.1818084716796875
100946,-1.132186889648438,-0.13092041015625,0.3192138671875
100947,-1.333084106445312,-0.2543182373046875,0.5323333740234375
100948,-1.541839599609375,-0.40411376953125,0.797698974609375
100949,-1.728408813476562,-0.6240997314453125,1.046142578125
100950,-1.82781982421875,-1.019439697265625,1.260147094726562
100951,-1.930496215820312,-1.500213623046875,1.172683715820312
100952,-1.896041870117188,-1.62542724609375,0.6953125
100953,-1.370468139648438,-1.39697265625,0.1908721923828125
100954,-0.881134033203125,-0.941253662109375,0.0791473388671875
100955,-0.6234130859375,-0.538330078125,0.0456695556640625
100956,-0.4369659423828125,-0.25738525390625,-0.025360107421875
100957,-0.2752685546875,-0.1122589111328125,-0.1317596435546875
100958,-0.1605224609375,-0.024627685546875,-0.29400634765625
100959,-0.014251708984375,0.1729278564453125,-0.641815185546875
100960,-0.014251708984375,0.1729278564453125,-0.641815185546875
100961,-0.07537841796875,0.2368316650390625,-0.731048583984375
100962,-0.2380523681640625,0.2934417724609375,-0.7816925048828125
100963,-0.4015350341796875,0.365142822265625,-0.8067626953125
100964,-0.4015350341796875,0.365142822265625,-0.8067626953125
100965,-0.62249755859375,0.281219482421875,-0.42327880859375
100966,-0.703948974609375,0.212921142578125,-0.14703369140625
100967,-0.655303955078125,0.2129058837890625,-0.152984619140625
100968,-0.655303955078125,0.2129058837890625,-0.152984619140625
100969,-0.52557373046875,0.2514801025390625,-0.327056884765625
100970,-0.5050506591796875,0.2847747802734375,-0.39422607421875
100971,-0.4471893310546875,0.1560211181640625,-0.40411376953125
100972,-0.4471893310546875,0.1560211181640625,-0.40411376953125
100973,-0.43621826171875,0.0684356689453125,-0.35498046875
100974,-0.4262237548828125,0.020294189453125,-0.2837371826171875
100975,-0.407135009765625,0.0162200927734375,-0.3007659912109375
100976,-0.423553466796875,0.07012939453125,-0.4366912841796875
100977,-0.5435791015625,0.16168212890625,-0.66070556640625
100978,-0.8302154541015625,0.2728729248046875,-0.8439483642578125
100979,-1.29681396484375,0.2833404541015625,-0.8137054443359375
100980,-1.823974609375,0.132476806640625,-0.645294189453125
100981,-2.375350952148438,-0.0112457275390625,-0.450439453125
100982,-2.968597412109375,-0.088958740234375,-0.276275634765625
100983,-5.050979614257812,-0.6427001953125,-0.210906982421875
100984,-5.050979614257812,-0.6427001953125,-0.210906982421875
100985,-4.674331665039062,-0.98779296875,-0.035552978515625
100986,-3.1600341796875,-0.92828369140625,0.0284881591796875
100987,-2.436172485351562,-0.468017578125,-0.5381622314453125
100988,-2.073257446289062,-0.2453155517578125,-1.420303344726562
100989,-1.774093627929688,-0.273529052734375,-1.216094970703125
100990,-1.5076904296875,-0.1054534912109375,-0.687652587890625
100991,-1.233016967773438,-0.0294036865234375,-0.552734375
100992,-0.96307373046875,-0.15087890625,-0.527130126953125
100993,-0.73974609375,-0.271270751953125,-0.4573211669921875
100994,-0.565948486328125,-0.3252105712890625,-0.3599700927734375
100995,-0.2602996826171875,-0.3519744873046875,-0.19757080078125
100996,-0.2602996826171875,-0.3519744873046875,-0.19757080078125
100997,-0.1207275390625,-0.30047607421875,-0.174896240234375
100998,-0.0017852783203125,-0.2181854248046875,-0.1823883056640625
100999,0.070648193359375,-0.1255645751953125,-0.210113525390625
101000,0.1141510009765625,-0.040008544921875,-0.246124267578125
101001,0.1285247802734375,0.0229949951171875,-0.30364990234375
101002,0.0990142822265625,0.066436767578125,-0.3610992431640625
101003,0.0338592529296875,0.09112548828125,-0.3720245361328125
101004,-0.048614501953125,0.115692138671875,-0.33135986328125
101005,-0.142059326171875,0.157958984375,-0.2836151123046875
101006,-0.22039794921875,0.2193603515625,-0.282073974609375
101007,-0.3028564453125,0.24578857421875,-0.3010101318359375
101008,-0.395599365234375,0.204498291015625,-0.2904510498046875
101009,-0.48223876953125,0.09893798828125,-0.25030517578125
101010,-0.5678558349609375,0.006561279296875,-0.1835479736328125
101011,-0.8336639404296875,-0.1869659423828125,0.1372833251953125
101012,-0.8336639404296875,-0.1869659423828125,0.1372833251953125
101013,-1.031082153320312,-0.3509368896484375,0.3921966552734375
101014,-1.304595947265625,-0.5872955322265625,0.708831787109375
101015,-1.628875732421875,-0.9070892333984376,0.7922210693359375
101016,-1.628875732421875,-0.9070892333984376,0.7922210693359375
101017,-1.85455322265625,-1.228485107421875,0.2720794677734375
101018,-1.849441528320312,-1.155853271484375,0.34954833984375
101019,-1.687576293945312,-0.8947601318359375,0.4704437255859375
101020,-1.452651977539062,-0.615203857421875,0.5850982666015625
101021,-1.182388305664062,-0.4258880615234375,0.5543365478515625
101022,-0.90020751953125,-0.3166656494140625,0.4224395751953125
101023,-0.4814300537109375,-0.1094207763671875,0.153411865234375
101024,-0.4814300537109375,-0.1094207763671875,0.153411865234375
101025,-0.33502197265625,-0.0274200439453125,0.020355224609375
101026,-0.202392578125,0.033782958984375,-0.102264404296875
101027,-0.085906982421875,0.07098388671875,-0.17156982421875
101028,0.00994873046875,0.108001708984375,-0.2820892333984375
101029,0.061798095703125,0.1403961181640625,-0.4656524658203125
101030,0.04638671875,0.1538848876953125,-0.6185150146484375
101031,-0.0550079345703125,0.20208740234375,-0.77197265625
101032,-0.2876434326171875,0.2976226806640625,-0.88525390625
101033,-0.4967193603515625,0.392791748046875,-0.7546844482421875
101034,-0.599945068359375,0.323638916015625,-0.5579833984375
101035,-0.63720703125,0.1716461181640625,-0.4520263671875
101036,-0.6112518310546875,0.128204345703125,-0.5231170654296875
101037,-0.5732421875,0.116607666015625,-0.5301971435546875
101038,-0.542022705078125,0.11358642578125,-0.4899444580078125
101039,-0.432037353515625,0.133270263671875,-0.3898468017578125
101040,-0.432037353515625,0.133270263671875,-0.3898468017578125
101041,-0.4236907958984375,0.0660552978515625,-0.3598175048828125
101042,-0.43316650390625,0.0154876708984375,-0.4185943603515625
101043,-0.5735321044921875,0.219696044921875,-0.67987060546875
101044,-0.5735321044921875,0.219696044921875,-0.67987060546875
101045,-0.8476715087890625,0.300201416015625,-0.6904754638671875
101046,-1.251754760742188,0.232391357421875,-0.5640106201171875
101047,-1.845977783203125,0.017974853515625,-0.46148681640625
101048,-2.714447021484375,-0.272064208984375,-0.488433837890625
101049,-4.225723266601562,-0.79840087890625,-0.7853240966796875
101050,-5.56353759765625,-1.310470581054688,-1.151443481445312
101051,-3.5068359375,-1.259292602539062,-0.1120758056640625
101052,-3.5068359375,-1.259292602539062,-0.1120758056640625
101053,-2.532028198242188,-0.77960205078125,-0.4553070068359375
101054,-2.030685424804688,-0.332366943359375,-1.053451538085938
101055,-1.639312744140625,-0.0608062744140625,-1.319259643554688
101056,-1.441650390625,-0.1597900390625,-1.2535400390625
101057,-1.23486328125,-0.2807464599609375,-0.99285888671875
101058,-1.030364990234375,-0.266448974609375,-0.87152099609375
101059,-0.728546142578125,-0.325714111328125,-0.66436767578125
101060,-0.728546142578125,-0.325714111328125,-0.66436767578125
101061,-0.626190185546875,-0.2660675048828125,-0.55084228515625
101062,-0.489532470703125,-0.1972503662109375,-0.4351348876953125
101063,-0.1844024658203125,-0.0824432373046875,-0.332855224609375
101064,-0.1844024658203125,-0.0824432373046875,-0.332855224609375
101065,-0.059356689453125,-0.0294189453125,-0.2752685546875
101066,0.0399932861328125,0.0268096923828125,-0.2172088623046875
101067,0.103668212890625,0.075164794921875,-0.1629486083984375
101068,0.1342926025390625,0.103424072265625,-0.137939453125
101069,0.1302947998046875,0.1157073974609375,-0.1602630615234375
101070,0.090789794921875,0.1220855712890625,-0.195587158203125
101071,0.032501220703125,0.15240478515625,-0.2324371337890625
101072,-0.0194854736328125,0.1861724853515625,-0.2255706787109375
101073,-0.057708740234375,0.2026824951171875,-0.180084228515625
101074,-0.1122894287109375,0.1787567138671875,-0.1368255615234375
101075,-0.206146240234375,0.105865478515625,-0.121429443359375
101076,-0.31732177734375,0.039520263671875,-0.16461181640625
101077,-0.4278106689453125,0.00225830078125,-0.2111358642578125
101078,-0.5326080322265625,-0.0224761962890625,-0.2026214599609375
101079,-0.641387939453125,-0.0800628662109375,-0.1132354736328125
101080,-0.775146484375,-0.1843414306640625,0.018157958984375
101081,-0.9196929931640624,-0.2901611328125,0.182159423828125
101082,-1.092620849609375,-0.41241455078125,0.3522186279296875
101083,-1.577789306640625,-0.8007049560546875,0.7254486083984375
101084,-1.577789306640625,-0.8007049560546875,0.7254486083984375
101085,-1.77288818359375,-0.951904296875,0.71429443359375
101086,-1.9296875,-0.9850921630859376,0.716644287109375
101087,-1.859481811523438,-1.197311401367188,0.63336181640625
101088,-1.859481811523438,-1.197311401367188,0.63336181640625
101089,-1.51605224609375,-0.983123779296875,0.5649261474609375
101090,-1.136520385742188,-0.6311187744140625,0.33892822265625
101091,-0.7896270751953125,-0.37152099609375,0.125518798828125
101092,-0.5461578369140625,-0.1888427734375,0.0079345703125
101093,-0.36590576171875,-0.0472412109375,-0.0925140380859375
101094,-0.2020416259765625,0.02325439453125,-0.25830078125
101095,-0.075714111328125,0.0570220947265625,-0.47637939453125
101096,0.0211029052734375,0.1167449951171875,-0.6746673583984375
101097,0.01416015625,0.185302734375,-0.9318084716796876
101098,-0.11181640625,0.239105224609375,-0.893035888671875
101099,-0.301910400390625,0.26031494140625,-0.50927734375
101100,-0.4640045166015625,0.259246826171875,-0.27532958984375
101101,-0.6663360595703125,0.1343994140625,-0.0967864990234375
101102,-0.860870361328125,0.023162841796875,-0.0373382568359375
101103,-0.9846954345703124,0.0919036865234375,-0.193572998046875
101104,-0.9846954345703124,0.0919036865234375,-0.193572998046875
101105,-0.8978118896484375,0.1727142333984375,-0.3640899658203125
101106,-0.7570037841796875,0.203155517578125,-0.4661102294921875
101107,-0.5559844970703125,0.1965789794921875,-0.5036773681640625
101108,-0.398468017578125,0.156341552734375,-0.507171630859375
101109,-0.3341064453125,0.0652618408203125,-0.48272705078125
101110,-0.3157196044921875,-0.0002899169921875,-0.487396240234375
101111,-0.4167633056640625,0.055694580078125,-0.6319732666015625
101112,-0.4167633056640625,0.055694580078125,-0.6319732666015625
101113,-0.6337432861328125,0.15057373046875,-0.6906585693359375
101114,-0.9478759765625,0.176300048828125,-0.6424560546875
101115,-1.324111938476562,0.0867462158203125,-0.5053863525390625
101116,-1.742324829101562,-0.0937957763671875,-0.3362274169921875
101117,-2.239837646484375,-0.3026275634765625,-0.2200164794921875
101118,-2.838363647460938,-0.4516754150390625,-0.142242431640625
101119,-3.83123779296875,-0.712615966796875,-0.1945953369140625
101120,-4.7200927734375,-1.2335205078125,-0.0869140625
101121,-4.073272705078125,-1.431793212890625,0.2995147705078125
101122,-2.731338500976562,-1.038497924804688,0.2171630859375
101123,-1.89678955078125,-0.17132568359375,-1.75750732421875
101124,-1.89678955078125,-0.17132568359375,-1.75750732421875
101125,-1.55316162109375,-0.092315673828125,-1.927001953125
101126,-1.354415893554688,-0.246124267578125,-1.00592041015625
101127,-1.20806884765625,-0.136322021484375,-0.6509857177734375
101128,-1.041412353515625,-0.132110595703125,-0.70361328125
101129,-0.8363189697265625,-0.1503448486328125,-0.7260284423828125
101130,-0.633453369140625,-0.12933349609375,-0.6665802001953125
101131,-0.4909210205078125,-0.0977020263671875,-0.56622314453125
101132,-0.3638916015625,-0.0802459716796875,-0.4139404296875
101133,-0.217681884765625,-0.0462646484375,-0.27532958984375
101134,-0.081207275390625,-0.0113525390625,-0.1646270751953125
101135,0.0341949462890625,0.0165557861328125,-0.087615966796875
101136,0.0341949462890625,0.0165557861328125,-0.087615966796875
101137,0.1402740478515625,0.0483551025390625,-0.0794830322265625
101138,0.1423797607421875,0.08233642578125,-0.1944427490234375
101139,0.0865478515625,0.1199951171875,-0.3034515380859375
101140,-0.020172119140625,0.133697509765625,-0.34356689453125
101141,-0.124481201171875,0.152740478515625,-0.27325439453125
101142,-0.245269775390625,0.176666259765625,-0.154632568359375
101143,-0.387725830078125,0.1862030029296875,-0.0684051513671875
101144,-0.585784912109375,0.141845703125,-0.0655364990234375
101145,-0.8165130615234375,0.05560302734375,-0.040557861328125
101146,-1.043380737304688,-0.0017852783203125,0.0073394775390625
101147,-1.278030395507812,-0.1142730712890625,0.1235198974609375
101148,-1.493484497070312,-0.310516357421875,0.3170318603515625
101149,-1.66644287109375,-0.54266357421875,0.630889892578125
101150,-1.80084228515625,-0.851104736328125,0.932037353515625
101151,-1.80389404296875,-1.080215454101562,0.7944183349609375
101152,-1.737503051757812,-1.107711791992188,0.5660400390625
101153,-1.62799072265625,-1.087814331054688,0.634429931640625
101154,-1.387161254882812,-0.9916534423828124,0.6300048828125
101155,-1.126876831054688,-0.766265869140625,0.5289154052734375
101156,-0.8398590087890625,-0.5191497802734375,0.4425048828125
101157,-0.586456298828125,-0.3177490234375,0.3395843505859375
101158,-0.3988800048828125,-0.148468017578125,0.2245635986328125
101159,-0.2508544921875,-0.0359039306640625,0.0764007568359375
101160,-0.127044677734375,0.0157928466796875,-0.0781097412109375
101161,-0.028350830078125,0.04925537109375,-0.16448974609375
101162,0.0261383056640625,0.0969085693359375,-0.20001220703125
101163,0.0222015380859375,0.142822265625,-0.24688720703125
101164,-0.0856475830078125,0.1624298095703125,-0.26580810546875
101165,-0.245574951171875,0.1424713134765625,-0.3394622802734375
101166,-0.384246826171875,0.1726837158203125,-0.49200439453125
101167,-0.5260772705078125,0.2268829345703125,-0.6137237548828125
101168,-0.5260772705078125,0.2268829345703125,-0.6137237548828125
101169,-0.723846435546875,0.271270751953125,-0.47137451171875
101170,-0.792572021484375,0.2663421630859375,-0.4087371826171875
101171,-0.8705291748046875,0.23626708984375,-0.33026123046875
101172,-0.8558807373046875,0.2045745849609375,-0.3333587646484375
101173,-0.7544097900390625,0.181304931640625,-0.351318359375
101174,-0.6544952392578125,0.123291015625,-0.414520263671875
101175,-0.3672332763671875,0.0446319580078125,-0.5633087158203125
101176,-0.3672332763671875,0.0446319580078125,-0.5633087158203125
101177,-0.3673095703125,0.07183837890625,-0.595123291015625
101178,-0.44927978515625,0.1292266845703125,-0.63287353515625
101179,-0.6178741455078125,0.1963653564453125,-0.6638336181640625
101180,-0.8903961181640625,0.21356201171875,-0.6099090576171875
101181,-1.205337524414062,0.12811279296875,-0.472503662109375
101182,-1.609512329101562,-0.0314178466796875,-0.3672027587890625
101183,-3.49017333984375,-0.772216796875,-0.343597412109375
101184,-3.49017333984375,-0.772216796875,-0.343597412109375
101185,-4.494918823242188,-0.9495697021484376,-0.3258056640625
101186,-4.418197631835938,-0.9415130615234376,-0.27490234375
101187,-3.665924072265625,-1.077255249023438,0.166015625
101188,-2.921981811523438,-0.7864532470703125,0.0711212158203125
101189,-2.486923217773438,-0.4216156005859375,-0.7918853759765625
101190,-2.201187133789062,-0.2324371337890625,-1.446090698242188
101191,-1.60614013671875,0.068817138671875,-0.8711700439453125
101192,-1.60614013671875,0.068817138671875,-0.8711700439453125
101193,-1.411849975585938,-0.1902618408203125,-0.462860107421875
101194,-1.14453125,-0.2306976318359375,-0.4438018798828125
101195,-0.835601806640625,-0.2715301513671875,-0.4477081298828125
101196,-0.5414886474609375,-0.318450927734375,-0.397857666015625
101197,-0.2702484130859375,-0.26568603515625,-0.3706817626953125
101198,-0.0818634033203125,-0.2047882080078125,-0.320220947265625
101199,0.058197021484375,-0.1500091552734375,-0.2574462890625
101200,0.16583251953125,-0.060943603515625,-0.2291107177734375
101201,0.238983154296875,0.0417938232421875,-0.2261199951171875
101202,0.2774505615234375,0.1319732666015625,-0.227935791015625
101203,0.2868499755859375,0.1934814453125,-0.2355194091796875
101204,0.271087646484375,0.2531585693359375,-0.26220703125
101205,0.205291748046875,0.3276214599609375,-0.317535400390625
101206,0.1127471923828125,0.39105224609375,-0.38671875
101207,0.024169921875,0.3985748291015625,-0.4191131591796875
101208,-0.1098480224609375,0.247344970703125,-0.3805999755859375
101209,-0.2774505615234375,0.0235443115234375,-0.2716217041015625
101210,-0.453338623046875,-0.1172332763671875,-0.17437744140625
101211,-0.60394287109375,-0.178253173828125,-0.083465576171875
101212,-0.60394287109375,-0.178253173828125,-0.083465576171875
101213,-0.9052886962890624,-0.290191650390625,0.084442138671875
101214,-1.117996215820312,-0.4068145751953125,0.2021484375
101215,-1.362350463867188,-0.5598602294921875,0.322479248046875
101216,-1.592926025390625,-0.8068695068359375,0.3822784423828125
101217,-1.791732788085938,-1.12689208984375,0.3639068603515625
101218,-1.947662353515625,-1.358016967773438,0.319732666015625
101219,-1.986099243164062,-1.357833862304688,0.34222412109375
101220,-1.841506958007812,-1.0926513671875,0.4958953857421875
101221,-1.616851806640625,-0.77789306640625,0.586273193359375
101222,-1.350616455078125,-0.4774017333984375,0.5352630615234375
101223,-0.815582275390625,-0.0198822021484375,0.2690582275390625
101224,-0.815582275390625,-0.0198822021484375,0.2690582275390625
101225,-0.570831298828125,0.124725341796875,0.0891265869140625
101226,-0.338470458984375,0.1895751953125,-0.0987091064453125
101227,-0.024200439453125,0.2575531005859375,-0.3628692626953125
101228,-0.024200439453125,0.2575531005859375,-0.3628692626953125
101229,0.0510101318359375,0.2130889892578125,-0.4013519287109375
101230,0.037689208984375,0.133575439453125,-0.3323974609375
101231,-0.104522705078125,0.044586181640625,-0.228759765625
101232,-0.279815673828125,0.0466461181640625,-0.2176971435546875
101233,-0.3978118896484375,0.0892791748046875,-0.23468017578125
101234,-0.4202117919921875,0.1327667236328125,-0.24212646484375
101235,-0.3626556396484375,0.1165771484375,-0.179656982421875
101236,-0.3626556396484375,0.1165771484375,-0.179656982421875
101237,-0.3103485107421875,0.120147705078125,-0.2209320068359375
101238,-0.314483642578125,0.11297607421875,-0.318634033203125
101239,-0.35858154296875,0.0993194580078125,-0.4215240478515625
101240,-0.3797454833984375,0.0885467529296875,-0.4849395751953125
101241,-0.4095458984375,0.006744384765625,-0.5066986083984375
101242,-0.512542724609375,-0.0799560546875,-0.5041351318359375
101243,-0.657135009765625,-0.1446075439453125,-0.5172119140625
101244,-0.81121826171875,-0.1299896240234375,-0.5097503662109375
101245,-0.9622344970703124,-0.119049072265625,-0.431610107421875
101246,-1.127670288085938,-0.1943817138671875,-0.3001556396484375
101247,-1.412872314453125,-0.35162353515625,-0.1379852294921875
101248,-1.962310791015625,-0.6492919921875,0.0128936767578125
101249,-3.089935302734375,-1.36517333984375,0.0546722412109375
101250,-3.606521606445312,-1.652252197265625,0.4131622314453125
101251,-3.509872436523438,-1.8355712890625,0.4366302490234375
101252,-3.128646850585938,-1.802322387695312,0.4286346435546875
101253,-2.779083251953125,-1.284271240234375,0.41204833984375
101254,-2.510223388671875,-0.7147216796875,0.1612701416015625
101255,-2.253631591796875,-0.3738555908203125,-0.440887451171875
101256,-2.027206420898438,-0.153350830078125,-1.007308959960938
101257,-1.749710083007812,0.003204345703125,-1.420730590820312
101258,-1.381088256835938,0.0301971435546875,-1.568099975585938
101259,-1.197662353515625,-0.296844482421875,-1.465774536132812
101260,-1.087005615234375,-0.7210693359375,-1.114700317382812
101261,-0.8703155517578125,-0.6368408203125,-0.9351348876953124
101262,-0.7279205322265625,-0.5279388427734375,-0.8162841796875
101263,-0.479644775390625,-0.2279815673828125,-0.51031494140625
101264,-0.479644775390625,-0.2279815673828125,-0.51031494140625
101265,-0.34002685546875,-0.0888519287109375,-0.357421875
101266,-0.1949310302734375,0.0311126708984375,-0.206024169921875
101267,-0.0150146484375,0.142669677734375,0.040863037109375
101268,-0.0150146484375,0.142669677734375,0.040863037109375
101269,0.0033721923828125,0.1671142578125,0.0598297119140625
101270,-0.0008087158203125,0.204071044921875,-0.01348876953125
101271,-0.01690673828125,0.2202911376953125,-0.1376190185546875
101272,-0.0323028564453125,0.23468017578125,-0.27056884765625
101273,-0.058837890625,0.26165771484375,-0.4048614501953125
101274,-0.12664794921875,0.2204437255859375,-0.46685791015625
101275,-0.2442169189453125,0.0944671630859375,-0.39874267578125
101276,-0.3463592529296875,-0.02825927734375,-0.2610626220703125
101277,-0.438934326171875,-0.089202880859375,-0.201171875
101278,-0.5070343017578125,-0.128204345703125,-0.2076263427734375
101279,-0.584197998046875,-0.19256591796875,-0.206390380859375
101280,-0.689117431640625,-0.2657318115234375,-0.151824951171875
101281,-0.8252410888671875,-0.345733642578125,-0.0268402099609375
101282,-0.996856689453125,-0.4607696533203125,0.0997161865234375
101283,-1.45794677734375,-0.8193817138671875,0.260894775390625
101284,-1.45794677734375,-0.8193817138671875,0.260894775390625
101285,-1.703384399414062,-0.9601898193359376,0.3837890625
101286,-1.927963256835938,-1.013839721679688,0.56414794921875
101287,-2.106552124023438,-1.045135498046875,0.73956298828125
101288,-2.20477294921875,-1.141265869140625,0.909637451171875
101289,-2.076934814453125,-1.163848876953125,0.995819091796875
101290,-1.612747192382812,-0.889129638671875,0.6891326904296875
101291,-1.115280151367188,-0.5532379150390625,0.204345703125
101292,-0.7486724853515625,-0.3204498291015625,-0.074310302734375
101293,-0.4718780517578125,-0.153656005859375,-0.184173583984375
101294,-0.240966796875,-0.0741729736328125,-0.271484375
101295,-0.0571746826171875,-0.0265960693359375,-0.403656005859375
101296,0.1027679443359375,0.0401458740234375,-0.42138671875
101297,0.177581787109375,0.068878173828125,-0.49609375
101298,0.1175994873046875,0.126007080078125,-0.7169342041015625
101299,-0.039794921875,0.2185821533203125,-0.719818115234375
101300,-0.2632904052734375,0.2985992431640625,-0.5720672607421875
101301,-0.3719329833984375,0.32440185546875,-0.4217987060546875
101302,-0.401458740234375,0.1359100341796875,-0.237396240234375
101303,-0.4755401611328125,0.0436859130859375,-0.2337799072265625
101304,-0.524627685546875,0.0954437255859375,-0.25189208984375
101305,-0.4995574951171875,0.19073486328125,-0.290283203125
101306,-0.4618988037109375,0.2200469970703125,-0.4242706298828125
101307,-0.405181884765625,0.2175140380859375,-0.4903564453125
101308,-0.3521270751953125,0.176025390625,-0.4470062255859375
101309,-0.3418121337890625,0.0929107666015625,-0.360595703125
101310,-0.3339691162109375,0.0168914794921875,-0.297088623046875
101311,-0.305023193359375,0.0020599365234375,-0.29791259765625
101312,-0.306915283203125,0.05841064453125,-0.4167022705078125
101313,-0.407623291015625,0.1525421142578125,-0.6094818115234375
101314,-0.632232666015625,0.266876220703125,-0.822113037109375
101315,-1.498443603515625,0.0907135009765625,-0.890869140625
101316,-1.498443603515625,0.0907135009765625,-0.890869140625
101317,-2.106613159179688,-0.25286865234375,-0.7582244873046875
101318,-2.706741333007812,-0.5137176513671875,-0.6524505615234375
101319,-3.577011108398438,-0.776580810546875,-0.5488128662109375
101320,-4.659194946289062,-1.184173583984375,-0.40838623046875
101321,-4.503463745117188,-1.30096435546875,0.1954803466796875
101322,-3.396957397460938,-1.110504150390625,0.6599273681640625
101323,-2.64044189453125,-0.5568695068359375,0.437164306640625
101324,-2.220367431640625,-0.217926025390625,-0.4658966064453125
101325,-1.9398193359375,-0.125640869140625,-1.696868896484375
101326,-1.718002319335938,-0.1585693359375,-1.879440307617188
101327,-1.238388061523438,-0.0124053955078125,-0.538726806640625
101328,-1.238388061523438,-0.0124053955078125,-0.538726806640625
101329,-1.011993408203125,-0.0298309326171875,-0.4468536376953125
101330,-0.7960357666015625,-0.1239013671875,-0.4039154052734375
101331,-0.5789642333984375,-0.1691741943359375,-0.3575592041015625
101332,-0.407257080078125,-0.1679534912109375,-0.2985076904296875
101333,-0.25592041015625,-0.14959716796875,-0.2499237060546875
101334,-0.1247406005859375,-0.137420654296875,-0.22637939453125
101335,0.1072235107421875,-0.04083251953125,-0.2248687744140625
101336,0.1072235107421875,-0.04083251953125,-0.2248687744140625
101337,0.191009521484375,0.0370025634765625,-0.2736053466796875
101338,0.2322540283203125,0.1197662353515625,-0.3766937255859375
101339,0.1777801513671875,0.2604217529296875,-0.5281524658203125
101340,0.1777801513671875,0.2604217529296875,-0.5281524658203125
101341,0.061676025390625,0.29071044921875,-0.4651336669921875
101342,-0.2740478515625,0.0817413330078125,-0.2139434814453125
101343,-0.2740478515625,0.0817413330078125,-0.2139434814453125
101344,-0.3962554931640625,-0.071807861328125,-0.123565673828125
101345,-0.4996490478515625,-0.138580322265625,-0.04010009765625
101346,-0.63104248046875,-0.1609039306640625,0.050445556640625
101347,-0.792449951171875,-0.1698760986328125,0.1503143310546875
101348,-1.00408935546875,-0.20794677734375,0.2689361572265625
101349,-1.250946044921875,-0.3172760009765625,0.3536224365234375
101350,-1.52093505859375,-0.450836181640625,0.3952789306640625
101351,-1.804290771484375,-0.596832275390625,0.410064697265625
101352,-2.072494506835938,-0.7748260498046875,0.4842376708984375
101353,-2.203811645507812,-0.939056396484375,0.6165618896484375
101354,-2.115005493164062,-1.019851684570312,0.7324676513671875
101355,-1.8941650390625,-1.007705688476562,0.8509979248046875
101356,-1.6041259765625,-0.9898834228515624,0.857696533203125
101357,-1.257766723632812,-0.824493408203125,0.6385498046875
101358,-0.951568603515625,-0.5070953369140625,0.3213043212890625
101359,-0.6846771240234375,-0.2234954833984375,0.0485992431640625
101360,-0.4207000732421875,-0.0265655517578125,-0.1713104248046875
101361,-0.180633544921875,0.123138427734375,-0.29486083984375
101362,0.1699371337890625,0.2823486328125,-0.3334808349609375
101363,0.1699371337890625,0.2823486328125,-0.3334808349609375
101364,0.2232818603515625,0.2611541748046875,-0.1623382568359375
101365,0.180145263671875,0.2682037353515625,-0.0439300537109375
101366,0.0464935302734375,0.2420654296875,-0.00811767578125
101367,-0.12445068359375,0.2309417724609375,-0.088623046875
101368,-0.2664337158203125,0.2760009765625,-0.2327880859375
101369,-0.3578033447265625,0.331451416015625,-0.29376220703125
101370,-0.4352569580078125,0.3672332763671875,-0.296661376953125
101371,-0.570037841796875,0.3823699951171875,-0.2272796630859375
101372,-0.570037841796875,0.3823699951171875,-0.2272796630859375
101373,-0.618072509765625,0.3088226318359375,-0.2524261474609375
101374,-0.65667724609375,0.024017333984375,-0.4511566162109375
101375,-0.65667724609375,0.024017333984375,-0.4511566162109375
101376,-0.7417144775390625,-0.1172027587890625,-0.4859619140625
101377,-0.7615509033203125,-0.1798858642578125,-0.63018798828125
101378,-0.726470947265625,-0.096771240234375,-0.794677734375
101379,-0.7204437255859375,0.029693603515625,-0.7935943603515625
101380,-0.800567626953125,0.071441650390625,-0.6439056396484375
101381,-0.939697265625,0.051849365234375,-0.4948577880859375
101382,-1.174835205078125,-0.02142333984375,-0.3144989013671875
101383,-2.466781616210938,-0.5006866455078125,-0.06121826171875
101384,-2.466781616210938,-0.5006866455078125,-0.06121826171875
101385,-3.885711669921875,-1.232498168945312,-0.1051788330078125
101386,-4.337600708007812,-1.265792846679688,-0.17706298828125
101387,-3.832748413085938,-1.325469970703125,-0.177093505859375
101388,-2.991683959960938,-1.004302978515625,0.0276641845703125
101389,-2.400299072265625,-0.35589599609375,-0.3747100830078125
101390,-2.158447265625,-0.1286163330078125,-1.06732177734375
101391,-2.045654296875,-0.0121307373046875,-1.388198852539062
101392,-1.906280517578125,0.13275146484375,-1.235671997070312
101393,-1.672775268554688,0.18280029296875,-1.059432983398438
101394,-1.552352905273438,-0.1828765869140625,-0.711822509765625
101395,-1.389419555664062,-0.279693603515625,-0.575347900390625
101396,-1.130294799804688,-0.275360107421875,-0.5229644775390625
101397,-0.8462677001953125,-0.319854736328125,-0.412445068359375
101398,-0.5994110107421875,-0.2727203369140625,-0.32647705078125
101399,-0.3967742919921875,-0.1843109130859375,-0.2674713134765625
101400,-0.213897705078125,-0.126800537109375,-0.2142333984375
101401,-0.0538330078125,-0.072998046875,-0.15057373046875
101402,0.075592041015625,-0.0194854736328125,-0.1063690185546875
101403,0.1631011962890625,0.0362396240234375,-0.07061767578125
101404,0.1969451904296875,0.0857696533203125,-0.0937652587890625
101405,0.18731689453125,0.123321533203125,-0.1537628173828125
101406,0.147491455078125,0.15545654296875,-0.2028350830078125
101407,0.07489013671875,0.1978759765625,-0.216888427734375
101408,-0.0493316650390625,0.2193603515625,-0.2216339111328125
101409,-0.1752166748046875,0.2078399658203125,-0.2349853515625
101410,-0.30816650390625,0.1309814453125,-0.2273101806640625
101411,-0.427337646484375,0.0259552001953125,-0.183624267578125
101412,-0.5527191162109375,-0.0538177490234375,-0.1466827392578125
101413,-0.68634033203125,-0.111541748046875,-0.0815582275390625
101414,-0.81329345703125,-0.189300537109375,0.009307861328125
101415,-0.9335174560546876,-0.2996978759765625,0.092529296875
101416,-1.085968017578125,-0.39849853515625,0.1646728515625
101417,-1.278106689453125,-0.5097503662109375,0.215118408203125
101418,-1.538223266601562,-0.606201171875,0.2770538330078125
101419,-1.791976928710938,-0.7212677001953125,0.3559417724609375
101420,-2.009201049804688,-0.8253631591796875,0.503570556640625
101421,-2.157638549804688,-0.90301513671875,0.715911865234375
101422,-2.194992065429688,-1.010391235351562,0.824554443359375
101423,-1.975357055664062,-1.031524658203125,0.74761962890625
101424,-1.52117919921875,-0.798309326171875,0.519866943359375
101425,-1.068130493164062,-0.51092529296875,0.2518157958984375
101426,-0.659759521484375,-0.3113555908203125,0.0463714599609375
101427,-0.3207855224609375,-0.157012939453125,-0.07818603515625
101428,-0.078460693359375,-0.025421142578125,-0.1406707763671875
101429,0.08673095703125,0.059844970703125,-0.2060089111328125
101430,0.173187255859375,0.1042327880859375,-0.2129364013671875
101431,0.2069244384765625,0.1448822021484375,-0.1812286376953125
101432,0.1982574462890625,0.194854736328125,-0.122772216796875
101433,0.1227569580078125,0.2509918212890625,-0.0713958740234375
101434,-0.0436248779296875,0.316375732421875,-0.106964111328125
101435,-0.2575531005859375,0.40435791015625,-0.2440338134765625
101436,-0.4491424560546875,0.5469818115234375,-0.487701416015625
101437,-0.5510101318359375,0.7013702392578125,-0.83599853515625
101438,-0.5772552490234375,0.749298095703125,-0.906829833984375
101439,-0.5738525390625,0.5207366943359375,-0.4726715087890625
101440,-0.5966339111328125,0.223541259765625,-0.0876007080078125
101441,-0.6481170654296875,0.0955963134765625,0.0005340576171875
101442,-0.76519775390625,-0.1830291748046875,-0.0726318359375
101443,-0.76519775390625,-0.1830291748046875,-0.0726318359375
101444,-0.79998779296875,-0.32244873046875,-0.2390289306640625
101445,-0.764190673828125,-0.4205322265625,-0.4351654052734375
101446,-0.6202239990234375,-0.325958251953125,-0.6220855712890625
101447,-0.5485687255859375,-0.08294677734375,-0.714599609375
101448,-0.6546783447265625,0.0938720703125,-0.7450714111328125
101449,-0.8873291015625,0.1628570556640625,-0.7224273681640625
101450,-1.203689575195312,0.050262451171875,-0.558441162109375
101451,-1.605499267578125,-0.151580810546875,-0.3917694091796875
101452,-2.203201293945312,-0.3199615478515625,-0.3790283203125
101453,-3.064727783203125,-0.4947662353515625,-0.4293212890625
101454,-4.218765258789062,-0.97430419921875,-0.7349700927734375
101455,-4.501190185546875,-1.2684326171875,-0.683074951171875
101456,-3.520126342773438,-0.9247894287109376,-0.1732940673828125
101457,-2.697662353515625,-0.416412353515625,0.0083465576171875
101458,-2.3397216796875,-0.04254150390625,-0.7810211181640625
101459,-2.157791137695312,0.0960540771484375,-1.232315063476562
101460,-1.982040405273438,0.065093994140625,-1.149749755859375
101461,-1.783126831054688,-0.139251708984375,-0.9248504638671876
101462,-1.285675048828125,-0.1882171630859375,-0.5942535400390625
101463,-1.285675048828125,-0.1882171630859375,-0.5942535400390625
101464,-0.993255615234375,-0.1683807373046875,-0.5146942138671875
101465,-0.7743377685546875,-0.155364990234375,-0.4042510986328125
101466,-0.58447265625,-0.1263275146484375,-0.2202911376953125
101467,-0.3489227294921875,-0.0873565673828125,-0.1222686767578125
101468,-0.118743896484375,-0.053680419921875,-0.1330718994140625
101469,0.0577545166015625,0.0094146728515625,-0.162811279296875
101470,0.1921539306640625,0.0790557861328125,-0.17205810546875
101471,0.2521820068359375,0.1218719482421875,-0.157501220703125
101472,0.2702178955078125,0.1602935791015625,-0.0884857177734375
101473,0.2718658447265625,0.2079925537109375,-0.0244598388671875
101474,0.2437744140625,0.285675048828125,-0.1727447509765625
101475,0.2437744140625,0.285675048828125,-0.1727447509765625
101476,0.155731201171875,0.2559051513671875,-0.261199951171875
101477,0.050933837890625,0.19378662109375,-0.3131561279296875
101478,-0.095245361328125,0.0646514892578125,-0.2299346923828125
101479,-0.413116455078125,-0.0967559814453125,-0.11407470703125
101480,-0.7600860595703125,-0.210845947265625,0.04278564453125
101481,-1.016082763671875,-0.1824798583984375,0.1515655517578125
101482,-1.330459594726562,-0.24322509765625,0.19140625
101483,-1.757766723632812,-0.544403076171875,0.194580078125
101484,-1.757766723632812,-0.544403076171875,0.194580078125
101485,-1.7884521484375,-0.6921844482421875,0.29986572265625
101486,-1.78399658203125,-0.920684814453125,0.4818878173828125
101487,-1.823837280273438,-1.151260375976562,0.6275787353515625
101488,-1.905288696289062,-1.21234130859375,0.595306396484375
101489,-1.88848876953125,-1.077880859375,0.5711822509765625
101490,-1.298477172851562,-0.62078857421875,0.4222869873046875
101491,-1.298477172851562,-0.62078857421875,0.4222869873046875
101492,-0.9325714111328124,-0.3736419677734375,0.2806396484375
101493,-0.60357666015625,-0.197052001953125,0.152679443359375
101494,-0.371429443359375,-0.0530242919921875,0.052276611328125
101495,-0.2133636474609375,0.0654296875,0.003509521484375
101496,-0.1098480224609375,0.14569091796875,0.0295257568359375
101497,-0.0536651611328125,0.1903533935546875,0.05389404296875
101498,-0.0570831298828125,0.2320098876953125,0.0610809326171875
101499,-0.131988525390625,0.287689208984375,0.028839111328125
101500,-0.25872802734375,0.3832244873046875,-0.0700836181640625
101501,-0.4187774658203125,0.51422119140625,-0.2089996337890625
101502,-0.5615081787109375,0.6585540771484375,-0.3559112548828125
101503,-0.564117431640625,0.7231292724609375,-0.741546630859375
101504,-0.4695892333984375,0.5709991455078125,-0.7570648193359375
101505,-0.4477081298828125,0.2353057861328125,-0.2381744384765625
101506,-0.467010498046875,0.0592041015625,0.06085205078125
101507,-0.47210693359375,-0.0677490234375,0.1377410888671875
101508,-0.524871826171875,-0.2034912109375,0.0788421630859375
101509,-0.5784759521484375,-0.3079833984375,-0.1363372802734375
101510,-0.584564208984375,-0.3884124755859375,-0.408538818359375
101511,-0.4914093017578125,-0.385955810546875,-0.62823486328125
101512,-0.4231719970703125,-0.22113037109375,-0.7142486572265625
101513,-0.4687652587890625,-0.047882080078125,-0.714019775390625
101514,-0.582000732421875,0.0566558837890625,-0.70501708984375
101515,-0.9280853271484376,0.0948638916015625,-0.5330657958984375
101516,-0.9280853271484376,0.0948638916015625,-0.5330657958984375
101517,-1.188858032226562,-0.025848388671875,-0.34234619140625
101518,-1.51324462890625,-0.1590118408203125,-0.231658935546875
101519,-1.952255249023438,-0.2841644287109375,-0.2136383056640625
101520,-2.65887451171875,-0.48016357421875,-0.260711669921875
101521,-4.109695434570312,-1.064849853515625,-0.433502197265625
101522,-4.782379150390625,-1.535430908203125,-0.557037353515625
101523,-3.91094970703125,-1.484771728515625,-0.417266845703125
101524,-2.84002685546875,-0.6706085205078125,-0.1014556884765625
101525,-2.344345092773438,0.00750732421875,-0.5512542724609375
101526,-2.101516723632812,0.1799774169921875,-1.105194091796875
101527,-1.699737548828125,0.13214111328125,-1.476821899414062
101528,-1.699737548828125,0.13214111328125,-1.476821899414062
101529,-1.4586181640625,-0.1748199462890625,-1.05157470703125
101530,-1.201919555664062,-0.250457763671875,-0.55230712890625
101531,-1.201919555664062,-0.250457763671875,-0.55230712890625
101532,-0.932586669921875,-0.213165283203125,-0.4878692626953125
101533,-0.6890869140625,-0.151458740234375,-0.38311767578125
101534,-0.3659820556640625,-0.0794525146484375,-0.1890411376953125
101535,-0.3659820556640625,-0.0794525146484375,-0.1890411376953125
101536,-0.1887359619140625,-0.0552978515625,-0.128143310546875
101537,-0.0566864013671875,-0.024505615234375,-0.0377960205078125
101538,0.03411865234375,0.0192413330078125,0.0147857666015625
101539,0.110504150390625,0.055816650390625,-0.0111236572265625
101540,0.1511688232421875,0.0749969482421875,-0.0822296142578125
101541,0.1549072265625,0.0896759033203125,-0.1621551513671875
101542,0.12109375,0.0959625244140625,-0.2052001953125
101543,0.044158935546875,0.081268310546875,-0.176422119140625
101544,-0.0630950927734375,0.0267486572265625,-0.1285400390625
101545,-0.1801910400390625,-0.0855712890625,-0.061370849609375
101546,-0.2982025146484375,-0.16729736328125,-0.032501220703125
101547,-0.4061431884765625,-0.2162628173828125,-0.04522705078125
101548,-0.4941864013671875,-0.2971038818359375,-0.08099365234375
101549,-0.5845184326171875,-0.3846893310546875,-0.1071929931640625
101550,-0.71051025390625,-0.4290924072265625,-0.02947998046875
101551,-0.8775482177734375,-0.45947265625,0.1356048583984375
101552,-1.067031860351562,-0.5201568603515625,0.2775115966796875
101553,-1.277694702148438,-0.6247711181640625,0.31231689453125
101554,-1.489578247070312,-0.797760009765625,0.2823333740234375
101555,-1.70989990234375,-1.028961181640625,0.30804443359375
101556,-1.894119262695312,-1.241775512695312,0.412322998046875
101557,-1.972564697265625,-1.363296508789062,0.498077392578125
101558,-1.884902954101562,-1.425384521484375,0.521331787109375
101559,-1.661148071289062,-1.287384033203125,0.4406280517578125
101560,-1.373275756835938,-0.899566650390625,0.2277984619140625
101561,-1.05523681640625,-0.536834716796875,0.0749664306640625
101562,-0.444244384765625,-0.094696044921875,-0.0751495361328125
101563,-0.444244384765625,-0.094696044921875,-0.0751495361328125
101564,-0.2069854736328125,0.023040771484375,-0.119720458984375
101565,-0.04364013671875,0.065093994140625,-0.0806427001953125
101566,0.05810546875,0.08447265625,0.0390167236328125
101567,0.0887451171875,0.1365966796875,0.10760498046875
101568,0.0887451171875,0.1365966796875,0.10760498046875
101569,0.021820068359375,0.2167816162109375,0.007232666015625
101570,-0.11285400390625,0.31048583984375,-0.150177001953125
101571,-0.3178558349609375,0.4266815185546875,-0.2236328125
101572,-0.5293426513671875,0.5842437744140625,-0.35662841796875
101573,-0.6934356689453125,0.76470947265625,-0.7115631103515625
101574,-0.681427001953125,0.7054595947265625,-0.7505950927734375
101575,-0.681427001953125,0.7054595947265625,-0.7505950927734375
101576,-0.6185760498046875,0.35601806640625,-0.362396240234375
101577,-0.5907440185546875,0.1532745361328125,-0.1753997802734375
101578,-0.5938262939453125,0.008148193359375,-0.138458251953125
101579,-0.5961456298828125,-0.1479034423828125,-0.2439422607421875
101580,-0.556793212890625,-0.2503814697265625,-0.48345947265625
101581,-0.54229736328125,-0.252044677734375,-0.651611328125
101582,-0.5948638916015625,-0.086700439453125,-0.66754150390625
101583,-0.5948638916015625,-0.086700439453125,-0.66754150390625
101584,-0.7147979736328125,0.0302886962890625,-0.617431640625
101585,-0.9462127685546876,0.098724365234375,-0.54010009765625
101586,-1.30657958984375,0.0696258544921875,-0.5447235107421875
101587,-1.886276245117188,-0.0855712890625,-0.576202392578125
101588,-2.771026611328125,-0.1998138427734375,-0.499267578125
101589,-4.292938232421875,-0.525848388671875,-0.4479522705078125
101590,-4.292938232421875,-0.525848388671875,-0.4479522705078125
101591,-4.353317260742188,-1.584442138671875,-0.48919677734375
101592,-2.880355834960938,-1.096481323242188,-0.535858154296875
101593,-2.389633178710938,-0.415313720703125,-0.800628662109375
101594,-2.15386962890625,-0.15484619140625,-1.337356567382812
101595,-1.80938720703125,-0.099609375,-1.972030639648438
101596,-1.532882690429688,-0.2960052490234375,-1.774002075195312
101597,-1.287841796875,-0.328887939453125,-1.123977661132812
101598,-1.138214111328125,-0.30181884765625,-0.8599853515625
101599,-1.024887084960938,-0.275482177734375,-0.770904541015625
101600,-0.897613525390625,-0.2086334228515625,-0.6227264404296875
101601,-0.7163543701171875,-0.1290740966796875,-0.4063873291015625
101602,-0.3654937744140625,-0.08392333984375,-0.1261749267578125
101603,-0.3654937744140625,-0.08392333984375,-0.1261749267578125
101604,-0.2115325927734375,-0.0823516845703125,-0.08465576171875
101605,-0.0816497802734375,-0.0620880126953125,-0.070343017578125
101606,0.0203704833984375,-0.0262298583984375,-0.070465087890625
101607,0.0767822265625,0.01116943359375,-0.10675048828125
101608,0.106414794921875,0.0513153076171875,-0.182708740234375
101609,0.1159515380859375,0.0937957763671875,-0.2663726806640625
101610,0.0382843017578125,0.126129150390625,-0.298309326171875
101611,0.0382843017578125,0.126129150390625,-0.298309326171875
101612,-0.0438690185546875,0.1321868896484375,-0.219482421875
101613,-0.1363983154296875,0.1295318603515625,-0.11395263671875
101614,-0.2233428955078125,0.085205078125,-0.0345306396484375
101615,-0.3180999755859375,-0.005035400390625,-0.0400543212890625
101616,-0.43780517578125,-0.0977630615234375,-0.1067657470703125
101617,-0.5776214599609375,-0.1887664794921875,-0.10760498046875
101618,-0.7110137939453125,-0.2518310546875,-0.0572357177734375
101619,-0.835296630859375,-0.3063812255859375,0.0654296875
101620,-0.957977294921875,-0.3598785400390625,0.2238311767578125
101621,-1.081466674804688,-0.416839599609375,0.3505859375
101622,-1.211532592773438,-0.49932861328125,0.4317474365234375
101623,-1.366165161132812,-0.61041259765625,0.4929962158203125
101624,-1.549224853515625,-0.7364959716796875,0.5384674072265625
101625,-1.730819702148438,-0.9564361572265624,0.535125732421875
101626,-1.941207885742188,-1.32147216796875,0.4883270263671875
101627,-2.146728515625,-1.616134643554688,0.374847412109375
101628,-1.758834838867188,-1.44976806640625,0.0791778564453125
101629,-1.304702758789062,-0.9520263671875,0.2231903076171875
101630,-0.717926025390625,-0.2650909423828125,0.04302978515625
101631,-0.717926025390625,-0.2650909423828125,0.04302978515625
101632,-0.4878997802734375,-0.08306884765625,-0.067596435546875
101633,-0.2985687255859375,0.0369110107421875,-0.1095123291015625
101634,-0.118988037109375,0.1072235107421875,0.0430450439453125
101635,-0.118988037109375,0.1072235107421875,0.0430450439453125
101636,-0.1165008544921875,0.141448974609375,0.1212310791015625
101637,-0.1404876708984375,0.207763671875,0.1508331298828125
101638,-0.1860504150390625,0.3130340576171875,0.1568603515625
101639,-0.2686309814453125,0.467254638671875,0.1502227783203125
101640,-0.39715576171875,0.7183380126953125,0.16693115234375
101641,-0.4859161376953125,1.076263427734375,-0.07940673828125
101642,-0.4745330810546875,1.319000244140625,-0.9417724609375
101643,-0.5185089111328125,1.147048950195312,-1.361419677734375
101644,-0.522491455078125,0.6425323486328125,-0.806976318359375
101645,-0.53814697265625,0.3532562255859375,-0.46240234375
101646,-0.6963043212890625,-0.0194244384765625,-0.2786407470703125
101647,-0.6963043212890625,-0.0194244384765625,-0.2786407470703125
101648,-0.769561767578125,-0.2086029052734375,-0.31005859375
101649,-0.7058563232421875,-0.3422088623046875,-0.4968109130859375
101650,-0.559173583984375,-0.302001953125,-0.6829681396484375
101651,-0.409912109375,-0.1197509765625,-0.7479248046875
101652,-0.35504150390625,0.0562286376953125,-0.7345123291015625
101653,-0.4159393310546875,0.161865234375,-0.7451629638671875
101654,-0.606048583984375,0.2428131103515625,-0.8188323974609375
101655,-0.9273834228515624,0.2559661865234375,-0.8913726806640625
101656,-1.293975830078125,0.1584014892578125,-0.828094482421875
101657,-1.701263427734375,0.0190277099609375,-0.761077880859375
101658,-2.175247192382812,-0.1133270263671875,-0.72039794921875
101659,-3.05609130859375,-0.2322540283203125,-0.52008056640625
101660,-4.24755859375,-0.3950653076171875,-0.2698516845703125
101661,-5.057388305664062,-1.220062255859375,-0.4226531982421875
101662,-2.810562133789062,-1.42626953125,-0.746734619140625
101663,-2.810562133789062,-1.42626953125,-0.746734619140625
101664,-2.275726318359375,-0.31585693359375,-0.758026123046875
101665,-1.9996337890625,0.0098724365234375,-1.151596069335938
101666,-1.575973510742188,0.0947113037109375,-1.329574584960938
101667,-1.20172119140625,0.1757659912109375,-1.135635375976562
101668,-0.988616943359375,0.0711822509765625,-0.8413238525390625
101669,-0.886688232421875,-0.08514404296875,-0.7175750732421875
101670,-0.8053131103515625,-0.177764892578125,-0.7197113037109375
101671,-0.70001220703125,-0.22515869140625,-0.6668701171875
101672,-0.584136962890625,-0.244598388671875,-0.5114288330078125
101673,-0.4687652587890625,-0.2169952392578125,-0.3471527099609375
101674,-0.1322174072265625,-0.07958984375,-0.2009429931640625
101675,-0.1322174072265625,-0.07958984375,-0.2009429931640625
101676,-0.0055084228515625,-0.016448974609375,-0.171600341796875
101677,0.081390380859375,0.0504913330078125,-0.1675872802734375
101678,0.128204345703125,0.10791015625,-0.1965789794921875
101679,0.1310272216796875,0.1402740478515625,-0.196044921875
101680,0.083221435546875,0.1559600830078125,-0.1387786865234375
101681,-0.037200927734375,0.184906005859375,-0.0592498779296875
101682,-0.2794036865234375,0.137603759765625,-0.1073455810546875
101683,-0.2794036865234375,0.137603759765625,-0.1073455810546875
101684,-0.3724822998046875,0.05975341796875,-0.1190948486328125
101685,-0.4533843994140625,-0.0308074951171875,-0.127471923828125
101686,-0.6040496826171875,-0.1334686279296875,-0.181365966796875
101687,-0.6040496826171875,-0.1334686279296875,-0.181365966796875
101688,-0.6831817626953125,-0.169921875,-0.13665771484375
101689,-0.7635040283203125,-0.1934356689453125,-0.0560760498046875
101690,-0.8441314697265625,-0.2357177734375,0.078338623046875
101691,-0.9687652587890624,-0.2669830322265625,0.2710113525390625
101692,-1.140625,-0.3281097412109375,0.4563751220703125
101693,-1.379928588867188,-0.41473388671875,0.51007080078125
101694,-1.984512329101562,-0.6243896484375,0.463104248046875
101695,-1.984512329101562,-0.6243896484375,0.463104248046875
101696,-2.223892211914062,-0.8137664794921875,0.4831085205078125
101697,-2.288436889648438,-1.010162353515625,0.5209808349609375
101698,-2.059677124023438,-1.0433349609375,0.5153350830078125
101699,-1.561248779296875,-0.746551513671875,0.3908233642578125
101700,-1.120254516601562,-0.424957275390625,0.236175537109375
101701,-0.7801055908203125,-0.214630126953125,0.1342926025390625
101702,-0.3205413818359375,0.0509033203125,0.032806396484375
101703,-0.3205413818359375,0.0509033203125,0.032806396484375
101704,-0.1678466796875,0.0872039794921875,-0.0380859375
101705,-0.0552215576171875,0.0975494384765625,-0.105621337890625
101706,0.0146026611328125,0.1179351806640625,-0.1190643310546875
101707,0.043548583984375,0.13787841796875,-0.1040802001953125
101708,0.032135009765625,0.1781768798828125,-0.04638671875
101709,-0.0399932861328125,0.2477874755859375,0.024017333984375
101710,-0.29815673828125,0.4606781005859375,-0.1939697265625
101711,-0.29815673828125,0.4606781005859375,-0.1939697265625
101712,-0.2967529296875,0.5151519775390625,-0.87933349609375
101713,-0.219268798828125,0.5588226318359375,-1.444808959960938
101714,-0.216583251953125,0.4534454345703125,-0.96490478515625
101715,-0.2749481201171875,0.2764434814453125,-0.3470001220703125
101716,-0.3698883056640625,0.2200775146484375,-0.1798553466796875
101717,-0.5189361572265625,0.1667938232421875,-0.156768798828125
101718,-0.65704345703125,0.1011810302734375,-0.256103515625
101719,-0.7994232177734375,-0.037689208984375,-0.4560089111328125
101720,-0.8824615478515625,-0.12884521484375,-0.6315765380859375
101721,-0.92095947265625,-0.12890625,-0.739471435546875
101722,-0.7936248779296875,0.1761932373046875,-0.8552398681640625
101723,-0.7936248779296875,0.1761932373046875,-0.8552398681640625
101724,-0.8258056640625,0.2654266357421875,-0.8760223388671875
101725,-1.032470703125,0.213470458984375,-0.8523406982421875
101726,-1.292709350585938,0.077667236328125,-0.7641143798828125
101727,-1.646148681640625,-0.0717010498046875,-0.7136077880859375
101728,-2.197311401367188,-0.2400360107421875,-0.740203857421875
101729,-2.977508544921875,-0.386688232421875,-0.8094329833984375
101730,-3.810272216796875,-0.6533966064453125,-0.8631439208984375
101731,-4.273574829101562,-1.41363525390625,-1.0361328125
101732,-3.681793212890625,-1.83380126953125,-1.044906616210938
101733,-2.50897216796875,-0.9459991455078124,-0.80126953125
101734,-2.009384155273438,-0.02862548828125,-1.143707275390625
101735,-2.009384155273438,-0.02862548828125,-1.143707275390625
101736,-1.712310791015625,-0.0386505126953125,-1.275299072265625
101737,-1.397232055664062,0.0272369384765625,-1.145828247070312
101738,-1.161712646484375,-0.0045166015625,-0.8938140869140625
101739,-0.9930267333984376,-0.0294036865234375,-0.7143402099609375
101740,-0.88330078125,-0.0660400390625,-0.630340576171875
101741,-0.7883758544921875,-0.0836334228515625,-0.590179443359375
101742,-0.6643524169921875,-0.099700927734375,-0.5293121337890625
101743,-0.5174713134765625,-0.13665771484375,-0.428253173828125
101744,-0.362823486328125,-0.1585540771484375,-0.2671356201171875
101745,-0.2358856201171875,-0.1308746337890625,-0.1828460693359375
101746,0.005279541015625,-0.062255859375,-0.2147216796875
101747,0.005279541015625,-0.062255859375,-0.2147216796875
101748,0.099639892578125,-0.034942626953125,-0.2552947998046875
101749,0.1330413818359375,-0.013763427734375,-0.23004150390625
101750,0.0837860107421875,-0.001861572265625,-0.176177978515625
101751,-0.0190277099609375,-0.000885009765625,-0.1258544921875
101752,-0.1234283447265625,-0.020538330078125,-0.0864715576171875
101753,-0.219635009765625,-0.01934814453125,-0.090423583984375
101754,-0.355499267578125,-0.0560150146484375,-0.10302734375
101755,-0.355499267578125,-0.0560150146484375,-0.10302734375
101756,-0.41998291015625,-0.11358642578125,-0.130157470703125
101757,-0.5067596435546875,-0.1593780517578125,-0.1659698486328125
101758,-0.630126953125,-0.225250244140625,-0.1558380126953125
101759,-0.809967041015625,-0.2818603515625,-0.1402740478515625
101760,-1.018722534179688,-0.3235321044921875,-0.0758514404296875
101761,-1.225448608398438,-0.4033355712890625,0.1031341552734375
101762,-1.54248046875,-0.64788818359375,0.395416259765625
101763,-1.54248046875,-0.64788818359375,0.395416259765625
101764,-1.679397583007812,-0.843994140625,0.5595550537109375
101765,-1.839950561523438,-1.159332275390625,0.6934051513671875
101766,-2.055740356445312,-1.825088500976562,0.075714111328125
101767,-2.055740356445312,-1.825088500976562,0.075714111328125
101768,-1.650009155273438,-1.317901611328125,-0.1303863525390625
101769,-1.306045532226562,-0.7236480712890625,0.14794921875
101770,-0.9745941162109376,-0.3231048583984375,0.1264495849609375
101771,-0.6194000244140625,-0.0797576904296875,0.044097900390625
101772,-0.332489013671875,0.0388031005859375,-0.0477142333984375
101773,-0.1224822998046875,0.0860443115234375,-0.110687255859375
101774,0.0220184326171875,0.11138916015625,-0.1194000244140625
101775,0.109893798828125,0.1200714111328125,-0.05523681640625
101776,0.1291351318359375,0.1302337646484375,0.012542724609375
101777,0.078704833984375,0.1616058349609375,0.0296783447265625
101778,-0.0064849853515625,0.217041015625,0.016876220703125
101779,-0.1299591064453125,0.3163909912109375,-0.0032806396484375
101780,-0.2811737060546875,0.465179443359375,-0.0906982421875
101781,-0.395751953125,0.70013427734375,-0.3397369384765625
101782,-0.4474334716796875,0.93328857421875,-1.053756713867188
101783,-0.4474334716796875,0.93328857421875,-1.053756713867188
101784,-0.4796295166015625,0.582733154296875,-0.6394195556640625
101785,-0.566436767578125,0.3013458251953125,-0.236236572265625
101786,-0.834320068359375,-0.0217742919921875,-0.2743072509765625
101787,-0.834320068359375,-0.0217742919921875,-0.2743072509765625
101788,-0.9653472900390624,-0.1666717529296875,-0.406005859375
101789,-0.933746337890625,-0.290130615234375,-0.663116455078125
101790,-0.77435302734375,-0.3102569580078125,-0.8619537353515625
101791,-0.631103515625,-0.14019775390625,-0.8354644775390625
101792,-0.5883636474609375,0.065155029296875,-0.7110748291015625
101793,-0.6661376953125,0.1828460693359375,-0.668975830078125
101794,-1.1971435546875,0.1808013916015625,-0.4916839599609375
101795,-1.1971435546875,0.1808013916015625,-0.4916839599609375
101796,-1.6055908203125,0.0435943603515625,-0.3456878662109375
101797,-2.357040405273438,-0.274017333984375,-0.18927001953125
101798,-4.010650634765625,-0.96136474609375,-0.076080322265625
101799,-5.256546020507812,-1.354339599609375,0.29364013671875
101800,-4.494308471679688,-1.759994506835938,0.1621246337890625
101801,-2.971969604492188,-1.54803466796875,0.0505523681640625
101802,-2.000335693359375,0.0015869140625,-0.94818115234375
101803,-2.000335693359375,0.0015869140625,-0.94818115234375
101804,-1.847763061523438,0.1269989013671875,-1.499130249023438
101805,-1.525650024414062,0.2146759033203125,-1.480056762695312
101806,-1.25927734375,-0.2850341796875,-0.832061767578125
101807,-1.25927734375,-0.2850341796875,-0.832061767578125
101808,-1.177520751953125,-0.293365478515625,-0.620025634765625
101809,-1.050003051757812,-0.370086669921875,-0.5378570556640625
101810,-0.607666015625,-0.32183837890625,-0.2493896484375
101811,-0.607666015625,-0.32183837890625,-0.2493896484375
101812,-0.3870086669921875,-0.214508056640625,-0.2697601318359375
101813,-0.1931304931640625,-0.1024017333984375,-0.2694244384765625
101814,-0.0279083251953125,0.00384521484375,-0.1786346435546875
101815,0.1044464111328125,0.0919189453125,-0.13421630859375
101816,0.1778564453125,0.172515869140625,-0.1389007568359375
101817,0.22711181640625,0.233062744140625,-0.208648681640625
101818,0.2861175537109375,0.3773345947265625,-0.4426116943359375
101819,0.2861175537109375,0.3773345947265625,-0.4426116943359375
101820,0.221221923828125,0.4088592529296875,-0.4006500244140625
101821,0.072052001953125,0.3464202880859375,-0.2706451416015625
101822,-0.2281494140625,-0.01788330078125,-0.1662445068359375
101823,-0.2281494140625,-0.01788330078125,-0.1662445068359375
101824,-0.3178253173828125,-0.1135711669921875,-0.118011474609375
101825,-0.3943634033203125,-0.14691162109375,-0.0247344970703125
101826,-0.5248260498046875,-0.173309326171875,0.0579681396484375
101827,-0.7046661376953125,-0.2189483642578125,0.1183624267578125
101828,-0.9260406494140624,-0.2719573974609375,0.1871337890625
101829,-1.15985107421875,-0.380279541015625,0.2755279541015625
101830,-1.435272216796875,-0.5482940673828125,0.3089599609375
101831,-1.752304077148438,-0.7139892578125,0.2691497802734375
101832,-2.02911376953125,-0.8177032470703125,0.2758636474609375
101833,-2.213470458984375,-0.84197998046875,0.3875579833984375
101834,-2.418258666992188,-0.9869842529296876,0.7516326904296875
101835,-2.418258666992188,-0.9869842529296876,0.7516326904296875
101836,-2.269454956054688,-0.95037841796875,0.8610992431640625
101837,-1.82373046875,-0.755126953125,0.679962158203125
101838,-0.7601165771484375,-0.3521575927734375,0.1692657470703125
101839,-0.7601165771484375,-0.3521575927734375,0.1692657470703125
101840,-0.3763275146484375,-0.2212677001953125,0.019989013671875
101841,-0.1025390625,-0.09149169921875,-0.157623291015625
101842,0.1784210205078125,0.1358184814453125,-0.439178466796875
101843,0.1784210205078125,0.1358184814453125,-0.439178466796875
101844,0.210235595703125,0.215911865234375,-0.4075775146484375
101845,0.128631591796875,0.25177001953125,-0.20977783203125
101846,-0.2966766357421875,0.2618408203125,-0.0621185302734375
101847,-0.2966766357421875,0.2618408203125,-0.0621185302734375
101848,-0.5021514892578125,0.3415679931640625,-0.3796844482421875
101849,-0.675201416015625,0.477752685546875,-0.7033233642578125
101850,-0.734161376953125,0.769805908203125,-0.505584716796875
101851,-0.734161376953125,0.769805908203125,-0.505584716796875
101852,-0.5789337158203125,0.550628662109375,-0.099609375
101853,-0.451019287109375,0.3433380126953125,-0.019439697265625
101854,-0.4514312744140625,-0.0324859619140625,-0.25494384765625
101855,-0.4514312744140625,-0.0324859619140625,-0.25494384765625
101856,-0.4199981689453125,-0.141357421875,-0.3212890625
101857,-0.3294677734375,-0.252197265625,-0.3898162841796875
101858,-0.2808380126953125,-0.2854461669921875,-0.5301971435546875
101859,-0.2808380126953125,-0.2854461669921875,-0.5301971435546875
101860,-0.368377685546875,-0.1869049072265625,-0.5878448486328125
101861,-0.497650146484375,-0.0209503173828125,-0.6653289794921875
101862,-0.875640869140625,0.2309722900390625,-0.4649200439453125
101863,-0.875640869140625,0.2309722900390625,-0.4649200439453125
101864,-1.172073364257812,0.2017059326171875,-0.3238677978515625
101865,-1.47918701171875,0.0826568603515625,-0.2436676025390625
101866,-1.47918701171875,0.0826568603515625,-0.2436676025390625
101867,-2.83477783203125,-0.7706756591796875,-0.2556610107421875
101868,-4.052703857421875,-1.275390625,-0.1963043212890625
101869,-4.3465576171875,-1.32037353515625,0.07623291015625
101870,-2.822845458984375,-1.706314086914062,0.4820404052734375
101871,-2.327529907226562,-0.8662567138671875,-0.1948089599609375
101872,-2.327529907226562,-0.8662567138671875,-0.1948089599609375
101873,-2.201034545898438,-0.2496795654296875,-1.076263427734375
101874,-1.884002685546875,0.18768310546875,-1.107635498046875
101875,-1.884002685546875,0.18768310546875,-1.107635498046875
101876,-1.670974731445312,0.277923583984375,-1.002670288085938
101877,-1.455230712890625,0.2330169677734375,-0.941009521484375
101878,-1.045761108398438,-0.2660064697265625,-0.568359375
101879,-1.045761108398438,-0.2660064697265625,-0.568359375
101880,-0.879974365234375,-0.3603668212890625,-0.3270721435546875
101881,-0.6611785888671875,-0.344146728515625,-0.2366180419921875
101882,-0.2301177978515625,-0.19818115234375,-0.2352447509765625
101883,-0.2301177978515625,-0.19818115234375,-0.2352447509765625
101884,-0.0518646240234375,-0.1107025146484375,-0.277008056640625
101885,0.07989501953125,-0.0133056640625,-0.2656097412109375
101886,0.175262451171875,0.0852203369140625,-0.2587432861328125
101887,0.22564697265625,0.1395263671875,-0.25396728515625
101888,0.2392730712890625,0.1685333251953125,-0.278167724609375
101889,0.2204437255859375,0.1771697998046875,-0.2996978759765625
101890,0.1344146728515625,0.1762237548828125,-0.2626800537109375
101891,-0.00921630859375,0.16619873046875,-0.2022705078125
101892,-0.15301513671875,0.08966064453125,-0.1918792724609375
101893,-0.294830322265625,-0.0628509521484375,-0.25177001953125
101894,-0.4648590087890625,-0.196807861328125,-0.31854248046875
101895,-0.4648590087890625,-0.196807861328125,-0.31854248046875
101896,-0.5468902587890625,-0.1991424560546875,-0.194427490234375
101897,-0.64300537109375,-0.2045745849609375,-0.1064300537109375
101898,-0.7607269287109375,-0.2188720703125,-0.0692901611328125
101899,-0.912322998046875,-0.24298095703125,-0.0227508544921875
101900,-1.105194091796875,-0.31365966796875,0.0602569580078125
101901,-1.382186889648438,-0.44183349609375,0.174468994140625
101902,-2.203720092773438,-1.026031494140625,0.3259124755859375
