time_idx,accelerometerAccelerationX(G),accelerometerAccelerationY(G),accelerometerAccelerationZ(G)
120000,0.19488525390625,-0.1302032470703125,0.1052093505859375
120001,0.2425537109375,-0.187774658203125,0.0576171875
120002,0.3540802001953125,-0.2772369384765625,-0.0394287109375
120003,0.46856689453125,-0.33966064453125,-0.1528472900390625
120004,0.5417022705078125,-0.3769989013671875,-0.25262451171875
120005,0.641326904296875,-0.4809722900390625,-0.36468505859375
120006,0.7223968505859375,-0.647216796875,-0.5052032470703125
120007,0.7631683349609375,-0.829345703125,-0.62237548828125
120008,0.8087005615234375,-0.95977783203125,-0.7256011962890625
120009,0.8350067138671875,-1.06787109375,-0.6701812744140625
120010,0.8623809814453125,-1.224380493164062,-0.4663848876953125
120011,0.9687652587890624,-1.376937866210938,-0.2615203857421875
120012,1.165359497070312,-1.614410400390625,-0.17767333984375
120013,1.336013793945312,-1.988601684570312,-0.1054229736328125
120014,1.463088989257812,-2.4820556640625,-0.0362548828125
120015,1.533859252929688,-3.088394165039062,-0.27191162109375
120016,1.59014892578125,-3.652481079101562,-0.7166900634765625
120017,1.710250854492188,-3.54400634765625,-0.4821929931640625
120018,1.76953125,-3.039291381835938,-0.3657073974609375
120019,1.714462280273438,-2.720794677734375,-0.338653564453125
120020,1.649276733398438,-2.442337036132812,-0.4262237548828125
120021,1.603668212890625,-2.21966552734375,-0.5471343994140625
120022,1.516021728515625,-1.98297119140625,-0.671539306640625
120023,1.409774780273438,-1.716033935546875,-0.8213348388671875
120024,1.26251220703125,-1.448379516601562,-0.8602294921875
120025,1.094284057617188,-1.2115478515625,-0.699432373046875
120026,0.946990966796875,-1.028518676757812,-0.507476806640625
120027,0.8276214599609375,-0.879119873046875,-0.3819427490234375
120028,0.7130584716796875,-0.7598114013671875,-0.3260498046875
120029,0.594818115234375,-0.6835784912109375,-0.3272247314453125
120030,0.48211669921875,-0.641021728515625,-0.29736328125
120031,0.40069580078125,-0.59014892578125,-0.2582855224609375
120032,0.3688812255859375,-0.4993438720703125,-0.2319183349609375
120033,0.364349365234375,-0.370880126953125,-0.1747283935546875
120034,0.3445281982421875,-0.2552947998046875,-0.11572265625
120035,0.2973785400390625,-0.1958770751953125,-0.0890045166015625
120036,0.231658935546875,-0.146514892578125,-0.0648193359375
120037,0.1505889892578125,-0.0701141357421875,-0.005859375
120038,0.0683135986328125,-0.0012054443359375,0.0554046630859375
120039,0.0072021484375,0.03173828125,0.1128387451171875
120040,-0.037506103515625,0.041748046875,0.182952880859375
120041,-0.0580291748046875,0.018768310546875,0.2516632080078125
120042,-0.0574493408203125,-0.0531005859375,0.2814178466796875
120043,-0.061004638671875,-0.1330108642578125,0.2869415283203125
120044,-0.0602264404296875,-0.208221435546875,0.275634765625
120045,-0.0260162353515625,-0.26739501953125,0.2209320068359375
120046,0.018951416015625,-0.3053131103515625,0.1811676025390625
120047,0.0664215087890625,-0.33306884765625,0.1343841552734375
120048,0.1126556396484375,-0.3635101318359375,0.10394287109375
120049,0.165313720703125,-0.39141845703125,0.0652618408203125
120050,0.2193450927734375,-0.4276275634765625,0.019012451171875
120051,0.2769927978515625,-0.4853668212890625,-0.02239990234375
120052,0.336669921875,-0.5621185302734375,-0.070770263671875
120053,0.41119384765625,-0.66021728515625,-0.115570068359375
120054,0.5045013427734375,-0.7765960693359375,-0.19476318359375
120055,0.5832977294921875,-0.8711090087890625,-0.2994537353515625
120056,0.63916015625,-0.955535888671875,-0.3695220947265625
120057,0.704925537109375,-1.095962524414062,-0.4192047119140625
120058,0.7742919921875,-1.278427124023438,-0.4466400146484375
120059,0.8446502685546875,-1.498748779296875,-0.55841064453125
120060,0.8466949462890625,-1.585113525390625,-0.61737060546875
120061,0.7785491943359375,-1.4918212890625,-0.5819854736328125
120062,0.67486572265625,-1.251419067382812,-0.43646240234375
120063,0.566680908203125,-1.04583740234375,-0.357696533203125
120064,0.4486083984375,-0.879302978515625,-0.3430023193359375
120065,0.347900390625,-0.7110748291015625,-0.299774169921875
120066,0.2773895263671875,-0.53802490234375,-0.2513427734375
120067,0.2266998291015625,-0.3808441162109375,-0.1841888427734375
120068,0.18963623046875,-0.23785400390625,-0.0867462158203125
120069,0.1631622314453125,-0.121124267578125,-0.0464019775390625
120070,0.1503143310546875,-0.0684814453125,-0.0139312744140625
120071,0.1627655029296875,-0.0227203369140625,0.00958251953125
120072,0.1768798828125,0.0055694580078125,0.0429229736328125
120073,0.1612701416015625,0.0184326171875,0.0738372802734375
120074,0.12518310546875,0.0357513427734375,0.0907745361328125
120075,0.093170166015625,0.0518646240234375,0.1162261962890625
120076,0.0771484375,0.05877685546875,0.1405181884765625
120077,0.105682373046875,0.0236358642578125,0.1759796142578125
120078,0.1663055419921875,-0.0425262451171875,0.1974029541015625
120079,0.2302398681640625,-0.117401123046875,0.1888885498046875
120080,0.287994384765625,-0.2129364013671875,0.15087890625
120081,0.3408660888671875,-0.306182861328125,0.1226806640625
120082,0.381103515625,-0.3688201904296875,0.0715179443359375
120083,0.4196319580078125,-0.4307861328125,0.0102081298828125
120084,0.4657745361328125,-0.5198822021484375,-0.0555419921875
120085,0.533355712890625,-0.626922607421875,-0.130615234375
120086,0.6064453125,-0.7502899169921875,-0.2292633056640625
120087,0.6716156005859375,-0.87744140625,-0.33477783203125
120088,0.7185516357421875,-0.996551513671875,-0.4335479736328125
120089,0.781158447265625,-1.142288208007812,-0.442138671875
120090,0.90716552734375,-1.37139892578125,-0.33282470703125
120091,1.09759521484375,-1.693832397460938,-0.11456298828125
120092,1.378677368164062,-2.13720703125,0.10638427734375
120093,1.62506103515625,-2.658187866210938,0.0628662109375
120094,1.619491577148438,-3.292831420898438,-0.4382781982421875
120095,1.409103393554688,-3.777755737304688,-0.948211669921875
120096,1.36517333984375,-3.216949462890625,-0.3979034423828125
120097,1.388259887695312,-2.445877075195312,-0.302093505859375
120098,1.430908203125,-2.131118774414062,-0.2553863525390625
120099,1.396408081054688,-1.942581176757812,-0.26947021484375
120100,1.336105346679688,-1.847702026367188,-0.2569732666015625
120101,1.159011840820312,-1.819854736328125,-0.395355224609375
120102,1.080032348632812,-1.7117919921875,-0.436248779296875
120103,1.01177978515625,-1.55499267578125,-0.4871673583984375
120104,0.9040069580078124,-1.405838012695312,-0.4765472412109375
120105,0.8202667236328125,-1.281814575195312,-0.3940582275390625
120106,0.7502288818359375,-1.167572021484375,-0.3298492431640625
120107,0.67889404296875,-1.051223754882812,-0.316986083984375
120108,0.59954833984375,-0.9389190673828124,-0.322113037109375
120109,0.519744873046875,-0.8509521484375,-0.347259521484375
120110,0.449310302734375,-0.792022705078125,-0.3565673828125
120111,0.3861083984375,-0.7507781982421875,-0.3271331787109375
120112,0.352325439453125,-0.6937255859375,-0.304962158203125
120113,0.3575439453125,-0.6033935546875,-0.246368408203125
120114,0.3686981201171875,-0.4944915771484375,-0.162933349609375
120115,0.358612060546875,-0.4054107666015625,-0.08966064453125
120116,0.3177642822265625,-0.3291015625,-0.029510498046875
120117,0.259765625,-0.2537994384765625,0.0200958251953125
120118,0.2076568603515625,-0.202972412109375,0.0985565185546875
120119,0.157867431640625,-0.1564788818359375,0.163238525390625
120120,0.1156768798828125,-0.1256866455078125,0.195404052734375
120121,0.0856781005859375,-0.11590576171875,0.1892547607421875
120122,0.0634765625,-0.10760498046875,0.1646575927734375
120123,0.0537109375,-0.115631103515625,0.147186279296875
120124,0.0387725830078125,-0.1376953125,0.1453399658203125
120125,0.021026611328125,-0.1762847900390625,0.143707275390625
120126,0.0166778564453125,-0.2260284423828125,0.1574859619140625
120127,0.0326690673828125,-0.2798919677734375,0.17669677734375
120128,0.0711669921875,-0.3466644287109375,0.18817138671875
120129,0.1247100830078125,-0.4250640869140625,0.200592041015625
120130,0.1843414306640625,-0.5198974609375,0.221649169921875
120131,0.25384521484375,-0.62188720703125,0.2378997802734375
120132,0.3340606689453125,-0.7444915771484375,0.2582855224609375
120133,0.435577392578125,-0.89276123046875,0.26251220703125
120134,0.5645904541015625,-1.053115844726562,0.22637939453125
120135,0.7460174560546875,-1.272003173828125,0.1417236328125
120136,0.9639739990234376,-1.517425537109375,-0.022613525390625
120137,1.115280151367188,-1.667739868164062,-0.264862060546875
120138,1.11370849609375,-1.736007690429688,-0.6439971923828125
120139,1.0091552734375,-1.71502685546875,-1.187896728515625
120140,0.8178863525390625,-1.462051391601562,-1.164840698242188
120141,0.6187896728515625,-1.179122924804688,-0.4439239501953125
120142,0.49884033203125,-0.9774627685546876,-0.1566314697265625
120143,0.3866729736328125,-0.8065032958984375,-0.0699615478515625
120144,0.281982421875,-0.6733551025390625,-0.0449676513671875
120145,0.2149200439453125,-0.5149688720703125,-0.036163330078125
120146,0.1690216064453125,-0.331146240234375,0.006988525390625
120147,0.112884521484375,-0.203277587890625,0.06072998046875
120148,0.0607757568359375,-0.131500244140625,0.1007232666015625
120149,0.02886962890625,-0.099090576171875,0.1201629638671875
120150,0.029754638671875,-0.0197296142578125,0.073028564453125
120151,0.041351318359375,0.019683837890625,0.0472869873046875
120152,0.0588531494140625,0.06085205078125,0.0491485595703125
120153,0.0375213623046875,0.119781494140625,0.03179931640625
120154,0.0058746337890625,0.1490020751953125,0.0529632568359375
120155,0.0131988525390625,0.1209716796875,0.106414794921875
120156,0.059234619140625,0.0476531982421875,0.1373748779296875
120157,0.1305694580078125,-0.0582275390625,0.128997802734375
120158,0.22125244140625,-0.203033447265625,0.11407470703125
120159,0.3222503662109375,-0.3365936279296875,0.103271484375
120160,0.40106201171875,-0.421875,0.0888519287109375
120161,0.432159423828125,-0.49835205078125,0.034820556640625
120162,0.442596435546875,-0.647857666015625,-0.0394287109375
120163,0.43914794921875,-0.84228515625,-0.1792144775390625
120164,0.382965087890625,-0.9729766845703124,-0.3520660400390625
120165,0.30670166015625,-0.9728546142578124,-0.5951995849609375
120166,0.2845306396484375,-0.891082763671875,-0.78900146484375
120167,0.3472900390625,-0.806243896484375,-0.8475341796875
120168,0.4829864501953125,-0.80218505859375,-0.754364013671875
120169,0.6224365234375,-0.870361328125,-0.4842376708984375
120170,0.7802276611328125,-0.9727630615234376,-0.260986328125
120171,1.00439453125,-1.188613891601562,-0.116851806640625
120172,1.362274169921875,-1.523452758789062,0.023590087890625
120173,1.925216674804688,-2.067596435546875,0.0955963134765625
120174,2.551544189453125,-2.7564697265625,-0.1324462890625
120175,2.795089721679688,-3.559967041015625,-0.7430877685546875
120176,2.484375,-4.253250122070312,-1.242233276367188
120177,2.070510864257812,-3.3975830078125,-0.7744598388671875
120178,1.718704223632812,-2.502395629882812,-0.598846435546875
120179,1.439788818359375,-2.17529296875,-0.7391204833984375
120180,1.227935791015625,-1.982223510742188,-0.7067413330078125
120181,1.087875366210938,-1.8043212890625,-0.60552978515625
120182,0.9709625244140624,-1.542861938476562,-0.66461181640625
120183,0.8287811279296875,-1.270492553710938,-0.74346923828125
120184,0.6880035400390625,-1.071685791015625,-0.7179107666015625
120185,0.5714569091796875,-0.9508209228515624,-0.6097412109375
120186,0.4679412841796875,-0.855255126953125,-0.440093994140625
120187,0.3901824951171875,-0.7610321044921875,-0.274993896484375
120188,0.331451416015625,-0.68133544921875,-0.233245849609375
120189,0.2655181884765625,-0.6115570068359375,-0.2324066162109375
120190,0.1792449951171875,-0.5325927734375,-0.2490386962890625
120191,0.09381103515625,-0.46429443359375,-0.275299072265625
120192,0.0382843017578125,-0.40911865234375,-0.3090667724609375
120193,0.0210418701171875,-0.3799896240234375,-0.3264312744140625
120194,0.0401763916015625,-0.3438262939453125,-0.262664794921875
120195,0.0836944580078125,-0.2734375,-0.154388427734375
120196,0.1369171142578125,-0.176055908203125,-0.05328369140625
120197,0.1796875,-0.0990447998046875,0.0293731689453125
120198,0.194244384765625,-0.056304931640625,0.089447021484375
120199,0.18133544921875,-0.0267791748046875,0.140289306640625
120200,0.163970947265625,-0.009368896484375,0.183990478515625
120201,0.152801513671875,-0.0083160400390625,0.2023468017578125
120202,0.151214599609375,-0.0294342041015625,0.1981048583984375
120203,0.1418609619140625,-0.064300537109375,0.17620849609375
120204,0.1307373046875,-0.1027984619140625,0.137237548828125
120205,0.1366424560546875,-0.14556884765625,0.1025543212890625
120206,0.16741943359375,-0.1859283447265625,0.091796875
120207,0.221923828125,-0.2395477294921875,0.110198974609375
120208,0.2943572998046875,-0.30657958984375,0.1401214599609375
120209,0.374176025390625,-0.37982177734375,0.156036376953125
120210,0.459075927734375,-0.4767303466796875,0.1608428955078125
120211,0.5554656982421875,-0.63043212890625,0.145233154296875
120212,0.6793670654296875,-0.8169403076171875,0.1002044677734375
120213,0.8119659423828125,-0.9993896484375,0.0334930419921875
120214,0.9226837158203124,-1.1875,-0.0260467529296875
120215,0.9896697998046876,-1.374069213867188,-0.1373138427734375
120216,0.972198486328125,-1.515411376953125,-0.41339111328125
120217,0.9705047607421876,-1.697418212890625,-0.68988037109375
120218,0.882843017578125,-1.85491943359375,-0.6785736083984375
120219,0.6733551025390625,-1.62408447265625,-0.8367156982421875
120220,0.617523193359375,-1.2989501953125,-0.4904327392578125
120221,0.5988311767578125,-1.052902221679688,-0.138641357421875
120222,0.5320587158203125,-0.883544921875,-0.1057281494140625
120223,0.432342529296875,-0.7308349609375,-0.1126556396484375
120224,0.3100433349609375,-0.582855224609375,-0.12982177734375
120225,0.1923675537109375,-0.44427490234375,-0.0968170166015625
120226,0.11248779296875,-0.321258544921875,-0.025787353515625
120227,0.0479583740234375,-0.1916656494140625,0.052947998046875
120228,-0.006622314453125,-0.1132965087890625,0.1063995361328125
120229,-0.028350830078125,-0.095733642578125,0.1763458251953125
120230,0.002471923828125,-0.1070556640625,0.178741455078125
120231,0.0802459716796875,-0.137451171875,0.178070068359375
120232,0.15740966796875,-0.1437835693359375,0.161285400390625
120233,0.19677734375,-0.09649658203125,0.1558685302734375
120234,0.2234344482421875,-0.034576416015625,0.1600341796875
120235,0.2593994140625,0.0098419189453125,0.1873016357421875
120236,0.300506591796875,0.003265380859375,0.20819091796875
120237,0.33538818359375,-0.0673828125,0.196563720703125
120238,0.3603973388671875,-0.136016845703125,0.1199951171875
120239,0.3672943115234375,-0.1782073974609375,0.023223876953125
120240,0.3560333251953125,-0.2053985595703125,-0.0552978515625
120241,0.333160400390625,-0.2432098388671875,-0.12255859375
120242,0.3195648193359375,-0.2855377197265625,-0.170654296875
120243,0.3240203857421875,-0.3279571533203125,-0.1875457763671875
120244,0.3367462158203125,-0.3744964599609375,-0.1876220703125
120245,0.3644561767578125,-0.4311981201171875,-0.1982269287109375
120246,0.422149658203125,-0.5121307373046875,-0.2010650634765625
120247,0.511871337890625,-0.6295166015625,-0.1520233154296875
120248,0.662384033203125,-0.8181610107421875,-0.0450286865234375
120249,0.940460205078125,-1.152313232421875,0.1212005615234375
120250,1.350006103515625,-1.589828491210938,0.2697296142578125
120251,1.719406127929688,-1.944717407226562,0.384918212890625
120252,1.957809448242188,-2.362457275390625,0.5033416748046875
120253,1.954345703125,-2.823440551757812,0.452880859375
120254,1.689529418945312,-3.332550048828125,-0.402618408203125
120255,1.693145751953125,-3.7095947265625,-1.151229858398438
120256,1.672225952148438,-2.894271850585938,-0.552032470703125
120257,1.512069702148438,-2.291351318359375,-0.419036865234375
120258,1.406509399414062,-2.138824462890625,-0.3062744140625
120259,1.322845458984375,-2.094772338867188,-0.1853179931640625
120260,1.226409912109375,-2.0125732421875,-0.1601715087890625
120261,1.207183837890625,-1.852401733398438,-0.29638671875
120262,1.176239013671875,-1.586196899414062,-0.43829345703125
120263,1.111618041992188,-1.41705322265625,-0.62078857421875
120264,0.9980621337890624,-1.302139282226562,-0.4940948486328125
120265,0.879119873046875,-1.196273803710938,-0.4114990234375
120266,0.7853851318359375,-1.085342407226562,-0.363677978515625
120267,0.7149200439453125,-0.9668426513671876,-0.3448486328125
120268,0.64373779296875,-0.85101318359375,-0.3766937255859375
120269,0.5754241943359375,-0.7371978759765625,-0.4250030517578125
120270,0.517852783203125,-0.6308441162109375,-0.46282958984375
120271,0.4635162353515625,-0.525787353515625,-0.4891357421875
120272,0.3956298828125,-0.4276275634765625,-0.43280029296875
120273,0.3289794921875,-0.3476104736328125,-0.3563995361328125
120274,0.2949371337890625,-0.2871856689453125,-0.2562103271484375
120275,0.29046630859375,-0.213287353515625,-0.1228790283203125
120276,0.28961181640625,-0.1294708251953125,0.016845703125
120277,0.26409912109375,-0.06768798828125,0.1641693115234375
120278,0.189300537109375,-0.0223541259765625,0.2584686279296875
120279,0.110992431640625,0.00164794921875,0.2794342041015625
120280,0.031097412109375,0.025848388671875,0.2747802734375
120281,-0.04046630859375,0.028533935546875,0.289764404296875
120282,-0.0759735107421875,-0.02032470703125,0.3052520751953125
120283,-0.078125,-0.0907440185546875,0.3304290771484375
120284,-0.0667266845703125,-0.1627197265625,0.306732177734375
120285,-0.071441650390625,-0.21783447265625,0.2554473876953125
120286,-0.0654296875,-0.2588958740234375,0.1974945068359375
120287,-0.011810302734375,-0.3016815185546875,0.15679931640625
120288,0.068267822265625,-0.33868408203125,0.1436614990234375
120289,0.1613311767578125,-0.3702239990234375,0.1412811279296875
120290,0.2733612060546875,-0.43206787109375,0.147186279296875
120291,0.397308349609375,-0.52593994140625,0.15509033203125
120292,0.5274505615234375,-0.6353759765625,0.1528472900390625
120293,0.6424713134765625,-0.731536865234375,0.1073760986328125
120294,0.7220916748046875,-0.8041534423828125,0.003509521484375
120295,0.797607421875,-0.921051025390625,-0.1159210205078125
120296,0.890380859375,-1.128280639648438,-0.2276153564453125
120297,0.9934234619140624,-1.348220825195312,-0.413970947265625
120298,1.047073364257812,-1.509597778320312,-0.70233154296875
120299,1.008941650390625,-1.581039428710938,-1.017929077148438
120300,0.859649658203125,-1.4017333984375,-1.024337768554688
120301,0.7109222412109375,-1.153762817382812,-0.443878173828125
120302,0.620697021484375,-0.9673919677734376,-0.173065185546875
120303,0.5364837646484375,-0.82672119140625,-0.1385650634765625
120304,0.4379119873046875,-0.701751708984375,-0.172119140625
120305,0.34307861328125,-0.5810699462890625,-0.2458343505859375
120306,0.253204345703125,-0.454132080078125,-0.2115325927734375
120307,0.168853759765625,-0.348663330078125,-0.120269775390625
120308,0.0982513427734375,-0.2747955322265625,-0.031585693359375
120309,0.0414276123046875,-0.1970367431640625,0.0426025390625
120310,-0.0031585693359375,-0.123046875,0.11090087890625
120311,-0.0113372802734375,-0.119354248046875,0.1986083984375
120312,0.01165771484375,-0.121337890625,0.2833709716796875
120313,0.0481719970703125,-0.1380462646484375,0.3233489990234375
120314,0.1070556640625,-0.1627197265625,0.327667236328125
120315,0.1615142822265625,-0.1756744384765625,0.30511474609375
120316,0.214385986328125,-0.2003631591796875,0.2740936279296875
120317,0.268768310546875,-0.25469970703125,0.217132568359375
120318,0.3246612548828125,-0.3123626708984375,0.13092041015625
120319,0.372802734375,-0.366241455078125,0.0467681884765625
120320,0.415740966796875,-0.428009033203125,-0.0189361572265625
120321,0.4430999755859375,-0.4984588623046875,-0.0782928466796875
120322,0.4479827880859375,-0.57763671875,-0.16461181640625
120323,0.4253692626953125,-0.6256103515625,-0.294708251953125
120324,0.4021453857421875,-0.6249542236328125,-0.4733123779296875
120325,0.43170166015625,-0.6343841552734375,-0.6096649169921875
120326,0.5170135498046875,-0.68707275390625,-0.63946533203125
120327,0.61614990234375,-0.7205352783203125,-0.5580596923828125
120328,0.696319580078125,-0.734466552734375,-0.391571044921875
120329,0.7706298828125,-0.79559326171875,-0.2442474365234375
120330,0.906646728515625,-0.953704833984375,-0.131622314453125
120331,1.170318603515625,-1.215087890625,0.03765869140625
120332,1.56463623046875,-1.548843383789062,0.2105560302734375
120333,1.979080200195312,-1.981002807617188,0.252044677734375
120334,2.166732788085938,-2.55560302734375,0.1188812255859375
120335,1.909530639648438,-3.105636596679688,-0.0443267822265625
120336,1.639633178710938,-3.580856323242188,-0.0540924072265625
120337,1.683609008789062,-3.04022216796875,-0.7002105712890625
120338,1.653533935546875,-2.419998168945312,-0.5431060791015625
120339,1.451416015625,-2.20416259765625,-0.4652557373046875
120340,1.2174072265625,-2.078903198242188,-0.3999481201171875
120341,1.078536987304688,-1.950698852539062,-0.2885894775390625
120342,1.068984985351562,-1.836410522460938,-0.400390625
120343,1.110733032226562,-1.678146362304688,-0.52587890625
120344,1.065078735351562,-1.509872436523438,-0.6851348876953125
120345,0.951934814453125,-1.344955444335938,-0.64697265625
120346,0.8613433837890625,-1.1756591796875,-0.460235595703125
120347,0.771697998046875,-1.002426147460938,-0.39349365234375
120348,0.67498779296875,-0.8415069580078125,-0.3633575439453125
120349,0.5789031982421875,-0.718109130859375,-0.3206634521484375
120350,0.48016357421875,-0.6479949951171875,-0.2688446044921875
120351,0.3861083984375,-0.594268798828125,-0.2517852783203125
120352,0.305572509765625,-0.520843505859375,-0.247467041015625
120353,0.2498779296875,-0.426666259765625,-0.2344207763671875
120354,0.2219696044921875,-0.3271331787109375,-0.20404052734375
120355,0.2056121826171875,-0.2214508056640625,-0.1580352783203125
120356,0.19873046875,-0.138641357421875,-0.0953216552734375
120357,0.1855010986328125,-0.091796875,-0.0241546630859375
120358,0.1535797119140625,-0.032440185546875,0.0395965576171875
120359,0.1090545654296875,0.0342559814453125,0.0972137451171875
120360,0.0699310302734375,0.0911102294921875,0.1356353759765625
120361,0.052276611328125,0.1029815673828125,0.1744537353515625
120362,0.07000732421875,0.068817138671875,0.2008209228515625
120363,0.0898284912109375,0.0267333984375,0.214324951171875
120364,0.109283447265625,-0.0512542724609375,0.208770751953125
120365,0.1226348876953125,-0.1137542724609375,0.167205810546875
120366,0.1316680908203125,-0.1447296142578125,0.126068115234375
120367,0.1554718017578125,-0.172637939453125,0.104339599609375
120368,0.19775390625,-0.2109527587890625,0.08795166015625
120369,0.2484283447265625,-0.2581024169921875,0.0845947265625
120370,0.3045654296875,-0.3158111572265625,0.09649658203125
120371,0.3705902099609375,-0.387786865234375,0.10540771484375
120372,0.444732666015625,-0.4740142822265625,0.12677001953125
120373,0.5192413330078125,-0.566009521484375,0.1342926025390625
120374,0.6056976318359375,-0.680450439453125,0.1300201416015625
120375,0.687103271484375,-0.8023681640625,0.089385986328125
120376,0.7357177734375,-0.9307861328125,0.03253173828125
120377,0.7999420166015625,-1.076553344726562,-0.050445556640625
120378,0.89520263671875,-1.2430419921875,-0.203826904296875
120379,0.9884490966796876,-1.40618896484375,-0.4007415771484375
120380,1.051467895507812,-1.525741577148438,-0.59002685546875
120381,1.053482055664062,-1.563491821289062,-0.7032928466796875
120382,0.9259185791015624,-1.404815673828125,-0.7838592529296875
120383,0.7811737060546875,-1.172073364257812,-0.5255889892578125
120384,0.6677093505859375,-0.9883575439453124,-0.3349609375
120385,0.5385589599609375,-0.8417816162109375,-0.2733917236328125
120386,0.40655517578125,-0.6999053955078125,-0.222564697265625
120387,0.285003662109375,-0.552490234375,-0.180999755859375
120388,0.1850738525390625,-0.4371795654296875,-0.167694091796875
120389,0.1258544921875,-0.34619140625,-0.079071044921875
120390,0.0735321044921875,-0.275421142578125,0.0168304443359375
120391,0.0316619873046875,-0.20233154296875,0.0895538330078125
120392,-0.01104736328125,-0.1681060791015625,0.1306915283203125
120393,-0.0206451416015625,-0.143402099609375,0.147216796875
120394,-0.02764892578125,-0.0993499755859375,0.1625518798828125
120395,-0.0556793212890625,-0.06689453125,0.18157958984375
120396,-0.079925537109375,-0.046417236328125,0.203582763671875
120397,-0.08673095703125,-0.0134735107421875,0.204498291015625
120398,-0.0259857177734375,-0.02685546875,0.1845855712890625
120399,0.0652923583984375,-0.0593719482421875,0.1552581787109375
120400,0.1200103759765625,-0.0726776123046875,0.126953125
120401,0.15643310546875,-0.1205291748046875,0.09442138671875
120402,0.188751220703125,-0.1702117919921875,0.0525360107421875
120403,0.2621612548828125,-0.2382965087890625,-0.0283203125
120404,0.390380859375,-0.320404052734375,-0.1223602294921875
120405,0.519775390625,-0.3740386962890625,-0.2017974853515625
120406,0.656036376953125,-0.4500274658203125,-0.28875732421875
120407,0.7884674072265625,-0.5904541015625,-0.36431884765625
120408,0.9464569091796876,-0.8108062744140625,-0.3974761962890625
120409,1.17010498046875,-1.126083374023438,-0.3883514404296875
120410,1.482650756835938,-1.5150146484375,-0.356964111328125
120411,1.67626953125,-1.794921875,-0.33892822265625
120412,1.796951293945312,-2.075759887695312,-0.325408935546875
120413,1.9342041015625,-2.4521484375,-0.346527099609375
120414,1.927719116210938,-2.965744018554688,-0.9131622314453124
120415,1.739593505859375,-3.336959838867188,-0.8641815185546875
120416,1.51849365234375,-2.779815673828125,-0.3047637939453125
120417,1.534103393554688,-2.324188232421875,-0.390625
120418,1.615692138671875,-2.1181640625,-0.3036346435546875
120419,1.633514404296875,-1.92498779296875,-0.1874847412109375
120420,1.552474975585938,-1.785888671875,-0.2024383544921875
120421,1.287887573242188,-1.812652587890625,-0.31640625
120422,1.093307495117188,-1.73681640625,-0.426300048828125
120423,0.96142578125,-1.60174560546875,-0.56689453125
120424,0.8431396484375,-1.459564208984375,-0.5417022705078125
120425,0.7349395751953125,-1.314300537109375,-0.423980712890625
120426,0.660675048828125,-1.181198120117188,-0.3690338134765625
120427,0.6312713623046875,-1.046478271484375,-0.3811492919921875
120428,0.6157989501953125,-0.923370361328125,-0.4187469482421875
120429,0.58831787109375,-0.793182373046875,-0.4150848388671875
120430,0.5330047607421875,-0.65228271484375,-0.4145660400390625
120431,0.461181640625,-0.504638671875,-0.386444091796875
120432,0.370697021484375,-0.3847503662109375,-0.3609161376953125
120433,0.2847442626953125,-0.2906951904296875,-0.3005218505859375
120434,0.225799560546875,-0.212554931640625,-0.1897735595703125
120435,0.195587158203125,-0.160614013671875,-0.097625732421875
120436,0.1893768310546875,-0.1182861328125,-0.0431060791015625
120437,0.1971282958984375,-0.0760650634765625,-0.0167694091796875
120438,0.1937255859375,-0.0213775634765625,-0.011199951171875
120439,0.1930084228515625,0.0478973388671875,0.024322509765625
120440,0.197479248046875,0.0951080322265625,0.1074066162109375
120441,0.1878814697265625,0.1053314208984375,0.1564483642578125
120442,0.1393585205078125,0.121185302734375,0.17047119140625
120443,0.0840911865234375,0.112701416015625,0.1933135986328125
120444,0.0521240234375,0.0538482666015625,0.23284912109375
120445,0.07318115234375,-0.0331878662109375,0.2647857666015625
120446,0.1202545166015625,-0.111907958984375,0.235687255859375
120447,0.1665496826171875,-0.1941680908203125,0.223358154296875
120448,0.21514892578125,-0.2814178466796875,0.2219085693359375
120449,0.2725372314453125,-0.3665313720703125,0.230804443359375
120450,0.342041015625,-0.4636688232421875,0.2483673095703125
120451,0.440277099609375,-0.59576416015625,0.265838623046875
120452,0.5616607666015625,-0.7412567138671875,0.259307861328125
120453,0.681671142578125,-0.8796844482421875,0.205718994140625
120454,0.77435302734375,-1.003448486328125,0.11895751953125
120455,0.878662109375,-1.154937744140625,0.0235595703125
120456,0.9783477783203124,-1.330764770507812,-0.107940673828125
120457,1.031890869140625,-1.452499389648438,-0.3846282958984375
120458,1.13494873046875,-1.49609375,-0.848114013671875
120459,1.098846435546875,-1.456985473632812,-0.9675750732421876
120460,0.823272705078125,-1.229415893554688,-0.797332763671875
120461,0.64202880859375,-1.016128540039062,-0.427154541015625
120462,0.5195465087890625,-0.855682373046875,-0.210540771484375
120463,0.4238739013671875,-0.7329559326171875,-0.1455078125
120464,0.3402252197265625,-0.6027679443359375,-0.1156158447265625
120465,0.25128173828125,-0.456268310546875,-0.0536956787109375
120466,0.201171875,-0.326263427734375,0.00701904296875
120467,0.1627655029296875,-0.204803466796875,0.0947723388671875
120468,0.1191864013671875,-0.1075592041015625,0.1467132568359375
120469,0.0986175537109375,-0.057769775390625,0.1696014404296875
120470,0.10687255859375,-0.0188140869140625,0.2177581787109375
120471,0.127960205078125,0.03265380859375,0.2304534912109375
120472,0.106964111328125,0.056640625,0.19439697265625
120473,0.11083984375,0.0598602294921875,0.1610565185546875
120474,0.133026123046875,0.0108184814453125,0.1458740234375
120475,0.1739654541015625,-0.100372314453125,0.1081085205078125
120476,0.22845458984375,-0.24896240234375,0.037109375
120477,0.29901123046875,-0.3910675048828125,-0.0574188232421875
120478,0.397979736328125,-0.4920654296875,-0.1346893310546875
120479,0.4872589111328125,-0.600433349609375,-0.2314910888671875
120480,0.5618896484375,-0.7061004638671875,-0.351409912109375
120481,0.5814361572265625,-0.779754638671875,-0.4539337158203125
120482,0.5201568603515625,-0.80401611328125,-0.58026123046875
120483,0.462799072265625,-0.778778076171875,-0.613922119140625
120484,0.492462158203125,-0.7560577392578125,-0.458404541015625
120485,0.519805908203125,-0.719482421875,-0.3320770263671875
120486,0.575836181640625,-0.720672607421875,-0.292572021484375
120487,0.6975860595703125,-0.7962799072265625,-0.230255126953125
120488,0.889129638671875,-0.99603271484375,-0.091400146484375
120489,1.18035888671875,-1.264877319335938,0.0540924072265625
120490,1.502670288085938,-1.48358154296875,0.094451904296875
120491,1.684249877929688,-1.780136108398438,0.01092529296875
120492,1.799362182617188,-2.39862060546875,-0.17633056640625
120493,1.789459228515625,-3.038482666015625,-0.51263427734375
120494,1.645614624023438,-3.451095581054688,-0.763214111328125
120495,1.584945678710938,-2.890365600585938,-0.6581573486328125
120496,1.434860229492188,-2.433746337890625,-0.3985595703125
120497,1.284042358398438,-2.382110595703125,-0.4719085693359375
120498,1.17132568359375,-2.276321411132812,-0.5367431640625
120499,1.05816650390625,-2.08154296875,-0.5823822021484375
120500,0.968902587890625,-1.853713989257812,-0.6103363037109375
120501,0.8944549560546875,-1.598587036132812,-0.5171661376953125
120502,0.8491363525390625,-1.341079711914062,-0.4188385009765625
120503,0.7894287109375,-1.135345458984375,-0.354888916015625
120504,0.72796630859375,-0.9826812744140624,-0.28302001953125
120505,0.695159912109375,-0.85968017578125,-0.22625732421875
120506,0.671051025390625,-0.7441558837890625,-0.2169952392578125
120507,0.6349029541015625,-0.6316986083984375,-0.227447509765625
120508,0.570770263671875,-0.5303497314453125,-0.245269775390625
120509,0.477294921875,-0.4300537109375,-0.25048828125
120510,0.378509521484375,-0.32769775390625,-0.24090576171875
120511,0.2767181396484375,-0.23065185546875,-0.2121124267578125
120512,0.17449951171875,-0.1645050048828125,-0.1510772705078125
120513,0.0835113525390625,-0.13818359375,-0.075225830078125
120514,0.02001953125,-0.132110595703125,-0.014434814453125
120515,-0.0188751220703125,-0.1137847900390625,0.0338897705078125
120516,-0.02996826171875,-0.10223388671875,0.062408447265625
120517,-0.028167724609375,-0.0970611572265625,0.0887603759765625
120518,0.0146636962890625,-0.1000213623046875,0.10699462890625
120519,0.0785675048828125,-0.1246337890625,0.1137542724609375
120520,0.1379547119140625,-0.140838623046875,0.125732421875
120521,0.170562744140625,-0.16351318359375,0.1385498046875
120522,0.17254638671875,-0.201995849609375,0.1374969482421875
120523,0.1938323974609375,-0.22540283203125,0.13519287109375
120524,0.2480010986328125,-0.245697021484375,0.152557373046875
120525,0.3163909912109375,-0.279388427734375,0.1722564697265625
120526,0.3851165771484375,-0.3278045654296875,0.1969451904296875
120527,0.452545166015625,-0.4029541015625,0.2186431884765625
120528,0.5194854736328125,-0.499847412109375,0.2315521240234375
120529,0.5857086181640625,-0.57708740234375,0.2156829833984375
120530,0.632598876953125,-0.6181640625,0.1655120849609375
120531,0.6476287841796875,-0.6048736572265625,0.0879974365234375
120532,0.695404052734375,-0.651214599609375,0.0078125
120533,0.81866455078125,-0.8407745361328125,-0.110076904296875
120534,0.9377288818359376,-1.110061645507812,-0.2505645751953125
120535,1.021575927734375,-1.375885009765625,-0.440704345703125
120536,1.039764404296875,-1.548965454101562,-0.6572418212890625
120537,0.960357666015625,-1.40338134765625,-0.6058502197265625
120538,0.730865478515625,-1.112258911132812,-0.416107177734375
120539,0.5823822021484375,-0.924652099609375,-0.1963348388671875
120540,0.47491455078125,-0.82806396484375,-0.0802459716796875
120541,0.3681640625,-0.7743072509765625,-0.00982666015625
120542,0.27972412109375,-0.7209930419921875,0.0189666748046875
120543,0.1927337646484375,-0.6563720703125,0.026580810546875
120544,0.12078857421875,-0.6081085205078125,0.08819580078125
120545,0.0765228271484375,-0.5573883056640625,0.1371002197265625
120546,0.075103759765625,-0.51416015625,0.172607421875
120547,0.1241302490234375,-0.4834442138671875,0.2131195068359375
120548,0.2063751220703125,-0.459869384765625,0.253265380859375
120549,0.28143310546875,-0.431610107421875,0.298431396484375
120550,0.3440704345703125,-0.4062652587890625,0.34979248046875
120551,0.412506103515625,-0.3891754150390625,0.39947509765625
120552,0.4794769287109375,-0.3805389404296875,0.378631591796875
120553,0.54412841796875,-0.4022979736328125,0.2790679931640625
120554,0.5840606689453125,-0.4146881103515625,0.1282806396484375
120555,0.5670318603515625,-0.4070281982421875,-0.0229949951171875
120556,0.5184478759765625,-0.396331787109375,-0.1777801513671875
120557,0.47314453125,-0.39697265625,-0.3323211669921875
120558,0.4297637939453125,-0.4016265869140625,-0.457855224609375
120559,0.3950653076171875,-0.3950653076171875,-0.5330963134765625
120560,0.3594818115234375,-0.3721923828125,-0.500518798828125
120561,0.3046417236328125,-0.3449554443359375,-0.382293701171875
120562,0.2613983154296875,-0.3368072509765625,-0.280364990234375
120563,0.2632904052734375,-0.3572845458984375,-0.2177276611328125
120564,0.2952880859375,-0.4001007080078125,-0.1498260498046875
120565,0.3377838134765625,-0.47998046875,-0.0805816650390625
120566,0.4228363037109375,-0.594482421875,0.028533935546875
120567,0.5805511474609375,-0.7666473388671875,0.1286163330078125
120568,0.841644287109375,-1.035964965820312,0.3161163330078125
120569,1.220046997070312,-1.441818237304688,0.5561676025390625
120570,1.66253662109375,-1.7698974609375,0.70745849609375
120571,2.027359008789062,-2.050430297851562,0.698089599609375
120572,2.216598510742188,-2.585067749023438,0.519775390625
120573,2.176193237304688,-3.58294677734375,0.2668304443359375
120574,2.255355834960938,-4.16448974609375,-0.35650634765625
120575,2.077346801757812,-3.146377563476562,-0.7289886474609375
120576,1.845779418945312,-2.465118408203125,-0.41656494140625
120577,1.691268920898438,-2.306289672851562,-0.5460662841796875
120578,1.395416259765625,-2.236190795898438,-0.5198211669921875
120579,1.113082885742188,-2.131698608398438,-0.671356201171875
120580,0.8546295166015625,-1.90972900390625,-0.9094085693359376
120581,0.6197967529296875,-1.65234375,-0.96893310546875
120582,0.4747467041015625,-1.451400756835938,-0.90472412109375
120583,0.357330322265625,-1.240402221679688,-0.4040985107421875
120584,0.208343505859375,-1.09002685546875,-0.1137847900390625
120585,0.0899658203125,-0.9620208740234376,-0.06378173828125
120586,0.057342529296875,-0.7761993408203125,-0.011383056640625
120587,0.071441650390625,-0.5750274658203125,-0.08233642578125
120588,0.1615753173828125,-0.4337921142578125,-0.16790771484375
120589,0.2317352294921875,-0.3268280029296875,-0.22503662109375
120590,0.2670745849609375,-0.2274169921875,-0.23284912109375
120591,0.291473388671875,-0.15545654296875,-0.204620361328125
120592,0.31890869140625,-0.075958251953125,-0.133056640625
120593,0.347076416015625,-0.0002899169921875,-0.0176849365234375
120594,0.362060546875,0.06524658203125,0.103363037109375
120595,0.3541412353515625,0.1239776611328125,0.207000732421875
120596,0.331268310546875,0.155426025390625,0.29052734375
120597,0.2957611083984375,0.1598663330078125,0.3172760009765625
120598,0.2427825927734375,0.1522064208984375,0.2868804931640625
120599,0.189056396484375,0.1258544921875,0.236114501953125
120600,0.1402587890625,0.05902099609375,0.190093994140625
120601,0.1170501708984375,-0.029541015625,0.14599609375
120602,0.112060546875,-0.12469482421875,0.0971832275390625
120603,0.1262664794921875,-0.2282257080078125,0.0569000244140625
120604,0.147705078125,-0.3323211669921875,0.0313720703125
120605,0.1802978515625,-0.4215087890625,0.022735595703125
120606,0.230560302734375,-0.4978485107421875,0.0326080322265625
120607,0.3027496337890625,-0.5840606689453125,0.04779052734375
120608,0.3999786376953125,-0.6986236572265625,0.0315093994140625
120609,0.51617431640625,-0.8264617919921875,0.0038604736328125
120610,0.6466522216796875,-0.964874267578125,-0.0279083251953125
120611,0.80255126953125,-1.106689453125,-0.06585693359375
120612,0.97174072265625,-1.241287231445312,-0.09661865234375
120613,1.119247436523438,-1.367935180664062,-0.2277679443359375
120614,1.224777221679688,-1.441619873046875,-0.532562255859375
120615,1.279083251953125,-1.409576416015625,-0.6787109375
120616,1.091201782226562,-1.25811767578125,-0.6229400634765625
120617,0.869720458984375,-1.030731201171875,-0.3594512939453125
120618,0.7621307373046875,-0.8080596923828125,-0.1623687744140625
120619,0.5984649658203125,-0.6739349365234375,-0.1848602294921875
120620,0.4135284423828125,-0.5677490234375,-0.1952362060546875
120621,0.2425384521484375,-0.473175048828125,-0.1675567626953125
120622,0.0865325927734375,-0.4017333984375,-0.114501953125
120623,-0.0347747802734375,-0.3296966552734375,-0.0316619873046875
120624,-0.1167449951171875,-0.250885009765625,0.024688720703125
120625,-0.16119384765625,-0.16851806640625,0.0515899658203125
120626,-0.1707611083984375,-0.1197052001953125,0.0782928466796875
120627,-0.1853790283203125,-0.0575103759765625,0.1601104736328125
120628,-0.21417236328125,0.0117034912109375,0.2109527587890625
120629,-0.2119903564453125,0.0608978271484375,0.246429443359375
120630,-0.16668701171875,0.0771636962890625,0.2584075927734375
120631,-0.0417938232421875,-0.0030364990234375,0.2415008544921875
120632,0.0830535888671875,-0.1164398193359375,0.2155609130859375
120633,0.1310882568359375,-0.19281005859375,0.1580963134765625
120634,0.18218994140625,-0.2859344482421875,0.077056884765625
120635,0.238433837890625,-0.3673553466796875,-0.008453369140625
120636,0.3015594482421875,-0.4238128662109375,-0.1361083984375
120637,0.4195404052734375,-0.510986328125,-0.2950286865234375
120638,0.632965087890625,-0.704498291015625,-0.5135955810546875
120639,0.68341064453125,-0.7742767333984375,-0.6911163330078125
120640,0.6274261474609375,-0.840850830078125,-0.87774658203125
120641,0.648101806640625,-0.964263916015625,-0.9801025390625
120642,0.69183349609375,-1.01385498046875,-0.808685302734375
120643,0.6838226318359375,-0.94805908203125,-0.7094573974609375
120644,0.69073486328125,-0.9369964599609376,-0.6406402587890625
120645,0.780853271484375,-1.079605102539062,-0.5572509765625
120646,0.9691925048828124,-1.324005126953125,-0.4253387451171875
120647,1.22137451171875,-1.657974243164062,-0.2928466796875
120648,1.488265991210938,-2.08184814453125,-0.30023193359375
120649,1.727127075195312,-2.538192749023438,-0.40643310546875
120650,1.896499633789062,-3.092498779296875,-0.7362213134765625
120651,1.968093872070312,-3.703506469726562,-1.0950927734375
120652,2.013763427734375,-3.444580078125,-1.104019165039062
120653,1.855484008789062,-2.72967529296875,-0.696197509765625
120654,1.663909912109375,-2.373001098632812,-0.5619659423828125
120655,1.419586181640625,-2.132583618164062,-0.540313720703125
120656,1.148239135742188,-1.917068481445312,-0.6195068359375
120657,0.946533203125,-1.631866455078125,-0.73223876953125
120658,0.7971954345703125,-1.37982177734375,-0.7602081298828125
120659,0.7189483642578125,-1.178787231445312,-0.762786865234375
120660,0.657684326171875,-1.033706665039062,-0.634063720703125
120661,0.6021728515625,-0.9135284423828124,-0.3731536865234375
120662,0.522735595703125,-0.8059844970703125,-0.2673492431640625
120663,0.4296722412109375,-0.7081451416015625,-0.1849212646484375
120664,0.319427490234375,-0.644683837890625,-0.1636810302734375
120665,0.2062530517578125,-0.5691986083984375,-0.1833343505859375
120666,0.1108245849609375,-0.4478759765625,-0.210693359375
120667,0.08563232421875,-0.3142547607421875,-0.20953369140625
120668,0.0961456298828125,-0.2228546142578125,-0.1868896484375
120669,0.0892181396484375,-0.1393890380859375,-0.118865966796875
120670,0.07781982421875,-0.06427001953125,-0.0417327880859375
120671,0.0596160888671875,-0.002227783203125,0.0183868408203125
120672,0.0456695556640625,0.0351715087890625,0.0768280029296875
120673,0.0578460693359375,0.0347137451171875,0.1274566650390625
120674,0.09375,0.0165252685546875,0.1611785888671875
120675,0.1356353759765625,0.000946044921875,0.157867431640625
120676,0.1734161376953125,-0.0191802978515625,0.1506500244140625
120677,0.2022552490234375,-0.045623779296875,0.1432037353515625
120678,0.2041778564453125,-0.087066650390625,0.1347503662109375
120679,0.19805908203125,-0.130340576171875,0.0998077392578125
120680,0.1968231201171875,-0.1753387451171875,0.0676422119140625
120681,0.2178802490234375,-0.22650146484375,0.0494537353515625
120682,0.25970458984375,-0.2769927978515625,0.0442657470703125
120683,0.3048858642578125,-0.335968017578125,0.0425567626953125
120684,0.350250244140625,-0.4019927978515625,0.04583740234375
120685,0.3983154296875,-0.4783477783203125,0.0440216064453125
120686,0.439727783203125,-0.561126708984375,0.03204345703125
120687,0.4907379150390625,-0.661407470703125,0.029876708984375
120688,0.56182861328125,-0.7942657470703125,0.0100250244140625
120689,0.6385498046875,-0.95831298828125,-0.02142333984375
120690,0.7031097412109375,-1.151779174804688,-0.0504913330078125
120691,0.7439422607421875,-1.312255859375,-0.11102294921875
120692,0.7678680419921875,-1.435714721679688,-0.226318359375
120693,0.7857513427734375,-1.509368896484375,-0.397979736328125
120694,0.7764129638671875,-1.529449462890625,-0.614013671875
120695,0.7244873046875,-1.381622314453125,-0.75677490234375
120696,0.6204681396484375,-1.125717163085938,-0.59918212890625
120697,0.51708984375,-0.919891357421875,-0.3116607666015625
120698,0.416046142578125,-0.769622802734375,-0.223236083984375
120699,0.3234710693359375,-0.6275634765625,-0.1548004150390625
120700,0.254608154296875,-0.50634765625,-0.10845947265625
120701,0.1976776123046875,-0.3948822021484375,-0.090118408203125
120702,0.1440277099609375,-0.2970733642578125,-0.0338592529296875
120703,0.09912109375,-0.1983184814453125,0.04034423828125
120704,0.044891357421875,-0.1220855712890625,0.1353759765625
120705,0.015960693359375,-0.059844970703125,0.156036376953125
120706,0.0350189208984375,-0.0052490234375,0.169464111328125
120707,0.0714111328125,0.0646209716796875,0.1558685302734375
120708,0.102386474609375,0.1054229736328125,0.1348114013671875
120709,0.115966796875,0.14019775390625,0.1305999755859375
120710,0.1314849853515625,0.163787841796875,0.1405487060546875
120711,0.17230224609375,0.130126953125,0.1278839111328125
120712,0.23468017578125,0.0337371826171875,0.0816497802734375
120713,0.3084259033203125,-0.11004638671875,0.008087158203125
120714,0.3775482177734375,-0.244110107421875,-0.0704345703125
120715,0.452484130859375,-0.36212158203125,-0.1433258056640625
120716,0.5296173095703125,-0.4879608154296875,-0.2011566162109375
120717,0.580413818359375,-0.6195526123046875,-0.27276611328125
120718,0.5883636474609375,-0.7721405029296875,-0.405303955078125
120719,0.5923614501953125,-0.9481048583984376,-0.5127410888671875
120720,0.6323699951171875,-1.106765747070312,-0.5915679931640625
120721,0.7316436767578125,-1.282241821289062,-0.5768890380859375
120722,0.9581298828125,-1.568161010742188,-0.4501953125
120723,1.315475463867188,-1.975692749023438,-0.303802490234375
120724,1.74517822265625,-2.368789672851562,-0.3096923828125
120725,2.06182861328125,-2.842086791992188,-0.8372039794921875
120726,1.912399291992188,-3.548492431640625,-1.523849487304688
120727,1.715576171875,-3.21282958984375,-0.589324951171875
120728,1.765548706054688,-2.453842163085938,-0.1544342041015625
120729,1.76995849609375,-2.250823974609375,-0.0966949462890625
120730,1.647247314453125,-2.244522094726562,-0.18731689453125
120731,1.423202514648438,-2.226303100585938,-0.4733123779296875
120732,1.236801147460938,-2.108871459960938,-0.712677001953125
120733,1.062652587890625,-1.914703369140625,-0.84503173828125
120734,0.9314422607421876,-1.681747436523438,-0.930023193359375
120735,0.811248779296875,-1.51513671875,-0.8109130859375
120736,0.6681365966796875,-1.375961303710938,-0.57464599609375
120737,0.484405517578125,-1.248916625976562,-0.43511962890625
120738,0.3040771484375,-1.141326904296875,-0.358612060546875
120739,0.1808319091796875,-0.9859771728515624,-0.2559356689453125
120740,0.1123504638671875,-0.83465576171875,-0.16180419921875
120741,0.084228515625,-0.6880340576171875,-0.100616455078125
120742,0.087066650390625,-0.5522613525390625,-0.0878753662109375
120743,0.106689453125,-0.43115234375,-0.0869598388671875
120744,0.1408843994140625,-0.331390380859375,-0.122161865234375
120745,0.18115234375,-0.240234375,-0.120361328125
120746,0.2045135498046875,-0.1646728515625,-0.087799072265625
120747,0.2102813720703125,-0.1013031005859375,-0.0247039794921875
120748,0.221527099609375,-0.0601348876953125,0.0219573974609375
120749,0.2333984375,-0.0299224853515625,0.05419921875
120750,0.24114990234375,-0.0107269287109375,0.0736846923828125
120751,0.236083984375,-0.0045623779296875,0.093170166015625
120752,0.227935791015625,-0.0162200927734375,0.101898193359375
120753,0.2088623046875,-0.034759521484375,0.099212646484375
120754,0.1907958984375,-0.0660552978515625,0.083984375
120755,0.17132568359375,-0.10455322265625,0.06982421875
120756,0.1532745361328125,-0.1432952880859375,0.059326171875
120757,0.1539306640625,-0.18218994140625,0.0462188720703125
120758,0.1802520751953125,-0.2271575927734375,0.0430145263671875
120759,0.2220001220703125,-0.2827301025390625,0.064666748046875
120760,0.27197265625,-0.3559112548828125,0.098785400390625
120761,0.3238372802734375,-0.44512939453125,0.1384429931640625
120762,0.38427734375,-0.55853271484375,0.182098388671875
120763,0.465545654296875,-0.712554931640625,0.1783294677734375
120764,0.5511627197265625,-0.8696441650390625,0.1308441162109375
120765,0.634490966796875,-1.021682739257812,0.0786285400390625
120766,0.7260894775390625,-1.185317993164062,0.009246826171875
120767,0.8190460205078125,-1.337738037109375,-0.09649658203125
120768,0.8914642333984375,-1.486557006835938,-0.247802734375
120769,0.9161224365234376,-1.572402954101562,-0.5008544921875
120770,0.9381561279296876,-1.577880859375,-0.7819976806640625
120771,0.82623291015625,-1.323257446289062,-0.9014892578125
120772,0.67852783203125,-1.071685791015625,-0.7175750732421875
120773,0.604461669921875,-0.8903045654296875,-0.1966094970703125
120774,0.5160064697265625,-0.775177001953125,-0.0202484130859375
120775,0.41424560546875,-0.6616058349609375,0.046295166015625
120776,0.320159912109375,-0.54901123046875,0.0538482666015625
120777,0.2320709228515625,-0.430816650390625,0.0411529541015625
120778,0.1499786376953125,-0.321746826171875,0.080810546875
120779,0.1028594970703125,-0.22064208984375,0.1270904541015625
120780,0.0798187255859375,-0.140350341796875,0.1256256103515625
120781,0.0678558349609375,-0.1127471923828125,0.1570587158203125
120782,0.0874176025390625,-0.0762176513671875,0.1790008544921875
120783,0.1070404052734375,-0.022308349609375,0.1766204833984375
120784,0.156036376953125,0.01904296875,0.1299591064453125
120785,0.2071380615234375,0.072174072265625,0.078399658203125
120786,0.21209716796875,0.1365509033203125,0.05010986328125
120787,0.165252685546875,0.1361541748046875,0.0092315673828125
120788,0.12762451171875,0.0366668701171875,-0.058074951171875
120789,0.1425933837890625,-0.0684051513671875,-0.105224609375
120790,0.173370361328125,-0.1472625732421875,-0.13201904296875
120791,0.20233154296875,-0.2222900390625,-0.163238525390625
120792,0.2176666259765625,-0.3001861572265625,-0.1910858154296875
120793,0.230499267578125,-0.3797760009765625,-0.2031097412109375
120794,0.248626708984375,-0.471160888671875,-0.2279052734375
120795,0.2754669189453125,-0.5683746337890625,-0.263397216796875
120796,0.3471527099609375,-0.6798095703125,-0.2462005615234375
120797,0.502960205078125,-0.86334228515625,-0.16937255859375
120798,0.7853851318359375,-1.195037841796875,-0.0777130126953125
120799,1.23480224609375,-1.727142333984375,0.0039520263671875
120800,1.790176391601562,-2.416854858398438,0.0329132080078125
120801,2.169174194335938,-2.885101318359375,-0.0945281982421875
120802,2.060272216796875,-3.124786376953125,-1.0311279296875
120803,1.670257568359375,-4.070816040039062,-2.377426147460938
120804,1.558547973632812,-3.703033447265625,-0.7008209228515625
120805,1.620513916015625,-2.759384155273438,-0.395660400390625
120806,1.532363891601562,-2.404815673828125,-0.3083343505859375
120807,1.410430908203125,-2.175247192382812,-0.41009521484375
120808,1.177337646484375,-2.044097900390625,-0.8441619873046875
120809,0.9241180419921876,-1.879867553710938,-1.166244506835938
120810,0.77752685546875,-1.65191650390625,-0.9771881103515624
120811,0.6862945556640625,-1.415924072265625,-0.590087890625
120812,0.570587158203125,-1.236038208007812,-0.3612213134765625
120813,0.459075927734375,-1.1419677734375,-0.2633819580078125
120814,0.3994293212890625,-1.07012939453125,-0.199737548828125
120815,0.4048004150390625,-0.97552490234375,-0.1630401611328125
120816,0.417266845703125,-0.83953857421875,-0.1242523193359375
120817,0.400787353515625,-0.680419921875,-0.08331298828125
120818,0.3518218994140625,-0.5392608642578125,-0.0568389892578125
120819,0.2929229736328125,-0.423858642578125,-0.058624267578125
120820,0.2424163818359375,-0.3202362060546875,-0.0475006103515625
120821,0.19635009765625,-0.24066162109375,-0.025543212890625
120822,0.146942138671875,-0.195404052734375,-0.0032806396484375
120823,0.1009521484375,-0.1814117431640625,0.001495361328125
120824,0.0666656494140625,-0.18804931640625,-0.0109710693359375
120825,0.0328216552734375,-0.1937408447265625,-0.0328216552734375
120826,0.01312255859375,-0.1828765869140625,-0.0438690185546875
120827,0.026824951171875,-0.1534881591796875,-0.04461669921875
120828,0.074005126953125,-0.125152587890625,-0.0369873046875
120829,0.1456451416015625,-0.10760498046875,-0.0175933837890625
120830,0.209747314453125,-0.0920867919921875,0.009857177734375
120831,0.2621002197265625,-0.083953857421875,0.0328826904296875
120832,0.30499267578125,-0.0797882080078125,0.0596771240234375
120833,0.3512725830078125,-0.09478759765625,0.095733642578125
120834,0.399505615234375,-0.1307373046875,0.1350860595703125
120835,0.4533843994140625,-0.1829986572265625,0.176300048828125
120836,0.51544189453125,-0.2625274658203125,0.2185516357421875
120837,0.577880859375,-0.3758544921875,0.239288330078125
120838,0.6259307861328125,-0.5077972412109375,0.2383880615234375
120839,0.6530609130859375,-0.62384033203125,0.2247467041015625
120840,0.6603851318359375,-0.706512451171875,0.192718505859375
120841,0.69805908203125,-0.8489990234375,0.1416778564453125
120842,0.790069580078125,-1.082733154296875,0.040252685546875
120843,0.922332763671875,-1.360321044921875,-0.122772216796875
120844,1.015472412109375,-1.524688720703125,-0.334930419921875
120845,0.980010986328125,-1.490646362304688,-0.5081329345703125
120846,0.905029296875,-1.375564575195312,-0.550445556640625
120847,0.71746826171875,-1.212966918945312,-0.4685821533203125
120848,0.543548583984375,-1.016860961914062,-0.4878997802734375
120849,0.4470672607421875,-0.8620452880859375,-0.1386871337890625
120850,0.37286376953125,-0.760955810546875,0.0160369873046875
120851,0.315032958984375,-0.6514892578125,0.090789794921875
120852,0.2436065673828125,-0.52716064453125,0.1053466796875
120853,0.16107177734375,-0.407379150390625,0.1607818603515625
120854,0.109954833984375,-0.29779052734375,0.220703125
120855,0.1044769287109375,-0.2354278564453125,0.259735107421875
120856,0.1638031005859375,-0.249725341796875,0.273590087890625
120857,0.259796142578125,-0.266937255859375,0.2718658447265625
120858,0.3257904052734375,-0.24066162109375,0.290191650390625
120859,0.38311767578125,-0.2232513427734375,0.294219970703125
120860,0.43829345703125,-0.223846435546875,0.282073974609375
120861,0.4855194091796875,-0.234832763671875,0.2678680419921875
120862,0.509124755859375,-0.271820068359375,0.2157440185546875
120863,0.4869842529296875,-0.3422393798828125,0.111541748046875
120864,0.4510650634765625,-0.4138031005859375,-0.0017242431640625
120865,0.42156982421875,-0.4678497314453125,-0.1410064697265625
120866,0.376556396484375,-0.5122222900390625,-0.289215087890625
120867,0.3313751220703125,-0.5455474853515625,-0.4162445068359375
120868,0.2991790771484375,-0.548736572265625,-0.4881744384765625
120869,0.28448486328125,-0.539794921875,-0.4797821044921875
120870,0.25677490234375,-0.5439910888671875,-0.4112548828125
120871,0.2335052490234375,-0.5572662353515625,-0.354339599609375
120872,0.25054931640625,-0.5940093994140625,-0.3349609375
120873,0.30908203125,-0.637969970703125,-0.2918243408203125
120874,0.4002227783203125,-0.695068359375,-0.2083740234375
120875,0.53948974609375,-0.7794647216796875,-0.1101226806640625
120876,0.7451629638671875,-0.938323974609375,-0.00738525390625
120877,1.055587768554688,-1.224700927734375,0.125885009765625
120878,1.483856201171875,-1.5859375,0.188720703125
120879,1.9290771484375,-1.940811157226562,0.21197509765625
120880,2.221054077148438,-2.382156372070312,-0.0171356201171875
120881,2.17230224609375,-3.316513061523438,-0.5771942138671875
120882,1.917877197265625,-4.462615966796875,-0.8949127197265625
120883,1.890396118164062,-3.4312744140625,-0.543609619140625
120884,1.841934204101562,-2.518630981445312,-0.309051513671875
120885,1.768890380859375,-2.307479858398438,-0.4475250244140625
120886,1.488800048828125,-2.204483032226562,-0.55181884765625
120887,1.143753051757812,-2.113540649414062,-0.720001220703125
120888,0.842559814453125,-1.918609619140625,-0.935791015625
120889,0.68292236328125,-1.652801513671875,-1.019424438476562
120890,0.6027984619140625,-1.398773193359375,-0.7833709716796875
120891,0.48046875,-1.176498413085938,-0.542633056640625
120892,0.29052734375,-0.9904022216796876,-0.3495330810546875
120893,0.073638916015625,-0.8827667236328125,-0.2354888916015625
120894,-0.057769775390625,-0.8112335205078125,-0.1842041015625
120895,-0.0470428466796875,-0.6953582763671875,-0.2049713134765625
120896,0.0584869384765625,-0.5195770263671875,-0.2815399169921875
120897,0.1278533935546875,-0.337188720703125,-0.2798004150390625
120898,0.1401214599609375,-0.2183990478515625,-0.21234130859375
120899,0.1336212158203125,-0.126007080078125,-0.123016357421875
120900,0.1334228515625,-0.0317230224609375,-0.0331573486328125
120901,0.134552001953125,0.050048828125,0.046356201171875
120902,0.132476806640625,0.09564208984375,0.124114990234375
120903,0.129852294921875,0.0992431640625,0.1776275634765625
120904,0.1360015869140625,0.0910797119140625,0.2081146240234375
120905,0.139801025390625,0.0770721435546875,0.218719482421875
120906,0.1517486572265625,0.0670623779296875,0.2123870849609375
120907,0.1869354248046875,0.038238525390625,0.1971282958984375
120908,0.2264251708984375,-0.016265869140625,0.1591644287109375
120909,0.255096435546875,-0.0763397216796875,0.1060943603515625
120910,0.2805328369140625,-0.1336822509765625,0.0605621337890625
120911,0.3099517822265625,-0.2023773193359375,0.03973388671875
120912,0.3406524658203125,-0.2872772216796875,0.051971435546875
120913,0.3666229248046875,-0.3697357177734375,0.0623016357421875
120914,0.4012908935546875,-0.4531402587890625,0.0668487548828125
120915,0.4561309814453125,-0.560516357421875,0.0753936767578125
120916,0.525390625,-0.6609649658203125,0.074005126953125
120917,0.60223388671875,-0.7563323974609375,0.0602264404296875
120918,0.6694488525390625,-0.8600616455078125,0.023956298828125
120919,0.737335205078125,-0.9881439208984376,-0.036376953125
120920,0.810546875,-1.14141845703125,-0.0979766845703125
120921,0.8525848388671875,-1.306838989257812,-0.221099853515625
120922,0.8414764404296875,-1.434280395507812,-0.49066162109375
120923,0.8208770751953125,-1.5284423828125,-0.690216064453125
120924,0.7144317626953125,-1.438461303710938,-0.4869537353515625
120925,0.5852203369140625,-1.217742919921875,-0.472869873046875
120926,0.511383056640625,-0.9712677001953124,-0.230255126953125
120927,0.4172515869140625,-0.785308837890625,-0.196929931640625
120928,0.2742767333984375,-0.6598968505859375,-0.13525390625
120929,0.1270751953125,-0.5573883056640625,-0.0628662109375
120930,0.018341064453125,-0.4380950927734375,0.0015106201171875
120931,-0.0475616455078125,-0.3262939453125,0.0668487548828125
120932,-0.082122802734375,-0.2383880615234375,0.0760040283203125
120933,-0.1442413330078125,-0.201934814453125,0.088165283203125
120934,-0.1937255859375,-0.2080841064453125,0.160003662109375
120935,-0.210357666015625,-0.1918182373046875,0.1904449462890625
120936,-0.1808319091796875,-0.156463623046875,0.1958160400390625
120937,-0.13214111328125,-0.1107940673828125,0.1683197021484375
120938,-0.0437774658203125,-0.087310791015625,0.12457275390625
120939,0.050018310546875,-0.0521697998046875,0.11553955078125
120940,0.1184539794921875,-0.0239715576171875,0.1536712646484375
120941,0.1904754638671875,-0.03094482421875,0.14471435546875
120942,0.2634124755859375,-0.0572509765625,0.0815887451171875
120943,0.333953857421875,-0.1231842041015625,-0.0046844482421875
120944,0.437347412109375,-0.2180023193359375,-0.107330322265625
120945,0.635101318359375,-0.330047607421875,-0.2480621337890625
120946,0.6871490478515625,-0.3494873046875,-0.3399658203125
120947,0.6447296142578125,-0.4137115478515625,-0.3961639404296875
120948,0.6688079833984375,-0.567626953125,-0.45916748046875
120949,0.7696533203125,-0.7461395263671875,-0.5333404541015625
120950,0.9571533203125,-0.955474853515625,-0.5089569091796875
120951,1.193222045898438,-1.233444213867188,-0.3788604736328125
120952,1.492416381835938,-1.608352661132812,-0.2432403564453125
120953,1.872833251953125,-1.99212646484375,-0.2853546142578125
120954,2.19659423828125,-2.363571166992188,-0.5394287109375
120955,2.250335693359375,-3.033172607421875,-0.7774658203125
120956,1.862930297851562,-3.885772705078125,-0.977142333984375
120957,1.59124755859375,-3.635391235351562,-0.587158203125
120958,1.55963134765625,-3.077835083007812,-0.592315673828125
120959,1.542449951171875,-2.8001708984375,-0.5749053955078125
120960,1.410491943359375,-2.563446044921875,-0.609649658203125
120961,1.201217651367188,-2.286422729492188,-0.8643951416015625
120962,0.955352783203125,-2.000808715820312,-0.990936279296875
120963,0.7897796630859375,-1.723541259765625,-0.851409912109375
120964,0.7303314208984375,-1.462371826171875,-0.6412811279296875
120965,0.6923370361328125,-1.218307495117188,-0.446044921875
120966,0.6529083251953125,-1.0177001953125,-0.317230224609375
120967,0.59130859375,-0.8480072021484375,-0.2204742431640625
120968,0.51177978515625,-0.7067108154296875,-0.200897216796875
120969,0.404571533203125,-0.593048095703125,-0.2233428955078125
120970,0.3058929443359375,-0.4894256591796875,-0.2344970703125
120971,0.2340545654296875,-0.405609130859375,-0.234344482421875
120972,0.191436767578125,-0.323638916015625,-0.2271881103515625
120973,0.18768310546875,-0.240936279296875,-0.1795196533203125
120974,0.1888580322265625,-0.1621246337890625,-0.1258087158203125
120975,0.163055419921875,-0.11383056640625,-0.076446533203125
120976,0.11102294921875,-0.064208984375,-0.0482635498046875
120977,0.0526885986328125,-0.0011444091796875,-0.019989013671875
120978,0.0023040771484375,0.050079345703125,0.014801025390625
120979,-0.03070068359375,0.077545166015625,0.0626068115234375
120980,-0.0333404541015625,0.0789642333984375,0.1135711669921875
120981,-0.00189208984375,0.04339599609375,0.128387451171875
120982,0.0418853759765625,-0.00042724609375,0.1371002197265625
120983,0.090576171875,-0.050018310546875,0.140594482421875
120984,0.13433837890625,-0.092803955078125,0.1250457763671875
120985,0.1750640869140625,-0.126861572265625,0.0942535400390625
120986,0.2121734619140625,-0.16015625,0.0675048828125
120987,0.246734619140625,-0.1987152099609375,0.05645751953125
120988,0.285552978515625,-0.250701904296875,0.0534210205078125
120989,0.336639404296875,-0.3234100341796875,0.047027587890625
120990,0.41363525390625,-0.424163818359375,0.0511932373046875
120991,0.5145416259765625,-0.5416412353515625,0.060211181640625
120992,0.6231842041015625,-0.6634674072265625,0.06414794921875
120993,0.7133331298828125,-0.7826995849609375,0.0356597900390625
120994,0.79473876953125,-0.936004638671875,-0.0056304931640625
120995,0.86865234375,-1.149948120117188,-0.0322265625
120996,0.9228057861328124,-1.376327514648438,-0.125274658203125
120997,0.9535980224609376,-1.541229248046875,-0.311737060546875
120998,0.9308929443359376,-1.528182983398438,-0.5266876220703125
120999,0.8543243408203125,-1.492080688476562,-0.6299896240234375
121000,0.6898345947265625,-1.326644897460938,-0.7071685791015625
121001,0.5609588623046875,-1.0892333984375,-0.642120361328125
121002,0.4710540771484375,-0.88372802734375,-0.25775146484375
121003,0.395965576171875,-0.735626220703125,-0.1446380615234375
121004,0.3441314697265625,-0.5980682373046875,-0.066009521484375
121005,0.274627685546875,-0.467803955078125,-0.061553955078125
121006,0.18328857421875,-0.3537750244140625,-0.0340118408203125
121007,0.10986328125,-0.257843017578125,0.0255279541015625
121008,0.0645599365234375,-0.1886444091796875,0.0860595703125
121009,0.0626068115234375,-0.110137939453125,0.1835479736328125
121010,0.060546875,-0.0562286376953125,0.15545654296875
121011,0.0791015625,0.009368896484375,0.1269378662109375
121012,0.0949249267578125,0.0428619384765625,0.1162109375
121013,0.105743408203125,0.057037353515625,0.138671875
121014,0.1445465087890625,0.019683837890625,0.1530609130859375
121015,0.217193603515625,-0.08355712890625,0.111297607421875
121016,0.308441162109375,-0.2470550537109375,0.026641845703125
121017,0.4000244140625,-0.3797454833984375,-0.0849151611328125
121018,0.4410858154296875,-0.4444732666015625,-0.2165069580078125
121019,0.411376953125,-0.51251220703125,-0.332672119140625
121020,0.338348388671875,-0.6155242919921875,-0.446807861328125
121021,0.2593994140625,-0.7257080078125,-0.57623291015625
121022,0.2447662353515625,-0.7903289794921875,-0.7473907470703125
121023,0.2685394287109375,-0.75836181640625,-0.856292724609375
121024,0.3267669677734375,-0.735107421875,-0.71917724609375
121025,0.402496337890625,-0.7816314697265625,-0.5196990966796875
121026,0.54107666015625,-0.8867340087890625,-0.3820037841796875
121027,0.770416259765625,-1.0859375,-0.2477569580078125
121028,1.111328125,-1.41571044921875,-0.079345703125
121029,1.518295288085938,-1.808120727539062,0.015106201171875
121030,1.829345703125,-2.135147094726562,-0.1411285400390625
121031,1.93670654296875,-2.454437255859375,-0.5948486328125
121032,1.7547607421875,-3.124130249023438,-1.162826538085938
121033,1.581497192382812,-3.516754150390625,-0.751312255859375
121034,1.806655883789062,-2.955581665039062,-0.2383880615234375
121035,1.909500122070312,-2.623550415039062,-0.2521514892578125
121036,1.807479858398438,-2.531173706054688,-0.47100830078125
121037,1.557144165039062,-2.4818115234375,-0.798828125
121038,1.232528686523438,-2.330429077148438,-1.008209228515625
121039,0.9464569091796876,-2.089218139648438,-1.052001953125
121040,0.7672271728515625,-1.805007934570312,-0.903778076171875
121041,0.624908447265625,-1.532745361328125,-0.70782470703125
121042,0.4605865478515625,-1.262771606445312,-0.463104248046875
121043,0.2995147705078125,-1.028121948242188,-0.334075927734375
121044,0.21624755859375,-0.8226318359375,-0.2579193115234375
121045,0.170013427734375,-0.6864013671875,-0.2503509521484375
121046,0.1458587646484375,-0.5854644775390625,-0.283447265625
121047,0.147369384765625,-0.4752349853515625,-0.28985595703125
121048,0.1505889892578125,-0.360260009765625,-0.271575927734375
121049,0.1443023681640625,-0.25311279296875,-0.231292724609375
121050,0.136322021484375,-0.1601104736328125,-0.1872406005859375
121051,0.135833740234375,-0.0761566162109375,-0.1435089111328125
121052,0.1459197998046875,-0.0038909912109375,-0.1024932861328125
121053,0.159027099609375,0.042877197265625,-0.040740966796875
121054,0.172454833984375,0.06536865234375,0.0157623291015625
121055,0.1826934814453125,0.0756988525390625,0.06854248046875
121056,0.2079925537109375,0.075408935546875,0.1032257080078125
121057,0.2358551025390625,0.0833740234375,0.1051483154296875
121058,0.256927490234375,0.0947113037109375,0.095703125
121059,0.264251708984375,0.069000244140625,0.095001220703125
121060,0.240509033203125,0.01763916015625,0.089447021484375
121061,0.19317626953125,-0.04541015625,0.07318115234375
121062,0.1507720947265625,-0.1051788330078125,0.0687255859375
121063,0.1270751953125,-0.16436767578125,0.0687255859375
121064,0.134765625,-0.229156494140625,0.0692138671875
121065,0.1667938232421875,-0.2947845458984375,0.07470703125
121066,0.2205810546875,-0.3569488525390625,0.1056671142578125
121067,0.30810546875,-0.4146270751953125,0.15093994140625
121068,0.4239501953125,-0.490142822265625,0.1886444091796875
121069,0.5693206787109375,-0.597686767578125,0.1961669921875
121070,0.7079315185546875,-0.7051544189453125,0.1729583740234375
121071,0.797576904296875,-0.78900146484375,0.0864715576171875
121072,0.83465576171875,-0.916290283203125,-0.0184783935546875
121073,0.8401947021484375,-1.139328002929688,-0.118377685546875
121074,0.84735107421875,-1.460693359375,-0.3531341552734375
121075,0.9691314697265624,-1.700210571289062,-0.8336181640625
121076,0.9996337890625,-1.678009033203125,-0.9532318115234376
121077,0.7759857177734375,-1.318679809570312,-0.772003173828125
121078,0.6547698974609375,-1.0394287109375,-0.3455657958984375
121079,0.557159423828125,-0.837432861328125,-0.140289306640625
121080,0.444305419921875,-0.689453125,-0.15869140625
121081,0.3277130126953125,-0.5482940673828125,-0.1343231201171875
121082,0.1984100341796875,-0.4213409423828125,-0.06475830078125
121083,0.0978546142578125,-0.3083038330078125,0.011566162109375
121084,0.04412841796875,-0.2145233154296875,0.0879364013671875
121085,0.0303497314453125,-0.125946044921875,0.1433868408203125
121086,0.042449951171875,-0.0558624267578125,0.1678314208984375
121087,0.076202392578125,-0.0037689208984375,0.2295684814453125
121088,0.136932373046875,0.0026092529296875,0.2592620849609375
121089,0.2110137939453125,0.007568359375,0.2148895263671875
121090,0.269073486328125,0.03253173828125,0.2167205810546875
121091,0.34112548828125,0.001495361328125,0.235565185546875
121092,0.450103759765625,-0.0792236328125,0.217498779296875
121093,0.51220703125,-0.149871826171875,0.1516571044921875
121094,0.518890380859375,-0.238433837890625,0.061279296875
121095,0.513916015625,-0.327850341796875,-0.0260009765625
121096,0.500518798828125,-0.4280853271484375,-0.12310791015625
121097,0.4705047607421875,-0.5367584228515625,-0.1989593505859375
121098,0.45208740234375,-0.6349334716796875,-0.278106689453125
121099,0.460418701171875,-0.7342529296875,-0.34100341796875
121100,0.51715087890625,-0.83587646484375,-0.3253326416015625
121101,0.6196746826171875,-0.92584228515625,-0.235595703125
121102,0.7811737060546875,-1.023208618164062,-0.120330810546875
121103,1.006118774414062,-1.180648803710938,0.00103759765625
121104,1.320785522460938,-1.452346801757812,0.198394775390625
121105,1.700546264648438,-1.761016845703125,0.382537841796875
121106,1.986297607421875,-1.998992919921875,0.3348236083984375
121107,1.980880737304688,-2.256759643554688,0.0524139404296875
121108,1.690673828125,-2.734649658203125,-0.443450927734375
121109,1.636428833007812,-2.924957275390625,-0.150848388671875
121110,1.84326171875,-2.421340942382812,0.0418548583984375
121111,1.909896850585938,-2.148208618164062,-0.0532684326171875
121112,1.864608764648438,-2.057418823242188,-0.074951171875
121113,1.737197875976562,-2.053176879882812,-0.175537109375
121114,1.523788452148438,-2.083175659179688,-0.31182861328125
121115,1.330123901367188,-1.990142822265625,-0.4810333251953125
121116,1.139114379882812,-1.813827514648438,-0.6557464599609375
121117,0.9873046875,-1.613418579101562,-0.6729888916015625
121118,0.8614044189453125,-1.469772338867188,-0.6048126220703125
121119,0.7154388427734375,-1.3260498046875,-0.522918701171875
121120,0.56439208984375,-1.205032348632812,-0.4462432861328125
121121,0.410247802734375,-1.072921752929688,-0.408599853515625
121122,0.2543792724609375,-0.960601806640625,-0.3756256103515625
121123,0.1024017333984375,-0.8724365234375,-0.3803863525390625
121124,0.0258331298828125,-0.744903564453125,-0.313079833984375
121125,0.0228729248046875,-0.609527587890625,-0.260833740234375
121126,0.07000732421875,-0.4732666015625,-0.262237548828125
121127,0.121307373046875,-0.335784912109375,-0.221282958984375
121128,0.1686859130859375,-0.2166290283203125,-0.11993408203125
121129,0.2100067138671875,-0.1026763916015625,-0.0061187744140625
121130,0.2460479736328125,-0.006500244140625,0.079193115234375
121131,0.2648162841796875,0.049835205078125,0.133331298828125
121132,0.258209228515625,0.068756103515625,0.1717987060546875
121133,0.2516326904296875,0.0697174072265625,0.204376220703125
121134,0.2562255859375,0.0602569580078125,0.207611083984375
121135,0.2652587890625,0.0501251220703125,0.194549560546875
121136,0.269195556640625,0.032928466796875,0.180206298828125
121137,0.27740478515625,0.0001373291015625,0.16143798828125
121138,0.2818450927734375,-0.054046630859375,0.1307830810546875
121139,0.282440185546875,-0.112579345703125,0.0960540771484375
121140,0.29241943359375,-0.171783447265625,0.0639801025390625
121141,0.3144378662109375,-0.238433837890625,0.034576416015625
121142,0.3543853759765625,-0.3141632080078125,0.030303955078125
121143,0.41461181640625,-0.4013824462890625,0.0568695068359375
121144,0.4825439453125,-0.498870849609375,0.095794677734375
121145,0.5391998291015625,-0.597869873046875,0.1230316162109375
121146,0.5824127197265625,-0.6804046630859375,0.1309814453125
121147,0.65313720703125,-0.7835845947265625,0.0954742431640625
121148,0.7725067138671875,-0.919036865234375,0.087005615234375
121149,0.92718505859375,-1.091323852539062,0.0723876953125
121150,1.090118408203125,-1.301376342773438,-0.0615081787109375
121151,1.187515258789062,-1.434371948242188,-0.21649169921875
121152,1.17962646484375,-1.451400756835938,-0.498748779296875
121153,1.039382934570312,-1.371978759765625,-0.6185455322265625
121154,0.8244781494140625,-1.08538818359375,-0.7866668701171875
121155,0.6628570556640625,-0.83050537109375,-0.4430389404296875
121156,0.5046844482421875,-0.6635894775390625,-0.1840972900390625
121157,0.3441925048828125,-0.5545501708984375,-0.1129608154296875
121158,0.21746826171875,-0.4512939453125,-0.0563201904296875
121159,0.104705810546875,-0.3539581298828125,-0.0189971923828125
121160,0.0111846923828125,-0.2500457763671875,-0.01531982421875
121161,-0.0421600341796875,-0.1427154541015625,0.03192138671875
121162,-0.0295867919921875,-0.071075439453125,0.103302001953125
121163,-1.52587890625e-05,-0.0211181640625,0.1620330810546875
121164,0.015289306640625,0.022735595703125,0.1899261474609375
121165,0.032684326171875,0.0614166259765625,0.19781494140625
121166,0.076751708984375,0.0949554443359375,0.215667724609375
121167,0.1210174560546875,0.1178436279296875,0.2324371337890625
121168,0.1797332763671875,0.109039306640625,0.234588623046875
121169,0.284637451171875,0.0716705322265625,0.2436370849609375
121170,0.4143829345703125,-0.022186279296875,0.235748291015625
121171,0.515960693359375,-0.1237335205078125,0.174835205078125
121172,0.5728607177734375,-0.217193603515625,0.06451416015625
121173,0.5783233642578125,-0.4090118408203125,-0.067901611328125
121174,0.5719757080078125,-0.6546478271484375,-0.226318359375
121175,0.543212890625,-0.8123321533203125,-0.381988525390625
121176,0.507843017578125,-0.924835205078125,-0.51641845703125
121177,0.4774627685546875,-1.004745483398438,-0.652557373046875
121178,0.4975128173828125,-1.023971557617188,-0.5526275634765625
121179,0.5227203369140625,-0.99481201171875,-0.38287353515625
121180,0.5569000244140625,-0.94732666015625,-0.4102020263671875
121181,0.686431884765625,-1.030227661132812,-0.39520263671875
121182,0.94891357421875,-1.25286865234375,-0.238739013671875
121183,1.335784912109375,-1.5552978515625,-0.045684814453125
121184,1.776535034179688,-1.931854248046875,0.0548248291015625
121185,2.136444091796875,-2.3460693359375,-0.159820556640625
121186,2.175674438476562,-3.000900268554688,-0.3650054931640625
121187,1.988494873046875,-3.744415283203125,-0.3193817138671875
121188,2.133438110351562,-3.483657836914062,-0.35125732421875
121189,2.143753051757812,-2.820724487304688,-0.35009765625
121190,1.87200927734375,-2.481353759765625,-0.3431549072265625
121191,1.465850830078125,-2.365982055664062,-0.4068450927734375
121192,1.164581298828125,-2.150299072265625,-0.520782470703125
121193,0.9551544189453124,-1.92486572265625,-0.608795166015625
121194,0.7902679443359375,-1.733154296875,-0.6380615234375
121195,0.63177490234375,-1.525146484375,-0.607208251953125
121196,0.502685546875,-1.307235717773438,-0.5471343994140625
121197,0.4245147705078125,-1.104019165039062,-0.40570068359375
121198,0.3764190673828125,-0.9473876953125,-0.3568267822265625
121199,0.3335418701171875,-0.8019561767578125,-0.1636962890625
121200,0.29931640625,-0.68817138671875,-0.078094482421875
121201,0.299957275390625,-0.5943603515625,-0.0821533203125
121202,0.336944580078125,-0.467315673828125,-0.0977630615234375
121203,0.3916015625,-0.3195953369140625,-0.0789642333984375
121204,0.4051361083984375,-0.2017974853515625,-0.05615234375
121205,0.35845947265625,-0.13531494140625,-0.0364227294921875
121206,0.286102294921875,-0.0850372314453125,-0.012542724609375
121207,0.2259368896484375,-0.0413055419921875,0.0182952880859375
121208,0.2153778076171875,0.0162811279296875,0.0844879150390625
121209,0.25042724609375,0.0816497802734375,0.1562652587890625
121210,0.27838134765625,0.1270751953125,0.184051513671875
121211,0.2712554931640625,0.1258392333984375,0.16717529296875
121212,0.2559967041015625,0.108367919921875,0.133056640625
121213,0.229949951171875,0.05242919921875,0.127655029296875
121214,0.2033233642578125,-0.0345916748046875,0.1198577880859375
121215,0.179718017578125,-0.0980682373046875,0.0899200439453125
121216,0.1605682373046875,-0.1466827392578125,0.049224853515625
121217,0.157989501953125,-0.194366455078125,0.0167388916015625
121218,0.1728973388671875,-0.244873046875,-0.002960205078125
121219,0.2021331787109375,-0.2847442626953125,-0.005096435546875
121220,0.243865966796875,-0.3183441162109375,0.0177459716796875
121221,0.2967376708984375,-0.368377685546875,0.0675048828125
121222,0.3703155517578125,-0.4423675537109375,0.122528076171875
121223,0.47125244140625,-0.5251617431640625,0.16644287109375
121224,0.5788116455078125,-0.5994415283203125,0.170806884765625
121225,0.6715850830078125,-0.682464599609375,0.139434814453125
121226,0.7667694091796875,-0.780853271484375,0.07562255859375
121227,0.8806304931640625,-0.8820953369140625,-0.0069122314453125
121228,1.009506225585938,-0.9975433349609376,-0.1026611328125
121229,1.151641845703125,-1.134963989257812,-0.2024688720703125
121230,1.247833251953125,-1.2705078125,-0.3178863525390625
121231,1.178024291992188,-1.317718505859375,-0.406982421875
121232,0.974761962890625,-1.207244873046875,-0.501373291015625
121233,0.8096160888671875,-1.027084350585938,-0.473358154296875
121234,0.6383056640625,-0.858428955078125,-0.4175262451171875
121235,0.4541168212890625,-0.70184326171875,-0.44622802734375
121236,0.29351806640625,-0.5571136474609375,-0.4347991943359375
121237,0.1688079833984375,-0.4336395263671875,-0.32525634765625
121238,0.06011962890625,-0.323974609375,-0.2406768798828125
121239,-0.02459716796875,-0.2259368896484375,-0.142730712890625
121240,-0.0489501953125,-0.1147918701171875,-0.048675537109375
121241,-0.019134521484375,0.0169525146484375,0.040802001953125
121242,0.0095672607421875,0.131744384765625,0.1214752197265625
121243,-0.0071258544921875,0.206390380859375,0.204315185546875
121244,-0.0658111572265625,0.255950927734375,0.256072998046875
121245,-0.1091766357421875,0.2588958740234375,0.2141571044921875
121246,-0.1001434326171875,0.2197418212890625,0.167938232421875
121247,-0.0283203125,0.099884033203125,0.091217041015625
121248,0.050567626953125,-0.039642333984375,0.0059967041015625
121249,0.09771728515625,-0.181060791015625,-0.0447540283203125
121250,0.1576690673828125,-0.3309783935546875,-0.098358154296875
121251,0.277587890625,-0.50018310546875,-0.191619873046875
121252,0.4477386474609375,-0.6123199462890625,-0.317840576171875
121253,0.6101531982421875,-0.7149505615234375,-0.4446868896484375
121254,0.6280517578125,-0.8706817626953125,-0.5635986328125
121255,0.557769775390625,-1.004684448242188,-0.777008056640625
121256,0.5389404296875,-1.110794067382812,-0.929595947265625
121257,0.603240966796875,-1.142959594726562,-0.79608154296875
121258,0.692840576171875,-1.17254638671875,-0.611419677734375
121259,0.8324432373046875,-1.299713134765625,-0.5245208740234375
121260,1.062286376953125,-1.543899536132812,-0.4322357177734375
121261,1.35662841796875,-1.831924438476562,-0.3549957275390625
121262,1.673004150390625,-2.164093017578125,-0.4017333984375
121263,1.879058837890625,-2.48443603515625,-0.5761260986328125
121264,1.815017700195312,-2.828567504882812,-0.6375732421875
121265,1.572967529296875,-3.162704467773438,-0.437896728515625
121266,1.6190185546875,-3.151199340820312,-0.4456329345703125
121267,1.731643676757812,-2.848388671875,-0.590911865234375
121268,1.60687255859375,-2.563247680664062,-0.594635009765625
121269,1.343765258789062,-2.313873291015625,-0.624176025390625
121270,1.06658935546875,-2.0733642578125,-0.7057037353515625
121271,0.86663818359375,-1.799453735351562,-0.7645111083984375
121272,0.719757080078125,-1.552215576171875,-0.760406494140625
121273,0.6226806640625,-1.369430541992188,-0.6990814208984375
121274,0.5686187744140625,-1.2088623046875,-0.6532440185546875
121275,0.5225982666015625,-1.050949096679688,-0.621826171875
121276,0.4728851318359375,-0.9003448486328125,-0.5570526123046875
121277,0.4224853515625,-0.76611328125,-0.588165283203125
121278,0.3976287841796875,-0.68951416015625,-0.6170501708984375
121279,0.3883819580078125,-0.64459228515625,-0.4990692138671875
121280,0.3825836181640625,-0.57269287109375,-0.400146484375
121281,0.3723907470703125,-0.4471435546875,-0.3148651123046875
121282,0.347015380859375,-0.31585693359375,-0.2151031494140625
121283,0.3023681640625,-0.18896484375,-0.105377197265625
121284,0.247955322265625,-0.0917510986328125,-0.0075225830078125
121285,0.19482421875,-0.006805419921875,0.0510406494140625
121286,0.1399993896484375,0.0793914794921875,0.09100341796875
121287,0.0944671630859375,0.138916015625,0.123779296875
121288,0.047332763671875,0.1605987548828125,0.12799072265625
121289,0.0147705078125,0.1515045166015625,0.1198272705078125
121290,-0.001251220703125,0.1313323974609375,0.1015625
121291,-0.0205230712890625,0.09228515625,0.088775634765625
121292,-0.0207061767578125,0.02081298828125,0.1174163818359375
121293,-0.0165863037109375,-0.0859375,0.1329345703125
121294,0.0086212158203125,-0.1815338134765625,0.128631591796875
121295,0.0736541748046875,-0.259765625,0.1396484375
121296,0.1620025634765625,-0.3237762451171875,0.1636962890625
121297,0.268096923828125,-0.39093017578125,0.19158935546875
121298,0.39306640625,-0.4778900146484375,0.2105712890625
121299,0.5383453369140625,-0.5935211181640625,0.21856689453125
121300,0.6863861083984375,-0.702911376953125,0.20135498046875
121301,0.8086700439453125,-0.797943115234375,0.1463775634765625
121302,0.924224853515625,-0.909942626953125,0.0247344970703125
121303,1.018569946289062,-1.037612915039062,-0.107421875
121304,1.080780029296875,-1.169692993164062,-0.2367706298828125
121305,1.174911499023438,-1.24932861328125,-0.4164581298828125
121306,1.3173828125,-1.267501831054688,-0.570068359375
121307,1.382797241210938,-1.318023681640625,-0.666046142578125
121308,1.213119506835938,-1.306961059570312,-0.5366973876953125
121309,0.9893035888671876,-1.145538330078125,-0.1628570556640625
121310,0.8198394775390625,-0.9629669189453124,-0.0844573974609375
121311,0.6692962646484375,-0.802490234375,-0.1394500732421875
121312,0.5149993896484375,-0.69146728515625,-0.1917572021484375
121313,0.3809051513671875,-0.5948333740234375,-0.227783203125
121314,0.255035400390625,-0.4927520751953125,-0.2135772705078125
121315,0.15484619140625,-0.4160919189453125,-0.1696319580078125
121316,0.07366943359375,-0.3204193115234375,-0.118865966796875
121317,-0.0008087158203125,-0.1945648193359375,-0.0124664306640625
121318,-0.014007568359375,-0.088165283203125,0.0610198974609375
121319,0.0106201171875,-0.0345611572265625,0.149200439453125
121320,0.0504608154296875,0.006378173828125,0.2004852294921875
121321,0.0942840576171875,0.040313720703125,0.249603271484375
121322,0.1565093994140625,0.0480499267578125,0.283172607421875
121323,0.2126312255859375,0.0699920654296875,0.2989959716796875
121324,0.2547149658203125,0.057891845703125,0.2831268310546875
121325,0.2908172607421875,-0.0007171630859375,0.2434539794921875
121326,0.3468475341796875,-0.0892333984375,0.1868133544921875
121327,0.4265594482421875,-0.20513916015625,0.126739501953125
121328,0.503387451171875,-0.3018341064453125,0.047210693359375
121329,0.55047607421875,-0.3498382568359375,-0.0474395751953125
121330,0.555145263671875,-0.40106201171875,-0.117584228515625
121331,0.520751953125,-0.5130767822265625,-0.2059326171875
121332,0.456329345703125,-0.612884521484375,-0.3421173095703125
121333,0.395294189453125,-0.6551971435546875,-0.459747314453125
121334,0.3710784912109375,-0.680755615234375,-0.4911041259765625
121335,0.385467529296875,-0.712005615234375,-0.4418792724609375
121336,0.4271240234375,-0.754669189453125,-0.3404998779296875
121337,0.4972686767578125,-0.8153533935546875,-0.2031707763671875
121338,0.6443634033203125,-0.950927734375,-0.02972412109375
121339,0.8989105224609375,-1.171646118164062,0.156158447265625
121340,1.236602783203125,-1.454269409179688,0.2925872802734375
121341,1.606643676757812,-1.887954711914062,0.36651611328125
121342,1.99261474609375,-2.526763916015625,0.282562255859375
121343,2.090255737304688,-3.147079467773438,-0.222564697265625
121344,1.983856201171875,-3.5921630859375,-0.6142578125
121345,1.941314697265625,-3.131271362304688,-0.4158477783203125
121346,1.869888305664062,-2.58062744140625,-0.2088623046875
121347,1.737258911132812,-2.403060913085938,-0.263641357421875
121348,1.600387573242188,-2.317031860351562,-0.3253021240234375
121349,1.489212036132812,-2.216232299804688,-0.2622222900390625
121350,1.433364868164062,-2.004562377929688,-0.3306732177734375
121351,1.371047973632812,-1.750564575195312,-0.6342315673828125
121352,1.256576538085938,-1.556564331054688,-0.69415283203125
121353,1.1007080078125,-1.381622314453125,-0.5559234619140625
121354,0.9488372802734376,-1.226806640625,-0.4244537353515625
121355,0.8072357177734375,-1.100112915039062,-0.33349609375
121356,0.6757354736328125,-0.985382080078125,-0.2911834716796875
121357,0.553924560546875,-0.8951263427734375,-0.291656494140625
121358,0.443267822265625,-0.8104705810546875,-0.2968902587890625
121359,0.3449859619140625,-0.7277069091796875,-0.3011016845703125
121360,0.2717437744140625,-0.621368408203125,-0.2947845458984375
121361,0.231353759765625,-0.4965667724609375,-0.2893829345703125
121362,0.22100830078125,-0.3804168701171875,-0.2523651123046875
121363,0.2208099365234375,-0.21893310546875,-0.187744140625
121364,0.2170562744140625,-0.054595947265625,-0.1618804931640625
121365,0.201202392578125,0.0511932373046875,-0.1195068359375
121366,0.1685791015625,0.089263916015625,-0.0211639404296875
121367,0.14996337890625,0.1288299560546875,0.0921173095703125
121368,0.13507080078125,0.192718505859375,0.17742919921875
121369,0.1135711669921875,0.2361297607421875,0.20654296875
121370,0.0794677734375,0.23150634765625,0.1753997802734375
121371,0.044525146484375,0.1788330078125,0.1330108642578125
121372,0.0224609375,0.107940673828125,0.1272735595703125
121373,0.0082244873046875,0.0221099853515625,0.11126708984375
121374,0.0012664794921875,-0.044952392578125,0.08441162109375
121375,0.004150390625,-0.0996551513671875,0.0634002685546875
121376,0.014251708984375,-0.1631011962890625,0.048583984375
121377,0.0461578369140625,-0.229644775390625,0.047576904296875
121378,0.0989837646484375,-0.30322265625,0.065704345703125
121379,0.1606292724609375,-0.3854217529296875,0.10638427734375
121380,0.229217529296875,-0.46759033203125,0.1588134765625
121381,0.3152313232421875,-0.5662841796875,0.2000274658203125
121382,0.4209747314453125,-0.68756103515625,0.221405029296875
121383,0.5416107177734375,-0.798492431640625,0.21209716796875
121384,0.649627685546875,-0.87152099609375,0.1455078125
121385,0.721466064453125,-0.8970794677734375,0.0176849365234375
121386,0.77215576171875,-0.986541748046875,-0.1273956298828125
121387,0.8519744873046875,-1.203506469726562,-0.24810791015625
121388,0.974945068359375,-1.526763916015625,-0.4217987060546875
121389,1.114547729492188,-1.87249755859375,-0.97247314453125
121390,1.205032348632812,-2.029449462890625,-1.28863525390625
121391,0.9974365234375,-1.59490966796875,-0.752471923828125
121392,0.7387237548828125,-1.122879028320312,-0.381195068359375
121393,0.5648040771484375,-0.86529541015625,-0.2363739013671875
121394,0.4157867431640625,-0.6783599853515625,-0.17999267578125
121395,0.3038787841796875,-0.5171356201171875,-0.18048095703125
121396,0.231109619140625,-0.3761138916015625,-0.137054443359375
121397,0.1714019775390625,-0.260528564453125,-0.0958099365234375
121398,0.1015167236328125,-0.143829345703125,0.02203369140625
121399,0.033477783203125,-0.03924560546875,0.0663604736328125
121400,0.000946044921875,0.03302001953125,0.0512847900390625
121401,0.041839599609375,0.0713653564453125,0.0541229248046875
121402,0.1246490478515625,0.0871429443359375,0.1179962158203125
121403,0.155792236328125,0.1385345458984375,0.1847381591796875
121404,0.1578369140625,0.1791839599609375,0.2204742431640625
121405,0.166259765625,0.1872100830078125,0.2450103759765625
121406,0.204925537109375,0.1403350830078125,0.2599334716796875
121407,0.2660980224609375,0.08087158203125,0.265228271484375
121408,0.3566131591796875,-0.0091705322265625,0.2572479248046875
121409,0.4696807861328125,-0.1516876220703125,0.2028045654296875
121410,0.579071044921875,-0.298095703125,0.1025848388671875
121411,0.65948486328125,-0.42144775390625,0.0106964111328125
121412,0.702117919921875,-0.533233642578125,-0.0703277587890625
121413,0.686676025390625,-0.694915771484375,-0.177734375
121414,0.6666412353515625,-0.86431884765625,-0.3357086181640625
121415,0.64361572265625,-0.959503173828125,-0.515167236328125
121416,0.62164306640625,-1.010787963867188,-0.746063232421875
121417,0.64190673828125,-1.063507080078125,-0.866058349609375
121418,0.7480926513671875,-1.204086303710938,-0.672943115234375
121419,0.897491455078125,-1.397720336914062,-0.4176483154296875
121420,1.087066650390625,-1.58880615234375,-0.24664306640625
121421,1.366104125976562,-1.83306884765625,-0.0689697265625
121422,1.646881103515625,-2.196624755859375,0.010467529296875
121423,1.8033447265625,-2.594589233398438,-0.1270294189453125
121424,1.737030029296875,-2.77117919921875,-0.1892242431640625
121425,1.587417602539062,-2.782608032226562,-0.1894683837890625
121426,1.515777587890625,-2.647445678710938,-0.2060699462890625
121427,1.436538696289062,-2.397048950195312,-0.2308349609375
121428,1.30352783203125,-2.249603271484375,-0.2191009521484375
121429,1.18304443359375,-2.131546020507812,-0.271759033203125
121430,1.136611938476562,-1.975555419921875,-0.38189697265625
121431,1.07330322265625,-1.833038330078125,-0.4207916259765625
121432,1.0277099609375,-1.687637329101562,-0.4821624755859375
121433,0.9895477294921876,-1.52252197265625,-0.525390625
121434,0.941650390625,-1.37060546875,-0.49542236328125
121435,0.884918212890625,-1.218338012695312,-0.4415740966796875
121436,0.81610107421875,-1.075790405273438,-0.3854827880859375
121437,0.7341461181640625,-0.9439849853515624,-0.3509979248046875
121438,0.6311492919921875,-0.8297271728515625,-0.3477935791015625
121439,0.5394439697265625,-0.74639892578125,-0.43438720703125
121440,0.4409332275390625,-0.691497802734375,-0.4119720458984375
121441,0.35992431640625,-0.6424407958984375,-0.332489013671875
121442,0.302520751953125,-0.5777740478515625,-0.2291259765625
121443,0.282135009765625,-0.48870849609375,-0.13055419921875
121444,0.2642059326171875,-0.383148193359375,-0.06170654296875
121445,0.2377166748046875,-0.276275634765625,-0.0343017578125
121446,0.1991424560546875,-0.19439697265625,0.0300750732421875
121447,0.1572265625,-0.1378631591796875,0.1046142578125
121448,0.1359710693359375,-0.0652008056640625,0.1635284423828125
121449,0.1294403076171875,0.0111083984375,0.239776611328125
121450,0.1269073486328125,0.0533294677734375,0.29779052734375
121451,0.106231689453125,0.051910400390625,0.3021240234375
121452,0.0757904052734375,0.0031890869140625,0.2605438232421875
121453,0.0417633056640625,-0.0688323974609375,0.2068023681640625
121454,0.0090484619140625,-0.138885498046875,0.1559600830078125
121455,-0.0049285888671875,-0.2052154541015625,0.1147308349609375
121456,0.0136566162109375,-0.265228271484375,0.0954132080078125
121457,0.0580596923828125,-0.3255767822265625,0.0820465087890625
121458,0.116546630859375,-0.3835601806640625,0.0748138427734375
121459,0.1828765869140625,-0.4433746337890625,0.0724945068359375
121460,0.2640380859375,-0.5121612548828125,0.075225830078125
121461,0.3624267578125,-0.620391845703125,0.065216064453125
121462,0.479461669921875,-0.7816314697265625,0.025238037109375
121463,0.6033935546875,-0.9498138427734376,-0.0374908447265625
121464,0.7092132568359375,-1.088516235351562,-0.1208648681640625
121465,0.782562255859375,-1.211685180664062,-0.2066802978515625
121466,0.8360748291015625,-1.358200073242188,-0.2993316650390625
121467,0.88775634765625,-1.522262573242188,-0.4425506591796875
121468,0.89105224609375,-1.599639892578125,-0.724212646484375
121469,0.8536529541015625,-1.502731323242188,-0.89093017578125
121470,0.756988525390625,-1.285888671875,-0.580078125
121471,0.631591796875,-1.125701904296875,-0.3509063720703125
121472,0.5170135498046875,-1.008529663085938,-0.24090576171875
121473,0.4187469482421875,-0.8779754638671875,-0.18341064453125
121474,0.3477783203125,-0.733154296875,-0.171600341796875
121475,0.3001251220703125,-0.5566864013671875,-0.152008056640625
121476,0.2702484130859375,-0.4140625,-0.12554931640625
121477,0.2588653564453125,-0.228607177734375,-0.07470703125
121478,0.1973419189453125,-0.1468963623046875,-0.0547332763671875
121479,0.1640777587890625,-0.1187286376953125,-0.01800537109375
121480,0.1395721435546875,-0.106292724609375,-0.0024566650390625
121481,0.14422607421875,-0.08660888671875,0.0300445556640625
121482,0.16973876953125,-0.061248779296875,0.0735931396484375
121483,0.175384521484375,-0.007598876953125,0.0999908447265625
121484,0.16900634765625,0.0299072265625,0.1196136474609375
121485,0.154876708984375,0.05517578125,0.1167144775390625
121486,0.148162841796875,0.045379638671875,0.1016387939453125
121487,0.1483612060546875,0.0030517578125,0.0684661865234375
121488,0.15478515625,-0.0615692138671875,0.0174102783203125
121489,0.1686248779296875,-0.1287994384765625,-0.0391387939453125
121490,0.19384765625,-0.18731689453125,-0.1036529541015625
121491,0.2368621826171875,-0.2332916259765625,-0.1631011962890625
121492,0.295166015625,-0.276702880859375,-0.219573974609375
121493,0.3597412109375,-0.3313140869140625,-0.2841949462890625
121494,0.4045867919921875,-0.3898773193359375,-0.3368682861328125
121495,0.4386444091796875,-0.471099853515625,-0.38641357421875
121496,0.462677001953125,-0.5728759765625,-0.4684295654296875
121497,0.4857330322265625,-0.6830902099609375,-0.5348358154296875
121498,0.5262908935546875,-0.8156280517578125,-0.570709228515625
121499,0.59234619140625,-0.96466064453125,-0.58197021484375
121500,0.682525634765625,-1.111343383789062,-0.566497802734375
121501,0.830657958984375,-1.294937133789062,-0.5255126953125
121502,1.055999755859375,-1.556350708007812,-0.4634552001953125
121503,1.339202880859375,-1.91400146484375,-0.416534423828125
121504,1.660247802734375,-2.391311645507812,-0.4419403076171875
121505,1.97509765625,-3.0887451171875,-0.8883209228515625
121506,2.082443237304688,-4.047103881835938,-1.829803466796875
121507,2.014999389648438,-4.119033813476562,-1.162734985351562
121508,1.824935913085938,-3.135269165039062,-0.57489013671875
121509,1.647109985351562,-2.62548828125,-0.6152801513671875
121510,1.422439575195312,-2.334686279296875,-0.5845489501953125
121511,1.211318969726562,-2.072723388671875,-0.6289215087890625
121512,1.03369140625,-1.824386596679688,-0.6955108642578125
121513,0.908447265625,-1.549880981445312,-0.753753662109375
121514,0.8177337646484375,-1.303741455078125,-0.70867919921875
121515,0.7435302734375,-1.121368408203125,-0.5364990234375
121516,0.6734619140625,-0.98809814453125,-0.3804473876953125
121517,0.6352691650390625,-0.88055419921875,-0.24749755859375
121518,0.5972442626953125,-0.80584716796875,-0.2139129638671875
121519,0.5806884765625,-0.739013671875,-0.130340576171875
121520,0.5540771484375,-0.6743927001953125,-0.0967254638671875
121521,0.4902496337890625,-0.6153717041015625,-0.118011474609375
121522,0.4124755859375,-0.5491943359375,-0.1738739013671875
121523,0.3443450927734375,-0.4770050048828125,-0.21234130859375
121524,0.30291748046875,-0.381622314453125,-0.2569427490234375
121525,0.298095703125,-0.2663421630859375,-0.25518798828125
121526,0.2958526611328125,-0.1787261962890625,-0.197235107421875
121527,0.2647857666015625,-0.1204986572265625,-0.140472412109375
121528,0.2050933837890625,-0.0588531494140625,-0.106903076171875
121529,0.1319122314453125,0.0254058837890625,-0.0851593017578125
121530,0.0595703125,0.1134033203125,-0.047760009765625
121531,0.011322021484375,0.1659698486328125,0.0103759765625
121532,-0.0155029296875,0.172607421875,0.0898895263671875
121533,-0.0166778564453125,0.148101806640625,0.1645050048828125
121534,0.0039825439453125,0.0978546142578125,0.2084503173828125
121535,0.040252685546875,0.0239410400390625,0.1987152099609375
121536,0.070343017578125,-0.052215576171875,0.1524658203125
121537,0.087982177734375,-0.1102294921875,0.1140594482421875
121538,0.1029052734375,-0.1663055419921875,0.0943145751953125
121539,0.1309051513671875,-0.23004150390625,0.08135986328125
121540,0.1698150634765625,-0.3074951171875,0.0590057373046875
121541,0.2137908935546875,-0.387176513671875,0.0314483642578125
121542,0.2757720947265625,-0.4759674072265625,0.0010986328125
121543,0.3600311279296875,-0.595703125,-0.031646728515625
121544,0.46697998046875,-0.7574615478515625,-0.0718536376953125
121545,0.581634521484375,-0.9344940185546876,-0.1165008544921875
121546,0.6793365478515625,-1.0830078125,-0.1810150146484375
121547,0.740264892578125,-1.205780029296875,-0.256500244140625
121548,0.788726806640625,-1.338165283203125,-0.363616943359375
121549,0.8706512451171875,-1.487091064453125,-0.560272216796875
121550,0.946746826171875,-1.587738037109375,-0.8731842041015625
121551,0.9307708740234376,-1.613235473632812,-0.9410858154296876
121552,0.806182861328125,-1.48394775390625,-0.531402587890625
121553,0.6712493896484375,-1.308456420898438,-0.275299072265625
121554,0.5467681884765625,-1.146026611328125,-0.196685791015625
121555,0.4648284912109375,-1.006484985351562,-0.1717071533203125
121556,0.37939453125,-0.88189697265625,-0.196044921875
121557,0.313690185546875,-0.754486083984375,-0.225311279296875
121558,0.2429046630859375,-0.6365509033203125,-0.213623046875
121559,0.1715087890625,-0.5295562744140625,-0.16790771484375
121560,0.101470947265625,-0.421051025390625,-0.1203460693359375
121561,0.043182373046875,-0.3059539794921875,-0.078460693359375
121562,-0.010528564453125,-0.202728271484375,-0.0310211181640625
121563,-0.0443878173828125,-0.14263916015625,0.002410888671875
121564,-0.046722412109375,-0.1141357421875,0.0225067138671875
121565,-0.027587890625,-0.06634521484375,0.0296173095703125
121566,0.0196990966796875,0.0045928955078125,0.0654296875
121567,0.0751800537109375,0.071990966796875,0.092041015625
121568,0.1165618896484375,0.1363983154296875,0.1118927001953125
121569,0.1591339111328125,0.1864776611328125,0.136932373046875
121570,0.217132568359375,0.2037506103515625,0.1642608642578125
121571,0.2983245849609375,0.135833740234375,0.18701171875
121572,0.3961029052734375,-0.021209716796875,0.146820068359375
121573,0.4945526123046875,-0.1870880126953125,0.045379638671875
121574,0.5724029541015625,-0.30499267578125,-0.057586669921875
121575,0.620758056640625,-0.4244232177734375,-0.1561279296875
121576,0.656982421875,-0.559783935546875,-0.239959716796875
121577,0.660736083984375,-0.710784912109375,-0.3376312255859375
121578,0.6553955078125,-0.889434814453125,-0.444610595703125
121579,0.6542205810546875,-1.037216186523438,-0.562469482421875
121580,0.6300201416015625,-1.093673706054688,-0.664825439453125
121581,0.642791748046875,-1.130020141601562,-0.6458740234375
121582,0.7562255859375,-1.19927978515625,-0.5646209716796875
121583,0.9496307373046876,-1.331985473632812,-0.4257659912109375
121584,1.176406860351562,-1.563217163085938,-0.3145599365234375
121585,1.390243530273438,-1.934478759765625,-0.2007293701171875
121586,1.569229125976562,-2.491043090820312,-0.2607421875
121587,1.63677978515625,-3.091552734375,-0.6360931396484375
121588,1.615707397460938,-3.395477294921875,-0.7277069091796875
121589,1.598464965820312,-3.037445068359375,-0.4324493408203125
121590,1.499740600585938,-2.60223388671875,-0.4271697998046875
121591,1.375747680664062,-2.344833374023438,-0.534576416015625
121592,1.247085571289062,-2.189193725585938,-0.6439361572265625
121593,1.123916625976562,-2.041671752929688,-0.680023193359375
121594,1.027099609375,-1.837997436523438,-0.65716552734375
121595,0.9481353759765624,-1.60064697265625,-0.6135406494140625
121596,0.8836822509765625,-1.409439086914062,-0.5081939697265625
121597,0.85150146484375,-1.246780395507812,-0.361724853515625
121598,0.8406829833984375,-1.094436645507812,-0.2933349609375
121599,0.8414154052734375,-0.9781036376953124,-0.2800445556640625
121600,0.84637451171875,-0.8955841064453125,-0.2878265380859375
121601,0.8314056396484375,-0.846832275390625,-0.3046722412109375
121602,0.7980194091796875,-0.8173980712890625,-0.341033935546875
121603,0.7560272216796875,-0.7761688232421875,-0.369964599609375
121604,0.6934356689453125,-0.7070159912109375,-0.4013214111328125
121605,0.6125640869140625,-0.60357666015625,-0.435028076171875
121606,0.523193359375,-0.4890289306640625,-0.473114013671875
121607,0.4467926025390625,-0.4011383056640625,-0.4524993896484375
121608,0.3837127685546875,-0.3304290771484375,-0.3744049072265625
121609,0.3367919921875,-0.2488861083984375,-0.251068115234375
121610,0.2914581298828125,-0.140869140625,-0.118072509765625
121611,0.2417144775390625,-0.055877685546875,-0.0272064208984375
121612,0.19317626953125,0.000885009765625,0.0276641845703125
121613,0.130340576171875,0.051605224609375,0.081878662109375
121614,0.051239013671875,0.098876953125,0.1497955322265625
121615,-0.03826904296875,0.122467041015625,0.2189483642578125
121616,-0.1235198974609375,0.1110076904296875,0.262481689453125
121617,-0.1792144775390625,0.0686492919921875,0.3004302978515625
121618,-0.1764068603515625,-0.0149993896484375,0.321929931640625
121619,-0.1234893798828125,-0.127197265625,0.2898406982421875
121620,-0.0379791259765625,-0.2223663330078125,0.2324676513671875
121621,0.030426025390625,-0.2818450927734375,0.207855224609375
121622,0.085845947265625,-0.3453369140625,0.179534912109375
121623,0.1549072265625,-0.4185791015625,0.1591339111328125
121624,0.2532806396484375,-0.520965576171875,0.1463775634765625
121625,0.385162353515625,-0.66107177734375,0.1302947998046875
121626,0.54449462890625,-0.804107666015625,0.0909881591796875
121627,0.696441650390625,-0.93121337890625,0.0215301513671875
121628,0.8320770263671875,-1.06512451171875,-0.0822296142578125
121629,0.9564666748046876,-1.2823486328125,-0.2388458251953125
121630,1.0792236328125,-1.530746459960938,-0.453948974609375
121631,1.197509765625,-1.68963623046875,-0.778076171875
121632,1.227706909179688,-1.6785888671875,-1.203140258789062
121633,1.033477783203125,-1.412734985351562,-0.983306884765625
121634,0.8571319580078125,-1.158294677734375,-0.2642974853515625
121635,0.7460784912109375,-1.025283813476562,-0.080291748046875
121636,0.6366119384765625,-0.9365692138671876,-0.0146942138671875
121637,0.5338592529296875,-0.8470306396484375,-0.0212860107421875
121638,0.4504241943359375,-0.7210540771484375,-0.0515594482421875
121639,0.36639404296875,-0.5777587890625,-0.1069793701171875
121640,0.292083740234375,-0.457427978515625,-0.1041717529296875
121641,0.2245025634765625,-0.3333282470703125,-0.0734710693359375
121642,0.160247802734375,-0.216888427734375,-0.0668792724609375
121643,0.0877685546875,-0.15380859375,-0.046722412109375
121644,0.029754638671875,-0.109283447265625,-6.103515625e-05
121645,0.0078277587890625,-0.082733154296875,0.0202789306640625
121646,0.0143890380859375,-0.0506439208984375,0.0233306884765625
121647,0.039520263671875,-0.010498046875,0.0320892333984375
121648,0.055206298828125,0.0346527099609375,0.056304931640625
121649,0.0522003173828125,0.06317138671875,0.0730438232421875
121650,0.0469818115234375,0.0841217041015625,0.0865478515625
121651,0.0663909912109375,0.0555877685546875,0.1154632568359375
121652,0.12860107421875,-0.029296875,0.1399383544921875
121653,0.19970703125,-0.133056640625,0.1435546875
121654,0.2831268310546875,-0.2626190185546875,0.116973876953125
121655,0.3944244384765625,-0.40692138671875,0.0828399658203125
121656,0.5328521728515625,-0.51910400390625,0.0258026123046875
121657,0.6543731689453125,-0.59161376953125,-0.050506591796875
121658,0.723236083984375,-0.6893768310546875,-0.1412200927734375
121659,0.741058349609375,-0.8137054443359375,-0.2768707275390625
121660,0.72161865234375,-0.904266357421875,-0.4673309326171875
121661,0.6598358154296875,-0.96649169921875,-0.7397003173828125
121662,0.6239776611328125,-0.983673095703125,-0.8987579345703125
121663,0.67401123046875,-0.9659423828125,-0.7639923095703125
121664,0.743072509765625,-1.013519287109375,-0.5819549560546875
121665,0.8471527099609375,-1.139495849609375,-0.443603515625
121666,1.068115234375,-1.335189819335938,-0.2812652587890625
121667,1.384979248046875,-1.625518798828125,-0.106842041015625
121668,1.7393798828125,-2.137176513671875,-0.0060272216796875
121669,2.108230590820312,-2.771804809570312,-0.1786651611328125
121670,2.045440673828125,-3.485122680664062,-0.4187774658203125
121671,1.72991943359375,-3.484893798828125,-0.4316558837890625
121672,1.58575439453125,-2.742904663085938,-0.348663330078125
121673,1.439407348632812,-2.39825439453125,-0.2654266357421875
121674,1.3262939453125,-2.215911865234375,-0.373138427734375
121675,1.2132568359375,-2.01934814453125,-0.489990234375
121676,1.114501953125,-1.905807495117188,-0.5394439697265625
121677,1.016006469726562,-1.738845825195312,-0.6253814697265625
121678,0.9045867919921876,-1.538589477539062,-0.748626708984375
121679,0.800567626953125,-1.350418090820312,-0.7498931884765625
121680,0.7147979736328125,-1.18756103515625,-0.6023406982421875
121681,0.6217041015625,-1.0504150390625,-0.4492340087890625
121682,0.521484375,-0.934112548828125,-0.3668670654296875
121683,0.431243896484375,-0.8265533447265625,-0.324859619140625
121684,0.3671875,-0.71826171875,-0.24176025390625
121685,0.313018798828125,-0.64910888671875,-0.21905517578125
121686,0.2664031982421875,-0.587158203125,-0.24652099609375
121687,0.2565765380859375,-0.495361328125,-0.2457733154296875
121688,0.26788330078125,-0.3996429443359375,-0.255615234375
121689,0.27880859375,-0.313568115234375,-0.2456512451171875
121690,0.2743072509765625,-0.2422332763671875,-0.187042236328125
121691,0.2676544189453125,-0.16998291015625,-0.126708984375
121692,0.2621002197265625,-0.1105499267578125,-0.05780029296875
121693,0.2535247802734375,-0.0631256103515625,0.0165252685546875
121694,0.23907470703125,-0.017303466796875,0.0749053955078125
121695,0.2192840576171875,0.0104217529296875,0.1243743896484375
121696,0.210968017578125,0.02569580078125,0.173492431640625
121697,0.2032928466796875,0.0178375244140625,0.2054595947265625
121698,0.1731719970703125,-0.0061492919921875,0.217376708984375
121699,0.1229095458984375,-0.054443359375,0.230377197265625
121700,0.079010009765625,-0.1305694580078125,0.2227935791015625
121701,0.05059814453125,-0.2191925048828125,0.193145751953125
121702,0.073333740234375,-0.3060302734375,0.152069091796875
121703,0.1436920166015625,-0.3986358642578125,0.128631591796875
121704,0.2425689697265625,-0.472320556640625,0.12274169921875
121705,0.3508148193359375,-0.53924560546875,0.140899658203125
121706,0.469696044921875,-0.6253509521484375,0.139801025390625
121707,0.5872802734375,-0.725311279296875,0.097686767578125
121708,0.6974334716796875,-0.8150634765625,0.0238800048828125
121709,0.82830810546875,-0.9102325439453124,-0.0606536865234375
121710,0.9864654541015624,-1.041458129882812,-0.1386260986328125
121711,1.114227294921875,-1.190414428710938,-0.2498931884765625
121712,1.19317626953125,-1.328155517578125,-0.5410003662109375
121713,1.243026733398438,-1.378189086914062,-0.7574462890625
121714,1.168563842773438,-1.351348876953125,-0.6295013427734375
121715,0.9560394287109376,-1.245101928710938,-0.4443359375
121716,0.7889251708984375,-1.056716918945312,-0.1715240478515625
121717,0.6519317626953125,-0.8890838623046875,-0.1660919189453125
121718,0.5100860595703125,-0.750732421875,-0.18890380859375
121719,0.3467864990234375,-0.636016845703125,-0.2279205322265625
121720,0.1983489990234375,-0.5271759033203125,-0.1931915283203125
121721,0.0638275146484375,-0.4267578125,-0.11419677734375
121722,-0.02679443359375,-0.316375732421875,-0.034393310546875
121723,-0.079559326171875,-0.2053375244140625,0.0368804931640625
121724,-0.099578857421875,-0.1058197021484375,0.0640716552734375
121725,-0.100494384765625,-0.060302734375,0.06903076171875
121726,-0.0704498291015625,-0.055419921875,0.1015472412109375
121727,-0.052398681640625,-0.0518646240234375,0.11688232421875
121728,-0.0747833251953125,-0.0282745361328125,0.1550750732421875
121729,-0.1053314208984375,-0.0094146728515625,0.199462890625
121730,-0.096893310546875,-0.0258331298828125,0.214599609375
121731,-0.026885986328125,-0.0785675048828125,0.2179718017578125
121732,0.089019775390625,-0.1490478515625,0.207855224609375
121733,0.166259765625,-0.2056121826171875,0.2064361572265625
121734,0.234954833984375,-0.291656494140625,0.168182373046875
121735,0.3165283203125,-0.388671875,0.1009674072265625
121736,0.495330810546875,-0.5186767578125,0.0228271484375
121737,0.7819671630859375,-0.6751556396484375,-0.1131439208984375
121738,0.8837738037109375,-0.6953887939453125,-0.2276763916015625
121739,0.883270263671875,-0.7579498291015625,-0.3355712890625
121740,0.848876953125,-0.8460845947265625,-0.520751953125
121741,0.7847747802734375,-0.8800506591796875,-0.7439727783203125
121742,0.80419921875,-0.9033050537109376,-0.7736663818359375
121743,0.8784942626953125,-0.9195556640625,-0.535919189453125
121744,0.9540557861328124,-0.9499359130859376,-0.374664306640625
121745,1.024185180664062,-1.0257568359375,-0.2971343994140625
121746,1.150344848632812,-1.184158325195312,-0.1922607421875
121747,1.343597412109375,-1.408096313476562,-0.0566558837890625
121748,1.51568603515625,-1.765899658203125,0.0602569580078125
121749,1.699386596679688,-2.272979736328125,0.059417724609375
121750,1.790664672851562,-2.84234619140625,-0.06817626953125
121751,1.749969482421875,-3.318572998046875,-0.2725067138671875
121752,1.775741577148438,-3.291671752929688,-0.5059356689453125
121753,1.59820556640625,-2.815414428710938,-0.5629730224609375
121754,1.409957885742188,-2.500213623046875,-0.5499114990234375
121755,1.3099365234375,-2.238571166992188,-0.593048095703125
121756,1.27032470703125,-1.957290649414062,-0.6219635009765625
121757,1.199234008789062,-1.676101684570312,-0.6526641845703125
121758,1.06085205078125,-1.433273315429688,-0.763214111328125
121759,0.9147491455078124,-1.222183227539062,-0.7521514892578125
121760,0.83709716796875,-1.054824829101562,-0.58624267578125
121761,0.77874755859375,-0.9277191162109376,-0.4285430908203125
121762,0.7121124267578125,-0.825531005859375,-0.3481903076171875
121763,0.643280029296875,-0.7336578369140625,-0.3136749267578125
121764,0.5786285400390625,-0.6443328857421875,-0.3127593994140625
121765,0.5214080810546875,-0.5634613037109375,-0.284820556640625
121766,0.4837188720703125,-0.4752197265625,-0.2677001953125
121767,0.444732666015625,-0.3843536376953125,-0.2324676513671875
121768,0.3928375244140625,-0.3014678955078125,-0.17218017578125
121769,0.3165740966796875,-0.2537078857421875,-0.123382568359375
121770,0.2568511962890625,-0.208221435546875,-0.0930328369140625
121771,0.220916748046875,-0.146881103515625,-0.0532989501953125
121772,0.1909332275390625,-0.084747314453125,-0.024322509765625
121773,0.1726531982421875,-0.066680908203125,-0.0002593994140625
121774,0.1497955322265625,-0.056610107421875,0.03656005859375
121775,0.112457275390625,-0.0442657470703125,0.08282470703125
121776,0.0653228759765625,-0.042205810546875,0.1336669921875
121777,0.037353515625,-0.0534820556640625,0.1829681396484375
121778,0.0212249755859375,-0.0809478759765625,0.2163848876953125
121779,0.0067901611328125,-0.1259613037109375,0.2381439208984375
121780,-0.004364013671875,-0.186004638671875,0.25079345703125
121781,0.0075531005859375,-0.2416534423828125,0.243194580078125
121782,0.042694091796875,-0.2851715087890625,0.21563720703125
121783,0.097808837890625,-0.322540283203125,0.180084228515625
121784,0.16925048828125,-0.3692169189453125,0.1652679443359375
121785,0.2465057373046875,-0.4163970947265625,0.151885986328125
121786,0.33099365234375,-0.4922943115234375,0.146087646484375
121787,0.4261627197265625,-0.5995635986328125,0.1311492919921875
121788,0.5298004150390625,-0.72320556640625,0.1052398681640625
121789,0.6504058837890625,-0.869903564453125,0.0438690185546875
121790,0.7761383056640625,-1.082107543945312,-0.0541229248046875
121791,0.923370361328125,-1.335281372070312,-0.1723175048828125
121792,1.062057495117188,-1.551040649414062,-0.3240203857421875
121793,1.172225952148438,-1.608169555664062,-0.5771026611328125
121794,1.243194580078125,-1.587875366210938,-0.97613525390625
121795,1.1475830078125,-1.481246948242188,-1.10498046875
121796,0.891204833984375,-1.208694458007812,-0.4795684814453125
121797,0.7118377685546875,-1.0108642578125,-0.1768798828125
121798,0.5612335205078125,-0.8592376708984375,-0.0727386474609375
121799,0.4266357421875,-0.72503662109375,-0.0153045654296875
121800,0.320098876953125,-0.5819091796875,-0.01251220703125
121801,0.229522705078125,-0.4358062744140625,-0.014617919921875
121802,0.1566009521484375,-0.3131561279296875,0.001190185546875
121803,0.080718994140625,-0.2222900390625,0.00335693359375
121804,0.0171051025390625,-0.13482666015625,0.0210113525390625
121805,-0.0102996826171875,-0.059234619140625,0.01202392578125
121806,0.006683349609375,-0.0255126953125,0.01458740234375
121807,0.0404052734375,0.000640869140625,0.0187530517578125
121808,0.0758056640625,0.053466796875,0.0149383544921875
121809,0.1036376953125,0.1017608642578125,0.029052734375
121810,0.11297607421875,0.144317626953125,0.0529022216796875
121811,0.135833740234375,0.1212158203125,0.09832763671875
121812,0.173187255859375,0.09234619140625,0.1285552978515625
121813,0.2276458740234375,0.0347747802734375,0.1425018310546875
121814,0.3110504150390625,-0.0307769775390625,0.1184539794921875
121815,0.3894195556640625,-0.137420654296875,0.0651092529296875
121816,0.4210662841796875,-0.244232177734375,-0.0015869140625
121817,0.4478912353515625,-0.3590545654296875,-0.1050872802734375
121818,0.4922027587890625,-0.516632080078125,-0.2361907958984375
121819,0.557098388671875,-0.693359375,-0.3527679443359375
121820,0.6441802978515625,-0.9019622802734376,-0.4761962890625
121821,0.70306396484375,-1.047317504882812,-0.6748809814453125
121822,0.7600555419921875,-1.095672607421875,-0.83404541015625
121823,0.8508148193359375,-1.20477294921875,-0.6417388916015625
121824,0.9451751708984376,-1.333175659179688,-0.3412322998046875
121825,1.135269165039062,-1.485061645507812,-0.1861114501953125
121826,1.456024169921875,-1.793167114257812,-0.1558380126953125
121827,1.853469848632812,-2.239044189453125,-0.1762847900390625
121828,2.121261596679688,-2.670455932617188,-0.502593994140625
121829,2.041030883789062,-3.044937133789062,-0.76739501953125
121830,1.778884887695312,-3.200271606445312,-0.39190673828125
121831,1.714019775390625,-2.767105102539062,-0.34088134765625
121832,1.692367553710938,-2.445632934570312,-0.4109344482421875
121833,1.495590209960938,-2.2327880859375,-0.4037017822265625
121834,1.25677490234375,-2.054718017578125,-0.484527587890625
121835,1.058990478515625,-1.869766235351562,-0.5875396728515625
121836,0.9282379150390624,-1.666961669921875,-0.6635894775390625
121837,0.8390960693359375,-1.453933715820312,-0.65252685546875
121838,0.768035888671875,-1.2840576171875,-0.5489959716796875
121839,0.7211761474609375,-1.14501953125,-0.4555511474609375
121840,0.6809844970703125,-1.006515502929688,-0.39617919921875
121841,0.6332244873046875,-0.89288330078125,-0.3512420654296875
121842,0.5715484619140625,-0.8021697998046875,-0.3630218505859375
121843,0.5306549072265625,-0.6979217529296875,-0.403594970703125
121844,0.4871063232421875,-0.619354248046875,-0.3617095947265625
121845,0.4523773193359375,-0.518768310546875,-0.289581298828125
121846,0.412628173828125,-0.4221649169921875,-0.2501068115234375
121847,0.36572265625,-0.3212127685546875,-0.2227783203125
121848,0.3135223388671875,-0.2337799072265625,-0.1496124267578125
121849,0.2498016357421875,-0.1719207763671875,-0.1046600341796875
121850,0.1884613037109375,-0.1286468505859375,-0.0735321044921875
121851,0.1302642822265625,-0.092987060546875,-0.03717041015625
121852,0.07879638671875,-0.0583648681640625,0.0024261474609375
121853,0.0417327880859375,-0.04327392578125,0.0387420654296875
121854,0.020721435546875,-0.048248291015625,0.078857421875
121855,0.009033203125,-0.0716552734375,0.1240081787109375
121856,-0.0054779052734375,-0.1156158447265625,0.1652984619140625
121857,-0.0107879638671875,-0.1493377685546875,0.2064056396484375
121858,-0.0001983642578125,-0.1813201904296875,0.24273681640625
121859,0.0290679931640625,-0.21636962890625,0.2598876953125
121860,0.0699615478515625,-0.25006103515625,0.25274658203125
121861,0.107086181640625,-0.291229248046875,0.24481201171875
121862,0.148651123046875,-0.348358154296875,0.2434539794921875
121863,0.2073822021484375,-0.414703369140625,0.2454833984375
121864,0.2908172607421875,-0.4880828857421875,0.25213623046875
121865,0.405242919921875,-0.5820465087890625,0.251190185546875
121866,0.5351409912109375,-0.6966094970703125,0.2281646728515625
121867,0.6731109619140625,-0.824371337890625,0.1829071044921875
121868,0.80792236328125,-0.96234130859375,0.08331298828125
121869,0.92987060546875,-1.135467529296875,-0.0310211181640625
121870,1.058349609375,-1.347763061523438,-0.2110443115234375
121871,1.145050048828125,-1.527801513671875,-0.5274810791015625
121872,1.213882446289062,-1.714889526367188,-0.9249114990234376
121873,1.047317504882812,-1.785690307617188,-1.102508544921875
121874,0.7659149169921875,-1.417892456054688,-0.7263031005859375
121875,0.5988311767578125,-1.09661865234375,-0.235137939453125
121876,0.4704132080078125,-0.891387939453125,-0.1147308349609375
121877,0.3372650146484375,-0.743194580078125,-0.0251617431640625
121878,0.223724365234375,-0.602264404296875,0.00115966796875
121879,0.130706787109375,-0.4665069580078125,-0.0079345703125
121880,0.0534820556640625,-0.345428466796875,0.0600433349609375
121881,-0.005401611328125,-0.228240966796875,0.072998046875
121882,-0.0193634033203125,-0.1410980224609375,0.0858917236328125
121883,-0.0159149169921875,-0.084930419921875,0.1429443359375
121884,-0.0079803466796875,-0.093475341796875,0.1308135986328125
121885,0.0360870361328125,-0.063751220703125,0.107666015625
121886,0.10955810546875,0.0045318603515625,0.1042327880859375
121887,0.174072265625,0.074859619140625,0.0998992919921875
121888,0.2304229736328125,0.1055145263671875,0.1125335693359375
121889,0.2997894287109375,0.094482421875,0.1508331298828125
121890,0.412078857421875,0.0466766357421875,0.1595458984375
121891,0.5413970947265625,0.004638671875,0.1101226806640625
121892,0.610321044921875,-0.0689849853515625,0.020599365234375
121893,0.6102752685546875,-0.1575775146484375,-0.08062744140625
121894,0.575225830078125,-0.2570037841796875,-0.17626953125
121895,0.5001678466796875,-0.39019775390625,-0.24481201171875
121896,0.4259796142578125,-0.5079193115234375,-0.2586669921875
121897,0.412689208984375,-0.5779571533203125,-0.25201416015625
121898,0.4293212890625,-0.6403961181640625,-0.238433837890625
121899,0.4379425048828125,-0.692962646484375,-0.2082672119140625
121900,0.480743408203125,-0.7293243408203125,-0.168670654296875
121901,0.607391357421875,-0.797760009765625,-0.10223388671875
121902,0.860504150390625,-0.9723052978515624,0.0181427001953125
121903,1.225830078125,-1.276763916015625,0.188873291015625
121904,1.662277221679688,-1.672744750976562,0.3322296142578125
121905,2.04736328125,-2.161453247070312,0.432708740234375
121906,2.091629028320312,-2.601272583007812,0.298858642578125
121907,1.7415771484375,-2.932403564453125,-0.3242950439453125
121908,1.502227783203125,-3.22735595703125,-0.6122589111328125
121909,1.5101318359375,-2.86212158203125,-0.159088134765625
121910,1.471420288085938,-2.424484252929688,-0.2186431884765625
121911,1.365036010742188,-2.234146118164062,-0.201873779296875
121912,1.279830932617188,-2.11688232421875,-0.1431884765625
121913,1.203781127929688,-1.99542236328125,-0.1391143798828125
121914,1.079193115234375,-1.880828857421875,-0.1833648681640625
121915,1.054122924804688,-1.70916748046875,-0.3585968017578125
121916,1.042221069335938,-1.558486938476562,-0.430755615234375
121917,0.970001220703125,-1.405441284179688,-0.437530517578125
121918,0.875457763671875,-1.22039794921875,-0.410797119140625
121919,0.7917938232421875,-1.0390625,-0.3731842041015625
121920,0.7371673583984375,-0.8627166748046875,-0.3543853759765625
121921,0.7099456787109375,-0.7057037353515625,-0.3485870361328125
121922,0.66351318359375,-0.6049346923828125,-0.3500823974609375
121923,0.595855712890625,-0.538177490234375,-0.3675079345703125
