time_idx,accelerometerAccelerationX(G),accelerometerAccelerationY(G),accelerometerAccelerationZ(G)
160000,0.535186767578125,-1.172271728515625,-0.304351806640625
160001,0.5343475341796875,-1.15728759765625,-0.251953125
160002,0.5374755859375,-1.150054931640625,-0.1993560791015625
160003,0.541229248046875,-1.143417358398438,-0.16229248046875
160004,0.5388946533203125,-1.129547119140625,-0.1450347900390625
160005,0.5339202880859375,-1.112457275390625,-0.1543121337890625
160006,0.5204010009765625,-1.083786010742188,-0.1916961669921875
160007,0.49127197265625,-1.053176879882812,-0.244293212890625
160008,0.460662841796875,-1.022796630859375,-0.295166015625
160009,0.4307861328125,-0.9911346435546876,-0.3307037353515625
160010,0.3979949951171875,-0.963775634765625,-0.35150146484375
160011,0.368499755859375,-0.945281982421875,-0.3542327880859375
160012,0.3436279296875,-0.9333953857421876,-0.3329925537109375
160013,0.3236083984375,-0.9355316162109376,-0.294952392578125
160014,0.310211181640625,-0.9346160888671876,-0.2424774169921875
160015,0.30401611328125,-0.9228668212890624,-0.1876220703125
160016,0.297607421875,-0.8996124267578125,-0.1395111083984375
160017,0.2934417724609375,-0.8685150146484375,-0.104339599609375
160018,0.28765869140625,-0.8364105224609375,-0.0842437744140625
160019,0.2809600830078125,-0.8088531494140625,-0.0749969482421875
160020,0.274261474609375,-0.783477783203125,-0.071258544921875
160021,0.2668609619140625,-0.7569580078125,-0.075775146484375
160022,0.2633514404296875,-0.734344482421875,-0.0871734619140625
160023,0.264678955078125,-0.7199554443359375,-0.1060028076171875
160024,0.2669677734375,-0.7122955322265625,-0.1209259033203125
160025,0.262481689453125,-0.705902099609375,-0.1231231689453125
160026,0.25921630859375,-0.69207763671875,-0.1179962158203125
160027,0.2604522705078125,-0.6724700927734375,-0.1204071044921875
160028,0.2685394287109375,-0.6571807861328125,-0.1195526123046875
160029,0.2746429443359375,-0.6461029052734375,-0.1236572265625
160030,0.2802886962890625,-0.63232421875,-0.1398162841796875
160031,0.297637939453125,-0.6305389404296875,-0.167449951171875
160032,0.3267974853515625,-0.6415863037109375,-0.1920623779296875
160033,0.3628387451171875,-0.659576416015625,-0.215087890625
160034,0.398406982421875,-0.678497314453125,-0.2316741943359375
160035,0.435699462890625,-0.6999053955078125,-0.2396697998046875
160036,0.477691650390625,-0.7284698486328125,-0.2436065673828125
160037,0.52032470703125,-0.7556915283203125,-0.242340087890625
160038,0.5675811767578125,-0.78387451171875,-0.2382354736328125
160039,0.611297607421875,-0.8214111328125,-0.2365875244140625
160040,0.63946533203125,-0.8484649658203125,-0.2334747314453125
160041,0.6597747802734375,-0.867401123046875,-0.2254791259765625
160042,0.66650390625,-0.8701934814453125,-0.210235595703125
160043,0.6453399658203125,-0.8545074462890625,-0.1813812255859375
160044,0.6067657470703125,-0.836334228515625,-0.1405792236328125
160045,0.558685302734375,-0.8226318359375,-0.1024169921875
160046,0.529083251953125,-0.8258056640625,-0.0712432861328125
160047,0.516510009765625,-0.8556365966796875,-0.047271728515625
160048,0.5241241455078125,-0.900115966796875,-0.0282440185546875
160049,0.5403594970703125,-0.9445343017578124,-0.0152740478515625
160050,0.5638427734375,-0.98345947265625,-0.0055694580078125
160051,0.5899810791015625,-1.01617431640625,-0.00238037109375
160052,0.61090087890625,-1.04534912109375,-0.008575439453125
160053,0.6318511962890625,-1.07623291015625,-0.0172119140625
160054,0.656463623046875,-1.113388061523438,-0.0384521484375
160055,0.6778411865234375,-1.141357421875,-0.073577880859375
160056,0.689697265625,-1.14532470703125,-0.12310791015625
160057,0.6959686279296875,-1.125869750976562,-0.1881561279296875
160058,0.7054443359375,-1.088516235351562,-0.2526702880859375
160059,0.7105255126953125,-1.03387451171875,-0.293487548828125
160060,0.7004547119140625,-0.9860687255859376,-0.3045654296875
160061,0.684234619140625,-0.962890625,-0.2921600341796875
160062,0.6759033203125,-0.9598846435546876,-0.2704010009765625
160063,0.680206298828125,-0.9694366455078124,-0.2439117431640625
160064,0.68829345703125,-0.979644775390625,-0.2263641357421875
160065,0.6848602294921875,-0.9876556396484376,-0.212860107421875
160066,0.6703948974609375,-0.9936370849609376,-0.2075958251953125
160067,0.6456451416015625,-0.99169921875,-0.21588134765625
160068,0.62103271484375,-0.97418212890625,-0.233612060546875
160069,0.5932464599609375,-0.93939208984375,-0.2431640625
160070,0.56640625,-0.89410400390625,-0.2441253662109375
160071,0.5372161865234375,-0.8500823974609375,-0.2353363037109375
160072,0.5004119873046875,-0.8062591552734375,-0.2188262939453125
160073,0.467864990234375,-0.763671875,-0.1936187744140625
160074,0.4475250244140625,-0.7285003662109375,-0.160858154296875
160075,0.4465484619140625,-0.70721435546875,-0.1379241943359375
160076,0.4443206787109375,-0.6794891357421875,-0.112823486328125
160077,0.427825927734375,-0.6570892333984375,-0.0818328857421875
160078,0.41070556640625,-0.639617919921875,-0.0643310546875
160079,0.4045257568359375,-0.63763427734375,-0.0565338134765625
160080,0.4206695556640625,-0.6592559814453125,-0.0587921142578125
160081,0.446044921875,-0.6895904541015625,-0.074005126953125
160082,0.4676666259765625,-0.723602294921875,-0.097503662109375
160083,0.4896697998046875,-0.75225830078125,-0.127349853515625
160084,0.5089263916015625,-0.7638702392578125,-0.158935546875
160085,0.518951416015625,-0.7535400390625,-0.193817138671875
160086,0.521514892578125,-0.7292633056640625,-0.2168121337890625
160087,0.517547607421875,-0.6959228515625,-0.2339019775390625
160088,0.5099945068359375,-0.666412353515625,-0.237091064453125
160089,0.4941253662109375,-0.6492462158203125,-0.216064453125
160090,0.4705047607421875,-0.6344146728515625,-0.177642822265625
160091,0.4441070556640625,-0.6269683837890625,-0.14190673828125
160092,0.4131317138671875,-0.621734619140625,-0.1136627197265625
160093,0.38134765625,-0.6237945556640625,-0.09100341796875
160094,0.3601226806640625,-0.6313323974609375,-0.0844573974609375
160095,0.348358154296875,-0.644989013671875,-0.0803070068359375
160096,0.351470947265625,-0.66534423828125,-0.080108642578125
160097,0.3637847900390625,-0.6878662109375,-0.0817108154296875
160098,0.3727874755859375,-0.7109222412109375,-0.075836181640625
160099,0.372772216796875,-0.7442474365234375,-0.0542755126953125
160100,0.376678466796875,-0.77142333984375,-0.0313873291015625
160101,0.3881072998046875,-0.7979278564453125,-0.007598876953125
160102,0.407012939453125,-0.8133544921875,0.00946044921875
160103,0.434478759765625,-0.82342529296875,0.0226287841796875
160104,0.4684906005859375,-0.826812744140625,0.028594970703125
160105,0.50921630859375,-0.834197998046875,0.0184326171875
160106,0.54974365234375,-0.8455352783203125,0.009002685546875
160107,0.58697509765625,-0.859832763671875,-0.0048370361328125
160108,0.621795654296875,-0.882598876953125,-0.0179443359375
160109,0.655975341796875,-0.9109649658203124,-0.030792236328125
160110,0.691253662109375,-0.9402618408203124,-0.04022216796875
160111,0.7253875732421875,-0.975311279296875,-0.0501251220703125
160112,0.7531890869140625,-1.01336669921875,-0.0634918212890625
160113,0.768585205078125,-1.052490234375,-0.088897705078125
160114,0.76556396484375,-1.096389770507812,-0.131072998046875
160115,0.7463836669921875,-1.136581420898438,-0.1868438720703125
160116,0.7214813232421875,-1.1590576171875,-0.246612548828125
160117,0.6903076171875,-1.166000366210938,-0.297821044921875
160118,0.655670166015625,-1.159927368164062,-0.33172607421875
160119,0.619171142578125,-1.15771484375,-0.3448486328125
160120,0.587799072265625,-1.163787841796875,-0.3337554931640625
160121,0.54931640625,-1.16522216796875,-0.303619384765625
160122,0.514251708984375,-1.171966552734375,-0.264495849609375
160123,0.4872589111328125,-1.185028076171875,-0.219757080078125
160124,0.4680633544921875,-1.201095581054688,-0.178466796875
160125,0.453521728515625,-1.209136962890625,-0.1391448974609375
160126,0.45068359375,-1.199325561523438,-0.105010986328125
160127,0.46527099609375,-1.1773681640625,-0.0849609375
160128,0.48345947265625,-1.154586791992188,-0.0726165771484375
160129,0.493133544921875,-1.12530517578125,-0.0609893798828125
160130,0.49700927734375,-1.085968017578125,-0.0490875244140625
160131,0.49639892578125,-1.044097900390625,-0.051544189453125
160132,0.489593505859375,-0.991363525390625,-0.0564117431640625
160133,0.4736480712890625,-0.935272216796875,-0.061767578125
160134,0.448883056640625,-0.8733978271484375,-0.067718505859375
160135,0.4235687255859375,-0.8136444091796875,-0.0753173828125
160136,0.3996734619140625,-0.7603607177734375,-0.0778350830078125
160137,0.3740692138671875,-0.71307373046875,-0.079193115234375
160138,0.34686279296875,-0.6754150390625,-0.0784912109375
160139,0.3238677978515625,-0.6488189697265625,-0.0757293701171875
160140,0.301483154296875,-0.63153076171875,-0.0732879638671875
160141,0.2837066650390625,-0.6238555908203125,-0.0807037353515625
160142,0.27374267578125,-0.6183624267578125,-0.0964813232421875
160143,0.266754150390625,-0.607025146484375,-0.104522705078125
160144,0.2625732421875,-0.60540771484375,-0.09991455078125
160145,0.2580718994140625,-0.6068878173828125,-0.1133270263671875
160146,0.251190185546875,-0.6117095947265625,-0.1405792236328125
160147,0.2411346435546875,-0.6209564208984375,-0.159271240234375
160148,0.2388458251953125,-0.6320037841796875,-0.1733551025390625
160149,0.26025390625,-0.650360107421875,-0.1895599365234375
160150,0.305938720703125,-0.6699066162109375,-0.19525146484375
160151,0.3535308837890625,-0.6869354248046875,-0.190643310546875
160152,0.40411376953125,-0.712371826171875,-0.1853179931640625
160153,0.46405029296875,-0.7422637939453125,-0.1759490966796875
160154,0.521240234375,-0.772247314453125,-0.1625518798828125
160155,0.5700225830078125,-0.79742431640625,-0.14483642578125
160156,0.6103668212890625,-0.817138671875,-0.1294097900390625
160157,0.6351470947265625,-0.8287811279296875,-0.1264801025390625
160158,0.6492156982421875,-0.8334503173828125,-0.1317596435546875
160159,0.646484375,-0.8342132568359375,-0.1392669677734375
160160,0.633453369140625,-0.839996337890625,-0.147430419921875
160161,0.6158447265625,-0.8486328125,-0.1514892578125
160162,0.602386474609375,-0.863128662109375,-0.1460723876953125
160163,0.58984375,-0.890655517578125,-0.1151580810546875
160164,0.5831756591796875,-0.9271697998046876,-0.074554443359375
160165,0.5900421142578125,-0.9667205810546876,-0.0382080078125
160166,0.606689453125,-1.00836181640625,-0.0061798095703125
160167,0.6243743896484375,-1.049118041992188,0.0162811279296875
160168,0.6362152099609375,-1.09307861328125,0.037567138671875
160169,0.6435546875,-1.131256103515625,0.0459136962890625
160170,0.6424102783203125,-1.161956787109375,0.036224365234375
160171,0.621612548828125,-1.175811767578125,0.0207977294921875
160172,0.5875396728515625,-1.166732788085938,-0.016937255859375
160173,0.554718017578125,-1.137557983398438,-0.0766448974609375
160174,0.530242919921875,-1.100006103515625,-0.132476806640625
160175,0.5120086669921875,-1.059616088867188,-0.1667327880859375
160176,0.4990234375,-1.030380249023438,-0.18280029296875
160177,0.4972381591796875,-1.008590698242188,-0.1822357177734375
160178,0.4989471435546875,-0.9904632568359376,-0.1679840087890625
160179,0.496337890625,-0.9716033935546876,-0.15301513671875
160180,0.4910430908203125,-0.9573822021484376,-0.1497650146484375
160181,0.4874420166015625,-0.94439697265625,-0.158355712890625
160182,0.48773193359375,-0.9427947998046876,-0.1780548095703125
160183,0.490509033203125,-0.945404052734375,-0.2036590576171875
160184,0.49530029296875,-0.9437408447265624,-0.2293853759765625
160185,0.496337890625,-0.9364166259765624,-0.2463836669921875
160186,0.4920196533203125,-0.9165191650390624,-0.259368896484375
160187,0.478607177734375,-0.8898773193359375,-0.261993408203125
160188,0.457305908203125,-0.8597564697265625,-0.259765625
160189,0.436065673828125,-0.82611083984375,-0.2530670166015625
160190,0.411468505859375,-0.790618896484375,-0.2390899658203125
160191,0.3910675048828125,-0.75640869140625,-0.2223052978515625
160192,0.380859375,-0.7326507568359375,-0.2054290771484375
160193,0.3787689208984375,-0.7136383056640625,-0.1859588623046875
160194,0.37957763671875,-0.7009429931640625,-0.1666412353515625
160195,0.3822479248046875,-0.6967010498046875,-0.15008544921875
160196,0.391082763671875,-0.701446533203125,-0.1404571533203125
160197,0.4076690673828125,-0.7147216796875,-0.137664794921875
160198,0.4246368408203125,-0.731658935546875,-0.1436920166015625
160199,0.4292449951171875,-0.7421417236328125,-0.15301513671875
160200,0.4267425537109375,-0.7501068115234375,-0.171234130859375
160201,0.419403076171875,-0.7559356689453125,-0.194244384765625
160202,0.4031982421875,-0.7571868896484375,-0.2108306884765625
160203,0.380462646484375,-0.75152587890625,-0.2168121337890625
160204,0.358978271484375,-0.73779296875,-0.2090911865234375
160205,0.339935302734375,-0.726348876953125,-0.194580078125
160206,0.324615478515625,-0.7203369140625,-0.1744232177734375
160207,0.32061767578125,-0.7161407470703125,-0.15228271484375
160208,0.3252105712890625,-0.718292236328125,-0.130645751953125
160209,0.337738037109375,-0.72576904296875,-0.11041259765625
160210,0.3572540283203125,-0.7331695556640625,-0.085784912109375
160211,0.3816375732421875,-0.74261474609375,-0.0622406005859375
160212,0.4061279296875,-0.756378173828125,-0.04571533203125
160213,0.429534912109375,-0.7705078125,-0.0391845703125
160214,0.453369140625,-0.7856292724609375,-0.0411376953125
160215,0.478057861328125,-0.8025360107421875,-0.045654296875
160216,0.5027618408203125,-0.817840576171875,-0.0521697998046875
160217,0.52618408203125,-0.8293914794921875,-0.063262939453125
160218,0.5526123046875,-0.84039306640625,-0.070465087890625
160219,0.579620361328125,-0.849700927734375,-0.0795745849609375
160220,0.607879638671875,-0.8567657470703125,-0.0863189697265625
160221,0.63525390625,-0.86651611328125,-0.0912628173828125
160222,0.6605224609375,-0.8798370361328125,-0.0923614501953125
160223,0.68389892578125,-0.89215087890625,-0.0943450927734375
160224,0.7053985595703125,-0.9074554443359376,-0.09808349609375
160225,0.724212646484375,-0.92364501953125,-0.1141204833984375
160226,0.7355499267578125,-0.9367828369140624,-0.1335906982421875
160227,0.7465057373046875,-0.95208740234375,-0.15966796875
160228,0.753326416015625,-0.97430419921875,-0.1865997314453125
160229,0.7505950927734375,-0.9959564208984376,-0.210662841796875
160230,0.7321319580078125,-1.013153076171875,-0.2327423095703125
160231,0.69525146484375,-1.028045654296875,-0.2612762451171875
160232,0.6533050537109375,-1.031784057617188,-0.2931060791015625
160233,0.616455078125,-1.029449462890625,-0.3093109130859375
160234,0.5859527587890625,-1.028106689453125,-0.303955078125
160235,0.55224609375,-1.035659790039062,-0.287872314453125
160236,0.517303466796875,-1.045989990234375,-0.2613372802734375
160237,0.49310302734375,-1.05419921875,-0.2356109619140625
160238,0.4841461181640625,-1.072036743164062,-0.2135772705078125
160239,0.4862213134765625,-1.0928955078125,-0.1887359619140625
160240,0.4990081787109375,-1.113052368164062,-0.1712493896484375
160241,0.512664794921875,-1.128402709960938,-0.159149169921875
160242,0.523345947265625,-1.131546020507812,-0.1566925048828125
160243,0.5330963134765625,-1.12152099609375,-0.1683807373046875
160244,0.547210693359375,-1.096176147460938,-0.1847076416015625
160245,0.54962158203125,-1.063003540039062,-0.1946258544921875
160246,0.5370635986328125,-1.020599365234375,-0.1949920654296875
160247,0.5160980224609375,-0.9696502685546876,-0.18658447265625
160248,0.492340087890625,-0.9128570556640624,-0.171630859375
160249,0.4645233154296875,-0.8604278564453125,-0.154052734375
160250,0.441802978515625,-0.80767822265625,-0.1391754150390625
160251,0.426513671875,-0.769195556640625,-0.1255645751953125
160252,0.41363525390625,-0.7364044189453125,-0.1065521240234375
160253,0.3982391357421875,-0.7082061767578125,-0.085906982421875
160254,0.3874664306640625,-0.68536376953125,-0.072052001953125
160255,0.381378173828125,-0.6661834716796875,-0.057373046875
160256,0.377685546875,-0.64776611328125,-0.0421600341796875
160257,0.3779144287109375,-0.6335906982421875,-0.0358123779296875
160258,0.3785247802734375,-0.6239471435546875,-0.0344390869140625
160259,0.3795318603515625,-0.6137542724609375,-0.0442352294921875
160260,0.378509521484375,-0.60723876953125,-0.0627288818359375
160261,0.377288818359375,-0.6036529541015625,-0.0865325927734375
160262,0.374969482421875,-0.6050872802734375,-0.1121063232421875
160263,0.3720703125,-0.6125946044921875,-0.1380615234375
160264,0.3736572265625,-0.62548828125,-0.1625213623046875
160265,0.384918212890625,-0.638946533203125,-0.1858673095703125
160266,0.404266357421875,-0.6522369384765625,-0.20501708984375
160267,0.4317626953125,-0.6678009033203125,-0.2178955078125
160268,0.461700439453125,-0.6848297119140625,-0.23150634765625
160269,0.490692138671875,-0.7074127197265625,-0.240478515625
160270,0.5218353271484375,-0.729888916015625,-0.2380828857421875
160271,0.5550537109375,-0.75469970703125,-0.234710693359375
160272,0.5815277099609375,-0.7771453857421875,-0.2295684814453125
160273,0.5948333740234375,-0.797027587890625,-0.2190399169921875
160274,0.60015869140625,-0.8200531005859375,-0.1999664306640625
160275,0.5879669189453125,-0.8463592529296875,-0.177001953125
160276,0.554473876953125,-0.86651611328125,-0.1531524658203125
160277,0.5183868408203125,-0.8780670166015625,-0.150634765625
160278,0.48876953125,-0.8950653076171875,-0.16009521484375
160279,0.4720611572265625,-0.91778564453125,-0.15557861328125
160280,0.4617767333984375,-0.94073486328125,-0.1378021240234375
160281,0.46636962890625,-0.9723052978515624,-0.1167449951171875
160282,0.480621337890625,-1.0079345703125,-0.0946807861328125
160283,0.500274658203125,-1.042739868164062,-0.0664825439453125
160284,0.522064208984375,-1.081146240234375,-0.03778076171875
160285,0.54083251953125,-1.124496459960938,-0.0155181884765625
160286,0.5566253662109375,-1.169754028320312,-0.0030975341796875
160287,0.568756103515625,-1.210159301757812,-0.0061798095703125
160288,0.5731658935546875,-1.232269287109375,-0.020843505859375
160289,0.5669708251953125,-1.229995727539062,-0.0492401123046875
160290,0.558929443359375,-1.203826904296875,-0.0938262939453125
160291,0.544647216796875,-1.157546997070312,-0.132843017578125
160292,0.52703857421875,-1.1068115234375,-0.1534576416015625
160293,0.5098114013671875,-1.059432983398438,-0.16668701171875
160294,0.4990081787109375,-1.018234252929688,-0.1739654541015625
160295,0.4893341064453125,-0.98138427734375,-0.179351806640625
160296,0.482086181640625,-0.9478759765625,-0.181396484375
160297,0.47845458984375,-0.9191741943359376,-0.1870574951171875
160298,0.4760589599609375,-0.8964080810546875,-0.1946868896484375
160299,0.4774932861328125,-0.8812408447265625,-0.2002410888671875
160300,0.4765472412109375,-0.872802734375,-0.206268310546875
160301,0.4695281982421875,-0.8673248291015625,-0.21490478515625
160302,0.4582672119140625,-0.85906982421875,-0.229095458984375
160303,0.4404144287109375,-0.8484649658203125,-0.2396697998046875
160304,0.4210662841796875,-0.8373870849609375,-0.2407684326171875
160305,0.4074859619140625,-0.8266754150390625,-0.2364959716796875
160306,0.396240234375,-0.81494140625,-0.2232818603515625
160307,0.388946533203125,-0.8020172119140625,-0.2043304443359375
160308,0.3842010498046875,-0.7854156494140625,-0.18072509765625
160309,0.387237548828125,-0.7696990966796875,-0.153839111328125
160310,0.3874053955078125,-0.755218505859375,-0.1280517578125
160311,0.3879241943359375,-0.7497711181640625,-0.11151123046875
160312,0.387298583984375,-0.7461090087890625,-0.1043701171875
160313,0.3890228271484375,-0.7493896484375,-0.1064300537109375
160314,0.3906097412109375,-0.7588653564453125,-0.117889404296875
160315,0.3929595947265625,-0.770721435546875,-0.1291046142578125
160316,0.3956451416015625,-0.7820892333984375,-0.13885498046875
160317,0.3963470458984375,-0.791290283203125,-0.1474456787109375
160318,0.393829345703125,-0.7925872802734375,-0.1537322998046875
160319,0.3893890380859375,-0.7870330810546875,-0.1553497314453125
160320,0.38348388671875,-0.7802276611328125,-0.1543426513671875
160321,0.3803253173828125,-0.774505615234375,-0.1475982666015625
160322,0.3780364990234375,-0.7710723876953125,-0.1363372802734375
160323,0.3740692138671875,-0.7703399658203125,-0.1207733154296875
160324,0.372955322265625,-0.77117919921875,-0.103607177734375
160325,0.369598388671875,-0.7794189453125,-0.0843658447265625
160326,0.3691558837890625,-0.7899169921875,-0.069183349609375
160327,0.37310791015625,-0.80145263671875,-0.0601654052734375
160328,0.376251220703125,-0.810699462890625,-0.0555267333984375
160329,0.3757171630859375,-0.813323974609375,-0.0524749755859375
160330,0.372467041015625,-0.8052215576171875,-0.0583648681640625
160331,0.368438720703125,-0.7898712158203125,-0.070404052734375
160332,0.3726043701171875,-0.7712860107421875,-0.0787200927734375
160333,0.3896636962890625,-0.760528564453125,-0.0732421875
160334,0.407196044921875,-0.757568359375,-0.063690185546875
160335,0.42950439453125,-0.7592010498046875,-0.06378173828125
160336,0.45587158203125,-0.7684326171875,-0.0654449462890625
160337,0.4873809814453125,-0.781158447265625,-0.066009521484375
160338,0.5280609130859375,-0.80731201171875,-0.06854248046875
160339,0.5691986083984375,-0.83819580078125,-0.0766143798828125
160340,0.6051483154296875,-0.861785888671875,-0.0933380126953125
160341,0.631072998046875,-0.8748779296875,-0.115753173828125
160342,0.6521148681640625,-0.8751983642578125,-0.1427764892578125
160343,0.6723785400390625,-0.8749237060546875,-0.1708221435546875
160344,0.6983489990234375,-0.8831024169921875,-0.1915435791015625
160345,0.7301177978515625,-0.9006805419921875,-0.20404052734375
160346,0.7606201171875,-0.9334869384765624,-0.21148681640625
160347,0.778076171875,-0.985443115234375,-0.22076416015625
160348,0.778411865234375,-1.044418334960938,-0.237091064453125
160349,0.7599945068359375,-1.102615356445312,-0.252288818359375
160350,0.726531982421875,-1.159271240234375,-0.263458251953125
160351,0.6881866455078125,-1.212615966796875,-0.2705230712890625
160352,0.6553192138671875,-1.258682250976562,-0.26708984375
160353,0.61993408203125,-1.298812866210938,-0.260498046875
160354,0.580657958984375,-1.327621459960938,-0.25091552734375
160355,0.5488433837890625,-1.342300415039062,-0.2377777099609375
160356,0.5222625732421875,-1.34136962890625,-0.223480224609375
160357,0.49066162109375,-1.3282470703125,-0.2127227783203125
160358,0.4574127197265625,-1.289688110351562,-0.211181640625
160359,0.42828369140625,-1.232666015625,-0.2122650146484375
160360,0.4127655029296875,-1.171875,-0.2132415771484375
160361,0.402252197265625,-1.117263793945312,-0.205596923828125
160362,0.3870086669921875,-1.066070556640625,-0.1822357177734375
160363,0.3706817626953125,-1.01568603515625,-0.1498260498046875
160364,0.355712890625,-0.9618682861328124,-0.11920166015625
160365,0.346923828125,-0.9059906005859376,-0.092529296875
160366,0.336669921875,-0.8512420654296875,-0.0726776123046875
160367,0.3288421630859375,-0.80029296875,-0.0583648681640625
160368,0.324920654296875,-0.7589874267578125,-0.0543060302734375
160369,0.3224945068359375,-0.7256622314453125,-0.0585174560546875
160370,0.32366943359375,-0.70208740234375,-0.067352294921875
160371,0.32769775390625,-0.6894378662109375,-0.080780029296875
160372,0.3301239013671875,-0.68505859375,-0.0969085693359375
160373,0.3343963623046875,-0.6842041015625,-0.1143341064453125
160374,0.3346710205078125,-0.687713623046875,-0.140655517578125
160375,0.3365936279296875,-0.6944580078125,-0.1728515625
160376,0.3370819091796875,-0.701873779296875,-0.2090606689453125
160377,0.3328704833984375,-0.7092742919921875,-0.24920654296875
160378,0.3291778564453125,-0.7167510986328125,-0.291717529296875
160379,0.3251495361328125,-0.711212158203125,-0.3240966796875
160380,0.313232421875,-0.6834716796875,-0.33880615234375
160381,0.300079345703125,-0.650177001953125,-0.3226318359375
160382,0.307464599609375,-0.619171142578125,-0.2996368408203125
160383,0.3299407958984375,-0.589691162109375,-0.2665863037109375
160384,0.3563232421875,-0.5709991455078125,-0.2277374267578125
160385,0.3969573974609375,-0.5732421875,-0.190582275390625
160386,0.4417572021484375,-0.5933074951171875,-0.157501220703125
160387,0.4862518310546875,-0.629974365234375,-0.128570556640625
160388,0.5315399169921875,-0.680206298828125,-0.1050567626953125
160389,0.57269287109375,-0.73193359375,-0.0925445556640625
160390,0.6038055419921875,-0.7806396484375,-0.100372314453125
160391,0.61773681640625,-0.8130645751953125,-0.1240997314453125
160392,0.6184234619140625,-0.8179473876953125,-0.1513519287109375
160393,0.6085968017578125,-0.794097900390625,-0.1771240234375
160394,0.592742919921875,-0.7642822265625,-0.1963043212890625
160395,0.562713623046875,-0.7405548095703125,-0.194793701171875
160396,0.522918701171875,-0.7379150390625,-0.1693572998046875
160397,0.4907989501953125,-0.7584381103515625,-0.13690185546875
160398,0.4745635986328125,-0.80364990234375,-0.11712646484375
160399,0.4742584228515625,-0.8663330078125,-0.0959320068359375
160400,0.4946746826171875,-0.948028564453125,-0.073211669921875
160401,0.5257415771484375,-1.03643798828125,-0.061614990234375
160402,0.559112548828125,-1.121246337890625,-0.052947998046875
160403,0.581634521484375,-1.1875,-0.04266357421875
160404,0.576873779296875,-1.230270385742188,-0.049652099609375
160405,0.5483551025390625,-1.240890502929688,-0.07635498046875
160406,0.504669189453125,-1.228683471679688,-0.1021881103515625
160407,0.46697998046875,-1.200958251953125,-0.1363525390625
160408,0.4460296630859375,-1.1619873046875,-0.1807098388671875
160409,0.43438720703125,-1.125686645507812,-0.219146728515625
160410,0.429229736328125,-1.109130859375,-0.246063232421875
160411,0.431854248046875,-1.108505249023438,-0.26800537109375
160412,0.4334716796875,-1.116928100585938,-0.2884521484375
160413,0.431427001953125,-1.129531860351562,-0.30816650390625
160414,0.42718505859375,-1.144500732421875,-0.3160400390625
160415,0.42169189453125,-1.151870727539062,-0.31353759765625
160416,0.42047119140625,-1.140411376953125,-0.30865478515625
160417,0.424224853515625,-1.113433837890625,-0.306121826171875
160418,0.4255218505859375,-1.074066162109375,-0.30010986328125
160419,0.4206085205078125,-1.024749755859375,-0.285308837890625
160420,0.4173431396484375,-0.969085693359375,-0.2691650390625
160421,0.4191131591796875,-0.9187774658203124,-0.2454833984375
160422,0.4207305908203125,-0.8682708740234375,-0.2204437255859375
160423,0.423065185546875,-0.8287353515625,-0.194976806640625
160424,0.4239044189453125,-0.788787841796875,-0.17279052734375
160425,0.4225616455078125,-0.7517242431640625,-0.1540679931640625
160426,0.422943115234375,-0.7232818603515625,-0.142578125
160427,0.425048828125,-0.6988067626953125,-0.1335296630859375
160428,0.4294586181640625,-0.68182373046875,-0.1300048828125
160429,0.43084716796875,-0.67559814453125,-0.1270294189453125
160430,0.4281158447265625,-0.6790313720703125,-0.125152587890625
160431,0.42681884765625,-0.688507080078125,-0.127105712890625
160432,0.4296112060546875,-0.6986541748046875,-0.1298370361328125
160433,0.427703857421875,-0.7087249755859375,-0.1365814208984375
160434,0.417266845703125,-0.7148590087890625,-0.1454010009765625
160435,0.401123046875,-0.715972900390625,-0.1518707275390625
160436,0.3829193115234375,-0.716461181640625,-0.1571807861328125
160437,0.364776611328125,-0.7158660888671875,-0.1586456298828125
160438,0.35174560546875,-0.716796875,-0.1552886962890625
160439,0.3456573486328125,-0.7202606201171875,-0.1462554931640625
160440,0.343536376953125,-0.7318267822265625,-0.134552001953125
160441,0.3421630859375,-0.745208740234375,-0.11810302734375
160442,0.335296630859375,-0.7581787109375,-0.1018829345703125
160443,0.323272705078125,-0.7711639404296875,-0.0916748046875
160444,0.3106689453125,-0.7765655517578125,-0.0867156982421875
160445,0.3029327392578125,-0.77911376953125,-0.0838165283203125
160446,0.3048248291015625,-0.7782440185546875,-0.0771026611328125
160447,0.3246612548828125,-0.7820892333984375,-0.0633087158203125
160448,0.3490447998046875,-0.7853851318359375,-0.0415191650390625
160449,0.369964599609375,-0.79339599609375,-0.0239105224609375
160450,0.389678955078125,-0.8091888427734375,-0.009033203125
160451,0.41253662109375,-0.823486328125,0.0068206787109375
160452,0.4412689208984375,-0.840850830078125,0.02056884765625
160453,0.467803955078125,-0.8587799072265625,0.0316314697265625
160454,0.4903411865234375,-0.873138427734375,0.0351409912109375
160455,0.511077880859375,-0.881988525390625,0.0289306640625
160456,0.5336761474609375,-0.8944854736328125,0.010894775390625
160457,0.5527191162109375,-0.9120941162109376,-0.015533447265625
160458,0.5748291015625,-0.9298095703125,-0.0462799072265625
160459,0.5985565185546875,-0.94561767578125,-0.07830810546875
160460,0.623016357421875,-0.961578369140625,-0.1078033447265625
160461,0.64617919921875,-0.9699249267578124,-0.129119873046875
160462,0.6641387939453125,-0.9718017578125,-0.1400909423828125
160463,0.67803955078125,-0.9752349853515624,-0.143646240234375
160464,0.689910888671875,-0.980987548828125,-0.1423187255859375
160465,0.694244384765625,-0.99285888671875,-0.13690185546875
160466,0.6893157958984375,-1.006591796875,-0.1318359375
160467,0.678985595703125,-1.0184326171875,-0.1336517333984375
160468,0.664154052734375,-1.037994384765625,-0.1333160400390625
160469,0.645233154296875,-1.072265625,-0.136962890625
160470,0.63031005859375,-1.116592407226562,-0.13665771484375
160471,0.6177978515625,-1.1619873046875,-0.1374359130859375
160472,0.6028594970703125,-1.205413818359375,-0.14410400390625
160473,0.5836181640625,-1.246871948242188,-0.1581878662109375
160474,0.561492919921875,-1.276031494140625,-0.170654296875
160475,0.534759521484375,-1.288726806640625,-0.1763916015625
160476,0.503143310546875,-1.279006958007812,-0.1837005615234375
160477,0.4775543212890625,-1.248138427734375,-0.1989593505859375
160478,0.45928955078125,-1.204666137695312,-0.21710205078125
160479,0.445159912109375,-1.159988403320312,-0.2267608642578125
160480,0.4275970458984375,-1.114212036132812,-0.220001220703125
160481,0.408538818359375,-1.066390991210938,-0.203765869140625
160482,0.3900604248046875,-1.014892578125,-0.180511474609375
160483,0.3699798583984375,-0.9658050537109376,-0.1485595703125
160484,0.3513946533203125,-0.913726806640625,-0.1177520751953125
160485,0.337554931640625,-0.8680572509765625,-0.09136962890625
160486,0.32916259765625,-0.8236846923828125,-0.0681610107421875
160487,0.3212127685546875,-0.783599853515625,-0.049957275390625
160488,0.31781005859375,-0.7519378662109375,-0.0418853759765625
160489,0.31964111328125,-0.7295379638671875,-0.0408935546875
160490,0.3270263671875,-0.716064453125,-0.046600341796875
160491,0.335174560546875,-0.70660400390625,-0.0628662109375
160492,0.3419952392578125,-0.70123291015625,-0.0833892822265625
160493,0.3470306396484375,-0.699981689453125,-0.1030120849609375
160494,0.3520355224609375,-0.69793701171875,-0.1278228759765625
160495,0.3546295166015625,-0.6975860595703125,-0.1537628173828125
160496,0.3569488525390625,-0.698760986328125,-0.1847076416015625
160497,0.3564453125,-0.697418212890625,-0.218902587890625
160498,0.3552093505859375,-0.6918487548828125,-0.2534332275390625
160499,0.3558197021484375,-0.68377685546875,-0.282135009765625
160500,0.3597412109375,-0.6787261962890625,-0.3017120361328125
160501,0.372100830078125,-0.6756744384765625,-0.30706787109375
160502,0.3969879150390625,-0.67510986328125,-0.2974700927734375
160503,0.4319915771484375,-0.68408203125,-0.2816009521484375
160504,0.4638214111328125,-0.7102508544921875,-0.2519683837890625
160505,0.504302978515625,-0.74420166015625,-0.21453857421875
160506,0.55316162109375,-0.776947021484375,-0.174346923828125
160507,0.5950164794921875,-0.800323486328125,-0.1338958740234375
160508,0.616119384765625,-0.8168182373046875,-0.1004791259765625
160509,0.6165313720703125,-0.8282318115234375,-0.0868988037109375
160510,0.597503662109375,-0.8285064697265625,-0.0901031494140625
160511,0.5641632080078125,-0.81024169921875,-0.10443115234375
160512,0.5278472900390625,-0.7789154052734375,-0.11724853515625
160513,0.498748779296875,-0.7590484619140625,-0.12725830078125
160514,0.47723388671875,-0.7620849609375,-0.122100830078125
160515,0.468841552734375,-0.79119873046875,-0.1063079833984375
160516,0.474334716796875,-0.840972900390625,-0.088531494140625
160517,0.4904022216796875,-0.9032135009765624,-0.0746612548828125
160518,0.5152435302734375,-0.9709930419921876,-0.0650634765625
160519,0.5397796630859375,-1.034957885742188,-0.05621337890625
160520,0.5586090087890625,-1.088409423828125,-0.0506744384765625
160521,0.56427001953125,-1.12542724609375,-0.052001953125
160522,0.5572967529296875,-1.143905639648438,-0.069793701171875
160523,0.542572021484375,-1.155105590820312,-0.0921783447265625
160524,0.5291595458984375,-1.1702880859375,-0.11798095703125
160525,0.5193023681640625,-1.17193603515625,-0.1461944580078125
160526,0.50604248046875,-1.15679931640625,-0.1722259521484375
160527,0.4967498779296875,-1.133834838867188,-0.193756103515625
160528,0.4912872314453125,-1.108779907226562,-0.2091217041015625
160529,0.4828338623046875,-1.079742431640625,-0.2259368896484375
160530,0.4743194580078125,-1.058029174804688,-0.250823974609375
160531,0.4651947021484375,-1.040252685546875,-0.27154541015625
160532,0.459259033203125,-1.020187377929688,-0.2909698486328125
160533,0.459075927734375,-0.9967041015625,-0.304595947265625
160534,0.4618377685546875,-0.9714202880859376,-0.3058013916015625
160535,0.462677001953125,-0.94635009765625,-0.298004150390625
160536,0.463043212890625,-0.9245758056640624,-0.28570556640625
160537,0.4632568359375,-0.901214599609375,-0.26287841796875
160538,0.4641876220703125,-0.8762359619140625,-0.2403106689453125
160539,0.4598388671875,-0.8541412353515625,-0.2159271240234375
160540,0.454559326171875,-0.8330230712890625,-0.1923675537109375
160541,0.4474029541015625,-0.814971923828125,-0.1704254150390625
160542,0.4356689453125,-0.7977294921875,-0.15594482421875
160543,0.4271697998046875,-0.786529541015625,-0.144989013671875
160544,0.42047119140625,-0.7727508544921875,-0.141815185546875
160545,0.415618896484375,-0.758087158203125,-0.1333465576171875
160546,0.418548583984375,-0.74615478515625,-0.1272735595703125
160547,0.4180450439453125,-0.7374114990234375,-0.12255859375
160548,0.4146728515625,-0.725494384765625,-0.1198577880859375
160549,0.406494140625,-0.7136688232421875,-0.1237640380859375
160550,0.3954315185546875,-0.7038726806640625,-0.125701904296875
160551,0.3828887939453125,-0.6960601806640625,-0.128387451171875
160552,0.369049072265625,-0.69598388671875,-0.123504638671875
160553,0.3533935546875,-0.698699951171875,-0.1182708740234375
160554,0.3361358642578125,-0.6967010498046875,-0.11724853515625
160555,0.3156280517578125,-0.69525146484375,-0.1173248291015625
160556,0.294891357421875,-0.691162109375,-0.1134490966796875
160557,0.2779388427734375,-0.695770263671875,-0.1005401611328125
160558,0.269073486328125,-0.7032470703125,-0.085601806640625
160559,0.2686920166015625,-0.71124267578125,-0.0732879638671875
160560,0.2696685791015625,-0.719024658203125,-0.069061279296875
160561,0.26995849609375,-0.730438232421875,-0.071197509765625
160562,0.272857666015625,-0.7449188232421875,-0.075408935546875
160563,0.283050537109375,-0.765960693359375,-0.0780181884765625
160564,0.2992095947265625,-0.7857513427734375,-0.0758209228515625
160565,0.318511962890625,-0.803741455078125,-0.0704345703125
160566,0.33642578125,-0.820465087890625,-0.062530517578125
160567,0.35858154296875,-0.8347930908203125,-0.05963134765625
160568,0.3891754150390625,-0.84503173828125,-0.060394287109375
160569,0.42706298828125,-0.8523406982421875,-0.0613555908203125
160570,0.469268798828125,-0.8601837158203125,-0.0647735595703125
160571,0.51123046875,-0.872100830078125,-0.066070556640625
160572,0.5515594482421875,-0.88629150390625,-0.0687408447265625
160573,0.58953857421875,-0.8949737548828125,-0.0701141357421875
160574,0.6247406005859375,-0.9039459228515624,-0.072021484375
160575,0.6550140380859375,-0.9145355224609376,-0.077178955078125
160576,0.67987060546875,-0.9207916259765624,-0.085662841796875
160577,0.702301025390625,-0.9304962158203124,-0.0988006591796875
160578,0.7252349853515625,-0.9497222900390624,-0.1141815185546875
160579,0.74420166015625,-0.9765167236328124,-0.1253509521484375
160580,0.757080078125,-1.000564575195312,-0.1376495361328125
160581,0.7614898681640625,-1.0233154296875,-0.1544036865234375
160582,0.7530059814453125,-1.0421142578125,-0.175384521484375
160583,0.730865478515625,-1.064041137695312,-0.19732666015625
160584,0.693878173828125,-1.082962036132812,-0.22222900390625
160585,0.65643310546875,-1.106414794921875,-0.2403717041015625
160586,0.6263580322265625,-1.141983032226562,-0.242889404296875
160587,0.6045684814453125,-1.182479858398438,-0.239227294921875
160588,0.5872802734375,-1.22735595703125,-0.236663818359375
160589,0.5675506591796875,-1.274734497070312,-0.246673583984375
160590,0.5441436767578125,-1.310928344726562,-0.2679595947265625
160591,0.51898193359375,-1.336334228515625,-0.288055419921875
160592,0.4978790283203125,-1.345306396484375,-0.30487060546875
160593,0.47821044921875,-1.332229614257812,-0.312255859375
160594,0.4586029052734375,-1.29571533203125,-0.30908203125
160595,0.441864013671875,-1.236709594726562,-0.29449462890625
160596,0.4323883056640625,-1.164459228515625,-0.2747802734375
160597,0.4240264892578125,-1.093338012695312,-0.2424774169921875
160598,0.409393310546875,-1.020797729492188,-0.2055816650390625
160599,0.3861236572265625,-0.94873046875,-0.171356201171875
160600,0.3636932373046875,-0.8747711181640625,-0.1446380615234375
160601,0.3482666015625,-0.8111114501953125,-0.1244049072265625
160602,0.338043212890625,-0.7530517578125,-0.1133575439453125
160603,0.3308563232421875,-0.7010345458984375,-0.100738525390625
160604,0.32806396484375,-0.6605224609375,-0.092376708984375
160605,0.32623291015625,-0.63604736328125,-0.0859222412109375
160606,0.32537841796875,-0.6203460693359375,-0.08428955078125
160607,0.3238067626953125,-0.6147918701171875,-0.089813232421875
160608,0.325042724609375,-0.617919921875,-0.10601806640625
160609,0.328826904296875,-0.623321533203125,-0.130035400390625
160610,0.3331756591796875,-0.628631591796875,-0.15631103515625
160611,0.33648681640625,-0.631256103515625,-0.18402099609375
160612,0.336029052734375,-0.628875732421875,-0.2119140625
160613,0.33599853515625,-0.6262664794921875,-0.2418670654296875
160614,0.333831787109375,-0.6209564208984375,-0.268035888671875
160615,0.327301025390625,-0.6125030517578125,-0.28460693359375
160616,0.3270721435546875,-0.60980224609375,-0.2958526611328125
160617,0.32958984375,-0.6064605712890625,-0.2985382080078125
160618,0.33648681640625,-0.604644775390625,-0.2891693115234375
160619,0.353759765625,-0.6115264892578125,-0.275299072265625
160620,0.3863525390625,-0.63372802734375,-0.251129150390625
160621,0.433807373046875,-0.6674652099609375,-0.21392822265625
160622,0.4874420166015625,-0.7037200927734375,-0.17510986328125
160623,0.5394287109375,-0.7351837158203125,-0.1484832763671875
160624,0.5740966796875,-0.7521514892578125,-0.1355133056640625
160625,0.5975341796875,-0.761138916015625,-0.135711669921875
160626,0.610504150390625,-0.7849884033203125,-0.14666748046875
160627,0.6152801513671875,-0.8205108642578125,-0.1637420654296875
160628,0.61785888671875,-0.852813720703125,-0.1857757568359375
160629,0.61358642578125,-0.861785888671875,-0.2026519775390625
160630,0.599945068359375,-0.8476104736328125,-0.2227020263671875
160631,0.5714874267578125,-0.83148193359375,-0.236358642578125
160632,0.533233642578125,-0.832183837890625,-0.228515625
160633,0.50299072265625,-0.855987548828125,-0.220123291015625
160634,0.4886474609375,-0.8907928466796875,-0.211669921875
160635,0.4895782470703125,-0.9338531494140624,-0.1913909912109375
160636,0.5000762939453125,-0.9833831787109376,-0.159942626953125
160637,0.5146636962890625,-1.031829833984375,-0.1375274658203125
160638,0.5259246826171875,-1.076416015625,-0.1249237060546875
160639,0.5351104736328125,-1.112884521484375,-0.1298980712890625
160640,0.536956787109375,-1.1458740234375,-0.1504364013671875
160641,0.522003173828125,-1.173141479492188,-0.1719818115234375
160642,0.505645751953125,-1.19281005859375,-0.198760986328125
160643,0.4963836669921875,-1.19305419921875,-0.23382568359375
160644,0.498321533203125,-1.179733276367188,-0.2752685546875
160645,0.4994659423828125,-1.159576416015625,-0.311248779296875
160646,0.500518798828125,-1.14483642578125,-0.344482421875
160647,0.4995574951171875,-1.128799438476562,-0.37628173828125
160648,0.4945831298828125,-1.112838745117188,-0.398468017578125
160649,0.4814300537109375,-1.093795776367188,-0.405426025390625
160650,0.46343994140625,-1.066192626953125,-0.403717041015625
160651,0.4411163330078125,-1.036712646484375,-0.3983154296875
160652,0.4204559326171875,-1.01318359375,-0.38824462890625
160653,0.39947509765625,-0.989288330078125,-0.371917724609375
160654,0.38543701171875,-0.95477294921875,-0.3553009033203125
160655,0.381805419921875,-0.9192962646484376,-0.3456878662109375
160656,0.374542236328125,-0.8808441162109375,-0.336456298828125
160657,0.3699188232421875,-0.847381591796875,-0.325469970703125
160658,0.368896484375,-0.818145751953125,-0.3079376220703125
160659,0.37005615234375,-0.7895660400390625,-0.288421630859375
160660,0.3711395263671875,-0.763214111328125,-0.2684783935546875
160661,0.37237548828125,-0.7382049560546875,-0.2459869384765625
160662,0.3751373291015625,-0.7104034423828125,-0.2249755859375
160663,0.381683349609375,-0.6815338134765625,-0.213043212890625
160664,0.3869476318359375,-0.6543121337890625,-0.2061309814453125
160665,0.393768310546875,-0.633331298828125,-0.2001953125
160666,0.40228271484375,-0.6153564453125,-0.191314697265625
160667,0.40997314453125,-0.608489990234375,-0.1890106201171875
160668,0.4162750244140625,-0.606414794921875,-0.18975830078125
160669,0.4146270751953125,-0.6064300537109375,-0.1948394775390625
160670,0.4082183837890625,-0.61041259765625,-0.2038116455078125
160671,0.3944244384765625,-0.6148223876953125,-0.21533203125
160672,0.3756103515625,-0.622283935546875,-0.2273712158203125
160673,0.3555450439453125,-0.63079833984375,-0.2318267822265625
160674,0.3368072509765625,-0.645172119140625,-0.2296600341796875
160675,0.3206024169921875,-0.6692047119140625,-0.22039794921875
160676,0.3069915771484375,-0.698211669921875,-0.2071380615234375
160677,0.294952392578125,-0.7254180908203125,-0.185150146484375
160678,0.285491943359375,-0.7501678466796875,-0.16510009765625
160679,0.2772979736328125,-0.7668304443359375,-0.144805908203125
160680,0.2706298828125,-0.7766571044921875,-0.1239471435546875
160681,0.2676849365234375,-0.7801666259765625,-0.104034423828125
160682,0.2731475830078125,-0.775421142578125,-0.08746337890625
160683,0.293426513671875,-0.7754364013671875,-0.075439453125
160684,0.3202362060546875,-0.7826995849609375,-0.0576019287109375
160685,0.346771240234375,-0.7903594970703125,-0.0411376953125
160686,0.3838653564453125,-0.8066253662109375,-0.032684326171875
160687,0.428192138671875,-0.826690673828125,-0.025421142578125
160688,0.4709320068359375,-0.8519439697265625,-0.0240631103515625
160689,0.5214996337890625,-0.88690185546875,-0.0261383056640625
160690,0.57049560546875,-0.9326171875,-0.0333251953125
160691,0.6203765869140625,-0.9827423095703124,-0.0490875244140625
160692,0.66204833984375,-1.030075073242188,-0.0711212158203125
160693,0.6901702880859375,-1.07049560546875,-0.100341796875
160694,0.713653564453125,-1.102569580078125,-0.1310577392578125
160695,0.73406982421875,-1.12249755859375,-0.159271240234375
160696,0.7520751953125,-1.118133544921875,-0.188079833984375
160697,0.7657012939453125,-1.09869384765625,-0.2198486328125
160698,0.7723236083984375,-1.06781005859375,-0.241119384765625
160699,0.759674072265625,-1.037155151367188,-0.2338104248046875
160700,0.72943115234375,-1.005844116210938,-0.21923828125
160701,0.6873779296875,-0.997406005859375,-0.1963348388671875
160702,0.6472320556640625,-1.0191650390625,-0.1687774658203125
160703,0.61846923828125,-1.056808471679688,-0.1494293212890625
160704,0.6004791259765625,-1.106063842773438,-0.1427001953125
160705,0.589813232421875,-1.163726806640625,-0.1499481201171875
160706,0.5803985595703125,-1.22271728515625,-0.1671295166015625
160707,0.56854248046875,-1.2733154296875,-0.1778717041015625
160708,0.5537109375,-1.303955078125,-0.1879425048828125
160709,0.53582763671875,-1.313507080078125,-0.1967926025390625
160710,0.5177154541015625,-1.3072509765625,-0.20166015625
160711,0.5043182373046875,-1.286209106445312,-0.2111358642578125
160712,0.496826171875,-1.250167846679688,-0.221527099609375
160713,0.4871063232421875,-1.198745727539062,-0.220245361328125
160714,0.470794677734375,-1.140960693359375,-0.2076873779296875
160715,0.453887939453125,-1.080825805664062,-0.1897735595703125
160716,0.4394989013671875,-1.016220092773438,-0.1619720458984375
160717,0.4298095703125,-0.9459228515625,-0.1310577392578125
160718,0.417327880859375,-0.8783416748046875,-0.0901641845703125
160719,0.396942138671875,-0.8103790283203125,-0.0617218017578125
160720,0.382049560546875,-0.75457763671875,-0.04241943359375
160721,0.372283935546875,-0.705841064453125,-0.03314208984375
160722,0.3644866943359375,-0.6630401611328125,-0.027923583984375
160723,0.35906982421875,-0.6292724609375,-0.025848388671875
160724,0.359039306640625,-0.60699462890625,-0.0327606201171875
160725,0.3564300537109375,-0.5993499755859375,-0.045013427734375
160726,0.35552978515625,-0.60205078125,-0.0622100830078125
160727,0.3578643798828125,-0.6125640869140625,-0.0852813720703125
160728,0.3590850830078125,-0.6306610107421875,-0.1097259521484375
160729,0.358062744140625,-0.6423187255859375,-0.135009765625
160730,0.351226806640625,-0.652587890625,-0.162994384765625
160731,0.3349609375,-0.6577911376953125,-0.1894989013671875
160732,0.3166656494140625,-0.6530914306640625,-0.2151336669921875
160733,0.2968597412109375,-0.6398162841796875,-0.237091064453125
160734,0.278839111328125,-0.6231536865234375,-0.2532806396484375
160735,0.2601776123046875,-0.6035919189453125,-0.260040283203125
160736,0.2471160888671875,-0.5870208740234375,-0.2546234130859375
160737,0.2493743896484375,-0.5860443115234375,-0.244232177734375
160738,0.269866943359375,-0.600341796875,-0.2214813232421875
160739,0.30426025390625,-0.6259918212890625,-0.1769561767578125
160740,0.3426055908203125,-0.6574554443359375,-0.1200103759765625
160741,0.389068603515625,-0.6947479248046875,-0.0684661865234375
160742,0.441497802734375,-0.736846923828125,-0.0257720947265625
160743,0.4962005615234375,-0.7804107666015625,-0.0071563720703125
160744,0.546234130859375,-0.8199615478515625,-0.016998291015625
160745,0.578460693359375,-0.8524017333984375,-0.033599853515625
160746,0.5921783447265625,-0.882080078125,-0.0561065673828125
160747,0.6017608642578125,-0.90869140625,-0.098846435546875
160748,0.6095123291015625,-0.9305572509765624,-0.1461944580078125
160749,0.60443115234375,-0.9328460693359376,-0.18072509765625
160750,0.5894775390625,-0.9241485595703124,-0.2010650634765625
160751,0.5854644775390625,-0.931732177734375,-0.1960906982421875
160752,0.5903778076171875,-0.951324462890625,-0.1551055908203125
160753,0.6017608642578125,-0.9874725341796876,-0.1049041748046875
160754,0.6118927001953125,-1.030929565429688,-0.0658111572265625
160755,0.6083526611328125,-1.069808959960938,-0.0386199951171875
160756,0.5868377685546875,-1.104415893554688,-0.0274810791015625
160757,0.55474853515625,-1.128189086914062,-0.0251922607421875
160758,0.5262451171875,-1.143478393554688,-0.0310821533203125
160759,0.513397216796875,-1.152694702148438,-0.0534515380859375
160760,0.5157623291015625,-1.149688720703125,-0.078521728515625
160761,0.5258331298828125,-1.120391845703125,-0.102386474609375
160762,0.54205322265625,-1.078857421875,-0.1384124755859375
160763,0.55859375,-1.059356689453125,-0.1731109619140625
160764,0.574737548828125,-1.0601806640625,-0.1924896240234375
160765,0.5939178466796875,-1.07470703125,-0.2051239013671875
160766,0.6149444580078125,-1.098526000976562,-0.2106170654296875
160767,0.62945556640625,-1.120513916015625,-0.214111328125
160768,0.6338043212890625,-1.135208129882812,-0.2218780517578125
160769,0.6276397705078125,-1.143569946289062,-0.2428436279296875
160770,0.6104583740234375,-1.142425537109375,-0.2731475830078125
160771,0.5854949951171875,-1.128326416015625,-0.31439208984375
160772,0.5489044189453125,-1.10235595703125,-0.358642578125
160773,0.50372314453125,-1.064651489257812,-0.38507080078125
160774,0.46441650390625,-1.017990112304688,-0.386474609375
160775,0.4277801513671875,-0.9721832275390624,-0.370880126953125
160776,0.400421142578125,-0.9244384765625,-0.33935546875
160777,0.3795318603515625,-0.87432861328125,-0.2999267578125
160778,0.36016845703125,-0.819000244140625,-0.2534027099609375
160779,0.3427276611328125,-0.7646331787109375,-0.2053070068359375
160780,0.329193115234375,-0.716583251953125,-0.1670074462890625
160781,0.3242645263671875,-0.669586181640625,-0.136505126953125
160782,0.3242340087890625,-0.626556396484375,-0.117156982421875
160783,0.3238677978515625,-0.5882568359375,-0.1061553955078125
160784,0.3233184814453125,-0.5594482421875,-0.10382080078125
160785,0.325592041015625,-0.546539306640625,-0.112945556640625
160786,0.3255157470703125,-0.5404510498046875,-0.1233367919921875
160787,0.3221435546875,-0.54058837890625,-0.1332855224609375
160788,0.316619873046875,-0.5473480224609375,-0.1456146240234375
160789,0.3110504150390625,-0.5665283203125,-0.1582183837890625
160790,0.3056793212890625,-0.5908355712890625,-0.1728057861328125
160791,0.3006591796875,-0.619659423828125,-0.1814727783203125
160792,0.29766845703125,-0.6531982421875,-0.187347412109375
160793,0.298797607421875,-0.6889801025390625,-0.188934326171875
160794,0.302734375,-0.718902587890625,-0.1859588623046875
160795,0.3045196533203125,-0.7448577880859375,-0.1822509765625
160796,0.2990875244140625,-0.7603302001953125,-0.176422119140625
160797,0.28582763671875,-0.7686920166015625,-0.1691741943359375
160798,0.26898193359375,-0.7794647216796875,-0.15338134765625
160799,0.25225830078125,-0.79718017578125,-0.128753662109375
160800,0.2435150146484375,-0.8143463134765625,-0.1033935546875
160801,0.2411956787109375,-0.8306427001953125,-0.0769805908203125
160802,0.24468994140625,-0.8384552001953125,-0.05645751953125
160803,0.2608489990234375,-0.84393310546875,-0.0404052734375
160804,0.2879486083984375,-0.845550537109375,-0.029449462890625
160805,0.3229522705078125,-0.851654052734375,-0.028289794921875
160806,0.3643341064453125,-0.8678131103515625,-0.0341339111328125
160807,0.409149169921875,-0.8893585205078125,-0.04443359375
160808,0.461273193359375,-0.918609619140625,-0.058380126953125
160809,0.51495361328125,-0.95050048828125,-0.077178955078125
160810,0.566009521484375,-0.98370361328125,-0.101593017578125
160811,0.611663818359375,-1.024063110351562,-0.130340576171875
160812,0.6508941650390625,-1.057174682617188,-0.1563262939453125
160813,0.6832275390625,-1.078903198242188,-0.1766357421875
160814,0.7105255126953125,-1.086624145507812,-0.19305419921875
160815,0.7317962646484375,-1.076889038085938,-0.20556640625
160816,0.7384185791015625,-1.050003051757812,-0.2224884033203125
160817,0.731201171875,-1.025741577148438,-0.227691650390625
160818,0.7120208740234375,-1.013107299804688,-0.220855712890625
160819,0.6792449951171875,-1.015579223632812,-0.204071044921875
160820,0.6405029296875,-1.02740478515625,-0.18463134765625
160821,0.5948333740234375,-1.052947998046875,-0.177764892578125
160822,0.54595947265625,-1.0855712890625,-0.1753082275390625
160823,0.505279541015625,-1.121994018554688,-0.178558349609375
160824,0.4791107177734375,-1.15478515625,-0.188018798828125
160825,0.46002197265625,-1.184188842773438,-0.2073822021484375
160826,0.4464263916015625,-1.207672119140625,-0.230712890625
160827,0.4360504150390625,-1.232177734375,-0.247955322265625
160828,0.428802490234375,-1.253219604492188,-0.25164794921875
160829,0.4321746826171875,-1.26007080078125,-0.24267578125
160830,0.4444427490234375,-1.257064819335938,-0.2377471923828125
160831,0.4584503173828125,-1.236770629882812,-0.2410888671875
160832,0.458465576171875,-1.201339721679688,-0.2490234375
160833,0.44219970703125,-1.149795532226562,-0.2404327392578125
160834,0.4209136962890625,-1.088119506835938,-0.2166900634765625
160835,0.399932861328125,-1.013885498046875,-0.1831207275390625
160836,0.37969970703125,-0.9388885498046876,-0.1464080810546875
160837,0.3564453125,-0.8623504638671875,-0.1145172119140625
160838,0.3368072509765625,-0.790802001953125,-0.0886383056640625
160839,0.323822021484375,-0.73004150390625,-0.074951171875
160840,0.3207550048828125,-0.686767578125,-0.070892333984375
160841,0.32330322265625,-0.6575469970703125,-0.0713958740234375
160842,0.329345703125,-0.6467742919921875,-0.077606201171875
160843,0.3347930908203125,-0.645050048828125,-0.0867462158203125
160844,0.3411712646484375,-0.6472625732421875,-0.102935791015625
160845,0.3408660888671875,-0.65399169921875,-0.12091064453125
160846,0.339385986328125,-0.66436767578125,-0.13580322265625
160847,0.3377532958984375,-0.6721954345703125,-0.152984619140625
160848,0.3323822021484375,-0.6764984130859375,-0.17132568359375
160849,0.325531005859375,-0.6742095947265625,-0.1862335205078125
160850,0.3178253173828125,-0.66839599609375,-0.2080841064453125
160851,0.3101959228515625,-0.662689208984375,-0.2238311767578125
160852,0.30731201171875,-0.655303955078125,-0.2306060791015625
160853,0.325103759765625,-0.6549835205078125,-0.229034423828125
160854,0.3643646240234375,-0.659332275390625,-0.2186279296875
160855,0.4123687744140625,-0.6652679443359375,-0.1946563720703125
160856,0.460113525390625,-0.67889404296875,-0.169342041015625
160857,0.5132598876953125,-0.7160797119140625,-0.1415252685546875
160858,0.5621185302734375,-0.7631072998046875,-0.1075439453125
160859,0.60565185546875,-0.813232421875,-0.083465576171875
160860,0.635101318359375,-0.86053466796875,-0.065216064453125
160861,0.64056396484375,-0.895904541015625,-0.05401611328125
160862,0.6261138916015625,-0.913299560546875,-0.0531463623046875
160863,0.5974884033203125,-0.9032135009765624,-0.0715179443359375
160864,0.560028076171875,-0.8576507568359375,-0.0962677001953125
160865,0.527191162109375,-0.80718994140625,-0.114593505859375
160866,0.49725341796875,-0.7802734375,-0.120941162109375
160867,0.476837158203125,-0.783233642578125,-0.1123199462890625
160868,0.4685821533203125,-0.82122802734375,-0.08856201171875
160869,0.47735595703125,-0.8812713623046875,-0.0612640380859375
160870,0.5036773681640625,-0.9440765380859376,-0.0406341552734375
160871,0.542724609375,-0.9966583251953124,-0.0103607177734375
160872,0.576812744140625,-1.03790283203125,0.029876708984375
160873,0.5964813232421875,-1.067642211914062,0.0599365234375
160874,0.5963134765625,-1.08392333984375,0.068389892578125
160875,0.58795166015625,-1.10369873046875,0.0528564453125
160876,0.57757568359375,-1.145126342773438,0.0270233154296875
160877,0.5695953369140625,-1.186859130859375,0.0010833740234375
160878,0.565338134765625,-1.209518432617188,-0.032806396484375
160879,0.5603790283203125,-1.216079711914062,-0.0839080810546875
160880,0.54443359375,-1.200790405273438,-0.1395416259765625
160881,0.5262908935546875,-1.169692993164062,-0.191802978515625
160882,0.5192108154296875,-1.135360717773438,-0.2231597900390625
160883,0.520599365234375,-1.1097412109375,-0.235107421875
160884,0.5211944580078125,-1.084304809570312,-0.2328643798828125
160885,0.520660400390625,-1.063705444335938,-0.226287841796875
160886,0.5177001953125,-1.047805786132812,-0.2200469970703125
160887,0.512359619140625,-1.034561157226562,-0.2213134765625
160888,0.509765625,-1.012359619140625,-0.2263336181640625
160889,0.512420654296875,-0.983795166015625,-0.229156494140625
160890,0.51025390625,-0.954559326171875,-0.2268218994140625
160891,0.499603271484375,-0.9172515869140624,-0.2177581787109375
160892,0.490142822265625,-0.8766021728515625,-0.2049560546875
160893,0.4783782958984375,-0.8338623046875,-0.1863555908203125
160894,0.4639434814453125,-0.7971038818359375,-0.1676177978515625
160895,0.4487152099609375,-0.7657012939453125,-0.149566650390625
160896,0.431854248046875,-0.7389068603515625,-0.1375274658203125
160897,0.4147796630859375,-0.724365234375,-0.1320037841796875
160898,0.40203857421875,-0.71759033203125,-0.1345977783203125
160899,0.3925933837890625,-0.717498779296875,-0.1340789794921875
160900,0.38958740234375,-0.724029541015625,-0.1377105712890625
160901,0.3886871337890625,-0.7354888916015625,-0.14300537109375
160902,0.3883056640625,-0.74725341796875,-0.1439666748046875
160903,0.3904571533203125,-0.757843017578125,-0.14404296875
160904,0.388824462890625,-0.76495361328125,-0.145294189453125
160905,0.381927490234375,-0.76806640625,-0.147430419921875
160906,0.367340087890625,-0.7677001953125,-0.14849853515625
160907,0.3481292724609375,-0.7644195556640625,-0.1479034423828125
160908,0.3316192626953125,-0.758758544921875,-0.145721435546875
160909,0.3173370361328125,-0.755615234375,-0.1383819580078125
160910,0.3050689697265625,-0.7491455078125,-0.1261138916015625
160911,0.2978363037109375,-0.7425994873046875,-0.109710693359375
160912,0.2921600341796875,-0.736572265625,-0.0938262939453125
160913,0.283782958984375,-0.7293701171875,-0.08355712890625
160914,0.2760162353515625,-0.72943115234375,-0.0771942138671875
160915,0.27325439453125,-0.738433837890625,-0.071868896484375
160916,0.2807464599609375,-0.7555389404296875,-0.0699920654296875
160917,0.2978973388671875,-0.773193359375,-0.0679473876953125
160918,0.3159027099609375,-0.787872314453125,-0.0637054443359375
160919,0.3284149169921875,-0.799407958984375,-0.0623016357421875
160920,0.33905029296875,-0.8096771240234375,-0.0595703125
160921,0.349884033203125,-0.816070556640625,-0.0576934814453125
160922,0.362762451171875,-0.815887451171875,-0.0591583251953125
160923,0.378204345703125,-0.8146820068359375,-0.065216064453125
160924,0.398101806640625,-0.8190765380859375,-0.0748291015625
160925,0.4265594482421875,-0.828216552734375,-0.086700439453125
160926,0.4577789306640625,-0.841796875,-0.0998687744140625
160927,0.4905853271484375,-0.853790283203125,-0.1197509765625
160928,0.5239410400390625,-0.8658294677734375,-0.148529052734375
160929,0.5577545166015625,-0.8817138671875,-0.1781463623046875
160930,0.588531494140625,-0.90179443359375,-0.206787109375
160931,0.6175994873046875,-0.9237518310546876,-0.2350311279296875
160932,0.646087646484375,-0.9486083984375,-0.2583465576171875
160933,0.672821044921875,-0.9808502197265624,-0.282867431640625
160934,0.697784423828125,-1.007354736328125,-0.3038787841796875
160935,0.710906982421875,-1.03057861328125,-0.3140716552734375
160936,0.707672119140625,-1.042343139648438,-0.3204193115234375
160937,0.6829681396484375,-1.0457763671875,-0.3155059814453125
160938,0.643341064453125,-1.040664672851562,-0.3088836669921875
160939,0.59442138671875,-1.028701782226562,-0.2905731201171875
160940,0.548431396484375,-1.024063110351562,-0.2688446044921875
160941,0.5254058837890625,-1.030746459960938,-0.254608154296875
160942,0.5196380615234375,-1.04644775390625,-0.2444915771484375
160943,0.5224761962890625,-1.068252563476562,-0.2354888916015625
160944,0.53094482421875,-1.089813232421875,-0.2297515869140625
160945,0.5333099365234375,-1.114517211914062,-0.2281646728515625
160946,0.523345947265625,-1.135696411132812,-0.23675537109375
160947,0.50982666015625,-1.146224975585938,-0.2497406005859375
160948,0.496002197265625,-1.144821166992188,-0.262054443359375
160949,0.48040771484375,-1.12811279296875,-0.269775390625
160950,0.4697418212890625,-1.104888916015625,-0.277191162109375
160951,0.463470458984375,-1.069625854492188,-0.28363037109375
160952,0.451141357421875,-1.032745361328125,-0.27728271484375
160953,0.430267333984375,-0.9880828857421876,-0.2530517578125
160954,0.4088287353515625,-0.9416046142578124,-0.2260894775390625
160955,0.3901519775390625,-0.891143798828125,-0.2001190185546875
160956,0.37603759765625,-0.843292236328125,-0.1765594482421875
160957,0.367034912109375,-0.8087615966796875,-0.1520233154296875
160958,0.3668975830078125,-0.7813262939453125,-0.1297454833984375
160959,0.3663330078125,-0.759307861328125,-0.1075286865234375
160960,0.365264892578125,-0.7471466064453125,-0.0894012451171875
160961,0.364898681640625,-0.7392578125,-0.0785980224609375
160962,0.3662567138671875,-0.73468017578125,-0.0749053955078125
160963,0.3668365478515625,-0.7375640869140625,-0.078582763671875
160964,0.36810302734375,-0.746490478515625,-0.0922698974609375
160965,0.3701934814453125,-0.754150390625,-0.1152496337890625
160966,0.36834716796875,-0.7553253173828125,-0.1435546875
160967,0.3634796142578125,-0.7571258544921875,-0.1727142333984375
160968,0.3611297607421875,-0.75762939453125,-0.205352783203125
160969,0.35882568359375,-0.749359130859375,-0.241058349609375
160970,0.3534088134765625,-0.73626708984375,-0.27490234375
160971,0.350128173828125,-0.72137451171875,-0.3060760498046875
160972,0.3473968505859375,-0.7012481689453125,-0.3226470947265625
160973,0.351348876953125,-0.6792144775390625,-0.331817626953125
160974,0.36224365234375,-0.663116455078125,-0.3337249755859375
160975,0.375579833984375,-0.655059814453125,-0.3246612548828125
160976,0.395050048828125,-0.668609619140625,-0.306610107421875
160977,0.4196319580078125,-0.7049102783203125,-0.278045654296875
160978,0.437286376953125,-0.7472076416015625,-0.2335357666015625
160979,0.4521484375,-0.7993927001953125,-0.186370849609375
160980,0.466644287109375,-0.8456268310546875,-0.1548919677734375
160981,0.4755859375,-0.8869171142578125,-0.1378173828125
160982,0.4842071533203125,-0.92333984375,-0.12969970703125
160983,0.4916229248046875,-0.9621734619140624,-0.1237335205078125
160984,0.4859771728515625,-0.9872283935546876,-0.12005615234375
160985,0.4661865234375,-0.9859619140625,-0.115478515625
160986,0.448486328125,-0.949462890625,-0.10614013671875
160987,0.4443511962890625,-0.89215087890625,-0.0968780517578125
160988,0.44317626953125,-0.8552398681640625,-0.0899810791015625
160989,0.43865966796875,-0.8527374267578125,-0.0764617919921875
160990,0.4408111572265625,-0.868194580078125,-0.0541534423828125
160991,0.4512939453125,-0.908721923828125,-0.033233642578125
160992,0.4654998779296875,-0.9683990478515624,-0.0199737548828125
160993,0.4774169921875,-1.027053833007812,-0.02093505859375
160994,0.488800048828125,-1.079986572265625,-0.0382537841796875
160995,0.49652099609375,-1.123687744140625,-0.0683746337890625
160996,0.499786376953125,-1.144683837890625,-0.1161346435546875
160997,0.50592041015625,-1.146575927734375,-0.177764892578125
160998,0.5204315185546875,-1.135467529296875,-0.2465972900390625
160999,0.5389404296875,-1.11541748046875,-0.3175811767578125
161000,0.5491790771484375,-1.093307495117188,-0.376434326171875
161001,0.5543365478515625,-1.081192016601562,-0.4150543212890625
161002,0.55499267578125,-1.0797119140625,-0.4408416748046875
161003,0.5517730712890625,-1.08428955078125,-0.45263671875
161004,0.5396270751953125,-1.089492797851562,-0.449615478515625
161005,0.519775390625,-1.09246826171875,-0.4362640380859375
161006,0.4930877685546875,-1.080352783203125,-0.4173583984375
161007,0.4659881591796875,-1.04998779296875,-0.402496337890625
161008,0.4399566650390625,-1.013107299804688,-0.3922576904296875
161009,0.412750244140625,-0.9751434326171876,-0.387237548828125
161010,0.3875579833984375,-0.935150146484375,-0.3761444091796875
161011,0.36492919921875,-0.8955230712890625,-0.3550262451171875
161012,0.352081298828125,-0.856414794921875,-0.3292083740234375
161013,0.34466552734375,-0.81536865234375,-0.2987823486328125
161014,0.3412017822265625,-0.780731201171875,-0.264068603515625
161015,0.3454437255859375,-0.7501220703125,-0.2302093505859375
161016,0.347900390625,-0.716705322265625,-0.2080230712890625
161017,0.345123291015625,-0.687408447265625,-0.1916046142578125
161018,0.3491058349609375,-0.6690826416015625,-0.1784515380859375
161019,0.3597259521484375,-0.6565704345703125,-0.1731414794921875
161020,0.37030029296875,-0.6525421142578125,-0.1764678955078125
161021,0.3799896240234375,-0.6540679931640625,-0.18072509765625
161022,0.388458251953125,-0.657440185546875,-0.186553955078125
161023,0.394073486328125,-0.6621246337890625,-0.1954345703125
161024,0.3911895751953125,-0.6667327880859375,-0.20819091796875
161025,0.3836669921875,-0.6721343994140625,-0.2226409912109375
161026,0.373504638671875,-0.6832122802734375,-0.23480224609375
161027,0.36517333984375,-0.6981658935546875,-0.2397308349609375
161028,0.35955810546875,-0.720306396484375,-0.2333831787109375
161029,0.3555908203125,-0.7508544921875,-0.219512939453125
161030,0.3463592529296875,-0.791107177734375,-0.1974639892578125
161031,0.3346405029296875,-0.83233642578125,-0.174530029296875
161032,0.3215484619140625,-0.8707122802734375,-0.149932861328125
161033,0.31488037109375,-0.8917694091796875,-0.1285400390625
161034,0.311859130859375,-0.9003143310546875,-0.1096343994140625
161035,0.3078765869140625,-0.8975677490234375,-0.0877532958984375
161036,0.307464599609375,-0.8820953369140625,-0.0733489990234375
161037,0.3175201416015625,-0.858001708984375,-0.0681610107421875
161038,0.3365936279296875,-0.8297271728515625,-0.0679931640625
161039,0.359466552734375,-0.8045806884765625,-0.0684051513671875
161040,0.37530517578125,-0.786224365234375,-0.0673065185546875
161041,0.3883209228515625,-0.7700653076171875,-0.0616912841796875
161042,0.40045166015625,-0.75927734375,-0.058563232421875
161043,0.411163330078125,-0.7467498779296875,-0.0637664794921875
161044,0.427215576171875,-0.738037109375,-0.0744476318359375
161045,0.44927978515625,-0.734771728515625,-0.0833282470703125
161046,0.4744415283203125,-0.7395477294921875,-0.1042022705078125
161047,0.5063934326171875,-0.758758544921875,-0.133636474609375
161048,0.5439605712890625,-0.8024139404296875,-0.1678466796875
161049,0.5843048095703125,-0.8665313720703125,-0.2025604248046875
161050,0.6264801025390625,-0.9373626708984376,-0.2349700927734375
161051,0.6671905517578125,-1.006820678710938,-0.2686767578125
161052,0.7010955810546875,-1.063949584960938,-0.3033905029296875
161053,0.7201080322265625,-1.098052978515625,-0.3394775390625
161054,0.7200164794921875,-1.1141357421875,-0.376922607421875
161055,0.7052001953125,-1.122589111328125,-0.4050750732421875
161056,0.6801910400390625,-1.125701904296875,-0.4136810302734375
161057,0.6528167724609375,-1.133056640625,-0.402435302734375
161058,0.6243896484375,-1.14202880859375,-0.3795013427734375
161059,0.5970001220703125,-1.157791137695312,-0.354339599609375
161060,0.5770111083984375,-1.18011474609375,-0.3362274169921875
161061,0.566925048828125,-1.19268798828125,-0.3223114013671875
161062,0.5576324462890625,-1.190032958984375,-0.3136749267578125
161063,0.542877197265625,-1.180984497070312,-0.322052001953125
161064,0.5211639404296875,-1.171478271484375,-0.344818115234375
161065,0.4987945556640625,-1.159072875976562,-0.3675384521484375
161066,0.480743408203125,-1.134429931640625,-0.3790435791015625
161067,0.4674835205078125,-1.099716186523438,-0.3744659423828125
161068,0.452911376953125,-1.049850463867188,-0.35400390625
161069,0.4356536865234375,-0.9956512451171876,-0.322509765625
161070,0.41717529296875,-0.9370574951171876,-0.2836151123046875
161071,0.404571533203125,-0.8741302490234375,-0.24432373046875
161072,0.3980712890625,-0.81903076171875,-0.207855224609375
161073,0.3933563232421875,-0.7720489501953125,-0.1773681640625
161074,0.3895416259765625,-0.7349395751953125,-0.150604248046875
161075,0.3843841552734375,-0.705078125,-0.132171630859375
161076,0.377532958984375,-0.69085693359375,-0.1212005615234375
161077,0.370147705078125,-0.6892547607421875,-0.118194580078125
161078,0.3609161376953125,-0.695831298828125,-0.1224365234375
161079,0.354522705078125,-0.7124786376953125,-0.13946533203125
161080,0.346893310546875,-0.7298431396484375,-0.15826416015625
161081,0.3310699462890625,-0.7449493408203125,-0.1768035888671875
161082,0.316436767578125,-0.7635498046875,-0.2031707763671875
161083,0.30450439453125,-0.7833251953125,-0.2354278564453125
161084,0.2951507568359375,-0.795806884765625,-0.264617919921875
161085,0.2816619873046875,-0.800537109375,-0.2879486083984375
161086,0.2729949951171875,-0.7922821044921875,-0.3082275390625
161087,0.2682037353515625,-0.7675323486328125,-0.3250732421875
161088,0.26031494140625,-0.728790283203125,-0.32952880859375
161089,0.2583465576171875,-0.68988037109375,-0.32403564453125
161090,0.261077880859375,-0.6514892578125,-0.30963134765625
161091,0.2639312744140625,-0.6138916015625,-0.2884368896484375
161092,0.273284912109375,-0.58465576171875,-0.262054443359375
161093,0.2979278564453125,-0.5666656494140625,-0.23101806640625
161094,0.32525634765625,-0.564178466796875,-0.200103759765625
161095,0.3540496826171875,-0.5861358642578125,-0.1692962646484375
161096,0.3836517333984375,-0.6302032470703125,-0.1374359130859375
161097,0.4110870361328125,-0.6867218017578125,-0.118133544921875
161098,0.4398193359375,-0.749267578125,-0.1190032958984375
161099,0.4615936279296875,-0.821441650390625,-0.1371612548828125
161100,0.4785308837890625,-0.8925933837890625,-0.1630859375
161101,0.4918060302734375,-0.9515380859375,-0.191131591796875
161102,0.5032501220703125,-0.99530029296875,-0.219329833984375
161103,0.5110015869140625,-1.009185791015625,-0.244964599609375
161104,0.5222625732421875,-0.9896240234375,-0.262298583984375
161105,0.5293426513671875,-0.9503936767578124,-0.267333984375
161106,0.522735595703125,-0.9143218994140624,-0.2503509521484375
161107,0.512054443359375,-0.9070281982421876,-0.209197998046875
161108,0.4978485107421875,-0.9185791015625,-0.1580963134765625
161109,0.4848175048828125,-0.9393463134765624,-0.1015472412109375
161110,0.480377197265625,-0.9665679931640624,-0.0491943359375
161111,0.487548828125,-1.000518798828125,-0.005126953125
161112,0.5011138916015625,-1.03314208984375,0.019439697265625
161113,0.5112457275390625,-1.057113647460938,0.0217437744140625
161114,0.521484375,-1.074508666992188,-0.00140380859375
161115,0.5315399169921875,-1.086212158203125,-0.0500030517578125
161116,0.54742431640625,-1.097061157226562,-0.1085205078125
161117,0.5739593505859375,-1.105712890625,-0.167022705078125
161118,0.600372314453125,-1.10107421875,-0.2234344482421875
161119,0.620635986328125,-1.087982177734375,-0.270843505859375
161120,0.638519287109375,-1.078369140625,-0.301177978515625
161121,0.6554412841796875,-1.062850952148438,-0.320281982421875
161122,0.6688690185546875,-1.047119140625,-0.330047607421875
161123,0.679046630859375,-1.032089233398438,-0.338226318359375
161124,0.68756103515625,-1.013671875,-0.345611572265625
161125,0.699798583984375,-0.9991302490234376,-0.354034423828125
161126,0.706573486328125,-0.9878997802734376,-0.3590240478515625
161127,0.7001190185546875,-0.9744415283203124,-0.3553619384765625
161128,0.680694580078125,-0.95648193359375,-0.3472900390625
161129,0.65057373046875,-0.9363250732421876,-0.328704833984375
161130,0.6108245849609375,-0.907440185546875,-0.302215576171875
161131,0.5730133056640625,-0.8676605224609375,-0.279052734375
161132,0.5395050048828125,-0.8264617919921875,-0.256256103515625
161133,0.5086822509765625,-0.7926483154296875,-0.236328125
161134,0.47882080078125,-0.763946533203125,-0.21575927734375
161135,0.4514312744140625,-0.7426605224609375,-0.1950225830078125
161136,0.4244384765625,-0.7266845703125,-0.17633056640625
161137,0.40008544921875,-0.71337890625,-0.15704345703125
161138,0.3829803466796875,-0.7024383544921875,-0.143096923828125
161139,0.3679351806640625,-0.7006378173828125,-0.135162353515625
161140,0.3592376708984375,-0.7055816650390625,-0.131072998046875
161141,0.3521575927734375,-0.7111053466796875,-0.1363525390625
161142,0.3353729248046875,-0.7146453857421875,-0.1428375244140625
161143,0.3157806396484375,-0.7176971435546875,-0.158172607421875
161144,0.2966156005859375,-0.7203369140625,-0.17864990234375
161145,0.279296875,-0.7243194580078125,-0.188385009765625
161146,0.2645721435546875,-0.7252960205078125,-0.1912384033203125
161147,0.243682861328125,-0.7250823974609375,-0.195709228515625
161148,0.2197723388671875,-0.7233734130859375,-0.2015380859375
161149,0.1954193115234375,-0.7176513671875,-0.202880859375
161150,0.178680419921875,-0.7148284912109375,-0.2018280029296875
161151,0.1700286865234375,-0.716583251953125,-0.1998138427734375
161152,0.1690673828125,-0.7167816162109375,-0.195068359375
161153,0.1763763427734375,-0.7218017578125,-0.19049072265625
161154,0.191131591796875,-0.7310638427734375,-0.1873626708984375
161155,0.2079010009765625,-0.738311767578125,-0.178375244140625
161156,0.2277374267578125,-0.74334716796875,-0.1656951904296875
161157,0.243682861328125,-0.74920654296875,-0.1528472900390625
161158,0.2601776123046875,-0.7570953369140625,-0.1436767578125
161159,0.2769012451171875,-0.7753753662109375,-0.1347198486328125
161160,0.296844482421875,-0.8000640869140625,-0.13543701171875
161161,0.3178558349609375,-0.8258514404296875,-0.1368408203125
161162,0.340972900390625,-0.8504791259765625,-0.1394805908203125
161163,0.36572265625,-0.8742828369140625,-0.14239501953125
161164,0.396514892578125,-0.8933258056640625,-0.145477294921875
161165,0.4326934814453125,-0.9094085693359376,-0.1545562744140625
161166,0.473663330078125,-0.9346160888671876,-0.1669158935546875
161167,0.514434814453125,-0.9705963134765624,-0.1829376220703125
161168,0.55419921875,-1.01519775390625,-0.1990814208984375
161169,0.592010498046875,-1.068222045898438,-0.214508056640625
161170,0.6277313232421875,-1.118896484375,-0.2277374267578125
161171,0.660614013671875,-1.155426025390625,-0.2355194091796875
161172,0.6834869384765625,-1.168472290039062,-0.2410736083984375
161173,0.6863861083984375,-1.1553955078125,-0.2480316162109375
161174,0.6703643798828125,-1.129791259765625,-0.257568359375
161175,0.6456756591796875,-1.0987548828125,-0.2731781005859375
161176,0.6220855712890625,-1.0791015625,-0.28704833984375
161177,0.60638427734375,-1.07537841796875,-0.2895965576171875
161178,0.599395751953125,-1.090896606445312,-0.281951904296875
161179,0.60028076171875,-1.119537353515625,-0.2704315185546875
161180,0.6081390380859375,-1.149642944335938,-0.266387939453125
161181,0.6111602783203125,-1.17462158203125,-0.27362060546875
161182,0.6001739501953125,-1.186325073242188,-0.2880096435546875
161183,0.5874176025390625,-1.185623168945312,-0.315673828125
161184,0.57574462890625,-1.169662475585938,-0.3442840576171875
161185,0.5608673095703125,-1.142898559570312,-0.3696136474609375
161186,0.5440826416015625,-1.116607666015625,-0.39105224609375
161187,0.523101806640625,-1.100540161132812,-0.3981170654296875
161188,0.5001373291015625,-1.08984375,-0.382232666015625
161189,0.472869873046875,-1.072525024414062,-0.3388519287109375
161190,0.43988037109375,-1.044479370117188,-0.293243408203125
161191,0.404449462890625,-1.002273559570312,-0.2465972900390625
161192,0.3671875,-0.9438323974609376,-0.205535888671875
161193,0.3330535888671875,-0.883270263671875,-0.1802978515625
161194,0.3027191162109375,-0.8253631591796875,-0.1595916748046875
161195,0.2750091552734375,-0.776458740234375,-0.141357421875
161196,0.25262451171875,-0.7361907958984375,-0.1297760009765625
161197,0.23516845703125,-0.7084503173828125,-0.1172637939453125
161198,0.2211761474609375,-0.6857757568359375,-0.1029052734375
161199,0.20989990234375,-0.6651763916015625,-0.0935821533203125
161200,0.20245361328125,-0.65185546875,-0.0871124267578125
161201,0.195098876953125,-0.64288330078125,-0.0890655517578125
161202,0.1989898681640625,-0.6303558349609375,-0.1026763916015625
161203,0.208648681640625,-0.6198272705078125,-0.1189727783203125
161204,0.2182159423828125,-0.60760498046875,-0.135650634765625
161205,0.2265472412109375,-0.5960845947265625,-0.1593170166015625
161206,0.2342987060546875,-0.5859527587890625,-0.1898040771484375
161207,0.240020751953125,-0.5778045654296875,-0.217132568359375
161208,0.2478790283203125,-0.5739898681640625,-0.24053955078125
161209,0.2685546875,-0.5809478759765625,-0.2591705322265625
161210,0.300018310546875,-0.59576416015625,-0.2742156982421875
161211,0.336883544921875,-0.6170196533203125,-0.27838134765625
161212,0.369354248046875,-0.6417999267578125,-0.2632293701171875
161213,0.4007110595703125,-0.673248291015625,-0.2382354736328125
161214,0.4296417236328125,-0.7068023681640625,-0.200836181640625
161215,0.463714599609375,-0.7447509765625,-0.163238525390625
161216,0.5097808837890625,-0.779022216796875,-0.1291656494140625
161217,0.5680389404296875,-0.8062896728515625,-0.101318359375
161218,0.6239776611328125,-0.8298797607421875,-0.0753631591796875
161219,0.661590576171875,-0.8351898193359375,-0.0518951416015625
161220,0.6693878173828125,-0.823089599609375,-0.036407470703125
161221,0.6522979736328125,-0.798126220703125,-0.0391693115234375
161222,0.6173553466796875,-0.762603759765625,-0.0534210205078125
161223,0.5771026611328125,-0.7523345947265625,-0.0742340087890625
161224,0.548553466796875,-0.778411865234375,-0.08642578125
161225,0.53485107421875,-0.8304290771484375,-0.090789794921875
161226,0.53875732421875,-0.89837646484375,-0.0913238525390625
161227,0.552215576171875,-0.983856201171875,-0.081756591796875
161228,0.5675048828125,-1.078170776367188,-0.0601959228515625
161229,0.58087158203125,-1.157196044921875,-0.035064697265625
161230,0.585357666015625,-1.219955444335938,-0.0067901611328125
161231,0.57122802734375,-1.268325805664062,0.0122222900390625
161232,0.5453033447265625,-1.285751342773438,0.0023193359375
161233,0.5179443359375,-1.2874755859375,-0.0459136962890625
161234,0.504241943359375,-1.273025512695312,-0.1163177490234375
161235,0.515228271484375,-1.257232666015625,-0.194000244140625
161236,0.5336151123046875,-1.230148315429688,-0.2579193115234375
161237,0.5431671142578125,-1.181869506835938,-0.29046630859375
161238,0.5405426025390625,-1.135299682617188,-0.29998779296875
161239,0.54486083984375,-1.099029541015625,-0.3013153076171875
161240,0.5566864013671875,-1.072952270507812,-0.2996826171875
161241,0.5662841796875,-1.061477661132812,-0.3063507080078125
161242,0.5770416259765625,-1.0635986328125,-0.3114471435546875
161243,0.587738037109375,-1.069198608398438,-0.310882568359375
161244,0.5954132080078125,-1.071441650390625,-0.3192138671875
161245,0.59954833984375,-1.062911987304688,-0.332366943359375
161246,0.604095458984375,-1.049774169921875,-0.337646484375
161247,0.6013641357421875,-1.026641845703125,-0.32965087890625
161248,0.5864715576171875,-0.9951019287109376,-0.30242919921875
161249,0.552734375,-0.95208740234375,-0.270721435546875
161250,0.5103607177734375,-0.9031219482421876,-0.2459716796875
161251,0.478179931640625,-0.85870361328125,-0.217620849609375
161252,0.4536895751953125,-0.8148956298828125,-0.1931915283203125
161253,0.4357757568359375,-0.781585693359375,-0.1758575439453125
161254,0.4196929931640625,-0.7517242431640625,-0.1597442626953125
161255,0.405426025390625,-0.728607177734375,-0.14764404296875
161256,0.39630126953125,-0.709075927734375,-0.13641357421875
161257,0.3893280029296875,-0.6930084228515625,-0.1300048828125
161258,0.3841705322265625,-0.688140869140625,-0.1285858154296875
161259,0.378692626953125,-0.687164306640625,-0.1331024169921875
161260,0.3720245361328125,-0.692474365234375,-0.1418609619140625
161261,0.36444091796875,-0.7060546875,-0.155975341796875
161262,0.359710693359375,-0.721649169921875,-0.171905517578125
161263,0.3538360595703125,-0.7358245849609375,-0.190521240234375
161264,0.34356689453125,-0.7393035888671875,-0.2101593017578125
161265,0.3326568603515625,-0.74505615234375,-0.2269439697265625
161266,0.3235931396484375,-0.749053955078125,-0.23980712890625
161267,0.3144073486328125,-0.7490081787109375,-0.2470855712890625
161268,0.3062744140625,-0.75,-0.252227783203125
161269,0.303497314453125,-0.7508392333984375,-0.2533111572265625
161270,0.3061370849609375,-0.745574951171875,-0.2483367919921875
161271,0.313690185546875,-0.7395477294921875,-0.2411041259765625
161272,0.3273162841796875,-0.7317962646484375,-0.2283935546875
161273,0.340118408203125,-0.722320556640625,-0.2151031494140625
161274,0.350067138671875,-0.7136383056640625,-0.2054290771484375
161275,0.3614349365234375,-0.71038818359375,-0.2030029296875
161276,0.3680877685546875,-0.7087860107421875,-0.2024383544921875
161277,0.371917724609375,-0.7120819091796875,-0.206817626953125
161278,0.37127685546875,-0.7220001220703125,-0.2089996337890625
161279,0.3713531494140625,-0.7304229736328125,-0.2048187255859375
161280,0.3706512451171875,-0.740203857421875,-0.1977386474609375
161281,0.3731689453125,-0.749603271484375,-0.1918487548828125
161282,0.3824005126953125,-0.7547454833984375,-0.189239501953125
161283,0.3979339599609375,-0.759033203125,-0.1886749267578125
161284,0.416412353515625,-0.7645111083984375,-0.185821533203125
161285,0.4359588623046875,-0.772216796875,-0.1820220947265625
161286,0.4527435302734375,-0.78363037109375,-0.17962646484375
161287,0.4703369140625,-0.8006744384765625,-0.1806488037109375
161288,0.49468994140625,-0.8296356201171875,-0.1869659423828125
161289,0.5219879150390625,-0.8743896484375,-0.2010345458984375
161290,0.5537261962890625,-0.9307861328125,-0.22149658203125
161291,0.5875091552734375,-0.9883270263671876,-0.2431640625
161292,0.620086669921875,-1.043197631835938,-0.263885498046875
161293,0.6435089111328125,-1.08331298828125,-0.28460693359375
161294,0.6579437255859375,-1.100982666015625,-0.3070068359375
161295,0.657623291015625,-1.099899291992188,-0.3328704833984375
161296,0.6449127197265625,-1.084854125976562,-0.3554840087890625
161297,0.6319580078125,-1.067733764648438,-0.3708343505859375
161298,0.6318511962890625,-1.0584716796875,-0.378326416015625
161299,0.64208984375,-1.064956665039062,-0.3729705810546875
161300,0.6561737060546875,-1.088485717773438,-0.3556671142578125
161301,0.674468994140625,-1.126358032226562,-0.35650634765625
161302,0.684295654296875,-1.169830322265625,-0.3703155517578125
161303,0.6810150146484375,-1.206588745117188,-0.394073486328125
161304,0.6689453125,-1.2236328125,-0.4286651611328125
161305,0.646240234375,-1.218597412109375,-0.46697998046875
161306,0.6161651611328125,-1.190155029296875,-0.4958953857421875
161307,0.5781402587890625,-1.145843505859375,-0.501708984375
161308,0.537261962890625,-1.096343994140625,-0.4797515869140625
161309,0.499053955078125,-1.042892456054688,-0.4398040771484375
161310,0.46087646484375,-0.986846923828125,-0.3902740478515625
161311,0.423095703125,-0.9266357421875,-0.339080810546875
161312,0.389984130859375,-0.8643341064453125,-0.2877197265625
161313,0.3602752685546875,-0.8017425537109375,-0.2417144775390625
161314,0.333770751953125,-0.74560546875,-0.2061614990234375
161315,0.3050537109375,-0.692840576171875,-0.1805419921875
161316,0.2759857177734375,-0.6472930908203125,-0.1577606201171875
161317,0.2465667724609375,-0.6115570068359375,-0.1384124755859375
161318,0.2198944091796875,-0.5928497314453125,-0.1208038330078125
161319,0.20062255859375,-0.5841522216796875,-0.10992431640625
161320,0.187103271484375,-0.588226318359375,-0.115692138671875
161321,0.18597412109375,-0.600830078125,-0.1321868896484375
161322,0.1929779052734375,-0.6206817626953125,-0.1624908447265625
161323,0.2018280029296875,-0.64605712890625,-0.1936187744140625
161324,0.2167510986328125,-0.6656494140625,-0.2270355224609375
161325,0.23077392578125,-0.6844329833984375,-0.257598876953125
161326,0.2378082275390625,-0.7025604248046875,-0.2795257568359375
161327,0.24139404296875,-0.7108612060546875,-0.2986602783203125
161328,0.239013671875,-0.7130279541015625,-0.3246002197265625
161329,0.2328338623046875,-0.7082366943359375,-0.3443450927734375
161330,0.2266082763671875,-0.6993408203125,-0.353302001953125
161331,0.228759765625,-0.6933441162109375,-0.360870361328125
161332,0.241790771484375,-0.68756103515625,-0.360595703125
161333,0.2700347900390625,-0.686798095703125,-0.34814453125
161334,0.312347412109375,-0.690887451171875,-0.329925537109375
161335,0.357025146484375,-0.7032470703125,-0.310211181640625
161336,0.401458740234375,-0.73046875,-0.28363037109375
161337,0.454345703125,-0.7714080810546875,-0.2540283203125
161338,0.5103302001953125,-0.80633544921875,-0.2396240234375
161339,0.5553741455078125,-0.8471221923828125,-0.2405548095703125
161340,0.577606201171875,-0.8905181884765625,-0.2464752197265625
161341,0.572418212890625,-0.9269561767578124,-0.2516632080078125
161342,0.5458221435546875,-0.949188232421875,-0.26513671875
161343,0.507904052734375,-0.9427032470703124,-0.2828369140625
161344,0.470184326171875,-0.9047393798828124,-0.290008544921875
161345,0.44342041015625,-0.86407470703125,-0.2788543701171875
161346,0.423492431640625,-0.8393707275390625,-0.2495269775390625
161347,0.4017486572265625,-0.8351593017578125,-0.2171783447265625
161348,0.3866424560546875,-0.84930419921875,-0.187835693359375
161349,0.3770904541015625,-0.8798065185546875,-0.158355712890625
161350,0.3790283203125,-0.923553466796875,-0.12567138671875
161351,0.3974761962890625,-0.9793853759765624,-0.1027984619140625
161352,0.4271087646484375,-1.041168212890625,-0.0894317626953125
161353,0.460296630859375,-1.100021362304688,-0.08367919921875
161354,0.48492431640625,-1.152511596679688,-0.0818328857421875
161355,0.4945068359375,-1.186920166015625,-0.096343994140625
161356,0.495086669921875,-1.203704833984375,-0.1349029541015625
161357,0.4897613525390625,-1.198089599609375,-0.193328857421875
161358,0.493804931640625,-1.178436279296875,-0.2551116943359375
161359,0.5152435302734375,-1.150161743164062,-0.3076171875
161360,0.542236328125,-1.123199462890625,-0.343109130859375
161361,0.5739288330078125,-1.117538452148438,-0.35693359375
161362,0.6009979248046875,-1.1253662109375,-0.36334228515625
161363,0.6179351806640625,-1.137039184570312,-0.363311767578125
161364,0.629150390625,-1.14306640625,-0.3645782470703125
161365,0.633392333984375,-1.130401611328125,-0.3714447021484375
161366,0.62249755859375,-1.104110717773438,-0.3816680908203125
161367,0.5986785888671875,-1.069244384765625,-0.3959808349609375
161368,0.5671539306640625,-1.028366088867188,-0.39697265625
161369,0.5248870849609375,-0.98638916015625,-0.3843841552734375
161370,0.4876251220703125,-0.9305572509765624,-0.3582305908203125
161371,0.4640350341796875,-0.8737640380859375,-0.3262481689453125
161372,0.4477081298828125,-0.8214111328125,-0.2957305908203125
161373,0.434844970703125,-0.770599365234375,-0.2683563232421875
161374,0.422027587890625,-0.728668212890625,-0.2409515380859375
161375,0.4063873291015625,-0.692108154296875,-0.21478271484375
161376,0.3908538818359375,-0.6596832275390625,-0.1864471435546875
161377,0.373931884765625,-0.637115478515625,-0.1537322998046875
161378,0.358001708984375,-0.62347412109375,-0.1283721923828125
161379,0.3438262939453125,-0.6187744140625,-0.107879638671875
161380,0.3399200439453125,-0.627166748046875,-0.0965576171875
161381,0.3438873291015625,-0.6475982666015625,-0.0975189208984375
161382,0.3488922119140625,-0.6779327392578125,-0.1015625
161383,0.3606109619140625,-0.7153778076171875,-0.112335205078125
161384,0.3679962158203125,-0.75396728515625,-0.1280975341796875
161385,0.3719482421875,-0.7881011962890625,-0.1472320556640625
161386,0.3712158203125,-0.8043670654296875,-0.167633056640625
161387,0.3607635498046875,-0.81060791015625,-0.1879119873046875
161388,0.340576171875,-0.8070526123046875,-0.2022552490234375
161389,0.325042724609375,-0.7930755615234375,-0.2135162353515625
161390,0.3125152587890625,-0.7734375,-0.213470458984375
161391,0.3025665283203125,-0.7602691650390625,-0.202484130859375
161392,0.300384521484375,-0.7576446533203125,-0.1851959228515625
161393,0.3042449951171875,-0.7584228515625,-0.1593017578125
161394,0.3134918212890625,-0.7645263671875,-0.124969482421875
161395,0.3229827880859375,-0.7770538330078125,-0.094390869140625
161396,0.3346099853515625,-0.792755126953125,-0.0743255615234375
161397,0.3516693115234375,-0.809783935546875,-0.0593109130859375
161398,0.3674163818359375,-0.825469970703125,-0.0503387451171875
161399,0.377044677734375,-0.84027099609375,-0.0522613525390625
161400,0.3798675537109375,-0.8518829345703125,-0.0624237060546875
161401,0.3822784423828125,-0.8551025390625,-0.0835418701171875
161402,0.3912506103515625,-0.8477630615234375,-0.1035614013671875
161403,0.4044189453125,-0.833404541015625,-0.116546630859375
161404,0.4173736572265625,-0.8177490234375,-0.122650146484375
161405,0.43310546875,-0.8059539794921875,-0.1183013916015625
161406,0.451873779296875,-0.802459716796875,-0.1125030517578125
161407,0.4754638671875,-0.8073272705078125,-0.103057861328125
161408,0.5027008056640625,-0.81756591796875,-0.0935821533203125
161409,0.5320281982421875,-0.8353271484375,-0.089324951171875
161410,0.560272216796875,-0.85626220703125,-0.0909271240234375
161411,0.58447265625,-0.8802642822265625,-0.097442626953125
161412,0.604461669921875,-0.9021453857421876,-0.104217529296875
161413,0.6208648681640625,-0.9259185791015624,-0.11798095703125
161414,0.6360931396484375,-0.94854736328125,-0.1404571533203125
161415,0.649139404296875,-0.9760284423828124,-0.170257568359375
161416,0.6562042236328125,-1.002883911132812,-0.1973876953125
161417,0.657958984375,-1.03082275390625,-0.214385986328125
161418,0.654266357421875,-1.055862426757812,-0.225799560546875
161419,0.6472015380859375,-1.076431274414062,-0.2244110107421875
161420,0.636749267578125,-1.099029541015625,-0.2131805419921875
161421,0.6295623779296875,-1.126937866210938,-0.2015533447265625
161422,0.620758056640625,-1.1544189453125,-0.20050048828125
161423,0.61248779296875,-1.1795654296875,-0.21112060546875
161424,0.6038818359375,-1.197799682617188,-0.2304229736328125
161425,0.600677490234375,-1.208969116210938,-0.252105712890625
161426,0.6029205322265625,-1.215072631835938,-0.2722625732421875
161427,0.6018524169921875,-1.212295532226562,-0.294830322265625
161428,0.596954345703125,-1.201690673828125,-0.315948486328125
161429,0.5857086181640625,-1.18780517578125,-0.329315185546875
161430,0.5684051513671875,-1.161911010742188,-0.323822021484375
161431,0.5464935302734375,-1.12554931640625,-0.30279541015625
161432,0.51934814453125,-1.075302124023438,-0.27130126953125
161433,0.48828125,-1.01513671875,-0.23291015625
161434,0.4580535888671875,-0.9515533447265624,-0.1925201416015625
161435,0.428314208984375,-0.89019775390625,-0.1575164794921875
161436,0.3982086181640625,-0.831817626953125,-0.13006591796875
161437,0.370941162109375,-0.779266357421875,-0.1067047119140625
161438,0.3464508056640625,-0.7314300537109375,-0.090423583984375
161439,0.3244781494140625,-0.6942901611328125,-0.0736236572265625
161440,0.30743408203125,-0.672332763671875,-0.0615997314453125
161441,0.2918243408203125,-0.6596832275390625,-0.058013916015625
161442,0.2761993408203125,-0.6599884033203125,-0.06500244140625
161443,0.26470947265625,-0.66961669921875,-0.081085205078125
161444,0.2571258544921875,-0.6881866455078125,-0.10418701171875
161445,0.2507171630859375,-0.7029876708984375,-0.125640869140625
161446,0.2451934814453125,-0.7147674560546875,-0.14874267578125
161447,0.2392730712890625,-0.7258148193359375,-0.1777496337890625
161448,0.23211669921875,-0.7298431396484375,-0.201690673828125
161449,0.220245361328125,-0.7260894775390625,-0.2227630615234375
161450,0.2104339599609375,-0.719879150390625,-0.2391510009765625
161451,0.2100067138671875,-0.710784912109375,-0.2468719482421875
161452,0.2199249267578125,-0.7014617919921875,-0.2479095458984375
161453,0.2438812255859375,-0.69549560546875,-0.2399749755859375
161454,0.271759033203125,-0.691009521484375,-0.226531982421875
161455,0.3033294677734375,-0.692138671875,-0.21173095703125
161456,0.34283447265625,-0.706085205078125,-0.19384765625
161457,0.38519287109375,-0.7315521240234375,-0.175201416015625
161458,0.4277191162109375,-0.7624969482421875,-0.15509033203125
161459,0.4726409912109375,-0.802947998046875,-0.135040283203125
161460,0.5172576904296875,-0.847320556640625,-0.1232147216796875
161461,0.5569610595703125,-0.8957366943359375,-0.1259613037109375
161462,0.5808258056640625,-0.9341278076171876,-0.136260986328125
161463,0.5855255126953125,-0.9577789306640624,-0.155181884765625
161464,0.5765380859375,-0.9668121337890624,-0.18182373046875
161465,0.560333251953125,-0.951171875,-0.2065277099609375
161466,0.5426177978515625,-0.91302490234375,-0.2184600830078125
161467,0.5175018310546875,-0.8763885498046875,-0.20587158203125
161468,0.4923095703125,-0.857208251953125,-0.178497314453125
161469,0.474365234375,-0.8553314208984375,-0.147430419921875
161470,0.4671478271484375,-0.8793487548828125,-0.121795654296875
161471,0.468475341796875,-0.9178466796875,-0.0962066650390625
161472,0.4796295166015625,-0.963592529296875,-0.0689849853515625
161473,0.4925689697265625,-1.007431030273438,-0.035736083984375
161474,0.507659912109375,-1.0411376953125,-0.0142364501953125
161475,0.519683837890625,-1.055465698242188,-0.0044708251953125
161476,0.5205535888671875,-1.055557250976562,-0.0045166015625
161477,0.513336181640625,-1.06573486328125,-0.0264434814453125
161478,0.502410888671875,-1.082931518554688,-0.0621490478515625
161479,0.4997406005859375,-1.099197387695312,-0.109039306640625
161480,0.5095977783203125,-1.109161376953125,-0.1493988037109375
161481,0.52545166015625,-1.114654541015625,-0.194061279296875
161482,0.5373687744140625,-1.11456298828125,-0.2278900146484375
161483,0.5376129150390625,-1.105667114257812,-0.2495574951171875
161484,0.53668212890625,-1.094146728515625,-0.2653045654296875
161485,0.540008544921875,-1.079742431640625,-0.286895751953125
161486,0.5410308837890625,-1.066192626953125,-0.3096466064453125
161487,0.540283203125,-1.057846069335938,-0.325286865234375
161488,0.5374603271484375,-1.045654296875,-0.332916259765625
161489,0.5338134765625,-1.023025512695312,-0.335205078125
161490,0.5367889404296875,-0.996337890625,-0.33062744140625
161491,0.540802001953125,-0.9670257568359376,-0.3183441162109375
161492,0.5391998291015625,-0.9345245361328124,-0.2955169677734375
161493,0.5228424072265625,-0.895843505859375,-0.2673492431640625
161494,0.5011138916015625,-0.8538818359375,-0.2384185791015625
161495,0.4766998291015625,-0.8119659423828125,-0.2127227783203125
161496,0.4512939453125,-0.769439697265625,-0.1897430419921875
161497,0.43243408203125,-0.7335205078125,-0.1703643798828125
161498,0.4206085205078125,-0.7046051025390625,-0.15313720703125
161499,0.4113311767578125,-0.6827392578125,-0.13934326171875
161500,0.4010467529296875,-0.6700897216796875,-0.1243743896484375
161501,0.395416259765625,-0.6663818359375,-0.109130859375
161502,0.3942718505859375,-0.6707611083984375,-0.091644287109375
161503,0.4001312255859375,-0.6806640625,-0.076934814453125
161504,0.4066314697265625,-0.693084716796875,-0.0734405517578125
161505,0.4078216552734375,-0.7112274169921875,-0.0861663818359375
161506,0.40435791015625,-0.7280426025390625,-0.106597900390625
161507,0.3949127197265625,-0.7404022216796875,-0.1279296875
161508,0.381378173828125,-0.751007080078125,-0.14642333984375
161509,0.3687744140625,-0.7672119140625,-0.15997314453125
161510,0.3615875244140625,-0.78790283203125,-0.16339111328125
161511,0.3574676513671875,-0.8069000244140625,-0.158966064453125
161512,0.353851318359375,-0.8240203857421875,-0.148590087890625
161513,0.349334716796875,-0.8324127197265625,-0.13470458984375
161514,0.3421478271484375,-0.8301849365234375,-0.122314453125
161515,0.3325347900390625,-0.814849853515625,-0.1179046630859375
161516,0.323822021484375,-0.796539306640625,-0.1159820556640625
161517,0.32086181640625,-0.778350830078125,-0.11328125
161518,0.3282623291015625,-0.75689697265625,-0.1121368408203125
161519,0.3439483642578125,-0.73883056640625,-0.106109619140625
161520,0.3508148193359375,-0.7261505126953125,-0.0911407470703125
161521,0.3582305908203125,-0.7199859619140625,-0.0718994140625
161522,0.3743743896484375,-0.72222900390625,-0.053741455078125
161523,0.3989105224609375,-0.7310333251953125,-0.0349273681640625
161524,0.428314208984375,-0.74786376953125,-0.0223388671875
161525,0.465850830078125,-0.771514892578125,-0.015716552734375
161526,0.506805419921875,-0.79541015625,-0.0173492431640625
161527,0.55047607421875,-0.819122314453125,-0.0271759033203125
161528,0.5945892333984375,-0.851898193359375,-0.038970947265625
161529,0.6400604248046875,-0.88531494140625,-0.0489044189453125
161530,0.680572509765625,-0.9199371337890624,-0.0601348876953125
161531,0.714019775390625,-0.9512176513671876,-0.075531005859375
161532,0.7364501953125,-0.9770050048828124,-0.1029052734375
161533,0.7493438720703125,-0.9994354248046876,-0.1389312744140625
161534,0.754425048828125,-1.013565063476562,-0.1778106689453125
161535,0.7501678466796875,-1.028915405273438,-0.2088623046875
161536,0.73846435546875,-1.03179931640625,-0.2368316650390625
161537,0.7166595458984375,-1.025009155273438,-0.258270263671875
161538,0.6798858642578125,-1.015762329101562,-0.2676239013671875
161539,0.642059326171875,-1.013381958007812,-0.2623138427734375
161540,0.615753173828125,-1.020339965820312,-0.24273681640625
161541,0.6021881103515625,-1.032180786132812,-0.21295166015625
161542,0.59857177734375,-1.045211791992188,-0.184417724609375
161543,0.598602294921875,-1.056503295898438,-0.161590576171875
161544,0.5966949462890625,-1.068740844726562,-0.14599609375
161545,0.5926971435546875,-1.086700439453125,-0.1412353515625
161546,0.5882415771484375,-1.107421875,-0.15020751953125
161547,0.5821533203125,-1.130294799804688,-0.1744384765625
161548,0.576507568359375,-1.145355224609375,-0.2109527587890625
161549,0.57720947265625,-1.147674560546875,-0.250213623046875
161550,0.57666015625,-1.1376953125,-0.2769927978515625
161551,0.565399169921875,-1.111358642578125,-0.28765869140625
161552,0.5418243408203125,-1.062103271484375,-0.27935791015625
161553,0.5121307373046875,-1.0047607421875,-0.2542266845703125
161554,0.481658935546875,-0.944091796875,-0.2310028076171875
161555,0.4480438232421875,-0.8856964111328125,-0.20806884765625
161556,0.41241455078125,-0.827362060546875,-0.1861724853515625
161557,0.3795013427734375,-0.777069091796875,-0.1714324951171875
161558,0.35528564453125,-0.7341766357421875,-0.163665771484375
161559,0.336334228515625,-0.7012481689453125,-0.15716552734375
161560,0.3176116943359375,-0.6792144775390625,-0.1478424072265625
161561,0.3010406494140625,-0.66748046875,-0.139068603515625
161562,0.28741455078125,-0.6638946533203125,-0.1324615478515625
161563,0.2795562744140625,-0.6645660400390625,-0.1292877197265625
161564,0.2711029052734375,-0.670135498046875,-0.124725341796875
161565,0.2721099853515625,-0.67864990234375,-0.119110107421875
161566,0.280548095703125,-0.68896484375,-0.1199798583984375
161567,0.295654296875,-0.705352783203125,-0.131683349609375
161568,0.3065032958984375,-0.7263641357421875,-0.1452484130859375
161569,0.312591552734375,-0.7467498779296875,-0.1671142578125
161570,0.30584716796875,-0.7604522705078125,-0.19476318359375
161571,0.290252685546875,-0.771484375,-0.2225189208984375
161572,0.274261474609375,-0.7803955078125,-0.246002197265625
161573,0.2616119384765625,-0.7797088623046875,-0.2654266357421875
161574,0.25872802734375,-0.7745819091796875,-0.2775726318359375
161575,0.275421142578125,-0.7731781005859375,-0.2811737060546875
161576,0.305267333984375,-0.7766571044921875,-0.269195556640625
161577,0.338165283203125,-0.7902374267578125,-0.2431488037109375
161578,0.372314453125,-0.8121490478515625,-0.211669921875
161579,0.4088897705078125,-0.8455810546875,-0.1811065673828125
161580,0.445343017578125,-0.88238525390625,-0.1511077880859375
161581,0.4736480712890625,-0.921966552734375,-0.1312713623046875
161582,0.4853057861328125,-0.9599609375,-0.1231231689453125
161583,0.48260498046875,-0.9803619384765624,-0.128265380859375
161584,0.4714508056640625,-0.9683685302734376,-0.146453857421875
161585,0.46075439453125,-0.9225616455078124,-0.167816162109375
161586,0.458587646484375,-0.86236572265625,-0.1796722412109375
161587,0.4619140625,-0.811492919921875,-0.174468994140625
161588,0.4705657958984375,-0.785003662109375,-0.1638641357421875
161589,0.4836273193359375,-0.778167724609375,-0.1499481201171875
161590,0.498779296875,-0.7943115234375,-0.1345062255859375
161591,0.5166778564453125,-0.832672119140625,-0.1113739013671875
161592,0.5399932861328125,-0.8867950439453125,-0.085601806640625
161593,0.5695953369140625,-0.9493560791015624,-0.0555419921875
161594,0.6046600341796875,-1.011566162109375,-0.0327911376953125
161595,0.6282958984375,-1.065704345703125,-0.01922607421875
161596,0.633331298828125,-1.106246948242188,-0.02276611328125
161597,0.6152496337890625,-1.132888793945312,-0.0437774658203125
161598,0.581298828125,-1.143112182617188,-0.0826873779296875
161599,0.54669189453125,-1.13055419921875,-0.13201904296875
161600,0.5200653076171875,-1.110870361328125,-0.1808624267578125
161601,0.5030517578125,-1.091964721679688,-0.2124786376953125
161602,0.4949188232421875,-1.069290161132812,-0.2266998291015625
161603,0.4876556396484375,-1.049468994140625,-0.2425079345703125
161604,0.482635498046875,-1.03802490234375,-0.2534332275390625
161605,0.4785919189453125,-1.031234741210938,-0.25592041015625
161606,0.4811859130859375,-1.028579711914062,-0.254547119140625
161607,0.48583984375,-1.0250244140625,-0.254486083984375
161608,0.4912261962890625,-1.022323608398438,-0.260498046875
161609,0.4947662353515625,-1.01605224609375,-0.267425537109375
161610,0.5015869140625,-1.006011962890625,-0.279205322265625
161611,0.50238037109375,-0.9872894287109376,-0.2843475341796875
161612,0.4950408935546875,-0.9553070068359376,-0.281341552734375
161613,0.4822235107421875,-0.912933349609375,-0.275665283203125
161614,0.4668731689453125,-0.872802734375,-0.2637939453125
161615,0.4498748779296875,-0.8392791748046875,-0.247161865234375
161616,0.434722900390625,-0.8096923828125,-0.2302398681640625
161617,0.4222412109375,-0.7847747802734375,-0.2146148681640625
161618,0.40618896484375,-0.7629547119140625,-0.195465087890625
161619,0.3907318115234375,-0.7411346435546875,-0.173583984375
161620,0.3789825439453125,-0.721954345703125,-0.1478118896484375
161621,0.3680419921875,-0.70733642578125,-0.120758056640625
161622,0.3547210693359375,-0.6945953369140625,-0.0979156494140625
161623,0.34307861328125,-0.6879425048828125,-0.0828399658203125
161624,0.333404541015625,-0.6897125244140625,-0.079376220703125
161625,0.316162109375,-0.697509765625,-0.085418701171875
161626,0.29595947265625,-0.708343505859375,-0.0996246337890625
161627,0.278900146484375,-0.71527099609375,-0.121917724609375
161628,0.2603607177734375,-0.7197418212890625,-0.150634765625
161629,0.248291015625,-0.7305755615234375,-0.177490234375
161630,0.2433319091796875,-0.748779296875,-0.20037841796875
161631,0.24664306640625,-0.774383544921875,-0.2144317626953125
161632,0.26202392578125,-0.8057861328125,-0.21856689453125
161633,0.287567138671875,-0.8370819091796875,-0.2119293212890625
161634,0.314422607421875,-0.860504150390625,-0.1957855224609375
161635,0.3374481201171875,-0.87969970703125,-0.177032470703125
161636,0.354034423828125,-0.8906707763671875,-0.1563720703125
161637,0.3655242919921875,-0.8890380859375,-0.1380767822265625
161638,0.3675537109375,-0.8729095458984375,-0.13250732421875
161639,0.364776611328125,-0.850341796875,-0.1393585205078125
161640,0.3585968017578125,-0.8260040283203125,-0.1518402099609375
161641,0.356353759765625,-0.8057861328125,-0.1612091064453125
161642,0.35205078125,-0.7917327880859375,-0.164459228515625
161643,0.34539794921875,-0.783660888671875,-0.1624755859375
161644,0.3448028564453125,-0.7840423583984375,-0.1605682373046875
161645,0.3518524169921875,-0.7910614013671875,-0.1509552001953125
161646,0.3645782470703125,-0.8043060302734375,-0.133697509765625
161647,0.3819122314453125,-0.8296356201171875,-0.1248321533203125
161648,0.400177001953125,-0.864288330078125,-0.127593994140625
161649,0.4220123291015625,-0.9023590087890624,-0.1297607421875
161650,0.4475860595703125,-0.9471435546875,-0.1332244873046875
161651,0.48095703125,-0.9990234375,-0.1393890380859375
161652,0.5194854736328125,-1.0511474609375,-0.152374267578125
161653,0.5603790283203125,-1.093948364257812,-0.17169189453125
161654,0.59539794921875,-1.117843627929688,-0.1932220458984375
161655,0.624725341796875,-1.1171875,-0.216522216796875
161656,0.646270751953125,-1.102828979492188,-0.24212646484375
161657,0.6587677001953125,-1.082839965820312,-0.2599945068359375
161658,0.661895751953125,-1.061721801757812,-0.266876220703125
161659,0.65350341796875,-1.0408935546875,-0.26904296875
161660,0.637054443359375,-1.041412353515625,-0.26177978515625
161661,0.6260528564453125,-1.061614990234375,-0.2518768310546875
161662,0.6236572265625,-1.0888671875,-0.2417144775390625
161663,0.619964599609375,-1.120376586914062,-0.235626220703125
161664,0.61309814453125,-1.143966674804688,-0.2467193603515625
161665,0.600341796875,-1.157241821289062,-0.2671051025390625
161666,0.5848846435546875,-1.162139892578125,-0.298126220703125
161667,0.5715179443359375,-1.160812377929688,-0.3306427001953125
161668,0.5595855712890625,-1.153884887695312,-0.3600616455078125
161669,0.546661376953125,-1.134429931640625,-0.3776397705078125
161670,0.5283203125,-1.10498046875,-0.3729095458984375
161671,0.499267578125,-1.065658569335938,-0.3482818603515625
161672,0.46148681640625,-1.023971557617188,-0.314117431640625
161673,0.425567626953125,-0.975341796875,-0.2720947265625
161674,0.390350341796875,-0.924041748046875,-0.222381591796875
161675,0.3581695556640625,-0.8690948486328125,-0.1671295166015625
161676,0.326629638671875,-0.81463623046875,-0.116973876953125
161677,0.2983245849609375,-0.7661895751953125,-0.07818603515625
161678,0.2754669189453125,-0.7215423583984375,-0.0530242919921875
161679,0.257476806640625,-0.6873016357421875,-0.048858642578125
161680,0.2490081787109375,-0.6632537841796875,-0.0651092529296875
161681,0.2496795654296875,-0.644775390625,-0.095458984375
161682,0.2493896484375,-0.6391448974609375,-0.1262359619140625
161683,0.2460174560546875,-0.6454620361328125,-0.1552276611328125
161684,0.2459869384765625,-0.6549072265625,-0.187530517578125
161685,0.2461090087890625,-0.6689605712890625,-0.2142486572265625
161686,0.2411651611328125,-0.6858673095703125,-0.2373809814453125
161687,0.2334442138671875,-0.7014007568359375,-0.2657318115234375
161688,0.2261199951171875,-0.7145538330078125,-0.2943878173828125
161689,0.2165069580078125,-0.721282958984375,-0.3145599365234375
161690,0.209442138671875,-0.730926513671875,-0.321624755859375
161691,0.2204132080078125,-0.738433837890625,-0.3122711181640625
161692,0.2399444580078125,-0.7361297607421875,-0.2890472412109375
161693,0.2592926025390625,-0.71771240234375,-0.2621917724609375
161694,0.28973388671875,-0.711395263671875,-0.234344482421875
161695,0.337127685546875,-0.715118408203125,-0.2064208984375
161696,0.3870849609375,-0.7248077392578125,-0.18194580078125
161697,0.4374847412109375,-0.7477264404296875,-0.1549530029296875
161698,0.4901885986328125,-0.7761688232421875,-0.1310577392578125
161699,0.5395965576171875,-0.8106231689453125,-0.12310791015625
161700,0.581817626953125,-0.83819580078125,-0.1352691650390625
161701,0.6108245849609375,-0.8517303466796875,-0.1554718017578125
161702,0.615875244140625,-0.8543853759765625,-0.1815185546875
161703,0.5969696044921875,-0.844451904296875,-0.205657958984375
161704,0.571380615234375,-0.8262786865234375,-0.2204742431640625
161705,0.5482330322265625,-0.82635498046875,-0.225494384765625
161706,0.527252197265625,-0.8488616943359375,-0.217498779296875
161707,0.517547607421875,-0.88470458984375,-0.1945648193359375
161708,0.5196990966796875,-0.9192657470703124,-0.167449951171875
161709,0.5302886962890625,-0.95269775390625,-0.136871337890625
161710,0.54266357421875,-0.9838409423828124,-0.100372314453125
161711,0.55377197265625,-1.010391235351562,-0.0674896240234375
161712,0.5597076416015625,-1.029449462890625,-0.050140380859375
161713,0.5626220703125,-1.054275512695312,-0.049041748046875
161714,0.5641021728515625,-1.085678100585938,-0.0561981201171875
161715,0.5657806396484375,-1.118896484375,-0.0666656494140625
161716,0.5702362060546875,-1.138671875,-0.090911865234375
161717,0.5723876953125,-1.132598876953125,-0.1319427490234375
161718,0.5673980712890625,-1.109725952148438,-0.1789703369140625
161719,0.56103515625,-1.08209228515625,-0.21875
161720,0.55267333984375,-1.0496826171875,-0.2485504150390625
161721,0.5408172607421875,-1.01800537109375,-0.268890380859375
161722,0.535064697265625,-0.98175048828125,-0.276153564453125
161723,0.5277099609375,-0.9455413818359376,-0.28387451171875
161724,0.5161590576171875,-0.917449951171875,-0.2920379638671875
161725,0.50628662109375,-0.89630126953125,-0.29730224609375
161726,0.4989013671875,-0.8831634521484375,-0.2960357666015625
161727,0.493438720703125,-0.872589111328125,-0.2846221923828125
161728,0.4935760498046875,-0.8643035888671875,-0.2686614990234375
161729,0.496124267578125,-0.8597869873046875,-0.2491455078125
161730,0.49395751953125,-0.8574981689453125,-0.233062744140625
161731,0.4863128662109375,-0.8543853759765625,-0.2199554443359375
161732,0.4764251708984375,-0.8479461669921875,-0.2115936279296875
161733,0.46441650390625,-0.835174560546875,-0.2083282470703125
161734,0.4516754150390625,-0.8186798095703125,-0.2095489501953125
161735,0.4426727294921875,-0.8025054931640625,-0.210296630859375
161736,0.430999755859375,-0.7892608642578125,-0.211212158203125
161737,0.425262451171875,-0.7816619873046875,-0.2127685546875
161738,0.42694091796875,-0.7794036865234375,-0.2113037109375
161739,0.4297332763671875,-0.7823333740234375,-0.2035064697265625
161740,0.4305267333984375,-0.7843780517578125,-0.193817138671875
161741,0.42779541015625,-0.7841033935546875,-0.1892852783203125
161742,0.4181976318359375,-0.7800445556640625,-0.18798828125
161743,0.4048309326171875,-0.772552490234375,-0.1922454833984375
161744,0.388214111328125,-0.763702392578125,-0.1991424560546875
161745,0.3686065673828125,-0.7532196044921875,-0.2067413330078125
161746,0.3463134765625,-0.739501953125,-0.212493896484375
161747,0.3249053955078125,-0.7271728515625,-0.2174224853515625
161748,0.305572509765625,-0.7182769775390625,-0.220855712890625
161749,0.2899017333984375,-0.71484375,-0.2220458984375
161750,0.27752685546875,-0.72320556640625,-0.217010498046875
161751,0.2721099853515625,-0.742340087890625,-0.206756591796875
161752,0.274658203125,-0.769866943359375,-0.1912689208984375
161753,0.28057861328125,-0.79425048828125,-0.176025390625
161754,0.290740966796875,-0.8100738525390625,-0.163726806640625
161755,0.302886962890625,-0.8257904052734375,-0.155670166015625
161756,0.3202972412109375,-0.8415069580078125,-0.156158447265625
161757,0.3367156982421875,-0.8584136962890625,-0.16241455078125
161758,0.3483734130859375,-0.875396728515625,-0.1657867431640625
161759,0.3607635498046875,-0.8863983154296875,-0.16552734375
161760,0.3785858154296875,-0.8891143798828125,-0.1641998291015625
161761,0.3952178955078125,-0.8841552734375,-0.160888671875
161762,0.4139404296875,-0.8728790283203125,-0.1566009521484375
161763,0.4361572265625,-0.8591156005859375,-0.154998779296875
161764,0.457794189453125,-0.847412109375,-0.1545562744140625
161765,0.478790283203125,-0.844085693359375,-0.160888671875
161766,0.498809814453125,-0.8509063720703125,-0.167755126953125
161767,0.51495361328125,-0.8695526123046875,-0.1812896728515625
161768,0.532012939453125,-0.8881683349609375,-0.1955413818359375
161769,0.5513458251953125,-0.9151458740234376,-0.2067718505859375
161770,0.574066162109375,-0.9471588134765624,-0.21429443359375
161771,0.599151611328125,-0.9758453369140624,-0.221527099609375
161772,0.6230621337890625,-0.9986724853515624,-0.23223876953125
161773,0.6422576904296875,-1.014938354492188,-0.2446746826171875
161774,0.6495513916015625,-1.028518676757812,-0.25506591796875
161775,0.639129638671875,-1.0343017578125,-0.257049560546875
161776,0.6144561767578125,-1.024932861328125,-0.251861572265625
161777,0.5765228271484375,-1.01153564453125,-0.2479248046875
161778,0.5313262939453125,-1.004867553710938,-0.24859619140625
161779,0.50006103515625,-1.00750732421875,-0.2472686767578125
161780,0.488037109375,-1.0177001953125,-0.2399749755859375
161781,0.4892120361328125,-1.033187866210938,-0.2362213134765625
161782,0.5016326904296875,-1.056304931640625,-0.23443603515625
161783,0.516143798828125,-1.092315673828125,-0.2346343994140625
161784,0.5262603759765625,-1.13385009765625,-0.2400360107421875
161785,0.5327606201171875,-1.166397094726562,-0.2572174072265625
161786,0.5308380126953125,-1.17730712890625,-0.285552978515625
161787,0.5351104736328125,-1.168594360351562,-0.32073974609375
161788,0.5435333251953125,-1.144973754882812,-0.354583740234375
161789,0.537872314453125,-1.113922119140625,-0.3697357177734375
161790,0.52227783203125,-1.080001831054688,-0.3585662841796875
161791,0.499267578125,-1.03924560546875,-0.32562255859375
161792,0.4734344482421875,-0.998687744140625,-0.2883758544921875
161793,0.446502685546875,-0.95623779296875,-0.2484283447265625
161794,0.4178466796875,-0.9123687744140624,-0.214935302734375
161795,0.3829498291015625,-0.866912841796875,-0.1784515380859375
161796,0.3468170166015625,-0.822174072265625,-0.14324951171875
161797,0.310028076171875,-0.780364990234375,-0.1123504638671875
161798,0.2812652587890625,-0.750885009765625,-0.0914459228515625
161799,0.26007080078125,-0.7334136962890625,-0.08135986328125
161800,0.2385101318359375,-0.7296295166015625,-0.079620361328125
161801,0.2232513427734375,-0.7321624755859375,-0.0863800048828125
161802,0.213836669921875,-0.7393951416015625,-0.096282958984375
161803,0.21435546875,-0.7494049072265625,-0.1173553466796875
161804,0.226776123046875,-0.7613067626953125,-0.1563720703125
161805,0.2454833984375,-0.7665252685546875,-0.190704345703125
161806,0.256561279296875,-0.7658538818359375,-0.224822998046875
161807,0.2645721435546875,-0.763427734375,-0.2581939697265625
161808,0.2704315185546875,-0.7635040283203125,-0.2849273681640625
161809,0.2859649658203125,-0.763641357421875,-0.300537109375
161810,0.3126983642578125,-0.761810302734375,-0.3105926513671875
161811,0.343902587890625,-0.7530670166015625,-0.30999755859375
161812,0.37200927734375,-0.7459564208984375,-0.302093505859375
161813,0.3995208740234375,-0.7383880615234375,-0.2887420654296875
161814,0.4259490966796875,-0.7370147705078125,-0.2693634033203125
161815,0.4490814208984375,-0.7447967529296875,-0.2440032958984375
161816,0.4772491455078125,-0.7497711181640625,-0.211944580078125
161817,0.505218505859375,-0.75775146484375,-0.182373046875
161818,0.531097412109375,-0.7675323486328125,-0.16357421875
161819,0.548980712890625,-0.781158447265625,-0.1544952392578125
161820,0.54962158203125,-0.8051300048828125,-0.1551971435546875
161821,0.540191650390625,-0.8233795166015625,-0.1620635986328125
161822,0.5283203125,-0.8304290771484375,-0.1655120849609375
161823,0.5163726806640625,-0.833160400390625,-0.1697998046875
161824,0.50439453125,-0.829833984375,-0.1710205078125
161825,0.4957427978515625,-0.8246612548828125,-0.16925048828125
161826,0.487457275390625,-0.8273773193359375,-0.1551666259765625
161827,0.4831085205078125,-0.8484954833984375,-0.1323089599609375
161828,0.4889373779296875,-0.8803558349609375,-0.1134490966796875
161829,0.49810791015625,-0.9230499267578124,-0.0991363525390625
161830,0.5056610107421875,-0.97674560546875,-0.092864990234375
161831,0.5115966796875,-1.037582397460938,-0.0989227294921875
161832,0.517333984375,-1.090179443359375,-0.1147613525390625
161833,0.5170135498046875,-1.127578735351562,-0.13275146484375
161834,0.50048828125,-1.145843505859375,-0.150787353515625
161835,0.476837158203125,-1.154495239257812,-0.16705322265625
161836,0.4575042724609375,-1.140182495117188,-0.1824188232421875
161837,0.4450836181640625,-1.093948364257812,-0.1995086669921875
161838,0.4425201416015625,-1.032638549804688,-0.1982879638671875
161839,0.441436767578125,-0.9847869873046876,-0.1923065185546875
161840,0.442291259765625,-0.9456024169921876,-0.1933135986328125
161841,0.4538116455078125,-0.9170989990234376,-0.2024993896484375
161842,0.4641571044921875,-0.902862548828125,-0.2142181396484375
161843,0.4737091064453125,-0.901214599609375,-0.2273712158203125
161844,0.4860992431640625,-0.910430908203125,-0.24334716796875
161845,0.4945220947265625,-0.9237213134765624,-0.2592926025390625
161846,0.499359130859375,-0.9350128173828124,-0.2747650146484375
161847,0.5010528564453125,-0.9359130859375,-0.29083251953125
161848,0.497222900390625,-0.927001953125,-0.306182861328125
161849,0.488800048828125,-0.9105072021484376,-0.314727783203125
161850,0.4746246337890625,-0.8888702392578125,-0.3061065673828125
161851,0.45794677734375,-0.863189697265625,-0.2884521484375
161852,0.439910888671875,-0.8385772705078125,-0.2675933837890625
161853,0.424072265625,-0.8158111572265625,-0.247802734375
161854,0.4100494384765625,-0.7968292236328125,-0.2298583984375
161855,0.396392822265625,-0.78643798828125,-0.214996337890625
161856,0.3868865966796875,-0.7855377197265625,-0.19683837890625
161857,0.3832855224609375,-0.7904205322265625,-0.1770782470703125
161858,0.384368896484375,-0.79852294921875,-0.1578826904296875
161859,0.3911285400390625,-0.809906005859375,-0.1414031982421875
161860,0.4001007080078125,-0.8194427490234375,-0.12689208984375
161861,0.4119110107421875,-0.83026123046875,-0.12261962890625
161862,0.417510986328125,-0.83807373046875,-0.1312408447265625
161863,0.420562744140625,-0.8443145751953125,-0.1432647705078125
161864,0.4207916259765625,-0.849395751953125,-0.1568450927734375
161865,0.41357421875,-0.8499603271484375,-0.1673736572265625
161866,0.399139404296875,-0.8478851318359375,-0.1793975830078125
161867,0.3804168701171875,-0.8455047607421875,-0.192108154296875
161868,0.3611297607421875,-0.84002685546875,-0.2052459716796875
161869,0.3450927734375,-0.83245849609375,-0.2130279541015625
161870,0.3322296142578125,-0.829833984375,-0.2160186767578125
161871,0.3248443603515625,-0.83306884765625,-0.2111968994140625
161872,0.3238067626953125,-0.841033935546875,-0.1978302001953125
161873,0.328826904296875,-0.8473968505859375,-0.1766357421875
161874,0.334747314453125,-0.8483428955078125,-0.151153564453125
161875,0.341339111328125,-0.8418426513671875,-0.130035400390625
161876,0.345550537109375,-0.830108642578125,-0.116424560546875
161877,0.3485870361328125,-0.8148193359375,-0.112152099609375
161878,0.3499298095703125,-0.7998046875,-0.115631103515625
161879,0.352203369140625,-0.7888336181640625,-0.11602783203125
161880,0.35546875,-0.7783050537109375,-0.109130859375
161881,0.3654632568359375,-0.77227783203125,-0.0984649658203125
161882,0.3788604736328125,-0.7733306884765625,-0.08648681640625
161883,0.3963775634765625,-0.7803192138671875,-0.081298828125
161884,0.421417236328125,-0.795379638671875,-0.0783843994140625
161885,0.452880859375,-0.81231689453125,-0.083709716796875
161886,0.4866790771484375,-0.8332977294921875,-0.0917816162109375
161887,0.519073486328125,-0.8626556396484375,-0.1019134521484375
161888,0.5543060302734375,-0.8988800048828125,-0.1132049560546875
161889,0.590545654296875,-0.9366302490234376,-0.1298980712890625
161890,0.622528076171875,-0.9666748046875,-0.14593505859375
161891,0.6497039794921875,-0.99029541015625,-0.1593780517578125
161892,0.6714019775390625,-1.002197265625,-0.176025390625
161893,0.6812286376953125,-1.002243041992188,-0.1922760009765625
161894,0.6793670654296875,-0.992401123046875,-0.2024383544921875
161895,0.67205810546875,-0.9769134521484376,-0.208709716796875
161896,0.65802001953125,-0.96246337890625,-0.209197998046875
161897,0.63421630859375,-0.9501190185546876,-0.2024078369140625
161898,0.6092681884765625,-0.9468994140625,-0.188751220703125
161899,0.5882110595703125,-0.956085205078125,-0.171844482421875
161900,0.57623291015625,-0.975006103515625,-0.157989501953125
161901,0.574798583984375,-1.002822875976562,-0.1547698974609375
161902,0.5735931396484375,-1.040664672851562,-0.163604736328125
161903,0.5701751708984375,-1.083770751953125,-0.182373046875
161904,0.5657196044921875,-1.129623413085938,-0.20355224609375
161905,0.5621337890625,-1.165817260742188,-0.22467041015625
161906,0.5531768798828125,-1.188995361328125,-0.243682861328125
