time_idx,accelerometerAccelerationX(G),accelerometerAccelerationY(G),accelerometerAccelerationZ(G)
180000,0.389984130859375,0.5225677490234375,-0.1388397216796875
180001,0.446319580078125,0.4454803466796875,0.015380859375
180002,0.4949188232421875,0.3431396484375,0.177947998046875
180003,0.4765625,0.229827880859375,0.2863616943359375
180004,0.388641357421875,0.108795166015625,0.267608642578125
180005,0.2584075927734375,0.023193359375,0.19476318359375
180006,0.1528778076171875,0.012542724609375,0.263275146484375
180007,0.1339263916015625,0.0267486572265625,0.4188079833984375
180008,0.2227630615234375,0.0315093994140625,0.410003662109375
180009,0.4685516357421875,0.0322113037109375,0.303985595703125
180010,0.7568817138671875,0.0027008056640625,0.28204345703125
180011,0.9785308837890624,-0.1130828857421875,0.458099365234375
180012,1.045791625976562,-0.3818511962890625,0.8744049072265625
180013,0.895751953125,-0.7954559326171875,1.335723876953125
180014,0.6774139404296875,-1.415420532226562,1.724609375
180015,0.6275634765625,-2.2249755859375,1.982498168945312
180016,0.5353546142578125,-3.098464965820312,2.099807739257812
180017,0.3303070068359375,-3.945404052734375,1.966110229492188
180018,0.098602294921875,-4.3148193359375,1.999221801757812
180019,-0.30426025390625,-3.883712768554688,1.964614868164062
180020,-0.4228363037109375,-3.18084716796875,2.11163330078125
180021,0.048828125,-2.748245239257812,2.012374877929688
180022,0.6509552001953125,-2.638900756835938,1.539230346679688
180023,1.218231201171875,-2.5836181640625,1.214080810546875
180024,1.5870361328125,-2.463165283203125,1.118576049804688
180025,1.561279296875,-2.231094360351562,0.9889678955078124
180026,1.220672607421875,-1.843978881835938,0.8109893798828125
180027,0.772064208984375,-1.37774658203125,0.588470458984375
180028,0.440399169921875,-0.9426727294921876,0.3495635986328125
180029,0.247314453125,-0.5986785888671875,0.1948699951171875
180030,0.149749755859375,-0.353729248046875,0.1280517578125
180031,0.1120758056640625,-0.1913909912109375,-0.0106201171875
180032,0.1837310791015625,-0.0456390380859375,-0.1533660888671875
180033,0.29962158203125,0.1496429443359375,-0.3215484619140625
180034,0.526763916015625,0.4137115478515625,-0.4807586669921875
180035,0.7744140625,0.689208984375,-0.52655029296875
180036,0.978790283203125,0.9554443359375,-0.520050048828125
180037,1.092437744140625,1.143142700195312,-0.4810943603515625
180038,1.093048095703125,1.066848754882812,-0.4085235595703125
180039,0.7472686767578125,0.69427490234375,-0.2490997314453125
180040,0.18072509765625,0.2859039306640625,-0.1051177978515625
180041,-0.2864837646484375,0.0886077880859375,-0.037353515625
180042,-0.596649169921875,0.014862060546875,-0.00982666015625
180043,-0.7966156005859375,-0.0594635009765625,-0.0088653564453125
180044,-0.868408203125,-0.152435302734375,-0.0909423828125
180045,-0.8021240234375,-0.244476318359375,-0.1384735107421875
180046,-0.6420135498046875,-0.3095703125,-0.0840911865234375
180047,-0.4312744140625,-0.3689117431640625,-0.133453369140625
180048,-0.1513519287109375,-0.473480224609375,-0.070953369140625
180049,0.16973876953125,-0.640045166015625,0.39630126953125
180050,0.391082763671875,-1.02032470703125,0.79656982421875
180051,0.5625152587890625,-1.691299438476562,0.58306884765625
180052,0.81463623046875,-2.542633056640625,0.3126220703125
180053,0.957275390625,-3.655868530273438,0.40496826171875
180054,1.348358154296875,-4.873794555664062,0.547149658203125
180055,1.552139282226562,-5.630783081054688,0.5447540283203125
180056,1.08251953125,-5.256072998046875,0.3870086669921875
180057,0.5704498291015625,-4.086441040039062,0.803192138671875
180058,-0.1526031494140625,-3.09735107421875,1.03668212890625
180059,-0.5914459228515625,-2.123641967773438,0.732696533203125
180060,-0.759033203125,-1.2926025390625,0.5774993896484375
180061,-0.5925750732421875,-0.8052215576171875,0.39617919921875
180062,-0.236175537109375,-0.6468963623046875,0.15185546875
180063,0.1445770263671875,-0.604217529296875,0.0393524169921875
180064,0.5559234619140625,-0.515106201171875,-0.0164794921875
180065,0.906494140625,-0.3681182861328125,-0.093658447265625
180066,1.173629760742188,-0.187225341796875,-0.1002960205078125
180067,1.298248291015625,0.0164947509765625,0.027191162109375
180068,1.291275024414062,0.221038818359375,0.1712188720703125
180069,1.200057983398438,0.37628173828125,0.2454376220703125
180070,1.035476684570312,0.5372467041015625,0.235992431640625
180071,0.775665283203125,0.7352142333984375,0.2349395751953125
180072,0.489471435546875,0.9223480224609376,0.2086334228515625
180073,0.2496337890625,1.015029907226562,0.134124755859375
180074,0.0986785888671875,0.9665679931640624,0.052978515625
180075,0.0498046875,0.7993316650390625,0.0285491943359375
180076,0.0154266357421875,0.61077880859375,-0.004638671875
180077,-0.0198974609375,0.4622650146484375,-0.0470123291015625
180078,-0.0374908447265625,0.3490142822265625,-0.0365753173828125
180079,-0.0657501220703125,0.243255615234375,0.04144287109375
180080,0.000213623046875,0.176025390625,0.140106201171875
180081,0.1524200439453125,0.12371826171875,0.1932830810546875
180082,0.2890167236328125,0.0609283447265625,0.1162109375
180083,0.454254150390625,0.0598907470703125,0.0251007080078125
180084,0.623626708984375,0.12408447265625,-0.0915679931640625
180085,0.7214508056640625,0.1936492919921875,-0.2037506103515625
180086,0.77239990234375,0.268768310546875,-0.188446044921875
180087,0.7880706787109375,0.2995452880859375,-0.157196044921875
180088,0.7703704833984375,0.156524658203125,-0.066162109375
180089,0.690399169921875,-0.1074066162109375,0.1481475830078125
180090,0.63397216796875,-0.400115966796875,0.57281494140625
180091,0.6024627685546875,-0.7621307373046875,1.078720092773438
180092,0.4385528564453125,-1.285324096679688,1.25018310546875
180093,0.2087249755859375,-1.904586791992188,1.134597778320312
180094,0.24114990234375,-2.354156494140625,1.06396484375
180095,0.5345306396484375,-2.693801879882812,1.304367065429688
180096,0.837127685546875,-3.092727661132812,1.5233154296875
180097,0.9880828857421876,-3.607696533203125,1.352020263671875
180098,0.9614715576171876,-4.0999755859375,1.171951293945312
180099,0.599456787109375,-4.282608032226562,1.3497314453125
180100,0.3011932373046875,-3.724639892578125,1.544570922851562
180101,0.4128265380859375,-2.858489990234375,1.521759033203125
180102,0.8548431396484375,-2.310104370117188,1.43145751953125
180103,1.472702026367188,-2.005905151367188,1.243087768554688
180104,2.016876220703125,-1.7142333984375,1.046371459960938
180105,2.278762817382812,-1.344192504882812,0.8191986083984375
180106,2.199478149414062,-0.917999267578125,0.6125946044921875
180107,1.909286499023438,-0.52288818359375,0.47796630859375
180108,1.590957641601562,-0.2464141845703125,0.3281707763671875
180109,1.369369506835938,-0.098785400390625,0.1776275634765625
180110,1.263198852539062,-0.0175628662109375,0.080413818359375
180111,1.181488037109375,0.061553955078125,0.00994873046875
180112,1.07965087890625,0.1435546875,-0.0081329345703125
180113,0.974853515625,0.1884918212890625,0.0370941162109375
180114,0.8668212890625,0.178009033203125,0.115203857421875
180115,0.734832763671875,0.1480712890625,0.1650390625
180116,0.58233642578125,0.117034912109375,0.168853759765625
180117,0.4199981689453125,0.1037139892578125,0.1639862060546875
180118,0.2522430419921875,0.11627197265625,0.148529052734375
180119,0.0726776123046875,0.1420135498046875,0.086273193359375
180120,-0.0945892333984375,0.1732330322265625,-0.0074005126953125
180121,-0.2248992919921875,0.19561767578125,-0.1010284423828125
180122,-0.3476104736328125,0.1986236572265625,-0.19598388671875
180123,-0.423675537109375,0.202239990234375,-0.1648101806640625
180124,-0.455963134765625,0.1837615966796875,0.0183868408203125
180125,-0.4692230224609375,0.130950927734375,0.2100982666015625
180126,-0.3993988037109375,0.061279296875,0.27679443359375
180127,-0.3233489990234375,-0.038726806640625,0.278411865234375
180128,-0.2467193603515625,-0.1382598876953125,0.220794677734375
180129,-0.141815185546875,-0.2335052490234375,0.1400299072265625
180130,-0.042572021484375,-0.276336669921875,0.087860107421875
180131,0.0251617431640625,-0.2874908447265625,0.0332489013671875
180132,0.093719482421875,-0.2402191162109375,-0.0188446044921875
180133,0.16888427734375,-0.1555938720703125,-0.0748291015625
180134,0.2295074462890625,-0.089141845703125,-0.0622711181640625
180135,0.260772705078125,-0.0767974853515625,0.09515380859375
180136,0.233642578125,-0.157958984375,0.33355712890625
180137,0.2497711181640625,-0.312774658203125,0.473968505859375
180138,0.276336669921875,-0.5648956298828125,0.51104736328125
180139,0.2659912109375,-0.9676361083984376,0.5362548828125
180140,0.228271484375,-1.4847412109375,0.5196990966796875
180141,0.1842498779296875,-2.01141357421875,0.4868316650390625
180142,0.18023681640625,-2.464706420898438,0.6571197509765625
180143,0.195831298828125,-3.052017211914062,0.6825408935546875
180144,-0.2027587890625,-3.405731201171875,0.5967559814453125
180145,-0.838592529296875,-2.952072143554688,0.679901123046875
180146,-1.01312255859375,-2.525436401367188,0.9548492431640624
180147,-0.956298828125,-2.475112915039062,1.067291259765625
180148,-0.8821563720703125,-2.348159790039062,0.885101318359375
180149,-0.6298370361328125,-2.09051513671875,0.72149658203125
180150,-0.347320556640625,-1.90667724609375,0.6784820556640625
180151,-0.086456298828125,-1.810165405273438,0.6845855712890625
180152,0.2544403076171875,-1.720443725585938,0.673858642578125
180153,0.6868896484375,-1.5904541015625,0.4920806884765625
180154,1.138259887695312,-1.3828125,0.2576446533203125
180155,1.499923706054688,-1.060150146484375,0.1869964599609375
180156,1.584152221679688,-0.6833953857421875,0.1867218017578125
180157,1.39013671875,-0.3133697509765625,0.170562744140625
180158,1.158340454101562,0.0648040771484375,0.1654205322265625
180159,0.9486541748046876,0.4208984375,0.204925537109375
180160,0.75836181640625,0.654052734375,0.2433624267578125
180161,0.5446929931640625,0.624786376953125,0.1817779541015625
180162,0.37054443359375,0.4055328369140625,0.101593017578125
180163,0.29315185546875,0.1345672607421875,0.0847625732421875
180164,0.257568359375,-0.1166839599609375,0.065673828125
180165,0.240142822265625,-0.2658843994140625,0.056060791015625
180166,0.285888671875,-0.2777099609375,0.0855712890625
180167,0.3731689453125,-0.20263671875,0.0999755859375
180168,0.429443359375,-0.11114501953125,0.1070556640625
180169,0.385650634765625,-0.0218963623046875,0.097747802734375
180170,0.2821044921875,0.03997802734375,0.0574188232421875
180171,0.1774444580078125,0.060516357421875,0.0469207763671875
180172,0.0766448974609375,0.05682373046875,0.0735626220703125
180173,0.0034637451171875,0.0388641357421875,0.1324615478515625
180174,-0.0009918212890625,0.0182647705078125,0.2220916748046875
180175,0.05755615234375,0.0073394775390625,0.2989654541015625
180176,0.15521240234375,-0.001861572265625,0.34027099609375
180177,0.249481201171875,-0.0965576171875,0.381988525390625
180178,0.29833984375,-0.2642822265625,0.441070556640625
180179,0.332855224609375,-0.4321746826171875,0.5373077392578125
180180,0.3224029541015625,-0.6846771240234375,0.6381683349609375
180181,0.24139404296875,-1.066360473632812,0.704437255859375
180182,0.206787109375,-1.392349243164062,0.9079132080078124
180183,0.22467041015625,-1.495819091796875,1.287353515625
180184,0.1978759765625,-1.332626342773438,1.534896850585938
180185,-0.058502197265625,-1.152496337890625,1.501388549804688
180186,-0.3068084716796875,-1.231369018554688,1.302642822265625
180187,-0.165863037109375,-1.584564208984375,1.057708740234375
180188,0.2937774658203125,-2.145721435546875,1.088775634765625
180189,0.7107086181640625,-2.628662109375,1.342758178710938
180190,1.039505004882812,-2.795440673828125,1.500930786132812
180191,1.411041259765625,-2.456375122070312,1.348403930664062
180192,1.50299072265625,-1.957656860351562,1.134323120117188
180193,1.434295654296875,-1.49298095703125,1.004226684570312
180194,1.381301879882812,-1.08770751953125,0.92913818359375
180195,1.357192993164062,-0.7895965576171875,0.895172119140625
180196,1.31024169921875,-0.6031646728515625,0.8690185546875
180197,1.213058471679688,-0.5319671630859375,0.767547607421875
180198,1.098220825195312,-0.560333251953125,0.6181793212890625
180199,0.9770050048828124,-0.6269683837890625,0.514556884765625
180200,0.8770904541015625,-0.6394500732421875,0.4999542236328125
180201,0.836883544921875,-0.5795745849609375,0.478546142578125
180202,0.84521484375,-0.4770050048828125,0.4270172119140625
180203,0.9026336669921876,-0.37890625,0.40045166015625
180204,0.953704833984375,-0.2982635498046875,0.3665008544921875
180205,0.9534149169921876,-0.2114715576171875,0.3391876220703125
180206,0.8690032958984375,-0.1279144287109375,0.327850341796875
180207,0.718231201171875,-0.0544891357421875,0.30322265625
180208,0.54931640625,-0.00201416015625,0.2570037841796875
180209,0.424346923828125,0.02734375,0.2105255126953125
180210,0.3338775634765625,0.039306640625,0.16522216796875
180211,0.2397613525390625,0.0421905517578125,0.1195526123046875
180212,0.13848876953125,0.0228271484375,0.079681396484375
180213,0.0588226318359375,-0.0084991455078125,0.0529937744140625
180214,0.0063629150390625,-0.036468505859375,0.0138397216796875
180215,-0.0186004638671875,-0.060760498046875,-0.024322509765625
180216,-0.0102691650390625,-0.083251953125,-0.032989501953125
180217,0.00067138671875,-0.1028900146484375,-0.01104736328125
180218,0.00140380859375,-0.11419677734375,-0.022064208984375
180219,-0.0078277587890625,-0.1329345703125,-0.047760009765625
180220,-0.04718017578125,-0.190673828125,-0.020111083984375
180221,-0.10107421875,-0.26129150390625,0.017486572265625
180222,-0.1233367919921875,-0.30712890625,-0.064788818359375
180223,-0.1680908203125,-0.30963134765625,-0.21282958984375
180224,-0.252166748046875,-0.2771759033203125,-0.2694091796875
180225,-0.3665008544921875,-0.32373046875,-0.2006683349609375
180226,-0.4730377197265625,-0.444183349609375,-0.0306243896484375
180227,-0.5775604248046875,-0.54278564453125,0.2192840576171875
180228,-0.7318878173828125,-0.65203857421875,0.4714202880859375
180229,-0.9338836669921876,-0.8160858154296875,0.660919189453125
180230,-1.196701049804688,-1.072967529296875,0.6943359375
180231,-1.400161743164062,-1.449508666992188,0.5666046142578125
180232,-0.9324493408203124,-1.93499755859375,0.3137969970703125
180233,0.9362945556640624,-2.216506958007812,0.3603363037109375
180234,3.230209350585938,-2.504562377929688,1.127532958984375
180235,5.96759033203125,-2.736495971679688,1.620010375976562
180236,6.379806518554688,-2.537994384765625,0.856109619140625
180237,3.92193603515625,-1.945236206054688,0.0644989013671875
180238,2.056732177734375,-1.167373657226562,0.186431884765625
180239,0.9994354248046876,-0.6580352783203125,0.292877197265625
180240,0.59893798828125,-0.477203369140625,0.463470458984375
180241,0.777496337890625,-0.415374755859375,0.4893341064453125
180242,1.204879760742188,-0.4142913818359375,0.3755035400390625
180243,1.545333862304688,-0.53631591796875,0.195404052734375
180244,1.637466430664062,-0.688629150390625,0.1259307861328125
180245,1.470596313476562,-0.75201416015625,0.1842041015625
180246,1.135208129882812,-0.6894989013671875,0.2606658935546875
180247,0.7311553955078125,-0.56982421875,0.2657012939453125
180248,0.3748931884765625,-0.4530181884765625,0.2179107666015625
180249,0.1735992431640625,-0.3293609619140625,0.15069580078125
180250,0.1684417724609375,-0.213165283203125,0.059600830078125
180251,0.273406982421875,-0.1309051513671875,0.0610198974609375
180252,0.3907470703125,-0.105804443359375,0.1048583984375
180253,0.4691314697265625,-0.1097412109375,0.1626129150390625
180254,0.5245819091796875,-0.1100616455078125,0.2373046875
180255,0.576995849609375,-0.09478759765625,0.3131866455078125
180256,0.5979766845703125,-0.076324462890625,0.3602294921875
180257,0.60894775390625,-0.069915771484375,0.3674774169921875
180258,0.6156158447265625,-0.0782318115234375,0.3466796875
180259,0.5785369873046875,-0.0825347900390625,0.310333251953125
180260,0.480194091796875,-0.0898284912109375,0.2577667236328125
180261,0.3587799072265625,-0.080902099609375,0.217926025390625
180262,0.25274658203125,-0.06060791015625,0.1786041259765625
180263,0.176513671875,-0.0481719970703125,0.1252899169921875
180264,0.1313323974609375,-0.0467376708984375,0.0648040771484375
180265,0.126617431640625,-0.044403076171875,0.024810791015625
180266,0.1592254638671875,-0.0472412109375,0.030059814453125
180267,0.201324462890625,-0.0713348388671875,0.0615997314453125
180268,0.23583984375,-0.1146240234375,0.09783935546875
180269,0.2468109130859375,-0.1701507568359375,0.112396240234375
180270,0.23797607421875,-0.232666015625,0.089691162109375
180271,0.2527923583984375,-0.2755279541015625,0.07489013671875
180272,0.306854248046875,-0.278106689453125,0.0854339599609375
180273,0.341156005859375,-0.2552642822265625,0.10626220703125
180274,0.36907958984375,-0.2520294189453125,0.123382568359375
180275,0.4335174560546875,-0.269439697265625,0.161712646484375
180276,0.541473388671875,-0.29425048828125,0.1808929443359375
180277,0.7149658203125,-0.335052490234375,0.227935791015625
180278,0.94683837890625,-0.4315948486328125,0.345123291015625
180279,1.191558837890625,-0.5795745849609375,0.518798828125
180280,1.479873657226562,-0.7118682861328125,0.735687255859375
180281,1.811477661132812,-0.82586669921875,1.006072998046875
180282,2.064163208007812,-1.019851684570312,1.24822998046875
180283,2.167404174804688,-1.241592407226562,1.310302734375
180284,2.018020629882812,-1.382492065429688,1.167343139648438
180285,1.66912841796875,-1.46820068359375,0.982086181640625
180286,1.334564208984375,-1.531906127929688,0.8590087890625
180287,1.076202392578125,-1.499954223632812,0.9366607666015624
180288,0.9948577880859376,-1.3126220703125,1.058853149414062
180289,1.118759155273438,-1.024124145507812,1.064361572265625
180290,1.24407958984375,-0.7967071533203125,1.006256103515625
180291,1.2874755859375,-0.7044677734375,0.899749755859375
180292,1.320510864257812,-0.681884765625,0.7371978759765625
180293,1.312103271484375,-0.65191650390625,0.5585174560546875
180294,1.223831176757812,-0.616119384765625,0.41650390625
180295,1.119888305664062,-0.56732177734375,0.32647705078125
180296,1.057540893554688,-0.492218017578125,0.2686004638671875
180297,1.033798217773438,-0.41229248046875,0.230682373046875
180298,1.043380737304688,-0.350860595703125,0.2000732421875
180299,1.045913696289062,-0.31414794921875,0.2058258056640625
180300,1.021697998046875,-0.300537109375,0.229217529296875
180301,0.9553680419921876,-0.309844970703125,0.2568511962890625
180302,0.846405029296875,-0.3345489501953125,0.2913055419921875
180303,0.7256927490234375,-0.35321044921875,0.324737548828125
180304,0.6087646484375,-0.3493499755859375,0.3544158935546875
180305,0.4965362548828125,-0.32330322265625,0.367523193359375
180306,0.4065093994140625,-0.298828125,0.3627471923828125
180307,0.344940185546875,-0.283355712890625,0.3362579345703125
180308,0.3018646240234375,-0.2727813720703125,0.2932891845703125
180309,0.2679443359375,-0.258819580078125,0.246337890625
180310,0.2447967529296875,-0.235198974609375,0.2034149169921875
180311,0.232666015625,-0.2058563232421875,0.17596435546875
180312,0.2275848388671875,-0.1712799072265625,0.165618896484375
180313,0.2257843017578125,-0.1338653564453125,0.1508941650390625
180314,0.2327117919921875,-0.094696044921875,0.1339874267578125
180315,0.257110595703125,-0.0576019287109375,0.119140625
180316,0.2740325927734375,-0.03564453125,0.11279296875
180317,0.27130126953125,-0.02960205078125,0.1251983642578125
180318,0.267181396484375,-0.0329437255859375,0.145782470703125
180319,0.2566070556640625,-0.063446044921875,0.1784210205078125
180320,0.20831298828125,-0.1237030029296875,0.2413482666015625
180321,0.1174163818359375,-0.196685791015625,0.331268310546875
180322,0.0222625732421875,-0.3059539794921875,0.4253692626953125
180323,-0.0278778076171875,-0.4504852294921875,0.5055999755859375
180324,-0.0146026611328125,-0.6171417236328125,0.604949951171875
180325,0.0755767822265625,-0.7808837890625,0.7223358154296875
180326,0.1714630126953125,-0.939483642578125,0.8349151611328125
180327,0.2111968994140625,-1.107086181640625,0.8854827880859375
180328,0.2167510986328125,-1.232040405273438,0.86474609375
180329,0.1932373046875,-1.284698486328125,0.8275146484375
180330,0.1633758544921875,-1.295120239257812,0.7794036865234375
180331,0.13299560546875,-1.27471923828125,0.725921630859375
180332,0.1005096435546875,-1.171829223632812,0.6883544921875
180333,0.15167236328125,-1.000823974609375,0.6375579833984375
180334,0.3304595947265625,-0.858001708984375,0.6147308349609375
180335,0.584808349609375,-0.7762908935546875,0.649932861328125
180336,0.874359130859375,-0.75750732421875,0.675323486328125
180337,1.15887451171875,-0.7460174560546875,0.6498565673828125
180338,1.317855834960938,-0.69940185546875,0.535247802734375
180339,1.303970336914062,-0.6058349609375,0.4221343994140625
180340,1.220123291015625,-0.478363037109375,0.363616943359375
180341,1.141311645507812,-0.3470916748046875,0.3505859375
180342,1.085586547851562,-0.2584381103515625,0.3417510986328125
180343,1.057708740234375,-0.233428955078125,0.3038787841796875
180344,1.079559326171875,-0.248046875,0.215301513671875
180345,1.142868041992188,-0.2788238525390625,0.12109375
180346,1.213775634765625,-0.30218505859375,0.068389892578125
180347,1.292190551757812,-0.288787841796875,0.0522613525390625
180348,1.377288818359375,-0.247283935546875,0.055877685546875
180349,1.483627319335938,-0.1957550048828125,0.069122314453125
180350,1.599044799804688,-0.1458282470703125,0.095977783203125
180351,1.658340454101562,-0.12725830078125,0.12957763671875
180352,1.60040283203125,-0.151336669921875,0.178070068359375
180353,1.473739624023438,-0.18255615234375,0.2467498779296875
180354,1.339828491210938,-0.212982177734375,0.2975616455078125
180355,1.214706420898438,-0.2464752197265625,0.34088134765625
180356,1.094558715820312,-0.269805908203125,0.39727783203125
180357,0.9937591552734376,-0.280181884765625,0.463897705078125
180358,0.90460205078125,-0.2957000732421875,0.52734375
180359,0.8006134033203125,-0.3305206298828125,0.563232421875
180360,0.6902313232421875,-0.3986663818359375,0.568145751953125
180361,0.60992431640625,-0.4917144775390625,0.5610809326171875
180362,0.5475311279296875,-0.5908355712890625,0.5360107421875
180363,0.4583282470703125,-0.6686248779296875,0.5202484130859375
180364,0.3292236328125,-0.7069549560546875,0.50469970703125
180365,0.2146148681640625,-0.710479736328125,0.4531707763671875
180366,0.1643218994140625,-0.7111053466796875,0.3809967041015625
180367,0.1857147216796875,-0.7132720947265625,0.354034423828125
180368,0.21343994140625,-0.7079315185546875,0.39227294921875
180369,0.22418212890625,-0.6952056884765625,0.4633941650390625
180370,0.212615966796875,-0.664703369140625,0.490020751953125
180371,0.1902313232421875,-0.6357879638671875,0.45953369140625
180372,0.204833984375,-0.6093597412109375,0.3942718505859375
180373,0.2382049560546875,-0.579376220703125,0.33251953125
180374,0.2698211669921875,-0.5399169921875,0.298858642578125
180375,0.34356689453125,-0.4758758544921875,0.2657470703125
180376,0.441619873046875,-0.4357147216796875,0.23175048828125
180377,0.5398406982421875,-0.396636962890625,0.2189178466796875
180378,0.6748504638671875,-0.36773681640625,0.2343902587890625
180379,0.801422119140625,-0.380218505859375,0.26422119140625
180380,0.876983642578125,-0.4244537353515625,0.2955780029296875
180381,0.88983154296875,-0.4783172607421875,0.313568115234375
180382,0.8486175537109375,-0.5166015625,0.328826904296875
180383,0.8101654052734375,-0.5469818115234375,0.36541748046875
180384,0.762939453125,-0.586639404296875,0.4340972900390625
180385,0.7107391357421875,-0.6452484130859375,0.5084075927734375
180386,0.6470947265625,-0.7328338623046875,0.5926055908203125
180387,0.5751495361328125,-0.8343505859375,0.6683502197265625
180388,0.500335693359375,-0.93798828125,0.7043609619140625
180389,0.433074951171875,-1.025787353515625,0.7332916259765625
180390,0.380401611328125,-1.083877563476562,0.7750091552734375
180391,0.3398895263671875,-1.10809326171875,0.8054046630859375
180392,0.3367156982421875,-1.098770141601562,0.785430908203125
180393,0.389739990234375,-1.060546875,0.6999359130859375
180394,0.466796875,-1.001556396484375,0.607177734375
180395,0.573883056640625,-0.932464599609375,0.536895751953125
180396,0.734954833984375,-0.8608551025390625,0.5237884521484375
180397,0.94091796875,-0.786834716796875,0.538787841796875
180398,1.136642456054688,-0.7027740478515625,0.5533599853515625
180399,1.288177490234375,-0.6013946533203125,0.57086181640625
180400,1.35614013671875,-0.4948272705078125,0.5679931640625
180401,1.329879760742188,-0.3709716796875,0.545440673828125
180402,1.27471923828125,-0.2490386962890625,0.509368896484375
180403,1.25164794921875,-0.15692138671875,0.4626617431640625
180404,1.249435424804688,-0.101348876953125,0.4126434326171875
180405,1.217483520507812,-0.067413330078125,0.3567657470703125
180406,1.198699951171875,-0.0275421142578125,0.348724365234375
180407,1.211105346679688,0.0155792236328125,0.342864990234375
180408,1.23046875,0.0480499267578125,0.2660369873046875
180409,1.2274169921875,0.078094482421875,0.1858062744140625
180410,1.20306396484375,0.0883636474609375,0.1669158935546875
180411,1.178466796875,0.0702362060546875,0.2056732177734375
180412,1.145645141601562,0.04095458984375,0.2519073486328125
180413,1.093093872070312,0.0064697265625,0.270782470703125
180414,1.038360595703125,-0.03070068359375,0.272186279296875
180415,0.9969329833984376,-0.076507568359375,0.273529052734375
180416,0.959228515625,-0.1224365234375,0.2744903564453125
180417,0.91705322265625,-0.1691436767578125,0.2717742919921875
180418,0.876495361328125,-0.2080841064453125,0.26837158203125
180419,0.8269805908203125,-0.239166259765625,0.26483154296875
180420,0.778289794921875,-0.26513671875,0.271728515625
180421,0.75787353515625,-0.2837066650390625,0.288299560546875
180422,0.7531280517578125,-0.307952880859375,0.3108367919921875
180423,0.7495574951171875,-0.3464813232421875,0.362274169921875
180424,0.7175750732421875,-0.39752197265625,0.4328765869140625
180425,0.652557373046875,-0.449249267578125,0.5008087158203125
180426,0.5791168212890625,-0.5033416748046875,0.5543212890625
180427,0.50653076171875,-0.554351806640625,0.59228515625
180428,0.43902587890625,-0.6089019775390625,0.7225341796875
180429,0.32073974609375,-0.684356689453125,0.860137939453125
180430,0.153289794921875,-0.760040283203125,0.7612457275390625
180431,0.0290374755859375,-0.811126708984375,0.54742431640625
180432,-0.01068115234375,-0.8033294677734375,0.4000701904296875
180433,0.0092620849609375,-0.743194580078125,0.3556060791015625
180434,0.07489013671875,-0.6806488037109375,0.37164306640625
180435,0.145538330078125,-0.625244140625,0.422393798828125
180436,0.202545166015625,-0.5708160400390625,0.48095703125
180437,0.22027587890625,-0.528656005859375,0.483306884765625
180438,0.1996307373046875,-0.5296173095703125,0.38922119140625
180439,0.16705322265625,-0.604705810546875,0.2724609375
180440,0.162933349609375,-0.698944091796875,0.1990509033203125
180441,0.19482421875,-0.7653656005859375,0.1812591552734375
180442,0.2336273193359375,-0.8001708984375,0.2321929931640625
180443,0.285186767578125,-0.813323974609375,0.3168792724609375
180444,0.3297882080078125,-0.8310699462890625,0.3501434326171875
180445,0.3978118896484375,-0.8117218017578125,0.3164215087890625
180446,0.4990234375,-0.7146759033203125,0.3097991943359375
180447,0.5340728759765625,-0.6931610107421875,0.3160858154296875
180448,0.52130126953125,-0.7826690673828125,0.3921966552734375
180449,0.455322265625,-0.9344329833984376,0.48724365234375
180450,0.416717529296875,-1.108642578125,0.5282745361328125
180451,0.455169677734375,-1.163131713867188,0.586273193359375
180452,0.518463134765625,-1.07696533203125,0.6547698974609375
180453,0.612884521484375,-0.97003173828125,0.7154998779296875
180454,0.773895263671875,-0.8995361328125,0.7272491455078125
180455,0.909271240234375,-0.871429443359375,0.6897430419921875
180456,0.9781951904296876,-0.8714752197265625,0.66552734375
180457,0.9902801513671876,-0.887939453125,0.644775390625
180458,0.9373931884765624,-0.892425537109375,0.6203155517578125
180459,0.8713226318359375,-0.83380126953125,0.5831756591796875
180460,0.82025146484375,-0.6984710693359375,0.5016937255859375
180461,0.8012847900390625,-0.5334625244140625,0.395355224609375
180462,0.804656982421875,-0.376953125,0.3441009521484375
180463,0.847930908203125,-0.2409515380859375,0.3568878173828125
180464,0.936492919921875,-0.139312744140625,0.37030029296875
180465,1.02984619140625,-0.0845947265625,0.3387908935546875
180466,1.118942260742188,-0.0615081787109375,0.2754364013671875
180467,1.195846557617188,-0.0484161376953125,0.2496337890625
180468,1.280471801757812,-0.04010009765625,0.2608184814453125
180469,1.369735717773438,-0.0386505126953125,0.2842254638671875
180470,1.435333251953125,-0.051666259765625,0.3082275390625
180471,1.431869506835938,-0.064727783203125,0.337890625
180472,1.35906982421875,-0.080108642578125,0.3653411865234375
180473,1.238540649414062,-0.1131134033203125,0.3887176513671875
180474,1.094757080078125,-0.17578125,0.409576416015625
180475,0.951995849609375,-0.2728729248046875,0.4322967529296875
180476,0.8277435302734375,-0.3802642822265625,0.455718994140625
180477,0.7233123779296875,-0.4656829833984375,0.461181640625
180478,0.64312744140625,-0.5378875732421875,0.4454345703125
180479,0.5976409912109375,-0.60723876953125,0.421112060546875
180480,0.579254150390625,-0.6581878662109375,0.397491455078125
180481,0.5719757080078125,-0.67657470703125,0.3828582763671875
180482,0.569122314453125,-0.678253173828125,0.3731689453125
180483,0.5685272216796875,-0.6604156494140625,0.3624420166015625
180484,0.559600830078125,-0.635711669921875,0.34832763671875
180485,0.5555267333984375,-0.6151580810546875,0.3362884521484375
180486,0.558258056640625,-0.5967864990234375,0.32977294921875
180487,0.5499114990234375,-0.5848541259765625,0.32965087890625
180488,0.5270538330078125,-0.58245849609375,0.3155975341796875
180489,0.4933319091796875,-0.5795745849609375,0.2861328125
180490,0.450653076171875,-0.5694732666015625,0.2610321044921875
180491,0.404022216796875,-0.556610107421875,0.2352294921875
180492,0.369415283203125,-0.53472900390625,0.2194366455078125
180493,0.3444366455078125,-0.506317138671875,0.2027587890625
180494,0.3301544189453125,-0.4949493408203125,0.191162109375
180495,0.3196258544921875,-0.5109405517578125,0.206573486328125
180496,0.3247528076171875,-0.5474853515625,0.2422943115234375
180497,0.36956787109375,-0.5928497314453125,0.2899932861328125
180498,0.44757080078125,-0.6608428955078125,0.3608551025390625
180499,0.5546875,-0.7392578125,0.4613189697265625
180500,0.68017578125,-0.81658935546875,0.5728759765625
180501,0.78985595703125,-0.8812103271484375,0.6715240478515625
180502,0.8372650146484375,-0.928558349609375,0.7348785400390625
180503,0.7996673583984375,-0.94989013671875,0.7803192138671875
180504,0.6661376953125,-0.94097900390625,0.8136444091796875
180505,0.470184326171875,-0.90130615234375,0.821746826171875
180506,0.30364990234375,-0.8571014404296875,0.8068389892578125
180507,0.18402099609375,-0.8544769287109375,0.749359130859375
180508,0.102691650390625,-0.8747711181640625,0.655029296875
180509,0.0538482666015625,-0.884521484375,0.5813446044921875
180510,0.0537872314453125,-0.8754119873046875,0.5458831787109375
180511,0.1133880615234375,-0.8519287109375,0.54296875
180512,0.220245361328125,-0.81304931640625,0.558990478515625
180513,0.3643035888671875,-0.7637481689453125,0.595458984375
180514,0.531494140625,-0.71649169921875,0.6523895263671875
180515,0.7374420166015625,-0.6710968017578125,0.7119598388671875
180516,0.959625244140625,-0.623077392578125,0.726654052734375
180517,1.134872436523438,-0.570953369140625,0.673187255859375
180518,1.261245727539062,-0.4896240234375,0.607666015625
180519,1.350677490234375,-0.3983917236328125,0.5728607177734375
180520,1.343551635742188,-0.2802886962890625,0.5442657470703125
180521,1.309524536132812,-0.1361083984375,0.4974822998046875
180522,1.314773559570312,-0.01544189453125,0.439788818359375
180523,1.347976684570312,0.0564422607421875,0.37957763671875
180524,1.389923095703125,0.0991973876953125,0.3242950439453125
180525,1.43328857421875,0.1173248291015625,0.27923583984375
180526,1.462783813476562,0.1063995361328125,0.25921630859375
180527,1.461715698242188,0.0760040283203125,0.2966766357421875
180528,1.439346313476562,0.04522705078125,0.35980224609375
180529,1.375656127929688,0.009796142578125,0.3811187744140625
180530,1.2760009765625,-0.0366973876953125,0.3715057373046875
180531,1.177688598632812,-0.087432861328125,0.3619842529296875
180532,1.091262817382812,-0.136474609375,0.3624725341796875
180533,1.013336181640625,-0.1793975830078125,0.3701324462890625
180534,0.9456024169921876,-0.218841552734375,0.36395263671875
180535,0.88763427734375,-0.251922607421875,0.35052490234375
180536,0.821258544921875,-0.2834625244140625,0.3318023681640625
180537,0.76104736328125,-0.319549560546875,0.324737548828125
180538,0.70562744140625,-0.35980224609375,0.3324127197265625
180539,0.6471099853515625,-0.4089508056640625,0.3583984375
180540,0.592041015625,-0.45477294921875,0.398651123046875
180541,0.5430755615234375,-0.4845428466796875,0.44097900390625
180542,0.4919586181640625,-0.4991455078125,0.48101806640625
180543,0.4270782470703125,-0.51507568359375,0.516326904296875
180544,0.368743896484375,-0.5460357666015625,0.544586181640625
180545,0.3092193603515625,-0.5968475341796875,0.5689544677734375
180546,0.243560791015625,-0.6583099365234375,0.60870361328125
180547,0.19342041015625,-0.7042236328125,0.6547698974609375
180548,0.1317901611328125,-0.7237091064453125,0.69354248046875
180549,0.0417022705078125,-0.714996337890625,0.721771240234375
180550,-0.0477752685546875,-0.6850738525390625,0.7138824462890625
180551,-0.128265380859375,-0.6625823974609375,0.6665496826171875
180552,-0.16064453125,-0.6506500244140625,0.584320068359375
180553,-0.1404876708984375,-0.65936279296875,0.4985809326171875
180554,-0.10009765625,-0.70751953125,0.4532470703125
180555,-0.059600830078125,-0.7786865234375,0.4560089111328125
180556,0.0130767822265625,-0.8174285888671875,0.4925537109375
180557,0.0951080322265625,-0.821319580078125,0.54791259765625
180558,0.1781005859375,-0.816650390625,0.5990447998046875
180559,0.2574462890625,-0.832366943359375,0.62225341796875
180560,0.3265380859375,-0.871368408203125,0.6217498779296875
180561,0.4055633544921875,-0.9161529541015624,0.61669921875
180562,0.4990386962890625,-0.94775390625,0.6157684326171875
180563,0.589935302734375,-0.953521728515625,0.6137542724609375
180564,0.6501922607421875,-0.914794921875,0.6077880859375
180565,0.678955078125,-0.8536376953125,0.5953826904296875
180566,0.68890380859375,-0.7909698486328125,0.570892333984375
180567,0.6838226318359375,-0.724700927734375,0.5389251708984375
180568,0.6735076904296875,-0.6524658203125,0.5135498046875
180569,0.656982421875,-0.5887908935546875,0.5015106201171875
180570,0.6326904296875,-0.54364013671875,0.50494384765625
180571,0.6049041748046875,-0.52130126953125,0.524261474609375
180572,0.5758514404296875,-0.51165771484375,0.55047607421875
180573,0.5527191162109375,-0.503448486328125,0.578338623046875
180574,0.5453033447265625,-0.484222412109375,0.6025848388671875
180575,0.5436248779296875,-0.4521484375,0.616668701171875
180576,0.560089111328125,-0.41412353515625,0.627593994140625
180577,0.597900390625,-0.3772125244140625,0.60369873046875
180578,0.664703369140625,-0.3480224609375,0.54541015625
180579,0.7468109130859375,-0.29144287109375,0.4820404052734375
180580,0.8246917724609375,-0.2272186279296875,0.4165191650390625
180581,0.880889892578125,-0.1680908203125,0.3574066162109375
180582,0.918060302734375,-0.11688232421875,0.3200531005859375
180583,0.9601287841796876,-0.0791168212890625,0.3160247802734375
180584,1.030181884765625,-0.061614990234375,0.3304595947265625
180585,1.108810424804688,-0.0628204345703125,0.3431243896484375
180586,1.190826416015625,-0.0740509033203125,0.34002685546875
180587,1.2493896484375,-0.0941162109375,0.3493804931640625
180588,1.27288818359375,-0.1267852783203125,0.389495849609375
180589,1.27923583984375,-0.1662445068359375,0.4420928955078125
180590,1.269134521484375,-0.195892333984375,0.4977569580078125
180591,1.228195190429688,-0.220123291015625,0.533294677734375
180592,1.150863647460938,-0.2494049072265625,0.5540618896484375
180593,1.04791259765625,-0.2942047119140625,0.5669708251953125
180594,0.9431304931640624,-0.355438232421875,0.5744476318359375
180595,0.843597412109375,-0.4344635009765625,0.5820770263671875
180596,0.7384490966796875,-0.528900146484375,0.598876953125
180597,0.6410369873046875,-0.6290283203125,0.6120147705078125
180598,0.5544586181640625,-0.7065277099609375,0.606719970703125
180599,0.4814605712890625,-0.750885009765625,0.576171875
180600,0.4339447021484375,-0.7636260986328125,0.53009033203125
180601,0.4253692626953125,-0.7432708740234375,0.4857177734375
180602,0.4409637451171875,-0.71124267578125,0.4468994140625
180603,0.462188720703125,-0.6827850341796875,0.4262542724609375
180604,0.483489990234375,-0.670257568359375,0.43267822265625
180605,0.4986572265625,-0.6703033447265625,0.45941162109375
180606,0.5001373291015625,-0.6744537353515625,0.4708404541015625
180607,0.494232177734375,-0.66754150390625,0.453948974609375
180608,0.4872283935546875,-0.63946533203125,0.400848388671875
180609,0.469268798828125,-0.5967254638671875,0.334442138671875
180610,0.4496917724609375,-0.5527191162109375,0.2744903564453125
180611,0.4495849609375,-0.498199462890625,0.228240966796875
180612,0.4952545166015625,-0.4503021240234375,0.197723388671875
180613,0.5613555908203125,-0.4156494140625,0.177734375
180614,0.6304931640625,-0.400543212890625,0.1806182861328125
180615,0.6842193603515625,-0.3981475830078125,0.2026214599609375
180616,0.725982666015625,-0.4037628173828125,0.2379913330078125
180617,0.7542724609375,-0.4185943603515625,0.2967071533203125
180618,0.7471771240234375,-0.4513092041015625,0.361602783203125
180619,0.727294921875,-0.52093505859375,0.427520751953125
180620,0.7203826904296875,-0.611053466796875,0.50775146484375
180621,0.7113037109375,-0.7100372314453125,0.575714111328125
180622,0.6665191650390625,-0.809356689453125,0.62286376953125
180623,0.61285400390625,-0.89935302734375,0.6708526611328125
180624,0.548126220703125,-0.9768829345703124,0.7148895263671875
180625,0.4581756591796875,-1.034469604492188,0.7561492919921875
180626,0.330047607421875,-1.053878784179688,0.7820892333984375
180627,0.205596923828125,-1.007675170898438,0.7551422119140625
180628,0.1054229736328125,-0.9195556640625,0.683258056640625
180629,0.0702972412109375,-0.8343353271484375,0.5899505615234375
180630,0.1208343505859375,-0.7709197998046875,0.502471923828125
180631,0.2240753173828125,-0.7191162109375,0.4535675048828125
180632,0.379669189453125,-0.684112548828125,0.4512176513671875
180633,0.5652313232421875,-0.654144287109375,0.4973297119140625
180634,0.73974609375,-0.6172943115234375,0.565460205078125
180635,0.892608642578125,-0.5682525634765625,0.6043853759765625
180636,1.043533325195312,-0.5015411376953125,0.5780181884765625
180637,1.198043823242188,-0.4001617431640625,0.5273590087890625
180638,1.307968139648438,-0.2868194580078125,0.5084991455078125
180639,1.39434814453125,-0.203643798828125,0.5128936767578125
180640,1.460006713867188,-0.1600494384765625,0.48602294921875
180641,1.452774047851562,-0.1487579345703125,0.44232177734375
180642,1.383941650390625,-0.13922119140625,0.3989410400390625
180643,1.31610107421875,-0.112457275390625,0.35540771484375
180644,1.27850341796875,-0.083587646484375,0.3074951171875
180645,1.25653076171875,-0.0567169189453125,0.2696380615234375
180646,1.268646240234375,-0.0447998046875,0.2626495361328125
180647,1.304046630859375,-0.0610198974609375,0.2707672119140625
180648,1.312103271484375,-0.0919952392578125,0.2879791259765625
180649,1.248977661132812,-0.110382080078125,0.30035400390625
180650,1.1771240234375,-0.1305084228515625,0.305572509765625
180651,1.111114501953125,-0.178680419921875,0.3165740966796875
180652,1.01031494140625,-0.2400360107421875,0.323822021484375
180653,0.91925048828125,-0.305694580078125,0.30609130859375
180654,0.8824920654296875,-0.3561859130859375,0.2708892822265625
180655,0.85394287109375,-0.3889617919921875,0.239990234375
180656,0.836273193359375,-0.41552734375,0.218109130859375
180657,0.82159423828125,-0.4349365234375,0.2216644287109375
180658,0.7833251953125,-0.4515533447265625,0.25189208984375
180659,0.749969482421875,-0.4672698974609375,0.2868804931640625
180660,0.7266082763671875,-0.488494873046875,0.3320159912109375
180661,0.683502197265625,-0.518402099609375,0.3873138427734375
180662,0.6158294677734375,-0.545562744140625,0.437255859375
180663,0.5310821533203125,-0.55657958984375,0.4553985595703125
180664,0.4199066162109375,-0.5488128662109375,0.477386474609375
180665,0.313995361328125,-0.5329437255859375,0.4932098388671875
180666,0.2281036376953125,-0.5294952392578125,0.492431640625
180667,0.1692962646484375,-0.5472564697265625,0.5002593994140625
180668,0.1367645263671875,-0.5792083740234375,0.526397705078125
180669,0.1073455810546875,-0.6099090576171875,0.565704345703125
180670,0.0924072265625,-0.628875732421875,0.5921783447265625
180671,0.1181640625,-0.636077880859375,0.5972442626953125
180672,0.170623779296875,-0.6461334228515625,0.5816802978515625
180673,0.203338623046875,-0.66107177734375,0.553955078125
180674,0.2149658203125,-0.6858978271484375,0.5282135009765625
180675,0.239013671875,-0.7103271484375,0.51019287109375
180676,0.2773590087890625,-0.722137451171875,0.4832000732421875
180677,0.3327484130859375,-0.72381591796875,0.463592529296875
180678,0.3892669677734375,-0.7241363525390625,0.466339111328125
180679,0.4409942626953125,-0.7258758544921875,0.474395751953125
180680,0.495574951171875,-0.7277069091796875,0.4737701416015625
180681,0.5564727783203125,-0.735931396484375,0.466278076171875
180682,0.60577392578125,-0.7532806396484375,0.450958251953125
180683,0.6384735107421875,-0.7691802978515625,0.4416046142578125
180684,0.650360107421875,-0.7732696533203125,0.4495086669921875
180685,0.64874267578125,-0.76806640625,0.45849609375
180686,0.6415863037109375,-0.752471923828125,0.468719482421875
180687,0.6309356689453125,-0.7376251220703125,0.47564697265625
180688,0.6306610107421875,-0.722686767578125,0.486053466796875
180689,0.6473541259765625,-0.7040557861328125,0.505401611328125
180690,0.672821044921875,-0.683990478515625,0.5280609130859375
180691,0.6943511962890625,-0.6594390869140625,0.5517578125
180692,0.7100372314453125,-0.6240386962890625,0.569000244140625
180693,0.7240753173828125,-0.581085205078125,0.566986083984375
180694,0.7373046875,-0.5416412353515625,0.5412445068359375
180695,0.7637939453125,-0.491485595703125,0.50830078125
180696,0.7985382080078125,-0.4229736328125,0.4632568359375
180697,0.8372344970703125,-0.3427734375,0.417816162109375
180698,0.86553955078125,-0.2700042724609375,0.387481689453125
180699,0.88568115234375,-0.217071533203125,0.361968994140625
180700,0.91400146484375,-0.176177978515625,0.3419036865234375
180701,0.94921875,-0.157196044921875,0.317413330078125
180702,0.991180419921875,-0.1543121337890625,0.287322998046875
180703,1.059646606445312,-0.160400390625,0.25848388671875
180704,1.140884399414062,-0.1616668701171875,0.2288970947265625
180705,1.227676391601562,-0.1566619873046875,0.205413818359375
180706,1.319534301757812,-0.1658782958984375,0.2083892822265625
180707,1.39105224609375,-0.1889495849609375,0.2249908447265625
180708,1.420150756835938,-0.208740234375,0.251739501953125
180709,1.380783081054688,-0.216064453125,0.2901153564453125
180710,1.28680419921875,-0.214569091796875,0.31365966796875
180711,1.181838989257812,-0.2214202880859375,0.3333892822265625
180712,1.070022583007812,-0.250274658203125,0.364288330078125
180713,0.96563720703125,-0.29608154296875,0.395263671875
180714,0.88201904296875,-0.3556671142578125,0.4126129150390625
180715,0.8018035888671875,-0.4271240234375,0.412109375
180716,0.735748291015625,-0.505767822265625,0.4032135009765625
180717,0.687469482421875,-0.5723114013671875,0.3995208740234375
180718,0.64129638671875,-0.6219482421875,0.3988189697265625
180719,0.59039306640625,-0.64990234375,0.3939056396484375
180720,0.544464111328125,-0.655853271484375,0.3771514892578125
180721,0.5094757080078125,-0.6406707763671875,0.3574981689453125
180722,0.496917724609375,-0.628570556640625,0.3438568115234375
180723,0.4856414794921875,-0.624359130859375,0.342041015625
180724,0.462554931640625,-0.628570556640625,0.3511810302734375
180725,0.435333251953125,-0.642578125,0.360565185546875
180726,0.4032135009765625,-0.662109375,0.363037109375
180727,0.3779296875,-0.668243408203125,0.3499908447265625
180728,0.3643798828125,-0.6602935791015625,0.33172607421875
180729,0.369720458984375,-0.6449127197265625,0.3183441162109375
180730,0.389984130859375,-0.631591796875,0.309722900390625
180731,0.4128570556640625,-0.6285858154296875,0.3036956787109375
180732,0.4308013916015625,-0.6314697265625,0.2975921630859375
180733,0.4455718994140625,-0.639404296875,0.2799072265625
180734,0.4598541259765625,-0.64013671875,0.2734832763671875
180735,0.483795166015625,-0.636505126953125,0.2822418212890625
180736,0.52911376953125,-0.640045166015625,0.329864501953125
180737,0.5808563232421875,-0.6602783203125,0.4048004150390625
180738,0.621307373046875,-0.7008209228515625,0.494293212890625
180739,0.65924072265625,-0.755828857421875,0.572174072265625
180740,0.6902313232421875,-0.830413818359375,0.6292266845703125
180741,0.7061004638671875,-0.914459228515625,0.680023193359375
180742,0.6802978515625,-0.97613525390625,0.7230224609375
180743,0.5966949462890625,-0.997344970703125,0.7383270263671875
180744,0.4791717529296875,-0.9820404052734376,0.710968017578125
180745,0.363067626953125,-0.9444427490234376,0.64910888671875
180746,0.280792236328125,-0.91204833984375,0.5751495361328125
180747,0.23602294921875,-0.893707275390625,0.512176513671875
180748,0.2274932861328125,-0.88055419921875,0.468658447265625
180749,0.2591705322265625,-0.85894775390625,0.4459991455078125
180750,0.3300628662109375,-0.825408935546875,0.44036865234375
180751,0.4392242431640625,-0.7837066650390625,0.4415740966796875
180752,0.57794189453125,-0.7335968017578125,0.449432373046875
180753,0.7455596923828125,-0.6787567138671875,0.460113525390625
180754,0.9398651123046876,-0.626434326171875,0.4639739990234375
180755,1.15960693359375,-0.56951904296875,0.4589385986328125
180756,1.351043701171875,-0.5113067626953125,0.460723876953125
180757,1.473892211914062,-0.45440673828125,0.45977783203125
180758,1.517547607421875,-0.3849945068359375,0.408050537109375
180759,1.490188598632812,-0.2913970947265625,0.324676513671875
180760,1.403152465820312,-0.1877593994140625,0.2902679443359375
180761,1.299240112304688,-0.08709716796875,0.305938720703125
180762,1.214675903320312,-0.0127105712890625,0.32281494140625
180763,1.164337158203125,0.039947509765625,0.32110595703125
180764,1.150924682617188,0.0792999267578125,0.3062286376953125
180765,1.176544189453125,0.1041107177734375,0.2835540771484375
180766,1.220474243164062,0.106719970703125,0.26409912109375
180767,1.261810302734375,0.08111572265625,0.2607269287109375
180768,1.276687622070312,0.060577392578125,0.271209716796875
180769,1.249664306640625,0.0467376708984375,0.2844696044921875
180770,1.189865112304688,0.0026702880859375,0.2894744873046875
180771,1.110137939453125,-0.07391357421875,0.287017822265625
180772,1.050994873046875,-0.16650390625,0.2741546630859375
180773,1.007476806640625,-0.2652130126953125,0.274932861328125
180774,0.9468536376953124,-0.3463134765625,0.282012939453125
180775,0.88897705078125,-0.391998291015625,0.28094482421875
180776,0.85211181640625,-0.40789794921875,0.285552978515625
180777,0.82421875,-0.40338134765625,0.293548583984375
180778,0.7942352294921875,-0.3930206298828125,0.2992706298828125
180779,0.7508544921875,-0.3951263427734375,0.31396484375
180780,0.6765289306640625,-0.4216156005859375,0.3377227783203125
180781,0.568206787109375,-0.4761505126953125,0.3619384765625
180782,0.4444427490234375,-0.54364013671875,0.3879852294921875
180783,0.3602142333984375,-0.577392578125,0.4145660400390625
180784,0.32025146484375,-0.5758209228515625,0.4359130859375
180785,0.2751922607421875,-0.5736083984375,0.45306396484375
180786,0.20916748046875,-0.5900115966796875,0.475311279296875
180787,0.155487060546875,-0.5988616943359375,0.504058837890625
180788,0.1280364990234375,-0.583526611328125,0.540374755859375
180789,0.1260833740234375,-0.5525970458984375,0.5968475341796875
180790,0.10980224609375,-0.5436553955078125,0.6597442626953125
180791,0.088470458984375,-0.57452392578125,0.676361083984375
180792,0.10028076171875,-0.6142730712890625,0.6388092041015625
180793,0.12652587890625,-0.6395416259765625,0.5826263427734375
180794,0.1482696533203125,-0.680572509765625,0.51763916015625
180795,0.2396392822265625,-0.7298126220703125,0.48712158203125
180796,0.3549346923828125,-0.7397918701171875,0.5109710693359375
180797,0.416534423828125,-0.713348388671875,0.5277862548828125
180798,0.44403076171875,-0.697784423828125,0.5163116455078125
180799,0.4556884765625,-0.7107086181640625,0.506072998046875
180800,0.4499664306640625,-0.77880859375,0.493194580078125
180801,0.4969940185546875,-0.868133544921875,0.52471923828125
180802,0.5711517333984375,-0.92333984375,0.5874176025390625
180803,0.6334991455078125,-0.9438018798828124,0.6155853271484375
180804,0.6860504150390625,-0.92315673828125,0.6066436767578125
180805,0.7055511474609375,-0.8559112548828125,0.5671539306640625
180806,0.6812896728515625,-0.78497314453125,0.529571533203125
180807,0.6518402099609375,-0.7228240966796875,0.508575439453125
180808,0.62982177734375,-0.6641693115234375,0.48455810546875
180809,0.6019439697265625,-0.6317901611328125,0.4711151123046875
180810,0.5800933837890625,-0.629608154296875,0.4716644287109375
180811,0.574737548828125,-0.638946533203125,0.4787750244140625
180812,0.57635498046875,-0.643768310546875,0.4930267333984375
180813,0.5814666748046875,-0.6346435546875,0.5180816650390625
180814,0.5908355712890625,-0.6119537353515625,0.5630645751953125
180815,0.5960693359375,-0.5781402587890625,0.5945587158203125
180816,0.60015869140625,-0.53436279296875,0.5953216552734375
180817,0.614288330078125,-0.4815673828125,0.55841064453125
180818,0.6331787109375,-0.4217376708984375,0.502044677734375
180819,0.6751708984375,-0.362030029296875,0.44415283203125
180820,0.749664306640625,-0.3111572265625,0.3788299560546875
180821,0.8467559814453125,-0.2687835693359375,0.316009521484375
180822,0.9468536376953124,-0.2241973876953125,0.26983642578125
180823,1.043060302734375,-0.17938232421875,0.2487335205078125
180824,1.129974365234375,-0.1321868896484375,0.2441864013671875
180825,1.224960327148438,-0.076904296875,0.2454071044921875
180826,1.323562622070312,-0.02581787109375,0.2661590576171875
180827,1.394851684570312,0.008331298828125,0.2967681884765625
180828,1.408355712890625,0.0214996337890625,0.3174285888671875
180829,1.371871948242188,0.0133056640625,0.33819580078125
180830,1.323455810546875,-0.009490966796875,0.3640594482421875
180831,1.267623901367188,-0.0506744384765625,0.407073974609375
180832,1.1737060546875,-0.132049560546875,0.4623870849609375
180833,1.049026489257812,-0.2441558837890625,0.49884033203125
180834,0.921478271484375,-0.3564605712890625,0.5137481689453125
180835,0.8134765625,-0.4646759033203125,0.5243377685546875
180836,0.7404937744140625,-0.560150146484375,0.5253143310546875
180837,0.699371337890625,-0.620269775390625,0.507232666015625
180838,0.6595458984375,-0.6522064208984375,0.486114501953125
180839,0.605224609375,-0.6676177978515625,0.4633636474609375
180840,0.5549163818359375,-0.6691436767578125,0.43963623046875
180841,0.513671875,-0.659210205078125,0.4264373779296875
180842,0.487091064453125,-0.6457977294921875,0.4177398681640625
180843,0.4837799072265625,-0.6343536376953125,0.4336090087890625
180844,0.4820404052734375,-0.6376953125,0.459381103515625
180845,0.4796295166015625,-0.65313720703125,0.468658447265625
180846,0.482879638671875,-0.6789093017578125,0.438629150390625
180847,0.4883575439453125,-0.7034454345703125,0.3834228515625
180848,0.49310302734375,-0.7133331298828125,0.326324462890625
180849,0.5036468505859375,-0.7147369384765625,0.275482177734375
180850,0.5241851806640625,-0.7001190185546875,0.2377166748046875
180851,0.5464324951171875,-0.67230224609375,0.217681884765625
180852,0.558380126953125,-0.6423797607421875,0.2174530029296875
180853,0.551971435546875,-0.61846923828125,0.235260009765625
180854,0.532745361328125,-0.6012115478515625,0.2589874267578125
180855,0.510498046875,-0.5888824462890625,0.290740966796875
180856,0.4928741455078125,-0.58636474609375,0.34149169921875
180857,0.5030364990234375,-0.6023712158203125,0.4103851318359375
180858,0.55230712890625,-0.6482391357421875,0.4904022216796875
180859,0.58795166015625,-0.715545654296875,0.5858917236328125
180860,0.6087493896484375,-0.79193115234375,0.6750030517578125
180861,0.6303558349609375,-0.8723907470703125,0.7353363037109375
180862,0.6251373291015625,-0.9385528564453124,0.757080078125
180863,0.570953369140625,-0.97125244140625,0.752044677734375
180864,0.4698638916015625,-0.9588775634765624,0.7445831298828125
180865,0.34808349609375,-0.91485595703125,0.71209716796875
180866,0.235870361328125,-0.8637847900390625,0.642913818359375
180867,0.1771392822265625,-0.8243255615234375,0.5565338134765625
180868,0.1665191650390625,-0.8001861572265625,0.488494873046875
180869,0.1882171630859375,-0.7911224365234375,0.460784912109375
180870,0.2324066162109375,-0.792572021484375,0.4804534912109375
180871,0.30633544921875,-0.7973480224609375,0.5444793701171875
180872,0.4096221923828125,-0.80487060546875,0.625823974609375
180873,0.5332794189453125,-0.8142547607421875,0.70086669921875
180874,0.6655426025390625,-0.815399169921875,0.7366485595703125
180875,0.7990264892578125,-0.80084228515625,0.724090576171875
180876,0.9552001953125,-0.755126953125,0.6632080078125
180877,1.0999755859375,-0.67181396484375,0.5680084228515625
180878,1.186721801757812,-0.5605926513671875,0.4768524169921875
180879,1.232696533203125,-0.43170166015625,0.409942626953125
180880,1.241958618164062,-0.3214569091796875,0.3510589599609375
180881,1.197540283203125,-0.26397705078125,0.29656982421875
180882,1.117538452148438,-0.2484588623046875,0.26849365234375
180883,1.027587890625,-0.2371063232421875,0.2675323486328125
180884,0.9460601806640624,-0.228057861328125,0.2725677490234375
180885,0.8720855712890625,-0.2056121826171875,0.2990570068359375
180886,0.8125457763671875,-0.136505126953125,0.37237548828125
180887,0.7947998046875,-0.04071044921875,0.462860107421875
180888,0.8516693115234375,0.0384674072265625,0.5355072021484375
180889,0.9896240234375,0.0883331298828125,0.5585784912109375
180890,1.130828857421875,0.1063079833984375,0.5160369873046875
180891,1.195098876953125,0.0803985595703125,0.4390869140625
180892,1.176513671875,0.0342254638671875,0.3925933837890625
180893,1.12939453125,0.0014190673828125,0.3934783935546875
180894,1.086746215820312,-0.0320587158203125,0.405792236328125
180895,1.0540771484375,-0.08184814453125,0.417022705078125
180896,1.021682739257812,-0.1390838623046875,0.414703369140625
180897,0.96063232421875,-0.2020111083984375,0.41558837890625
180898,0.869354248046875,-0.2852020263671875,0.4245452880859375
180899,0.7785491943359375,-0.3785400390625,0.4366302490234375
180900,0.6932525634765625,-0.456878662109375,0.4482879638671875
180901,0.60784912109375,-0.5105438232421875,0.4782257080078125
180902,0.544158935546875,-0.531494140625,0.521392822265625
180903,0.4903564453125,-0.52032470703125,0.561737060546875
180904,0.4422607421875,-0.4937744140625,0.5975494384765625
180905,0.3998565673828125,-0.4575958251953125,0.6361083984375
180906,0.3573760986328125,-0.4208831787109375,0.6620635986328125
180907,0.31231689453125,-0.397705078125,0.6708221435546875
180908,0.271942138671875,-0.400299072265625,0.6601715087890625
180909,0.2557525634765625,-0.4379730224609375,0.627044677734375
180910,0.2566070556640625,-0.4865570068359375,0.5987091064453125
180911,0.27197265625,-0.534454345703125,0.5803985595703125
180912,0.2979278564453125,-0.5647430419921875,0.55877685546875
180913,0.3267974853515625,-0.5689849853515625,0.54046630859375
180914,0.3653717041015625,-0.5679779052734375,0.5175628662109375
180915,0.4076995849609375,-0.5879058837890625,0.49151611328125
180916,0.42987060546875,-0.6340179443359375,0.472198486328125
180917,0.4290008544921875,-0.68109130859375,0.4489288330078125
180918,0.4258270263671875,-0.7133331298828125,0.4439544677734375
180919,0.435272216796875,-0.7488250732421875,0.4679107666015625
180920,0.452178955078125,-0.784515380859375,0.49066162109375
180921,0.4653778076171875,-0.8079376220703125,0.4936981201171875
180922,0.453704833984375,-0.820220947265625,0.482269287109375
180923,0.430633544921875,-0.8343048095703125,0.4622039794921875
180924,0.42755126953125,-0.8466796875,0.454803466796875
180925,0.4460601806640625,-0.86279296875,0.4628143310546875
180926,0.4661712646484375,-0.884246826171875,0.4793243408203125
180927,0.4742431640625,-0.9105072021484376,0.507598876953125
180928,0.46923828125,-0.9298858642578124,0.5456085205078125
180929,0.446014404296875,-0.9403533935546876,0.5843353271484375
180930,0.4198760986328125,-0.93621826171875,0.627471923828125
180931,0.3910369873046875,-0.913726806640625,0.659820556640625
180932,0.37091064453125,-0.8799285888671875,0.6717529296875
180933,0.3654022216796875,-0.8500213623046875,0.6676025390625
180934,0.375335693359375,-0.8289642333984375,0.6542816162109375
180935,0.3954010009765625,-0.8094635009765625,0.6406707763671875
180936,0.43011474609375,-0.7848663330078125,0.6281280517578125
180937,0.4863739013671875,-0.749481201171875,0.6220550537109375
180938,0.5589141845703125,-0.7039642333984375,0.59881591796875
180939,0.6408233642578125,-0.6376953125,0.5536956787109375
180940,0.7160491943359375,-0.5509033203125,0.50604248046875
180941,0.775360107421875,-0.449188232421875,0.4686431884765625
180942,0.8348236083984375,-0.338470458984375,0.4431610107421875
180943,0.897674560546875,-0.2244873046875,0.42486572265625
180944,0.9665069580078124,-0.1230926513671875,0.403076171875
180945,1.056716918945312,-0.0467681884765625,0.364105224609375
180946,1.171783447265625,-0.001007080078125,0.2944793701171875
180947,1.293533325195312,0.016082763671875,0.221160888671875
180948,1.39801025390625,0.017333984375,0.17840576171875
180949,1.450851440429688,0.0074005126953125,0.1762237548828125
180950,1.442062377929688,0.000335693359375,0.1998443603515625
180951,1.37908935546875,0.007354736328125,0.2266998291015625
180952,1.280593872070312,0.01593017578125,0.2768707275390625
180953,1.165863037109375,0.020721435546875,0.342742919921875
180954,1.0697021484375,0.0013885498046875,0.4163360595703125
180955,0.9828033447265624,-0.0469818115234375,0.4844970703125
180956,0.884918212890625,-0.1422882080078125,0.5150299072265625
180957,0.805938720703125,-0.290191650390625,0.51153564453125
180958,0.7718658447265625,-0.4408111572265625,0.5015716552734375
180959,0.7611541748046875,-0.5700531005859375,0.497406005859375
180960,0.7364044189453125,-0.676177978515625,0.49951171875
180961,0.6806793212890625,-0.7471771240234375,0.4938201904296875
180962,0.60638427734375,-0.7778472900390625,0.449920654296875
180963,0.542999267578125,-0.7812652587890625,0.3917999267578125
180964,0.5076904296875,-0.76800537109375,0.353668212890625
180965,0.5066375732421875,-0.7514801025390625,0.349273681640625
180966,0.5211334228515625,-0.7353668212890625,0.37396240234375
180967,0.5267791748046875,-0.7243499755859375,0.3991241455078125
180968,0.518280029296875,-0.71881103515625,0.40252685546875
180969,0.488006591796875,-0.72015380859375,0.3976898193359375
180970,0.4417572021484375,-0.7326507568359375,0.3675079345703125
180971,0.4072113037109375,-0.7402496337890625,0.3000335693359375
180972,0.3831634521484375,-0.73284912109375,0.2395782470703125
180973,0.3745880126953125,-0.7237396240234375,0.1879730224609375
180974,0.4045257568359375,-0.7022705078125,0.15960693359375
180975,0.4718170166015625,-0.6627655029296875,0.162994384765625
180976,0.5637969970703125,-0.6314849853515625,0.1902618408203125
180977,0.6949615478515625,-0.6198577880859375,0.240692138671875
180978,0.852081298828125,-0.6116790771484375,0.2877197265625
180979,0.9936370849609376,-0.591461181640625,0.3231658935546875
180980,1.047576904296875,-0.572723388671875,0.3785552978515625
180981,1.022720336914062,-0.5866241455078125,0.45196533203125
180982,0.9694061279296876,-0.6372222900390625,0.52545166015625
180983,0.9013214111328124,-0.7141571044921875,0.5855560302734375
180984,0.8046112060546875,-0.7930755615234375,0.6273651123046875
180985,0.6778717041015625,-0.856353759765625,0.6489105224609375
180986,0.545013427734375,-0.898590087890625,0.6355133056640625
180987,0.4403839111328125,-0.9070587158203124,0.628173828125
180988,0.3635101318359375,-0.8964691162109375,0.634521484375
180989,0.3179473876953125,-0.8925933837890625,0.6083221435546875
180990,0.295806884765625,-0.887420654296875,0.5721435546875
180991,0.2697601318359375,-0.8732757568359375,0.5748291015625
180992,0.2445220947265625,-0.8660430908203125,0.582977294921875
180993,0.2599945068359375,-0.8612060546875,0.58367919921875
180994,0.2994842529296875,-0.8444366455078125,0.6005859375
180995,0.3104705810546875,-0.8232269287109375,0.6085205078125
180996,0.2955474853515625,-0.8132476806640625,0.5972137451171875
180997,0.286163330078125,-0.81756591796875,0.5802459716796875
180998,0.294525146484375,-0.797576904296875,0.5931549072265625
180999,0.3168182373046875,-0.735870361328125,0.6318359375
181000,0.35650634765625,-0.6415557861328125,0.6548309326171875
181001,0.400726318359375,-0.5432586669921875,0.653167724609375
181002,0.44342041015625,-0.44696044921875,0.6353912353515625
181003,0.48529052734375,-0.3599395751953125,0.57464599609375
181004,0.521575927734375,-0.290283203125,0.4629364013671875
181005,0.566375732421875,-0.219329833984375,0.38433837890625
181006,0.624481201171875,-0.14434814453125,0.3895416259765625
181007,0.6740264892578125,-0.088043212890625,0.3934326171875
181008,0.7025909423828125,-0.0690765380859375,0.3636627197265625
181009,0.715606689453125,-0.082244873046875,0.36016845703125
181010,0.723724365234375,-0.1342926025390625,0.3991241455078125
181011,0.7459564208984375,-0.2440948486328125,0.402587890625
181012,0.771881103515625,-0.3926239013671875,0.3475341796875
181013,0.7860107421875,-0.5010986328125,0.2883148193359375
181014,0.7987213134765625,-0.5774688720703125,0.25909423828125
181015,0.796051025390625,-0.6483154296875,0.2300872802734375
181016,0.7802886962890625,-0.730377197265625,0.1681976318359375
181017,0.7794342041015625,-0.8259735107421875,0.1009521484375
181018,0.822906494140625,-0.9102630615234376,0.0818328857421875
181019,0.9086761474609376,-0.9508209228515624,0.116424560546875
181020,0.9904327392578124,-0.9434814453125,0.188018798828125
181021,1.039291381835938,-0.897216796875,0.2589569091796875
181022,1.0369873046875,-0.8197479248046875,0.3151092529296875
181023,0.988525390625,-0.743011474609375,0.3626708984375
181024,0.9084014892578124,-0.7005615234375,0.3924407958984375
181025,0.820159912109375,-0.694976806640625,0.4237823486328125
181026,0.7100830078125,-0.6918182373046875,0.464874267578125
181027,0.6104583740234375,-0.6710357666015625,0.4952850341796875
181028,0.548126220703125,-0.64300537109375,0.5023193359375
181029,0.508819580078125,-0.6300201416015625,0.497222900390625
181030,0.4786224365234375,-0.6317138671875,0.5008392333984375
181031,0.451171875,-0.616790771484375,0.5146331787109375
181032,0.4084014892578125,-0.5860443115234375,0.5270538330078125
181033,0.3612213134765625,-0.568695068359375,0.503875732421875
181034,0.3319091796875,-0.5700225830078125,0.45306396484375
181035,0.3228607177734375,-0.5794677734375,0.4044189453125
181036,0.3292999267578125,-0.6032867431640625,0.372802734375
181037,0.345703125,-0.654052734375,0.3596343994140625
181038,0.3685302734375,-0.716827392578125,0.3629913330078125
181039,0.3941192626953125,-0.7620849609375,0.372772216796875
181040,0.42120361328125,-0.795684814453125,0.383026123046875
181041,0.4464263916015625,-0.8308868408203125,0.3832855224609375
181042,0.46966552734375,-0.8666534423828125,0.3827362060546875
181043,0.495697021484375,-0.890899658203125,0.40020751953125
181044,0.5076446533203125,-0.90478515625,0.434173583984375
181045,0.512481689453125,-0.9080810546875,0.464935302734375
181046,0.5076751708984375,-0.905364990234375,0.4890899658203125
181047,0.4850921630859375,-0.90911865234375,0.5089569091796875
181048,0.466033935546875,-0.9142608642578124,0.5164031982421875
181049,0.4634246826171875,-0.9100799560546876,0.50341796875
181050,0.4873504638671875,-0.88232421875,0.4881134033203125
181051,0.5031585693359375,-0.8400421142578125,0.4837493896484375
181052,0.510406494140625,-0.80389404296875,0.4787139892578125
181053,0.521148681640625,-0.77996826171875,0.4623565673828125
181054,0.54144287109375,-0.7533111572265625,0.435333251953125
181055,0.5655364990234375,-0.72320556640625,0.4263763427734375
181056,0.5736236572265625,-0.68359375,0.424591064453125
181057,0.5850982666015625,-0.6363372802734375,0.411285400390625
181058,0.6067352294921875,-0.595855712890625,0.3851318359375
181059,0.6417083740234375,-0.565826416015625,0.350982666015625
181060,0.6935882568359375,-0.5360565185546875,0.335052490234375
181061,0.747833251953125,-0.4995269775390625,0.359344482421875
181062,0.779541015625,-0.462188720703125,0.4053802490234375
181063,0.7878570556640625,-0.4281768798828125,0.4306640625
181064,0.788299560546875,-0.3861846923828125,0.4252166748046875
181065,0.793304443359375,-0.3323974609375,0.3941650390625
181066,0.8186187744140625,-0.2648468017578125,0.3461456298828125
181067,0.8539276123046875,-0.2065582275390625,0.30340576171875
181068,0.8883209228515625,-0.17877197265625,0.2870330810546875
181069,0.928436279296875,-0.17486572265625,0.2985992431640625
181070,0.9761962890625,-0.1872406005859375,0.3142242431640625
181071,1.030197143554688,-0.207550048828125,0.3191375732421875
181072,1.081741333007812,-0.239349365234375,0.3246307373046875
181073,1.131484985351562,-0.2758941650390625,0.3242034912109375
181074,1.175613403320312,-0.3028411865234375,0.341888427734375
181075,1.206146240234375,-0.3205718994140625,0.3691864013671875
181076,1.217636108398438,-0.3351898193359375,0.38970947265625
181077,1.2103271484375,-0.3537750244140625,0.406158447265625
181078,1.184738159179688,-0.3710479736328125,0.4215087890625
181079,1.128311157226562,-0.3932342529296875,0.44097900390625
181080,1.049514770507812,-0.423309326171875,0.46685791015625
181081,0.9608306884765624,-0.46405029296875,0.4900665283203125
181082,0.88116455078125,-0.507965087890625,0.49151611328125
181083,0.8062591552734375,-0.5493011474609375,0.479644775390625
181084,0.731109619140625,-0.589019775390625,0.46368408203125
181085,0.6721954345703125,-0.61920166015625,0.4264373779296875
181086,0.6348114013671875,-0.6350860595703125,0.3739166259765625
181087,0.6163330078125,-0.63250732421875,0.332733154296875
181088,0.608642578125,-0.619537353515625,0.2986297607421875
181089,0.600372314453125,-0.6048126220703125,0.271759033203125
181090,0.587188720703125,-0.59564208984375,0.2368316650390625
181091,0.583221435546875,-0.5928802490234375,0.20477294921875
181092,0.5883026123046875,-0.59075927734375,0.1869964599609375
181093,0.5912933349609375,-0.595367431640625,0.164947509765625
181094,0.588287353515625,-0.5951080322265625,0.14453125
181095,0.5882720947265625,-0.583709716796875,0.1324615478515625
181096,0.5910797119140625,-0.5632476806640625,0.1222686767578125
181097,0.5892486572265625,-0.5389404296875,0.1130828857421875
181098,0.592498779296875,-0.5063323974609375,0.116546630859375
181099,0.5983734130859375,-0.4714813232421875,0.13250732421875
181100,0.5781707763671875,-0.452362060546875,0.1743621826171875
181101,0.5468292236328125,-0.4569091796875,0.22869873046875
181102,0.5313568115234375,-0.4847412109375,0.2881011962890625
181103,0.5379486083984375,-0.537384033203125,0.359954833984375
181104,0.5522613525390625,-0.6063995361328125,0.4449462890625
181105,0.5609130859375,-0.6932373046875,0.545318603515625
181106,0.587982177734375,-0.8033447265625,0.635894775390625
181107,0.644287109375,-0.9159393310546876,0.70550537109375
181108,0.703094482421875,-1.030441284179688,0.79156494140625
181109,0.727447509765625,-1.139328002929688,0.860931396484375
181110,0.679046630859375,-1.189041137695312,0.8589630126953125
181111,0.555389404296875,-1.130996704101562,0.8079833984375
181112,0.3672637939453125,-1.011825561523438,0.7157135009765625
181113,0.20867919921875,-0.91351318359375,0.6059417724609375
181114,0.1407012939453125,-0.8551177978515625,0.50750732421875
181115,0.1658172607421875,-0.815826416015625,0.4444732666015625
181116,0.2308807373046875,-0.777374267578125,0.41461181640625
181117,0.313232421875,-0.7303314208984375,0.4189910888671875
181118,0.3988037109375,-0.6779022216796875,0.431182861328125
181119,0.500640869140625,-0.6317138671875,0.4359893798828125
181120,0.62176513671875,-0.590057373046875,0.4403228759765625
181121,0.7537384033203125,-0.5550079345703125,0.44366455078125
181122,0.8880767822265625,-0.5275726318359375,0.458251953125
181123,1.022857666015625,-0.4998931884765625,0.4866790771484375
181124,1.133056640625,-0.46063232421875,0.5150604248046875
181125,1.199966430664062,-0.40753173828125,0.5442962646484375
181126,1.211883544921875,-0.3517913818359375,0.537689208984375
181127,1.175613403320312,-0.28271484375,0.50091552734375
181128,1.125656127929688,-0.1958770751953125,0.4526214599609375
181129,1.076461791992188,-0.1207733154296875,0.4019927978515625
181130,1.041595458984375,-0.069549560546875,0.36505126953125
181131,1.042205810546875,-0.052581787109375,0.3329925537109375
181132,1.0885009765625,-0.0552978515625,0.305816650390625
181133,1.165573120117188,-0.0681610107421875,0.2891387939453125
181134,1.225265502929688,-0.0923614501953125,0.282867431640625
181135,1.23486328125,-0.133209228515625,0.278411865234375
181136,1.182876586914062,-0.1929931640625,0.2786712646484375
181137,1.086135864257812,-0.25238037109375,0.2912139892578125
181138,1.007095336914062,-0.2999114990234375,0.302703857421875
181139,0.9556121826171876,-0.3428955078125,0.306365966796875
181140,0.9167022705078124,-0.3790740966796875,0.30133056640625
181141,0.901519775390625,-0.4001312255859375,0.294342041015625
181142,0.9117279052734376,-0.40240478515625,0.285736083984375
181143,0.9330902099609376,-0.40283203125,0.289154052734375
181144,0.9403533935546876,-0.3980255126953125,0.3121795654296875
181145,0.9201202392578124,-0.397918701171875,0.3451385498046875
181146,0.865692138671875,-0.4031829833984375,0.3603973388671875
181147,0.7847442626953125,-0.41162109375,0.3668975830078125
181148,0.6939239501953125,-0.424041748046875,0.3875274658203125
181149,0.6115264892578125,-0.4344024658203125,0.3917999267578125
181150,0.5568695068359375,-0.433624267578125,0.3790283203125
181151,0.5201416015625,-0.4270172119140625,0.36077880859375
181152,0.4863128662109375,-0.425048828125,0.3599395751953125
181153,0.4615631103515625,-0.42486572265625,0.3679962158203125
181154,0.4451751708984375,-0.417877197265625,0.37701416015625
181155,0.4277496337890625,-0.4120635986328125,0.3957977294921875
181156,0.3999176025390625,-0.413238525390625,0.4242095947265625
181157,0.3748779296875,-0.4221649169921875,0.435577392578125
181158,0.355255126953125,-0.4341278076171875,0.4248809814453125
181159,0.3502349853515625,-0.452789306640625,0.418975830078125
181160,0.3811187744140625,-0.4808349609375,0.441009521484375
181161,0.425933837890625,-0.53668212890625,0.503173828125
181162,0.457244873046875,-0.6399993896484375,0.580322265625
181163,0.4619293212890625,-0.7752685546875,0.6542205810546875
181164,0.4322509765625,-0.8862152099609375,0.7063140869140625
181165,0.4099273681640625,-0.9438934326171876,0.718658447265625
181166,0.400390625,-0.9667510986328124,0.716552734375
181167,0.370758056640625,-0.9738006591796876,0.7225799560546875
181168,0.3244476318359375,-0.9763031005859376,0.71435546875
181169,0.2897796630859375,-0.9783477783203124,0.66448974609375
181170,0.2830047607421875,-0.9773406982421876,0.6024017333984375
181171,0.3206939697265625,-0.9596099853515624,0.5638427734375
181172,0.3825531005859375,-0.920623779296875,0.5455322265625
181173,0.4302215576171875,-0.87493896484375,0.52197265625
181174,0.4570465087890625,-0.8338165283203125,0.4783782958984375
181175,0.47479248046875,-0.7830963134765625,0.4275054931640625
181176,0.48480224609375,-0.7149200439453125,0.39300537109375
181177,0.500518798828125,-0.6421051025390625,0.3862762451171875
181178,0.5297088623046875,-0.576690673828125,0.4019775390625
181179,0.574066162109375,-0.536224365234375,0.422698974609375
181180,0.63983154296875,-0.5146942138671875,0.432281494140625
181181,0.7109832763671875,-0.5086212158203125,0.428741455078125
181182,0.7743682861328125,-0.505706787109375,0.4207305908203125
181183,0.800811767578125,-0.5036773681640625,0.406951904296875
181184,0.802276611328125,-0.5054779052734375,0.386749267578125
181185,0.79962158203125,-0.499847412109375,0.35052490234375
181186,0.810394287109375,-0.4754791259765625,0.298736572265625
181187,0.830291748046875,-0.433502197265625,0.25836181640625
181188,0.84747314453125,-0.3645782470703125,0.2440338134765625
181189,0.8721923828125,-0.2845001220703125,0.2291717529296875
181190,0.913421630859375,-0.2168121337890625,0.211395263671875
181191,0.9498748779296876,-0.163482666015625,0.19317626953125
181192,0.9987640380859376,-0.124176025390625,0.174652099609375
181193,1.07366943359375,-0.09661865234375,0.16424560546875
181194,1.164779663085938,-0.0854034423828125,0.1626434326171875
181195,1.263824462890625,-0.095916748046875,0.171112060546875
181196,1.36041259765625,-0.1176300048828125,0.1893157958984375
181197,1.424209594726562,-0.137786865234375,0.2035369873046875
181198,1.418197631835938,-0.138824462890625,0.2125091552734375
181199,1.35333251953125,-0.1202850341796875,0.2406005859375
181200,1.280059814453125,-0.1168670654296875,0.2681884765625
181201,1.197280883789062,-0.150482177734375,0.302001953125
181202,1.09637451171875,-0.2088165283203125,0.3557586669921875
181203,0.9922637939453124,-0.2875213623046875,0.4059295654296875
181204,0.88238525390625,-0.381683349609375,0.4373931884765625
181205,0.7848663330078125,-0.4896240234375,0.4308319091796875
181206,0.7250518798828125,-0.5946502685546875,0.4131011962890625
181207,0.710357666015625,-0.68060302734375,0.3954315185546875
181208,0.7247314453125,-0.7359619140625,0.3819122314453125
181209,0.73211669921875,-0.7535400390625,0.3782958984375
181210,0.7233123779296875,-0.745025634765625,0.366302490234375
181211,0.7112579345703125,-0.73046875,0.35614013671875
181212,0.6952056884765625,-0.7162628173828125,0.37457275390625
181213,0.6537933349609375,-0.711639404296875,0.4077911376953125
181214,0.599334716796875,-0.723052978515625,0.4321136474609375
181215,0.5363922119140625,-0.7423553466796875,0.4276885986328125
181216,0.4788360595703125,-0.759063720703125,0.3975677490234375
181217,0.434326171875,-0.7633514404296875,0.3629150390625
181218,0.4063568115234375,-0.75897216796875,0.32281494140625
181219,0.401947021484375,-0.7369537353515625,0.2751617431640625
181220,0.401153564453125,-0.7069244384765625,0.2298736572265625
181221,0.394775390625,-0.67108154296875,0.2081298828125
181222,0.404998779296875,-0.6346588134765625,0.176849365234375
181223,0.441162109375,-0.5981903076171875,0.15618896484375
181224,0.4921722412109375,-0.5718231201171875,0.176971435546875
181225,0.543121337890625,-0.5626678466796875,0.2099151611328125
181226,0.5846405029296875,-0.560089111328125,0.2568206787109375
181227,0.6091766357421875,-0.5649871826171875,0.3235931396484375
181228,0.6376190185546875,-0.58331298828125,0.39288330078125
181229,0.675537109375,-0.614227294921875,0.460540771484375
181230,0.704742431640625,-0.64862060546875,0.52276611328125
181231,0.724700927734375,-0.6872100830078125,0.5775909423828125
181232,0.740509033203125,-0.748382568359375,0.617431640625
181233,0.7418365478515625,-0.83050537109375,0.6488189697265625
181234,0.71417236328125,-0.8996124267578125,0.6692047119140625
181235,0.6385955810546875,-0.9315185546875,0.65771484375
181236,0.52191162109375,-0.919921875,0.5996246337890625
181237,0.3791656494140625,-0.880706787109375,0.5186004638671875
181238,0.2546234130859375,-0.84747314453125,0.4420318603515625
181239,0.1906585693359375,-0.8365020751953125,0.397186279296875
181240,0.189971923828125,-0.8295135498046875,0.38372802734375
181241,0.2294464111328125,-0.81402587890625,0.397064208984375
181242,0.302215576171875,-0.7889556884765625,0.4357452392578125
181243,0.4046783447265625,-0.759979248046875,0.487579345703125
181244,0.527435302734375,-0.735992431640625,0.529571533203125
181245,0.653076171875,-0.716827392578125,0.570343017578125
181246,0.784881591796875,-0.69915771484375,0.5865478515625
181247,0.91650390625,-0.6713409423828125,0.5695037841796875
181248,1.041976928710938,-0.627227783203125,0.5573883056640625
181249,1.126571655273438,-0.57586669921875,0.5539398193359375
181250,1.129898071289062,-0.5057220458984375,0.5401611328125
181251,1.070098876953125,-0.422210693359375,0.5086822509765625
181252,1.016952514648438,-0.323211669921875,0.4579620361328125
181253,0.992950439453125,-0.2136688232421875,0.42437744140625
181254,0.97509765625,-0.111724853515625,0.4127044677734375
181255,0.979156494140625,-0.0543975830078125,0.3913116455078125
181256,0.9997406005859376,-0.0355072021484375,0.3606719970703125
181257,1.047775268554688,-0.0257110595703125,0.3332061767578125
181258,1.119384765625,-0.02435302734375,0.3128204345703125
181259,1.19512939453125,-0.041473388671875,0.28375244140625
181260,1.244781494140625,-0.0748138427734375,0.2461700439453125
181261,1.257308959960938,-0.1156768798828125,0.2230072021484375
181262,1.242660522460938,-0.1498870849609375,0.2069854736328125
181263,1.214630126953125,-0.18206787109375,0.2009735107421875
181264,1.187469482421875,-0.23236083984375,0.210205078125
181265,1.163055419921875,-0.30596923828125,0.2303009033203125
181266,1.14569091796875,-0.388427734375,0.26226806640625
181267,1.14068603515625,-0.4625396728515625,0.29718017578125
181268,1.1336669921875,-0.5111541748046875,0.3258209228515625
181269,1.106582641601562,-0.5223846435546875,0.3494720458984375
181270,1.045272827148438,-0.5060272216796875,0.3679962158203125
181271,0.96197509765625,-0.4886474609375,0.376495361328125
181272,0.8499908447265625,-0.4944915771484375,0.3768768310546875
181273,0.7281036376953125,-0.513946533203125,0.381195068359375
181274,0.62396240234375,-0.5268402099609375,0.390380859375
181275,0.533355712890625,-0.5308837890625,0.3931427001953125
181276,0.464813232421875,-0.527587890625,0.389251708984375
181277,0.4134674072265625,-0.5135040283203125,0.3817291259765625
181278,0.3902587890625,-0.4914398193359375,0.36956787109375
181279,0.372161865234375,-0.475006103515625,0.3679962158203125
181280,0.3499298095703125,-0.4588775634765625,0.3807220458984375
181281,0.3260650634765625,-0.4411163330078125,0.4012908935546875
181282,0.3028106689453125,-0.4178009033203125,0.433837890625
181283,0.305694580078125,-0.396087646484375,0.4869384765625
181284,0.3206939697265625,-0.36865234375,0.5414886474609375
181285,0.3468475341796875,-0.3805084228515625,0.55230712890625
181286,0.4105224609375,-0.4256744384765625,0.5114288330078125
181287,0.469024658203125,-0.4614105224609375,0.491790771484375
181288,0.4636077880859375,-0.4965362548828125,0.519256591796875
181289,0.3785247802734375,-0.563995361328125,0.564544677734375
181290,0.259307861328125,-0.652587890625,0.5815277099609375
181291,0.1712493896484375,-0.6976165771484375,0.5481719970703125
181292,0.121673583984375,-0.7129058837890625,0.491943359375
181293,0.113250732421875,-0.729034423828125,0.4454193115234375
181294,0.1379547119140625,-0.7580413818359375,0.4082183837890625
181295,0.19781494140625,-0.7783203125,0.3818359375
181296,0.2940521240234375,-0.7880706787109375,0.3696746826171875
181297,0.427337646484375,-0.7946014404296875,0.378265380859375
181298,0.57672119140625,-0.7980499267578125,0.409454345703125
181299,0.69830322265625,-0.8052520751953125,0.4731292724609375
181300,0.7519073486328125,-0.819549560546875,0.5447235107421875
181301,0.72784423828125,-0.836273193359375,0.556121826171875
181302,0.6593475341796875,-0.8419647216796875,0.538421630859375
181303,0.59381103515625,-0.8294677734375,0.5262908935546875
181304,0.5517730712890625,-0.7972412109375,0.5480499267578125
181305,0.532379150390625,-0.76580810546875,0.56390380859375
181306,0.5331573486328125,-0.745758056640625,0.5656585693359375
181307,0.54705810546875,-0.7364654541015625,0.55145263671875
181308,0.587554931640625,-0.7265625,0.520355224609375
181309,0.661224365234375,-0.7130889892578125,0.500335693359375
181310,0.74859619140625,-0.6922607421875,0.48193359375
181311,0.825958251953125,-0.6449432373046875,0.461334228515625
181312,0.8749542236328125,-0.5709991455078125,0.4510955810546875
181313,0.8939971923828125,-0.4975738525390625,0.4502716064453125
181314,0.8869171142578125,-0.4252166748046875,0.4512176513671875
181315,0.878875732421875,-0.348876953125,0.42333984375
181316,0.8896026611328125,-0.286865234375,0.367950439453125
181317,0.893707275390625,-0.2446441650390625,0.323272705078125
181318,0.9154815673828124,-0.2094268798828125,0.3011627197265625
181319,0.9897918701171876,-0.1810302734375,0.2871856689453125
181320,1.096878051757812,-0.15185546875,0.282562255859375
181321,1.208251953125,-0.131011962890625,0.269439697265625
181322,1.29718017578125,-0.125,0.2496185302734375
181323,1.380081176757812,-0.1203460693359375,0.229095458984375
181324,1.428863525390625,-0.1186370849609375,0.21905517578125
181325,1.423049926757812,-0.1105499267578125,0.2365875244140625
181326,1.35693359375,-0.0956268310546875,0.291229248046875
181327,1.271759033203125,-0.0894927978515625,0.3566741943359375
181328,1.183059692382812,-0.1195220947265625,0.4060821533203125
181329,1.0794677734375,-0.1847991943359375,0.4456939697265625
181330,0.967071533203125,-0.2592315673828125,0.4753570556640625
181331,0.87322998046875,-0.327301025390625,0.4927825927734375
181332,0.803009033203125,-0.3808135986328125,0.496795654296875
181333,0.7464599609375,-0.42303466796875,0.4710845947265625
181334,0.7025909423828125,-0.463134765625,0.4381103515625
181335,0.64971923828125,-0.4950714111328125,0.4150848388671875
181336,0.596923828125,-0.51593017578125,0.382537841796875
181337,0.5621490478515625,-0.5334014892578125,0.349639892578125
181338,0.5422821044921875,-0.5471954345703125,0.327301025390625
181339,0.53216552734375,-0.5484466552734375,0.305572509765625
181340,0.5270843505859375,-0.543487548828125,0.2942047119140625
181341,0.5152587890625,-0.5383758544921875,0.2893524169921875
181342,0.517791748046875,-0.5438995361328125,0.286590576171875
181343,0.530792236328125,-0.5572509765625,0.2845001220703125
181344,0.5585174560546875,-0.565032958984375,0.279632568359375
181345,0.5872344970703125,-0.5718841552734375,0.255889892578125
181346,0.608489990234375,-0.5612640380859375,0.2183685302734375
181347,0.6196441650390625,-0.54150390625,0.17236328125
181348,0.6072540283203125,-0.53564453125,0.1331634521484375
181349,0.579376220703125,-0.5439605712890625,0.1212158203125
181350,0.551483154296875,-0.5632476806640625,0.15399169921875
181351,0.54022216796875,-0.590240478515625,0.2258148193359375
181352,0.55908203125,-0.6259765625,0.3359222412109375
181353,0.599273681640625,-0.6700286865234375,0.4558563232421875
181354,0.6555938720703125,-0.71826171875,0.5566864013671875
181355,0.701995849609375,-0.779693603515625,0.6473541259765625
181356,0.736175537109375,-0.869598388671875,0.6831512451171875
181357,0.7563018798828125,-0.9689178466796876,0.6800689697265625
181358,0.73876953125,-1.060165405273438,0.694000244140625
181359,0.6840362548828125,-1.124313354492188,0.726043701171875
181360,0.5798797607421875,-1.130630493164062,0.7548065185546875
181361,0.420196533203125,-1.063949584960938,0.765350341796875
181362,0.2735595703125,-0.949920654296875,0.7069244384765625
181363,0.17266845703125,-0.8771820068359375,0.5970458984375
181364,0.1344146728515625,-0.8273773193359375,0.4971771240234375
181365,0.1424560546875,-0.7855682373046875,0.4467926025390625
181366,0.1812286376953125,-0.746551513671875,0.4417572021484375
181367,0.2570648193359375,-0.70562744140625,0.4545440673828125
181368,0.37261962890625,-0.670166015625,0.465576171875
181369,0.55633544921875,-0.63330078125,0.4764556884765625
181370,0.786285400390625,-0.59942626953125,0.476043701171875
181371,0.993988037109375,-0.564208984375,0.4681854248046875
181372,1.12335205078125,-0.5101470947265625,0.4501495361328125
181373,1.165603637695312,-0.4495697021484375,0.3910369873046875
181374,1.138320922851562,-0.3824462890625,0.3189239501953125
181375,1.077392578125,-0.3023223876953125,0.298370361328125
181376,1.013397216796875,-0.218109130859375,0.31524658203125
181377,0.9611053466796876,-0.1418609619140625,0.32708740234375
181378,0.890655517578125,-0.0680084228515625,0.3482208251953125
181379,0.8605194091796875,0.0041351318359375,0.4027557373046875
181380,0.8986358642578125,0.050689697265625,0.40716552734375
181381,1.01898193359375,0.052276611328125,0.3450469970703125
181382,1.2347412109375,0.0041351318359375,0.2864837646484375
181383,1.470596313476562,-0.07281494140625,0.2596893310546875
181384,1.595947265625,-0.1483306884765625,0.2442779541015625
181385,1.569259643554688,-0.2008819580078125,0.24615478515625
181386,1.466598510742188,-0.2478179931640625,0.247772216796875
181387,1.357666015625,-0.3170166015625,0.233978271484375
181388,1.263839721679688,-0.3942108154296875,0.2366790771484375
181389,1.203689575195312,-0.47216796875,0.2450103759765625
181390,1.161209106445312,-0.5532073974609375,0.241180419921875
181391,1.111404418945312,-0.6346893310546875,0.2579498291015625
181392,1.040634155273438,-0.70623779296875,0.2983245849609375
181393,0.959136962890625,-0.741424560546875,0.340301513671875
181394,0.868133544921875,-0.714508056640625,0.3798675537109375
181395,0.7668609619140625,-0.635711669921875,0.395782470703125
181396,0.679443359375,-0.560394287109375,0.3983917236328125
181397,0.6196746826171875,-0.53173828125,0.4054107666015625
181398,0.5765838623046875,-0.547698974609375,0.425689697265625
181399,0.5304718017578125,-0.5628814697265625,0.4387969970703125
181400,0.4934539794921875,-0.545196533203125,0.436187744140625
181401,0.460723876953125,-0.5143890380859375,0.4268341064453125
181402,0.4203033447265625,-0.4833526611328125,0.4271392822265625
181403,0.3932342529296875,-0.4487762451171875,0.434356689453125
181404,0.3828887939453125,-0.4274444580078125,0.4451141357421875
181405,0.38690185546875,-0.4275054931640625,0.4661102294921875
181406,0.311309814453125,-0.46514892578125,0.5215911865234375
181407,0.1713714599609375,-0.5085601806640625,0.57696533203125
181408,0.156646728515625,-0.4560089111328125,0.590972900390625
181409,0.20196533203125,-0.42364501953125,0.596923828125
181410,0.1889495849609375,-0.4626007080078125,0.6062774658203125
181411,0.20526123046875,-0.51947021484375,0.5771484375
181412,0.2365875244140625,-0.5536956787109375,0.5102996826171875
181413,0.2766571044921875,-0.546661376953125,0.480987548828125
181414,0.34197998046875,-0.5285491943359375,0.5126800537109375
181415,0.3883056640625,-0.5506134033203125,0.545135498046875
181416,0.3982696533203125,-0.6009063720703125,0.5493316650390625
181417,0.37744140625,-0.657012939453125,0.558074951171875
181418,0.3450469970703125,-0.7118072509765625,0.5152435302734375
181419,0.35638427734375,-0.76617431640625,0.43585205078125
181420,0.46966552734375,-0.8251190185546875,0.4141387939453125
181421,0.652984619140625,-0.8665618896484375,0.4617156982421875
181422,0.8100128173828125,-0.8939208984375,0.5043182373046875
181423,0.9008636474609376,-0.910797119140625,0.5195159912109375
181424,0.9356231689453124,-0.908416748046875,0.5425567626953125
181425,0.9054412841796876,-0.8787841796875,0.5536041259765625
181426,0.81085205078125,-0.813385009765625,0.5476837158203125
181427,0.7098388671875,-0.7324981689453125,0.5292510986328125
181428,0.621429443359375,-0.6888885498046875,0.4930572509765625
181429,0.53167724609375,-0.6724090576171875,0.4601287841796875
181430,0.4527435302734375,-0.647674560546875,0.4397430419921875
181431,0.3939208984375,-0.6120758056640625,0.4156341552734375
181432,0.3693695068359375,-0.570159912109375,0.3902435302734375
181433,0.3896026611328125,-0.5225982666015625,0.3796234130859375
181434,0.436279296875,-0.4946441650390625,0.369720458984375
181435,0.4832305908203125,-0.4938812255859375,0.354736328125
181436,0.5288543701171875,-0.4925537109375,0.3609771728515625
181437,0.579437255859375,-0.4918670654296875,0.3805694580078125
181438,0.6329345703125,-0.4930419921875,0.40576171875
181439,0.6866607666015625,-0.489837646484375,0.4226531982421875
181440,0.7442169189453125,-0.478759765625,0.4058380126953125
181441,0.79595947265625,-0.4572601318359375,0.375335693359375
181442,0.830413818359375,-0.4311370849609375,0.34344482421875
181443,0.859588623046875,-0.3993072509765625,0.3119659423828125
181444,0.8903350830078125,-0.360931396484375,0.2855224609375
181445,0.914398193359375,-0.3190460205078125,0.26763916015625
181446,0.9531097412109376,-0.2794189453125,0.262481689453125
181447,1.019851684570312,-0.2475738525390625,0.2795867919921875
181448,1.107315063476562,-0.222808837890625,0.305328369140625
181449,1.198211669921875,-0.2107696533203125,0.328125
181450,1.278793334960938,-0.2062835693359375,0.3354949951171875
181451,1.313232421875,-0.2050018310546875,0.3463592529296875
181452,1.31182861328125,-0.1959381103515625,0.35345458984375
181453,1.295761108398438,-0.182952880859375,0.35491943359375
181454,1.257705688476562,-0.1802825927734375,0.360443115234375
181455,1.201461791992188,-0.1988525390625,0.3765411376953125
181456,1.133224487304688,-0.2401885986328125,0.4035186767578125
181457,1.07275390625,-0.304107666015625,0.4329376220703125
181458,1.024398803710938,-0.3796234130859375,0.459320068359375
181459,0.955780029296875,-0.448638916015625,0.4668731689453125
181460,0.879486083984375,-0.493896484375,0.4463043212890625
181461,0.808013916015625,-0.511199951171875,0.4038543701171875
181462,0.7506103515625,-0.5040283203125,0.382415771484375
181463,0.6717071533203125,-0.5041046142578125,0.364837646484375
181464,0.618133544921875,-0.5033416748046875,0.34228515625
181465,0.60211181640625,-0.4999237060546875,0.3331146240234375
181466,0.574981689453125,-0.5169830322265625,0.3221435546875
181467,0.5506439208984375,-0.5537109375,0.3287506103515625
181468,0.548126220703125,-0.5848541259765625,0.3386077880859375
181469,0.5531463623046875,-0.60699462890625,0.330596923828125
181470,0.5597381591796875,-0.623504638671875,0.3110809326171875
181471,0.5623931884765625,-0.632354736328125,0.2850341796875
181472,0.5551300048828125,-0.635467529296875,0.254913330078125
181473,0.5460968017578125,-0.6274871826171875,0.2360076904296875
181474,0.5341644287109375,-0.615814208984375,0.2308349609375
181475,0.52734375,-0.617889404296875,0.247894287109375
181476,0.5416259765625,-0.637603759765625,0.2584228515625
181477,0.5754547119140625,-0.66790771484375,0.2777557373046875
181478,0.6050567626953125,-0.701385498046875,0.3336181640625
181479,0.63226318359375,-0.7342529296875,0.4317169189453125
181480,0.63946533203125,-0.7694549560546875,0.551177978515625
181481,0.6258544921875,-0.8187408447265625,0.6339569091796875
181482,0.6063690185546875,-0.889068603515625,0.6718902587890625
181483,0.5913848876953125,-0.978546142578125,0.725799560546875
181484,0.5753173828125,-1.068649291992188,0.7890777587890625
181485,0.540618896484375,-1.134994506835938,0.83477783203125
181486,0.448272705078125,-1.1444091796875,0.8329315185546875
181487,0.322662353515625,-1.07623291015625,0.777191162109375
181488,0.2138671875,-0.9595184326171876,0.695953369140625
181489,0.1461639404296875,-0.8647308349609375,0.622467041015625
181490,0.1158599853515625,-0.8102569580078125,0.5417938232421875
181491,0.112823486328125,-0.762237548828125,0.4911651611328125
181492,0.15435791015625,-0.725341796875,0.474639892578125
181493,0.2412567138671875,-0.701568603515625,0.4823150634765625
181494,0.3709716796875,-0.67828369140625,0.4882965087890625
181495,0.5334625244140625,-0.6472320556640625,0.486968994140625
181496,0.7030487060546875,-0.6096038818359375,0.4886016845703125
181497,0.8426971435546875,-0.57427978515625,0.4683380126953125
181498,0.9210662841796876,-0.540496826171875,0.4157257080078125
181499,0.94879150390625,-0.5010528564453125,0.369415283203125
181500,0.973297119140625,-0.4557037353515625,0.3369140625
181501,1.003021240234375,-0.3993682861328125,0.32879638671875
181502,1.042327880859375,-0.3284454345703125,0.32489013671875
181503,1.070068359375,-0.2607879638671875,0.3218536376953125
181504,1.076980590820312,-0.2048492431640625,0.318328857421875
181505,1.074798583984375,-0.145477294921875,0.3137054443359375
181506,1.065078735351562,-0.075653076171875,0.312347412109375
181507,1.041976928710938,-0.0181884765625,0.3152618408203125
181508,1.023635864257812,0.020050048828125,0.313629150390625
181509,1.050018310546875,0.0404052734375,0.30755615234375
181510,1.136215209960938,0.0377655029296875,0.30120849609375
181511,1.24237060546875,0.007354736328125,0.3116302490234375
181512,1.332504272460938,-0.040191650390625,0.325927734375
181513,1.353240966796875,-0.0923919677734375,0.3316497802734375
181514,1.311737060546875,-0.14605712890625,0.3526611328125
181515,1.243194580078125,-0.218231201171875,0.376708984375
181516,1.179962158203125,-0.300811767578125,0.3828887939453125
181517,1.132522583007812,-0.3756103515625,0.3808135986328125
181518,1.108978271484375,-0.437896728515625,0.3653106689453125
181519,1.099853515625,-0.4822998046875,0.33441162109375
181520,1.077438354492188,-0.4998321533203125,0.3091583251953125
181521,1.034225463867188,-0.5025482177734375,0.297271728515625
181522,0.9700927734375,-0.4962158203125,0.3021240234375
181523,0.8849639892578125,-0.47802734375,0.320526123046875
181524,0.793792724609375,-0.4568634033203125,0.346588134765625
181525,0.712066650390625,-0.44720458984375,0.3801727294921875
181526,0.636383056640625,-0.4565582275390625,0.409759521484375
181527,0.5679779052734375,-0.476348876953125,0.4387359619140625
181528,0.4866485595703125,-0.4965057373046875,0.4639739990234375
181529,0.4487152099609375,-0.4905548095703125,0.4703216552734375
181530,0.4626312255859375,-0.4589080810546875,0.4422760009765625
181531,0.4904937744140625,-0.447723388671875,0.42156982421875
181532,0.5342864990234375,-0.4438018798828125,0.44281005859375
181533,0.5278472900390625,-0.44915771484375,0.478240966796875
181534,0.4908905029296875,-0.4624786376953125,0.4730987548828125
181535,0.4559173583984375,-0.4880218505859375,0.4756011962890625
181536,0.4006195068359375,-0.532562255859375,0.51416015625
181537,0.3497314453125,-0.5778350830078125,0.54669189453125
181538,0.3191986083984375,-0.618499755859375,0.5611114501953125
181539,0.2912750244140625,-0.65350341796875,0.547760009765625
181540,0.2537384033203125,-0.685089111328125,0.5137939453125
181541,0.2287139892578125,-0.7159271240234375,0.5057525634765625
181542,0.2329864501953125,-0.7521514892578125,0.50543212890625
181543,0.264862060546875,-0.796722412109375,0.50787353515625
181544,0.3131866455078125,-0.8422393798828125,0.5170135498046875
181545,0.37847900390625,-0.8732147216796875,0.52508544921875
181546,0.4469146728515625,-0.8884429931640625,0.53076171875
181547,0.5143890380859375,-0.8986358642578125,0.5178680419921875
181548,0.5820770263671875,-0.8999481201171875,0.5108184814453125
181549,0.6422882080078125,-0.8951568603515625,0.526214599609375
181550,0.6776885986328125,-0.8730316162109375,0.5482025146484375
181551,0.6815948486328125,-0.814605712890625,0.5496368408203125
181552,0.661041259765625,-0.7320404052734375,0.518341064453125
181553,0.6089935302734375,-0.669219970703125,0.4699859619140625
181554,0.556610107421875,-0.622283935546875,0.43609619140625
181555,0.5245513916015625,-0.5830535888671875,0.4173583984375
181556,0.5123138427734375,-0.5489654541015625,0.4080963134765625
181557,0.5156707763671875,-0.5211334228515625,0.407623291015625
181558,0.525054931640625,-0.5004119873046875,0.410736083984375
181559,0.5407867431640625,-0.4921417236328125,0.4208221435546875
181560,0.5730438232421875,-0.49578857421875,0.42962646484375
181561,0.6166229248046875,-0.498199462890625,0.4264373779296875
181562,0.6619415283203125,-0.4886322021484375,0.4195404052734375
181563,0.69830322265625,-0.4776458740234375,0.42864990234375
181564,0.73236083984375,-0.4680328369140625,0.4514007568359375
181565,0.76934814453125,-0.449615478515625,0.4735565185546875
181566,0.8032989501953125,-0.42401123046875,0.474365234375
181567,0.832550048828125,-0.3941650390625,0.4546966552734375
181568,0.856292724609375,-0.3716888427734375,0.4118194580078125
181569,0.86273193359375,-0.3551177978515625,0.36456298828125
181570,0.86334228515625,-0.341644287109375,0.3260345458984375
181571,0.8855133056640625,-0.3240509033203125,0.3054046630859375
181572,0.9297332763671876,-0.29571533203125,0.2990875244140625
181573,1.006423950195312,-0.2621612548828125,0.289276123046875
181574,1.103973388671875,-0.2328643798828125,0.297698974609375
181575,1.209014892578125,-0.2177886962890625,0.3206787109375
181576,1.294204711914062,-0.21337890625,0.3447723388671875
181577,1.3414306640625,-0.2018585205078125,0.352996826171875
181578,1.357452392578125,-0.1834716796875,0.347320556640625
181579,1.325531005859375,-0.1712188720703125,0.3758087158203125
181580,1.240875244140625,-0.174896240234375,0.4254913330078125
181581,1.121444702148438,-0.207855224609375,0.4559173583984375
181582,0.9952545166015624,-0.260528564453125,0.451751708984375
181583,0.87249755859375,-0.3184661865234375,0.43560791015625
181584,0.769989013671875,-0.380126953125,0.4172210693359375
181585,0.69769287109375,-0.44061279296875,0.4001312255859375
181586,0.6579437255859375,-0.4982757568359375,0.377593994140625
181587,0.6435699462890625,-0.53985595703125,0.360076904296875
181588,0.6533966064453125,-0.5561370849609375,0.3592071533203125
181589,0.69329833984375,-0.562255859375,0.360260009765625
181590,0.7320556640625,-0.5650787353515625,0.3619537353515625
181591,0.7584381103515625,-0.5566864013671875,0.35589599609375
181592,0.7551422119140625,-0.543548583984375,0.354339599609375
181593,0.726348876953125,-0.5519866943359375,0.3504180908203125
181594,0.6804962158203125,-0.5791168212890625,0.3476409912109375
181595,0.6220245361328125,-0.613006591796875,0.34271240234375
181596,0.531036376953125,-0.644195556640625,0.3330841064453125
181597,0.417724609375,-0.6653594970703125,0.3170013427734375
181598,0.3139495849609375,-0.669647216796875,0.3012237548828125
181599,0.2645721435546875,-0.65362548828125,0.2894439697265625
181600,0.272613525390625,-0.6210784912109375,0.27734375
181601,0.3260498046875,-0.5944061279296875,0.2846832275390625
181602,0.411773681640625,-0.5867767333984375,0.29296875
181603,0.502044677734375,-0.5966949462890625,0.2860260009765625
181604,0.568572998046875,-0.63360595703125,0.285797119140625
181605,0.610443115234375,-0.6693115234375,0.3170166015625
181606,0.64825439453125,-0.68890380859375,0.3829498291015625
181607,0.6858367919921875,-0.699493408203125,0.4632720947265625
181608,0.7205810546875,-0.6982421875,0.5381317138671875
181609,0.755157470703125,-0.710968017578125,0.617950439453125
181610,0.783203125,-0.749298095703125,0.6902618408203125
181611,0.780242919921875,-0.78912353515625,0.733184814453125
181612,0.7480010986328125,-0.814178466796875,0.743194580078125
181613,0.686004638671875,-0.812652587890625,0.6987152099609375
181614,0.6150665283203125,-0.788055419921875,0.6197967529296875
181615,0.5502777099609375,-0.7579193115234375,0.5632171630859375
181616,0.4850311279296875,-0.7451019287109375,0.5166473388671875
181617,0.4232177734375,-0.7333221435546875,0.4950103759765625
181618,0.374603271484375,-0.713836669921875,0.480255126953125
181619,0.325592041015625,-0.680084228515625,0.4782562255859375
181620,0.27423095703125,-0.6505889892578125,0.4988861083984375
181621,0.2600250244140625,-0.637359619140625,0.492767333984375
181622,0.30645751953125,-0.6424560546875,0.46575927734375
181623,0.386962890625,-0.6643829345703125,0.464447021484375
181624,0.49139404296875,-0.6818695068359375,0.484527587890625
181625,0.630584716796875,-0.6941986083984375,0.5060882568359375
181626,0.78466796875,-0.7069091796875,0.52557373046875
181627,0.9197235107421876,-0.6983184814453125,0.539459228515625
181628,1.0035400390625,-0.65966796875,0.539520263671875
181629,1.017608642578125,-0.595611572265625,0.5243682861328125
181630,0.9805145263671876,-0.5144500732421875,0.5115966796875
181631,0.940521240234375,-0.4249725341796875,0.49578857421875
181632,0.90838623046875,-0.3415069580078125,0.483978271484375
181633,0.8862457275390625,-0.2652130126953125,0.4862213134765625
181634,0.904052734375,-0.2094879150390625,0.4986572265625
181635,0.9745025634765624,-0.1683349609375,0.497802734375
181636,1.081649780273438,-0.13623046875,0.479339599609375
181637,1.228546142578125,-0.1232147216796875,0.437896728515625
181638,1.377304077148438,-0.12774658203125,0.4046478271484375
181639,1.478683471679688,-0.14849853515625,0.3482513427734375
181640,1.460494995117188,-0.179351806640625,0.291229248046875
181641,1.338653564453125,-0.21209716796875,0.2716064453125
181642,1.200790405273438,-0.2403717041015625,0.25714111328125
181643,1.086807250976562,-0.274688720703125,0.235626220703125
181644,0.9976654052734376,-0.3084716796875,0.21807861328125
181645,0.95941162109375,-0.3368377685546875,0.2021636962890625
181646,0.95074462890625,-0.3486785888671875,0.1907806396484375
181647,0.96038818359375,-0.3477325439453125,0.2003021240234375
181648,0.98077392578125,-0.34442138671875,0.2213134765625
181649,0.983154296875,-0.3288421630859375,0.2518768310546875
181650,0.9503631591796876,-0.3032684326171875,0.2903594970703125
181651,0.9003448486328125,-0.2853546142578125,0.3349456787109375
181652,0.848419189453125,-0.28961181640625,0.3689117431640625
181653,0.79193115234375,-0.3158721923828125,0.380645751953125
181654,0.7282562255859375,-0.3507537841796875,0.38134765625
181655,0.6626129150390625,-0.385284423828125,0.3814697265625
181656,0.5959930419921875,-0.41558837890625,0.375274658203125
181657,0.542022705078125,-0.4344024658203125,0.37237548828125
181658,0.50164794921875,-0.44647216796875,0.3744964599609375
181659,0.47735595703125,-0.4557952880859375,0.3825836181640625
181660,0.45916748046875,-0.4687652587890625,0.398834228515625
181661,0.4333953857421875,-0.48602294921875,0.4173736572265625
181662,0.405792236328125,-0.5126800537109375,0.43597412109375
181663,0.3876495361328125,-0.5475616455078125,0.453125
181664,0.366302490234375,-0.582275390625,0.480743408203125
181665,0.3399810791015625,-0.6234130859375,0.500030517578125
181666,0.3287811279296875,-0.6537017822265625,0.4954986572265625
181667,0.3131103515625,-0.699249267578125,0.4865570068359375
181668,0.2876739501953125,-0.7476043701171875,0.483978271484375
181669,0.2786865234375,-0.783447265625,0.4820556640625
181670,0.2848968505859375,-0.8390655517578125,0.5071258544921875
181671,0.3148956298828125,-0.87835693359375,0.548736572265625
181672,0.336212158203125,-0.922760009765625,0.5845489501953125
181673,0.368804931640625,-0.984466552734375,0.617919921875
181674,0.4315643310546875,-1.04150390625,0.6433258056640625
181675,0.502044677734375,-1.063796997070312,0.68096923828125
181676,0.552734375,-1.049880981445312,0.7164764404296875
181677,0.564422607421875,-0.989959716796875,0.7165679931640625
181678,0.543731689453125,-0.8720550537109375,0.665435791015625
181679,0.512298583984375,-0.7634735107421875,0.5777130126953125
181680,0.46612548828125,-0.6943206787109375,0.49334716796875
181681,0.4318389892578125,-0.6345977783203125,0.4334564208984375
181682,0.4340057373046875,-0.5822906494140625,0.4013214111328125
181683,0.4633331298828125,-0.537933349609375,0.3925323486328125
181684,0.515533447265625,-0.4992218017578125,0.392669677734375
181685,0.57916259765625,-0.4652557373046875,0.4017181396484375
181686,0.6443023681640625,-0.437469482421875,0.418975830078125
181687,0.708038330078125,-0.4186248779296875,0.4324798583984375
181688,0.759063720703125,-0.4106292724609375,0.4272918701171875
181689,0.799285888671875,-0.4038543701171875,0.414276123046875
181690,0.8307952880859375,-0.3820953369140625,0.4018402099609375
181691,0.8578033447265625,-0.3458251953125,0.392913818359375
181692,0.8872222900390625,-0.3022613525390625,0.3892822265625
181693,0.915924072265625,-0.2640228271484375,0.3857879638671875
181694,0.943603515625,-0.233917236328125,0.3737335205078125
181695,0.9771575927734376,-0.2171783447265625,0.3415374755859375
181696,1.010284423828125,-0.2068939208984375,0.2979583740234375
181697,1.039413452148438,-0.19683837890625,0.2588653564453125
181698,1.06781005859375,-0.180084228515625,0.247711181640625
181699,1.085617065429688,-0.1605987548828125,0.2562408447265625
181700,1.099716186523438,-0.142486572265625,0.2901763916015625
181701,1.11492919921875,-0.12567138671875,0.32489013671875
181702,1.1251220703125,-0.1087493896484375,0.3487701416015625
181703,1.128524780273438,-0.0944976806640625,0.3773956298828125
181704,1.127304077148438,-0.0885467529296875,0.406951904296875
181705,1.109634399414062,-0.095306396484375,0.4337615966796875
181706,1.068099975585938,-0.13409423828125,0.4669952392578125
181707,1.022689819335938,-0.2053985595703125,0.499176025390625
181708,0.97601318359375,-0.2923583984375,0.521026611328125
181709,0.9356536865234376,-0.381805419921875,0.53326416015625
181710,0.9026336669921876,-0.45538330078125,0.540252685546875
181711,0.8652801513671875,-0.5186309814453125,0.5313568115234375
181712,0.8116455078125,-0.565032958984375,0.516326904296875
181713,0.758514404296875,-0.596527099609375,0.4957275390625
181714,0.71624755859375,-0.62078857421875,0.463226318359375
181715,0.680694580078125,-0.64044189453125,0.4371337890625
181716,0.6398162841796875,-0.6576995849609375,0.42364501953125
181717,0.6025390625,-0.6735076904296875,0.418731689453125
181718,0.5809478759765625,-0.6821441650390625,0.4186553955078125
181719,0.5670166015625,-0.6836395263671875,0.39837646484375
181720,0.551361083984375,-0.6742095947265625,0.3988037109375
181721,0.523162841796875,-0.665863037109375,0.4003448486328125
181722,0.4834747314453125,-0.654693603515625,0.38104248046875
181723,0.4389495849609375,-0.6345672607421875,0.3507080078125
181724,0.4007110595703125,-0.6213226318359375,0.31280517578125
181725,0.37384033203125,-0.623046875,0.2666778564453125
181726,0.3807830810546875,-0.635498046875,0.2246246337890625
181727,0.430908203125,-0.6433258056640625,0.195648193359375
181728,0.496856689453125,-0.64202880859375,0.1784515380859375
181729,0.577362060546875,-0.6315155029296875,0.1785430908203125
181730,0.6493682861328125,-0.6195068359375,0.2007904052734375
181731,0.6832275390625,-0.6103057861328125,0.2289276123046875
181732,0.6994781494140625,-0.596466064453125,0.272003173828125
181733,0.6965179443359375,-0.5735931396484375,0.342437744140625
181734,0.6904449462890625,-0.575714111328125,0.4170684814453125
181735,0.703643798828125,-0.6160888671875,0.49029541015625
181736,0.7298736572265625,-0.6847991943359375,0.5550079345703125
181737,0.7545013427734375,-0.7739410400390625,0.6136016845703125
181738,0.776092529296875,-0.862518310546875,0.6430511474609375
181739,0.7676849365234375,-0.9411163330078124,0.64892578125
181740,0.7156219482421875,-0.9843902587890624,0.6382598876953125
181741,0.620269775390625,-0.9701385498046876,0.607818603515625
181742,0.4784088134765625,-0.915618896484375,0.5648193359375
181743,0.33099365234375,-0.8591461181640625,0.5218963623046875
181744,0.2138671875,-0.818572998046875,0.4845428466796875
181745,0.1454620361328125,-0.7979888916015625,0.449310302734375
181746,0.1403656005859375,-0.7922821044921875,0.4277801513671875
181747,0.183563232421875,-0.797637939453125,0.423309326171875
181748,0.270538330078125,-0.8077850341796875,0.4591522216796875
181749,0.38604736328125,-0.821868896484375,0.5091400146484375
181750,0.5071563720703125,-0.8223724365234375,0.5544891357421875
181751,0.6253814697265625,-0.800750732421875,0.598114013671875
181752,0.7531280517578125,-0.7654266357421875,0.6243743896484375
181753,0.8579254150390625,-0.71868896484375,0.6237030029296875
181754,0.9247283935546876,-0.6565704345703125,0.605072021484375
181755,0.972320556640625,-0.58203125,0.5786895751953125
181756,1.02117919921875,-0.4969940185546875,0.516387939453125
181757,1.080551147460938,-0.3974151611328125,0.45849609375
181758,1.11700439453125,-0.304412841796875,0.4230194091796875
181759,1.119003295898438,-0.218414306640625,0.3710784912109375
181760,1.13226318359375,-0.12188720703125,0.299224853515625
181761,1.194229125976562,-0.032989501953125,0.265625
181762,1.2982177734375,0.0341339111328125,0.2999114990234375
181763,1.36846923828125,0.06915283203125,0.3430328369140625
181764,1.35894775390625,0.0723724365234375,0.347442626953125
181765,1.280990600585938,0.045318603515625,0.324188232421875
181766,1.193832397460938,-0.0163116455078125,0.2924957275390625
181767,1.109237670898438,-0.084869384765625,0.285980224609375
181768,1.032379150390625,-0.1288299560546875,0.2912750244140625
181769,0.9720611572265624,-0.17962646484375,0.299560546875
181770,0.9311676025390624,-0.23614501953125,0.3127899169921875
181771,0.913116455078125,-0.2794647216796875,0.3236846923828125
181772,0.9194488525390624,-0.3111572265625,0.3315277099609375
181773,0.928863525390625,-0.3377532958984375,0.337432861328125
181774,0.9290313720703124,-0.3626861572265625,0.348541259765625
181775,0.920745849609375,-0.38787841796875,0.3630523681640625
181776,0.88897705078125,-0.4098052978515625,0.37506103515625
181777,0.8233489990234375,-0.4348907470703125,0.3851318359375
181778,0.7581787109375,-0.4581756591796875,0.3824310302734375
181779,0.704132080078125,-0.4703216552734375,0.3889312744140625
181780,0.6467742919921875,-0.4799041748046875,0.403564453125
181781,0.5907135009765625,-0.497528076171875,0.427154541015625
181782,0.55059814453125,-0.5164031982421875,0.463226318359375
181783,0.538360595703125,-0.5215301513671875,0.48211669921875
181784,0.5430908203125,-0.5033416748046875,0.467254638671875
181785,0.5304107666015625,-0.4891815185546875,0.451202392578125
181786,0.5057830810546875,-0.488067626953125,0.4461212158203125
181787,0.48779296875,-0.492401123046875,0.4581146240234375
181788,0.4626617431640625,-0.5059967041015625,0.4962615966796875
181789,0.415191650390625,-0.528350830078125,0.5377197265625
181790,0.339111328125,-0.5348358154296875,0.5710601806640625
181791,0.24359130859375,-0.53045654296875,0.5919952392578125
181792,0.1490936279296875,-0.5295562744140625,0.58978271484375
181793,0.079925537109375,-0.5369415283203125,0.5653228759765625
181794,0.0464324951171875,-0.557159423828125,0.5454559326171875
181795,0.0482940673828125,-0.592315673828125,0.5260009765625
181796,0.0789947509765625,-0.623199462890625,0.5028839111328125
181797,0.138580322265625,-0.65191650390625,0.4701080322265625
181798,0.214263916015625,-0.6840057373046875,0.4431610107421875
181799,0.2867889404296875,-0.7162933349609375,0.430084228515625
181800,0.3520355224609375,-0.750457763671875,0.420867919921875
181801,0.4163055419921875,-0.7863311767578125,0.4237060546875
181802,0.482757568359375,-0.82196044921875,0.43450927734375
181803,0.5448150634765625,-0.8534088134765625,0.458587646484375
181804,0.596649169921875,-0.8756256103515625,0.4880218505859375
181805,0.6214447021484375,-0.892303466796875,0.5034027099609375
181806,0.6172637939453125,-0.899139404296875,0.5052490234375
181807,0.597015380859375,-0.88958740234375,0.507659912109375
181808,0.5814666748046875,-0.869110107421875,0.516143798828125
181809,0.587738037109375,-0.830535888671875,0.5315704345703125
181810,0.6170196533203125,-0.785186767578125,0.547515869140625
181811,0.6659088134765625,-0.7524871826171875,0.5652618408203125
181812,0.723388671875,-0.7335662841796875,0.582244873046875
181813,0.7823638916015625,-0.7210540771484375,0.588958740234375
181814,0.8496856689453125,-0.7011566162109375,0.5742340087890625
181815,0.919525146484375,-0.6581573486328125,0.5592193603515625
181816,0.937896728515625,-0.618743896484375,0.5673065185546875
181817,0.87896728515625,-0.582550048828125,0.578887939453125
181818,0.816558837890625,-0.5210723876953125,0.5347442626953125
181819,0.7918548583984375,-0.4395599365234375,0.4566192626953125
181820,0.7885284423828125,-0.3652801513671875,0.4031524658203125
181821,0.8151702880859375,-0.3171844482421875,0.3895721435546875
181822,0.8442840576171875,-0.29827880859375,0.3769073486328125
181823,0.8746185302734375,-0.2848968505859375,0.3369903564453125
181824,0.9439544677734376,-0.26312255859375,0.2962646484375
181825,1.047409057617188,-0.243927001953125,0.262969970703125
181826,1.148239135742188,-0.23260498046875,0.23895263671875
181827,1.203842163085938,-0.215576171875,0.2606048583984375
181828,1.246261596679688,-0.192413330078125,0.3204345703125
181829,1.27679443359375,-0.176025390625,0.348968505859375
181830,1.261672973632812,-0.15899658203125,0.3568572998046875
181831,1.213333129882812,-0.1441802978515625,0.379119873046875
181832,1.1617431640625,-0.16339111328125,0.41082763671875
181833,1.100540161132812,-0.2089691162109375,0.447998046875
181834,1.003280639648438,-0.2603302001953125,0.4700164794921875
181835,0.8898162841796875,-0.3345794677734375,0.4599456787109375
181836,0.7791900634765625,-0.4353485107421875,0.4359588623046875
181837,0.6851348876953125,-0.5415191650390625,0.4247283935546875
181838,0.609893798828125,-0.6373443603515625,0.4559173583984375
181839,0.5415191650390625,-0.7064971923828125,0.49951171875
181840,0.494354248046875,-0.7298431396484375,0.5262603759765625
181841,0.4623260498046875,-0.7087860107421875,0.5271148681640625
181842,0.43695068359375,-0.6808319091796875,0.493133544921875
181843,0.4366607666015625,-0.662139892578125,0.449615478515625
181844,0.4613189697265625,-0.6437835693359375,0.4319305419921875
181845,0.4675140380859375,-0.615020751953125,0.43377685546875
181846,0.4327392578125,-0.590057373046875,0.4266510009765625
181847,0.394317626953125,-0.5847320556640625,0.380126953125
181848,0.3705291748046875,-0.59710693359375,0.3060150146484375
181849,0.3720855712890625,-0.6085968017578125,0.24554443359375
181850,0.395111083984375,-0.606292724609375,0.2188720703125
181851,0.41131591796875,-0.5858001708984375,0.2205963134765625
181852,0.41796875,-0.56170654296875,0.22332763671875
181853,0.4303741455078125,-0.5433502197265625,0.230133056640625
181854,0.4494476318359375,-0.5485076904296875,0.2658843994140625
181855,0.471588134765625,-0.5693511962890625,0.31640625
181856,0.514373779296875,-0.6008148193359375,0.358367919921875
181857,0.5832977294921875,-0.6220855712890625,0.3910064697265625
181858,0.64239501953125,-0.6205596923828125,0.441619873046875
181859,0.683013916015625,-0.621368408203125,0.507476806640625
181860,0.7064208984375,-0.6523284912109375,0.5788421630859375
181861,0.709808349609375,-0.7017822265625,0.6331024169921875
181862,0.6996612548828125,-0.7564239501953125,0.6557769775390625
181863,0.678802490234375,-0.8173370361328125,0.6858367919921875
181864,0.657135009765625,-0.8679046630859375,0.718475341796875
181865,0.6240386962890625,-0.8880767822265625,0.7362823486328125
181866,0.5577545166015625,-0.86370849609375,0.744842529296875
181867,0.46160888671875,-0.809783935546875,0.729705810546875
181868,0.3797149658203125,-0.746246337890625,0.684906005859375
181869,0.3383636474609375,-0.6982879638671875,0.6266021728515625
181870,0.331024169921875,-0.6619873046875,0.5883026123046875
181871,0.3649749755859375,-0.641326904296875,0.579986572265625
181872,0.4434051513671875,-0.6334991455078125,0.590057373046875
181873,0.5558319091796875,-0.6255035400390625,0.6096649169921875
181874,0.673980712890625,-0.614898681640625,0.6318817138671875
181875,0.7660675048828125,-0.603118896484375,0.6435546875
181876,0.8324432373046875,-0.5831451416015625,0.63427734375
181877,0.8836212158203125,-0.551422119140625,0.5952911376953125
181878,0.9476318359375,-0.5096893310546875,0.5486907958984375
181879,1.026885986328125,-0.4519195556640625,0.529541015625
181880,1.095901489257812,-0.393585205078125,0.5340728759765625
181881,1.111129760742188,-0.352813720703125,0.52349853515625
181882,1.06634521484375,-0.3297882080078125,0.484619140625
181883,0.9967193603515624,-0.309906005859375,0.42767333984375
181884,0.9308624267578124,-0.2937469482421875,0.3862152099609375
181885,0.8785247802734375,-0.28564453125,0.349212646484375
181886,0.866485595703125,-0.259796142578125,0.3390045166015625
181887,0.9007110595703125,-0.2179718017578125,0.35552978515625
181888,0.9493255615234376,-0.2101593017578125,0.3609771728515625
181889,1.00146484375,-0.21807861328125,0.369720458984375
181890,1.03326416015625,-0.23199462890625,0.373260498046875
181891,1.023086547851562,-0.266754150390625,0.362945556640625
181892,0.9748687744140624,-0.322967529296875,0.346527099609375
181893,0.933929443359375,-0.3753814697265625,0.349395751953125
181894,0.912994384765625,-0.416229248046875,0.352508544921875
181895,0.904998779296875,-0.4496612548828125,0.349884033203125
181896,0.893157958984375,-0.479034423828125,0.3484344482421875
181897,0.8771820068359375,-0.49993896484375,0.3528900146484375
181898,0.861236572265625,-0.517669677734375,0.3804779052734375
181899,0.852630615234375,-0.5417633056640625,0.4001312255859375
181900,0.841949462890625,-0.54705810546875,0.4131622314453125
181901,0.8094940185546875,-0.531646728515625,0.4247589111328125
181902,0.769134521484375,-0.4940338134765625,0.4342193603515625
181903,0.741607666015625,-0.454559326171875,0.443603515625
181904,0.734344482421875,-0.433624267578125,0.4517364501953125
181905,0.744476318359375,-0.421844482421875,0.4541473388671875
181906,0.7561492919921875,-0.41143798828125,0.4459228515625
181907,0.76080322265625,-0.388763427734375,0.4366455078125
181908,0.7545013427734375,-0.3523712158203125,0.4394683837890625
181909,0.7336578369140625,-0.3179931640625,0.45477294921875
181910,0.69793701171875,-0.290191650390625,0.4720001220703125
181911,0.6483154296875,-0.2770233154296875,0.4921722412109375
181912,0.5785064697265625,-0.288360595703125,0.542572021484375
181913,0.4859619140625,-0.3226776123046875,0.584991455078125
181914,0.3833770751953125,-0.379852294921875,0.6015625
181915,0.312652587890625,-0.45892333984375,0.609619140625
181916,0.275909423828125,-0.5384674072265625,0.620635986328125
181917,0.253509521484375,-0.600372314453125,0.634246826171875
181918,0.25128173828125,-0.643585205078125,0.65582275390625
181919,0.26776123046875,-0.6647186279296875,0.685546875
181920,0.2931671142578125,-0.6744232177734375,0.701690673828125
181921,0.310394287109375,-0.683807373046875,0.6978912353515625
181922,0.3262176513671875,-0.6977386474609375,0.6825103759765625
181923,0.364715576171875,-0.7271881103515625,0.65570068359375
181924,0.4343109130859375,-0.779083251953125,0.6286773681640625
181925,0.521453857421875,-0.8444061279296875,0.6195526123046875
181926,0.59796142578125,-0.9005126953125,0.633941650390625
181927,0.6395416259765625,-0.9215850830078124,0.64361572265625
181928,0.643829345703125,-0.89910888671875,0.63677978515625
181929,0.62725830078125,-0.83331298828125,0.611236572265625
181930,0.5980682373046875,-0.750396728515625,0.5680999755859375
181931,0.5593719482421875,-0.6904296875,0.519012451171875
181932,0.50531005859375,-0.654937744140625,0.475830078125
181933,0.4545745849609375,-0.6388702392578125,0.44891357421875
181934,0.4180145263671875,-0.6313018798828125,0.4356231689453125
181935,0.405914306640625,-0.6207733154296875,0.43731689453125
181936,0.4094390869140625,-0.60357666015625,0.449859619140625
181937,0.424041748046875,-0.5785980224609375,0.464935302734375
181938,0.4571685791015625,-0.5481719970703125,0.4965972900390625
