time_idx,accelerometerAccelerationX(G),accelerometerAccelerationY(G),accelerometerAccelerationZ(G)
0,-0.222808837890625,-0.4819183349609375,-0.903961181640625
1,-0.2094573974609375,-0.46966552734375,-0.9147491455078124
2,-0.2057342529296875,-0.4497222900390625,-0.9144287109375
3,-0.2171478271484375,-0.447601318359375,-0.89898681640625
4,-0.2282562255859375,-0.461944580078125,-0.881103515625
5,-0.23577880859375,-0.475067138671875,-0.868377685546875
6,-0.2446441650390625,-0.4821624755859375,-0.8531036376953125
7,-0.2449188232421875,-0.4793853759765625,-0.835968017578125
8,-0.2301483154296875,-0.4744873046875,-0.8282318115234375
9,-0.2115478515625,-0.470947265625,-0.8326568603515625
10,-0.2010040283203125,-0.470001220703125,-0.852447509765625
11,-0.200408935546875,-0.46514892578125,-0.8722076416015625
12,-0.1894073486328125,-0.452606201171875,-0.8932647705078125
13,-0.1670074462890625,-0.439697265625,-0.912994384765625
14,-0.150360107421875,-0.4308013916015625,-0.9184722900390624
15,-0.1411895751953125,-0.4266204833984375,-0.9210052490234376
16,-0.1325836181640625,-0.4254302978515625,-0.923370361328125
17,-0.127593994140625,-0.418731689453125,-0.928070068359375
18,-0.123016357421875,-0.412933349609375,-0.933929443359375
19,-0.1069488525390625,-0.3989715576171875,-0.939178466796875
20,-0.08917236328125,-0.3854827880859375,-0.94354248046875
21,-0.083892822265625,-0.3817291259765625,-0.935638427734375
22,-0.0872344970703125,-0.390899658203125,-0.9262847900390624
23,-0.0961761474609375,-0.4033203125,-0.9212188720703124
24,-0.1085662841796875,-0.4124755859375,-0.9127197265625
25,-0.11358642578125,-0.41552734375,-0.9099273681640624
26,-0.1074676513671875,-0.4110870361328125,-0.9096221923828124
27,-0.0954132080078125,-0.3997955322265625,-0.9084625244140624
28,-0.085540771484375,-0.38848876953125,-0.904541015625
29,-0.075469970703125,-0.3830413818359375,-0.8996734619140625
30,-0.0639495849609375,-0.3791046142578125,-0.8969879150390625
31,-0.052032470703125,-0.3773040771484375,-0.9016571044921876
32,-0.0488433837890625,-0.3801116943359375,-0.9071807861328124
33,-0.062591552734375,-0.381103515625,-0.8995361328125
34,-0.08203125,-0.3911895751953125,-0.8843231201171875
35,-0.095367431640625,-0.40899658203125,-0.871978759765625
36,-0.105987548828125,-0.4246978759765625,-0.8615570068359375
37,-0.1136474609375,-0.4321136474609375,-0.848175048828125
38,-0.119476318359375,-0.4361419677734375,-0.8326263427734375
39,-0.112518310546875,-0.4388427734375,-0.8271484375
40,-0.09844970703125,-0.436065673828125,-0.827728271484375
41,-0.091766357421875,-0.431243896484375,-0.8347625732421875
42,-0.0880126953125,-0.4262542724609375,-0.85064697265625
43,-0.0795745849609375,-0.4187774658203125,-0.8660888671875
44,-0.075531005859375,-0.414276123046875,-0.8703460693359375
45,-0.086578369140625,-0.4200897216796875,-0.8661346435546875
46,-0.099151611328125,-0.434722900390625,-0.8575592041015625
47,-0.1088409423828125,-0.4424285888671875,-0.8553466796875
48,-0.1131744384765625,-0.442596435546875,-0.8619232177734375
49,-0.106170654296875,-0.4489898681640625,-0.8736114501953125
50,-0.095550537109375,-0.453582763671875,-0.897308349609375
51,-0.09075927734375,-0.4440460205078125,-0.9149322509765624
52,-0.0943603515625,-0.4320068359375,-0.92120361328125
53,-0.100616455078125,-0.4281005859375,-0.9220733642578124
54,-0.100372314453125,-0.4367523193359375,-0.912933349609375
55,-0.101409912109375,-0.451934814453125,-0.9004974365234375
56,-0.099456787109375,-0.458892822265625,-0.887542724609375
57,-0.0983734130859375,-0.4593048095703125,-0.88397216796875
58,-0.0953521728515625,-0.45623779296875,-0.89385986328125
59,-0.092376708984375,-0.4533538818359375,-0.9132232666015624
60,-0.0899658203125,-0.4488677978515625,-0.9303436279296876
61,-0.0897674560546875,-0.4455718994140625,-0.9453887939453124
62,-0.10040283203125,-0.4475860595703125,-0.947540283203125
63,-0.107513427734375,-0.4535064697265625,-0.9351959228515624
64,-0.0993499755859375,-0.456512451171875,-0.917633056640625
65,-0.0823211669921875,-0.4531707763671875,-0.901611328125
66,-0.062744140625,-0.4391632080078125,-0.894134521484375
67,-0.0465850830078125,-0.4219818115234375,-0.8919677734375
68,-0.0318756103515625,-0.4088592529296875,-0.8934783935546875
69,-0.0186920166015625,-0.401702880859375,-0.893310546875
70,-0.0181121826171875,-0.3986053466796875,-0.8912200927734375
71,-0.0377655029296875,-0.4029693603515625,-0.8864898681640625
72,-0.069610595703125,-0.417938232421875,-0.877532958984375
73,-0.1087188720703125,-0.442535400390625,-0.8758544921875
74,-0.1393890380859375,-0.464324951171875,-0.8807525634765625
75,-0.146331787109375,-0.471832275390625,-0.888458251953125
76,-0.14080810546875,-0.468780517578125,-0.899810791015625
77,-0.1254425048828125,-0.4526519775390625,-0.911376953125
78,-0.1011962890625,-0.42767333984375,-0.91253662109375
79,-0.077606201171875,-0.407928466796875,-0.9050750732421876
80,-0.0511474609375,-0.3910675048828125,-0.8916473388671875
81,-0.0413665771484375,-0.38604736328125,-0.8721923828125
82,-0.0633087158203125,-0.3963623046875,-0.8583221435546875
83,-0.1073150634765625,-0.4197540283203125,-0.8494110107421875
84,-0.150787353515625,-0.4466094970703125,-0.8483123779296875
85,-0.190460205078125,-0.47454833984375,-0.849578857421875
86,-0.2152099609375,-0.4928436279296875,-0.8536376953125
87,-0.2181243896484375,-0.50054931640625,-0.8610076904296875
88,-0.2073822021484375,-0.5029449462890625,-0.8736724853515625
89,-0.1974945068359375,-0.499237060546875,-0.8755035400390625
90,-0.1887664794921875,-0.4927978515625,-0.863037109375
91,-0.17877197265625,-0.49334716796875,-0.845123291015625
92,-0.16680908203125,-0.4932098388671875,-0.8297882080078125
93,-0.162322998046875,-0.4921722412109375,-0.8286895751953125
94,-0.17041015625,-0.4884796142578125,-0.8421478271484375
95,-0.1810150146484375,-0.4814910888671875,-0.8590850830078125
96,-0.1852874755859375,-0.4823760986328125,-0.8730926513671875
97,-0.1825714111328125,-0.4826812744140625,-0.88238525390625
98,-0.1746368408203125,-0.4801483154296875,-0.900726318359375
99,-0.1636810302734375,-0.4672088623046875,-0.924652099609375
100,-0.147491455078125,-0.4534454345703125,-0.9424896240234376
101,-0.1330413818359375,-0.442413330078125,-0.944671630859375
102,-0.11895751953125,-0.4330596923828125,-0.9344635009765624
103,-0.1007537841796875,-0.423095703125,-0.9256439208984376
104,-0.0888214111328125,-0.416748046875,-0.9148101806640624
105,-0.0844879150390625,-0.4112396240234375,-0.90234375
106,-0.0832061767578125,-0.4083099365234375,-0.8868255615234375
107,-0.07891845703125,-0.4198760986328125,-0.861419677734375
108,-0.0752716064453125,-0.429107666015625,-0.8314666748046875
109,-0.0659027099609375,-0.4311981201171875,-0.8065338134765625
110,-0.041015625,-0.4211273193359375,-0.80072021484375
111,0.0169219970703125,-0.3715362548828125,-0.8193511962890625
112,0.0897064208984375,-0.318023681640625,-0.8826904296875
113,0.1197509765625,-0.2883148193359375,-0.9597930908203124
114,0.109039306640625,-0.2433624267578125,-1.005035400390625
115,0.058013916015625,-0.25067138671875,-1.016616821289062
116,0.006072998046875,-0.28240966796875,-0.9822540283203124
117,-0.0482635498046875,-0.3208770751953125,-0.88800048828125
118,-0.074066162109375,-0.341522216796875,-0.80963134765625
119,-0.063873291015625,-0.3836212158203125,-0.7900390625
120,-0.024261474609375,-0.447509765625,-0.8227691650390625
121,0.0277252197265625,-0.4576263427734375,-0.86016845703125
122,0.1056365966796875,-0.4143524169921875,-0.8921966552734375
123,0.1971282958984375,-0.347900390625,-0.9297943115234376
124,0.268646240234375,-0.2963104248046875,-0.956207275390625
125,0.286376953125,-0.282989501953125,-0.95465087890625
126,0.27374267578125,-0.2973480224609375,-0.9481201171875
127,0.2474822998046875,-0.3205413818359375,-0.9380950927734376
128,0.2230682373046875,-0.350006103515625,-0.9078826904296876
129,0.2132110595703125,-0.384674072265625,-0.867706298828125
130,0.222564697265625,-0.4131011962890625,-0.84429931640625
131,0.30072021484375,-0.3397979736328125,-0.8229827880859375
132,0.3762664794921875,-0.2722015380859375,-0.79315185546875
133,0.3717193603515625,-0.308502197265625,-0.882049560546875
134,0.3284759521484375,-0.3599853515625,-0.9893798828125
135,0.2587738037109375,-0.3936004638671875,-1.029922485351562
136,0.20465087890625,-0.4237060546875,-1.016387939453125
137,0.177154541015625,-0.4438629150390625,-0.94219970703125
138,0.179962158203125,-0.452484130859375,-0.8095245361328125
139,0.182525634765625,-0.4612579345703125,-0.725067138671875
140,0.148223876953125,-0.4556121826171875,-0.6708984375
141,0.1679840087890625,-0.480316162109375,-0.7009735107421875
142,0.2053070068359375,-0.527801513671875,-0.776397705078125
143,0.2375640869140625,-0.57745361328125,-0.835479736328125
144,0.2328948974609375,-0.5914154052734375,-0.8697052001953125
145,0.1449127197265625,-0.5364227294921875,-0.9071044921875
146,0.0988616943359375,-0.475189208984375,-0.9658966064453124
147,0.140838623046875,-0.4625244140625,-1.00384521484375
148,0.17279052734375,-0.4525146484375,-1.008453369140625
149,0.1832427978515625,-0.4344635009765625,-0.993682861328125
150,0.1911773681640625,-0.42620849609375,-0.990478515625
151,0.1972503662109375,-0.422698974609375,-1.001327514648438
152,0.18377685546875,-0.415863037109375,-1.014739990234375
153,0.16259765625,-0.4132080078125,-1.024566650390625
154,0.142974853515625,-0.4193267822265625,-1.01751708984375
155,0.126708984375,-0.427154541015625,-0.994964599609375
156,0.114105224609375,-0.430755615234375,-0.96368408203125
157,0.1132354736328125,-0.43402099609375,-0.9298248291015624
158,0.1173553466796875,-0.435821533203125,-0.8987884521484375
159,0.116241455078125,-0.4375152587890625,-0.8711090087890625
160,0.1134796142578125,-0.43304443359375,-0.85650634765625
161,0.11639404296875,-0.424652099609375,-0.85552978515625
162,0.1251983642578125,-0.4128875732421875,-0.860321044921875
163,0.143096923828125,-0.4044952392578125,-0.8683319091796875
164,0.159576416015625,-0.3988037109375,-0.8813323974609375
165,0.1734161376953125,-0.3858795166015625,-0.8873291015625
166,0.1927642822265625,-0.363616943359375,-0.8889617919921875
167,0.2118072509765625,-0.339111328125,-0.8861236572265625
168,0.217559814453125,-0.326751708984375,-0.865142822265625
169,0.20831298828125,-0.3313751220703125,-0.8220062255859375
170,0.174957275390625,-0.3639068603515625,-0.78070068359375
171,0.1254425048828125,-0.413238525390625,-0.7603302001953125
172,0.088897705078125,-0.4556884765625,-0.768402099609375
173,0.0811767578125,-0.467926025390625,-0.7960968017578125
174,0.128509521484375,-0.39300537109375,-0.7903900146484375
175,0.1353302001953125,-0.3923492431640625,-0.7994232177734375
176,0.1077423095703125,-0.4075927734375,-0.8424224853515625
177,0.1202545166015625,-0.3900146484375,-0.8610382080078125
178,0.144256591796875,-0.3748321533203125,-0.86260986328125
179,0.1138916015625,-0.3720245361328125,-0.874755859375
180,0.082977294921875,-0.3848876953125,-0.8899688720703125
181,0.0599365234375,-0.41204833984375,-0.8696136474609375
182,0.0390625,-0.4547119140625,-0.816131591796875
183,0.0111846923828125,-0.4854736328125,-0.7476348876953125
184,0.004974365234375,-0.501220703125,-0.6801300048828125
185,0.024383544921875,-0.4978485107421875,-0.617156982421875
186,0.0405120849609375,-0.4782562255859375,-0.5583038330078125
187,0.0406036376953125,-0.45513916015625,-0.51318359375
188,0.034576416015625,-0.4463348388671875,-0.4931640625
189,0.0476531982421875,-0.4449310302734375,-0.497802734375
190,0.068359375,-0.4404449462890625,-0.510986328125
191,0.0863800048828125,-0.4287872314453125,-0.5282135009765625
192,0.1187896728515625,-0.4202728271484375,-0.5662689208984375
193,0.15411376953125,-0.416839599609375,-0.6342010498046875
194,0.1676177978515625,-0.4031829833984375,-0.72003173828125
195,0.1666717529296875,-0.3890533447265625,-0.809478759765625
196,0.16748046875,-0.3804168701171875,-0.911376953125
197,0.1756591796875,-0.370086669921875,-1.034896850585938
198,0.174560546875,-0.363189697265625,-1.087249755859375
199,0.1997528076171875,-0.3433074951171875,-1.128021240234375
200,0.2295074462890625,-0.3290557861328125,-1.154510498046875
201,0.2414398193359375,-0.321441650390625,-1.171783447265625
202,0.2267913818359375,-0.3311920166015625,-1.190582275390625
203,0.199615478515625,-0.3509979248046875,-1.1981201171875
204,0.165252685546875,-0.3744964599609375,-1.19915771484375
205,0.1451568603515625,-0.4155120849609375,-1.20050048828125
206,0.137725830078125,-0.4417724609375,-1.202316284179688
207,0.1263885498046875,-0.437042236328125,-1.20672607421875
208,0.1381683349609375,-0.4340362548828125,-1.216018676757812
209,0.1623382568359375,-0.4265289306640625,-1.248306274414062
210,0.185089111328125,-0.3889007568359375,-1.294540405273438
211,0.2000579833984375,-0.352630615234375,-1.335800170898438
212,0.1998443603515625,-0.343170166015625,-1.352188110351562
213,0.182098388671875,-0.346954345703125,-1.333999633789062
214,0.154876708984375,-0.3635101318359375,-1.27978515625
215,0.1219635009765625,-0.3868255615234375,-1.193679809570312
216,0.0955047607421875,-0.4063568115234375,-1.10150146484375
217,0.0816192626953125,-0.41485595703125,-1.019882202148438
218,0.08380126953125,-0.4112548828125,-0.9521026611328124
219,0.086151123046875,-0.4123992919921875,-0.8993988037109375
220,0.0910491943359375,-0.4102020263671875,-0.869354248046875
221,0.0943145751953125,-0.3961334228515625,-0.8494720458984375
222,0.0930938720703125,-0.3851776123046875,-0.843414306640625
223,0.0994415283203125,-0.381195068359375,-0.8434600830078125
224,0.1200103759765625,-0.3738861083984375,-0.846710205078125
225,0.1380157470703125,-0.359405517578125,-0.84796142578125
226,0.1511383056640625,-0.344451904296875,-0.843536376953125
227,0.158935546875,-0.3392486572265625,-0.84185791015625
228,0.1618194580078125,-0.34381103515625,-0.8545379638671875
229,0.156585693359375,-0.3519439697265625,-0.8746185302734375
230,0.149444580078125,-0.35614013671875,-0.8935546875
231,0.148651123046875,-0.3547210693359375,-0.9066619873046876
232,0.145782470703125,-0.353179931640625,-0.9173583984375
233,0.1427154541015625,-0.346282958984375,-0.92059326171875
234,0.1392822265625,-0.3484344482421875,-0.9138641357421876
235,0.13348388671875,-0.3612518310546875,-0.90142822265625
236,0.1223297119140625,-0.3841400146484375,-0.8773956298828125
237,0.1212921142578125,-0.404022216796875,-0.861114501953125
238,0.127349853515625,-0.41400146484375,-0.8623046875
239,0.1371307373046875,-0.4110870361328125,-0.8873291015625
240,0.1573944091796875,-0.3911895751953125,-0.94000244140625
241,0.170989990234375,-0.3641815185546875,-1.0130615234375
242,0.181854248046875,-0.33612060546875,-1.06854248046875
243,0.2046661376953125,-0.31488037109375,-1.089187622070312
244,0.2200164794921875,-0.306640625,-1.07440185546875
245,0.2182769775390625,-0.3063507080078125,-1.038330078125
246,0.204345703125,-0.31829833984375,-0.9872283935546876
247,0.1788330078125,-0.349395751953125,-0.922943115234375
248,0.1454010009765625,-0.3883209228515625,-0.870635986328125
249,0.107147216796875,-0.4268951416015625,-0.832244873046875
250,0.069122314453125,-0.460723876953125,-0.8111114501953125
251,0.042755126953125,-0.479644775390625,-0.80389404296875
252,0.0393524169921875,-0.4746551513671875,-0.8054351806640625
253,0.0482177734375,-0.4516448974609375,-0.8116302490234375
254,0.0613555908203125,-0.42803955078125,-0.8206787109375
255,0.076751708984375,-0.408294677734375,-0.828826904296875
256,0.08941650390625,-0.38525390625,-0.839447021484375
257,0.0930023193359375,-0.365966796875,-0.849212646484375
258,0.083709716796875,-0.3567352294921875,-0.8654632568359375
259,0.068359375,-0.36572265625,-0.876953125
260,0.0566558837890625,-0.385223388671875,-0.8751983642578125
261,0.0450286865234375,-0.4020233154296875,-0.86834716796875
262,0.0281982421875,-0.413421630859375,-0.8590240478515625
263,0.0117340087890625,-0.4218292236328125,-0.8478851318359375
264,0.005157470703125,-0.432220458984375,-0.838348388671875
265,0.011627197265625,-0.434661865234375,-0.8372650146484375
266,0.0224761962890625,-0.4264984130859375,-0.849212646484375
267,0.0339202880859375,-0.4063873291015625,-0.8707122802734375
268,0.041748046875,-0.390533447265625,-0.9006500244140625
269,0.0468292236328125,-0.3777923583984375,-0.926727294921875
270,0.0494232177734375,-0.3741455078125,-0.938873291015625
271,0.0515289306640625,-0.3790130615234375,-0.931243896484375
272,0.053619384765625,-0.390411376953125,-0.90887451171875
273,0.0552215576171875,-0.3990936279296875,-0.883331298828125
274,0.0533599853515625,-0.4083099365234375,-0.8631439208984375
275,0.0539398193359375,-0.4224090576171875,-0.8437042236328125
276,0.063232421875,-0.4334869384765625,-0.8333892822265625
277,0.072998046875,-0.4330596923828125,-0.8283843994140625
278,0.085052490234375,-0.429443359375,-0.828643798828125
279,0.1000518798828125,-0.4198455810546875,-0.8408203125
280,0.109222412109375,-0.4119720458984375,-0.8653564453125
281,0.1148681640625,-0.4079742431640625,-0.9008331298828124
282,0.1180572509765625,-0.4071197509765625,-0.9364776611328124
283,0.1108245849609375,-0.406494140625,-0.963714599609375
284,0.0954132080078125,-0.4113616943359375,-0.971221923828125
285,0.08343505859375,-0.4205322265625,-0.9589080810546876
286,0.071929931640625,-0.4372100830078125,-0.9383087158203124
287,0.062164306640625,-0.4534149169921875,-0.924591064453125
288,0.0530548095703125,-0.458953857421875,-0.912506103515625
289,0.0481719970703125,-0.45654296875,-0.898223876953125
290,0.0560455322265625,-0.4510345458984375,-0.8937225341796875
291,0.0650787353515625,-0.43304443359375,-0.8990478515625
292,0.0711517333984375,-0.4152984619140625,-0.9052886962890624
293,0.081024169921875,-0.400421142578125,-0.916015625
294,0.0863800048828125,-0.396148681640625,-0.928253173828125
295,0.080474853515625,-0.39398193359375,-0.932281494140625
296,0.0699005126953125,-0.402496337890625,-0.929962158203125
297,0.0641326904296875,-0.411102294921875,-0.92474365234375
298,0.059661865234375,-0.4133148193359375,-0.9189300537109376
299,0.0532379150390625,-0.40948486328125,-0.9124755859375
300,0.049041748046875,-0.405792236328125,-0.907867431640625
301,0.052520751953125,-0.4033203125,-0.90264892578125
302,0.0567474365234375,-0.398834228515625,-0.9044342041015624
303,0.060455322265625,-0.3897705078125,-0.9065704345703124
304,0.0691375732421875,-0.3802032470703125,-0.90240478515625
305,0.083038330078125,-0.372467041015625,-0.8922576904296875
306,0.0972137451171875,-0.3680877685546875,-0.883392333984375
307,0.1056671142578125,-0.364349365234375,-0.87322998046875
308,0.09814453125,-0.368408203125,-0.867584228515625
309,0.0875701904296875,-0.37823486328125,-0.86517333984375
310,0.0778961181640625,-0.389129638671875,-0.8708648681640625
311,0.0704498291015625,-0.398223876953125,-0.8795166015625
312,0.062164306640625,-0.404388427734375,-0.8876495361328125
313,0.0585174560546875,-0.404937744140625,-0.8950347900390625
314,0.065277099609375,-0.404266357421875,-0.9006805419921875
315,0.0761566162109375,-0.397857666015625,-0.9046478271484376
316,0.09161376953125,-0.389434814453125,-0.907806396484375
317,0.1118927001953125,-0.38134765625,-0.9156494140625
318,0.1292572021484375,-0.3778228759765625,-0.930450439453125
319,0.1344146728515625,-0.375152587890625,-0.9459381103515624
320,0.1320648193359375,-0.3797149658203125,-0.9532318115234376
321,0.120330810546875,-0.3899383544921875,-0.9462738037109376
322,0.1067047119140625,-0.4007568359375,-0.9347076416015624
323,0.0949554443359375,-0.412567138671875,-0.92559814453125
324,0.0883026123046875,-0.4200286865234375,-0.9251251220703124
325,0.0792999267578125,-0.4235076904296875,-0.9313812255859376
326,0.064208984375,-0.4229583740234375,-0.9350738525390624
327,0.0558929443359375,-0.424652099609375,-0.93560791015625
328,0.0601959228515625,-0.4239349365234375,-0.9398345947265624
329,0.062652587890625,-0.4196014404296875,-0.944976806640625
330,0.06646728515625,-0.410125732421875,-0.9515533447265624
331,0.07037353515625,-0.4029998779296875,-0.9561920166015624
332,0.0758819580078125,-0.40032958984375,-0.9516143798828124
333,0.083465576171875,-0.40118408203125,-0.9433441162109376
334,0.0829620361328125,-0.403350830078125,-0.93212890625
335,0.078826904296875,-0.402984619140625,-0.916839599609375
336,0.080780029296875,-0.404510498046875,-0.904937744140625
337,0.0874786376953125,-0.4048309326171875,-0.9017791748046876
338,0.09063720703125,-0.4029693603515625,-0.9073028564453124
339,0.0931243896484375,-0.3985595703125,-0.9193115234375
340,0.096466064453125,-0.395050048828125,-0.9392852783203124
341,0.09503173828125,-0.390594482421875,-0.9520111083984376
342,0.0951690673828125,-0.3877105712890625,-0.9511566162109376
343,0.0955657958984375,-0.39410400390625,-0.9421844482421876
344,0.0935516357421875,-0.3966522216796875,-0.9307403564453124
345,0.086639404296875,-0.3991851806640625,-0.924713134765625
346,0.0782470703125,-0.4041290283203125,-0.92645263671875
347,0.0680389404296875,-0.4137725830078125,-0.924560546875
348,0.0573577880859375,-0.4196624755859375,-0.9265899658203124
349,0.0499114990234375,-0.4199981689453125,-0.934600830078125
350,0.0529632568359375,-0.4145050048828125,-0.9357147216796876
351,0.069549560546875,-0.4075775146484375,-0.9331207275390624
352,0.0861968994140625,-0.3974151611328125,-0.9310302734375
353,0.092254638671875,-0.3895416259765625,-0.923095703125
354,0.0998992919921875,-0.3837432861328125,-0.912384033203125
355,0.102020263671875,-0.3852386474609375,-0.9026641845703124
356,0.0943145751953125,-0.390655517578125,-0.900909423828125
357,0.0803375244140625,-0.3980255126953125,-0.9012908935546876
358,0.0670013427734375,-0.4093170166015625,-0.904327392578125
359,0.0537872314453125,-0.413848876953125,-0.9073028564453124
360,0.0476531982421875,-0.4134063720703125,-0.9096221923828124
361,0.0535888671875,-0.4077911376953125,-0.91009521484375
362,0.058502197265625,-0.3995361328125,-0.9152984619140624
363,0.05987548828125,-0.391326904296875,-0.91851806640625
364,0.065185546875,-0.38897705078125,-0.912261962890625
365,0.0621337890625,-0.3935394287109375,-0.9022674560546876
366,0.05328369140625,-0.3988800048828125,-0.893280029296875
367,0.04730224609375,-0.4013824462890625,-0.890899658203125
368,0.0475006103515625,-0.4015350341796875,-0.890228271484375
369,0.0468292236328125,-0.4001922607421875,-0.89385986328125
370,0.044219970703125,-0.3978424072265625,-0.896636962890625
371,0.0461578369140625,-0.4006500244140625,-0.8917236328125
372,0.0575103759765625,-0.396087646484375,-0.8852081298828125
373,0.0681915283203125,-0.3883209228515625,-0.8781585693359375
374,0.06866455078125,-0.383636474609375,-0.8735198974609375
375,0.0729217529296875,-0.3807525634765625,-0.87109375
376,0.0732574462890625,-0.375152587890625,-0.8687744140625
377,0.0678558349609375,-0.3705902099609375,-0.8642425537109375
378,0.067840576171875,-0.3745880126953125,-0.8538818359375
379,0.07305908203125,-0.38214111328125,-0.8372802734375
380,0.0704498291015625,-0.3867645263671875,-0.8184051513671875
381,0.0580291748046875,-0.38128662109375,-0.8163604736328125
382,0.030609130859375,-0.36541748046875,-0.856781005859375
383,-0.0047149658203125,-0.3650970458984375,-0.9279632568359376
384,-0.0676727294921875,-0.3710174560546875,-1.051528930664062
385,-0.1230926513671875,-0.3730926513671875,-1.227569580078125
386,-0.1281280517578125,-0.368133544921875,-1.3773193359375
387,-0.1741180419921875,-0.31158447265625,-1.500015258789062
388,-0.3227386474609375,-0.2212982177734375,-1.60150146484375
389,-0.3253021240234375,-0.251556396484375,-1.570999145507812
390,-0.22796630859375,-0.2162933349609375,-1.330307006835938
391,-0.1642913818359375,-0.343597412109375,-1.04730224609375
392,-0.0206451416015625,-0.4669647216796875,-0.9090118408203124
393,0.0960845947265625,-0.7031097412109375,-0.9910888671875
394,0.217437744140625,-0.8256683349609375,-0.9010467529296876
395,0.371673583984375,-0.796234130859375,-0.6914825439453125
396,0.310333251953125,-0.6415252685546875,-0.5315399169921875
397,0.1608734130859375,-0.487335205078125,-0.493408203125
398,0.1824188232421875,-0.4467926025390625,-0.5698089599609375
399,0.253875732421875,-0.4864349365234375,-0.60003662109375
400,0.272735595703125,-0.5460357666015625,-0.5902252197265625
401,0.2294769287109375,-0.580322265625,-0.5926513671875
402,0.1798553466796875,-0.57708740234375,-0.616607666015625
403,0.143798828125,-0.562713623046875,-0.6405792236328125
404,0.11920166015625,-0.5591583251953125,-0.64208984375
405,0.12506103515625,-0.571258544921875,-0.6105194091796875
406,0.159027099609375,-0.6080780029296875,-0.5453643798828125
407,0.195831298828125,-0.6409454345703125,-0.471923828125
408,0.207672119140625,-0.656463623046875,-0.41522216796875
409,0.202545166015625,-0.6609344482421875,-0.39251708984375
410,0.19744873046875,-0.66522216796875,-0.41229248046875
411,0.188079833984375,-0.6777191162109375,-0.467681884765625
412,0.1660308837890625,-0.6861572265625,-0.5316009521484375
413,0.1549224853515625,-0.6745452880859375,-0.574127197265625
414,0.1702728271484375,-0.6613616943359375,-0.593292236328125
415,0.19097900390625,-0.657318115234375,-0.598297119140625
416,0.199981689453125,-0.6496429443359375,-0.5924530029296875
417,0.2056732177734375,-0.645660400390625,-0.590850830078125
418,0.20892333984375,-0.654022216796875,-0.6100006103515625
419,0.194580078125,-0.6588592529296875,-0.6427459716796875
420,0.1745147705078125,-0.6666259765625,-0.67974853515625
421,0.1600341796875,-0.6755523681640625,-0.6979522705078125
422,0.163482666015625,-0.6761322021484375,-0.6827545166015625
423,0.1917572021484375,-0.6726837158203125,-0.6601104736328125
424,0.2254486083984375,-0.6664581298828125,-0.664581298828125
425,0.2447509765625,-0.6622314453125,-0.68817138671875
426,0.25689697265625,-0.6596527099609375,-0.7125244140625
427,0.2677154541015625,-0.6622772216796875,-0.7402191162109375
428,0.2677001953125,-0.6640472412109375,-0.7683868408203125
429,0.260894775390625,-0.66217041015625,-0.787872314453125
430,0.2486419677734375,-0.66455078125,-0.799407958984375
431,0.2363128662109375,-0.660003662109375,-0.8180389404296875
432,0.2317352294921875,-0.6412200927734375,-0.8469390869140625
433,0.2343902587890625,-0.614593505859375,-0.8733062744140625
434,0.2428131103515625,-0.5870513916015625,-0.884429931640625
435,0.2482452392578125,-0.569427490234375,-0.879241943359375
436,0.244415283203125,-0.5612640380859375,-0.8529510498046875
437,0.2369384765625,-0.5644989013671875,-0.81671142578125
438,0.21661376953125,-0.5778656005859375,-0.793731689453125
439,0.1768951416015625,-0.5930328369140625,-0.7996826171875
440,0.134429931640625,-0.6087646484375,-0.8274993896484375
441,0.0966339111328125,-0.6193695068359375,-0.8558502197265625
442,0.052093505859375,-0.6242828369140625,-0.87518310546875
443,0.0145721435546875,-0.6280670166015625,-0.86553955078125
444,-0.0028076171875,-0.632110595703125,-0.8363189697265625
445,6.103515625e-05,-0.629852294921875,-0.8013458251953125
446,0.01434326171875,-0.6320953369140625,-0.7733154296875
447,0.0287933349609375,-0.6368255615234375,-0.7762298583984375
448,0.039093017578125,-0.6428070068359375,-0.810150146484375
449,0.0307464599609375,-0.65625,-0.8736724853515625
450,0.0067901611328125,-0.664947509765625,-0.953582763671875
451,-0.01556396484375,-0.6616363525390625,-1.003509521484375
452,-0.0438079833984375,-0.6534423828125,-1.042495727539062
453,-0.095001220703125,-0.655517578125,-1.058303833007812
454,-0.1492919921875,-0.6621246337890625,-1.04443359375
455,-0.1600494384765625,-0.6675567626953125,-0.9916534423828124
456,-0.1406707763671875,-0.66033935546875,-0.8902740478515625
457,-0.1050872802734375,-0.633697509765625,-0.8022613525390625
458,-0.060546875,-0.58441162109375,-0.742584228515625
459,-0.015625,-0.533111572265625,-0.727813720703125
460,0.03802490234375,-0.4575042724609375,-0.710418701171875
461,0.1275482177734375,-0.3793182373046875,-0.68505859375
462,0.2481842041015625,-0.321136474609375,-0.64599609375
463,0.364776611328125,-0.2696685791015625,-0.6002044677734375
464,0.473297119140625,-0.22991943359375,-0.5717315673828125
465,0.569976806640625,-0.1958465576171875,-0.6034698486328125
466,0.6434783935546875,-0.1627349853515625,-0.670654296875
467,0.6815948486328125,-0.135406494140625,-0.7338104248046875
468,0.6699676513671875,-0.1403656005859375,-0.8125152587890625
469,0.628265380859375,-0.1786956787109375,-0.8625640869140625
470,0.5757904052734375,-0.2281036376953125,-0.8716888427734375
471,0.53265380859375,-0.28033447265625,-0.8766326904296875
472,0.4947509765625,-0.32647705078125,-0.8697052001953125
473,0.42059326171875,-0.387847900390625,-0.8713836669921875
474,0.4573822021484375,-0.3601226806640625,-0.8636474609375
475,0.3846435546875,-0.4107208251953125,-0.8800048828125
476,0.3548431396484375,-0.425689697265625,-0.8871612548828125
477,0.337554931640625,-0.4320831298828125,-0.8977508544921875
478,0.3270111083984375,-0.4317474365234375,-0.900421142578125
479,0.3101348876953125,-0.43206787109375,-0.9023895263671876
480,0.2852325439453125,-0.4363555908203125,-0.90899658203125
481,0.2565155029296875,-0.4357147216796875,-0.9078826904296876
482,0.234832763671875,-0.4363250732421875,-0.892913818359375
483,0.20806884765625,-0.446258544921875,-0.8795623779296875
484,0.15997314453125,-0.4743194580078125,-0.8745880126953125
485,0.1056365966796875,-0.51312255859375,-0.8763580322265625
486,0.08538818359375,-0.5083770751953125,-0.884918212890625
487,-0.009521484375,-0.5790863037109375,-0.968048095703125
488,-0.13433837890625,-0.6367340087890625,-1.043472290039062
489,-0.1725616455078125,-0.6191253662109375,-1.009765625
490,-0.109893798828125,-0.5891876220703125,-0.9683380126953124
491,-0.013916015625,-0.5458221435546875,-0.9514923095703124
492,0.0460357666015625,-0.4897308349609375,-0.9160308837890624
493,0.0736083984375,-0.4731292724609375,-0.8905181884765625
494,0.064361572265625,-0.5279541015625,-0.9327545166015624
495,0.0057373046875,-0.6314239501953125,-1.024917602539062
496,-0.075775146484375,-0.732269287109375,-1.099777221679688
497,-0.1208648681640625,-0.7848968505859375,-1.12738037109375
498,-0.0966796875,-0.793121337890625,-1.144317626953125
499,-0.0648040771484375,-0.755615234375,-1.188858032226562
500,-0.0543212890625,-0.6785888671875,-1.217788696289062
501,-0.0655059814453125,-0.579681396484375,-1.087661743164062
502,-0.0526885986328125,-0.6142730712890625,-1.1964111328125
503,-0.0604400634765625,-0.5877685546875,-0.903594970703125
504,-0.0429534912109375,-0.592010498046875,-0.68402099609375
505,-0.0031585693359375,-0.608795166015625,-0.5146484375
506,0.082611083984375,-0.6270294189453125,-0.43231201171875
507,0.172515869140625,-0.6007537841796875,-0.3927154541015625
508,0.263824462890625,-0.53924560546875,-0.4085693359375
509,0.3430023193359375,-0.483306884765625,-0.4661865234375
510,0.394683837890625,-0.4295806884765625,-0.5386962890625
511,0.4214324951171875,-0.377197265625,-0.6312255859375
512,0.4197998046875,-0.3388824462890625,-0.681488037109375
513,0.4062042236328125,-0.3394775390625,-0.704071044921875
514,0.3711395263671875,-0.3660430908203125,-0.7137603759765625
515,0.3292236328125,-0.4110870361328125,-0.720550537109375
516,0.2847747802734375,-0.4616546630859375,-0.71966552734375
517,0.2489013671875,-0.50360107421875,-0.7627410888671875
518,0.2235107421875,-0.521575927734375,-0.864898681640625
519,0.2143096923828125,-0.52789306640625,-0.9382781982421876
520,0.2017364501953125,-0.504547119140625,-0.946258544921875
521,0.1933135986328125,-0.4610137939453125,-0.9072265625
522,0.2328033447265625,-0.4343719482421875,-0.8603668212890625
523,0.2727508544921875,-0.4437103271484375,-0.8306121826171875
524,0.2687835693359375,-0.472076416015625,-0.8075408935546875
525,0.230987548828125,-0.49749755859375,-0.781707763671875
526,0.2009124755859375,-0.5265045166015625,-0.7414398193359375
527,0.196807861328125,-0.54937744140625,-0.7220916748046875
528,0.21337890625,-0.556640625,-0.72998046875
529,0.2355499267578125,-0.5428009033203125,-0.752105712890625
530,0.2636871337890625,-0.51812744140625,-0.7779693603515625
531,0.2945556640625,-0.4932098388671875,-0.80126953125
532,0.3252716064453125,-0.4610595703125,-0.8228759765625
533,0.3627166748046875,-0.4353179931640625,-0.8455963134765625
534,0.3973236083984375,-0.4450225830078125,-0.83819580078125
535,0.4074859619140625,-0.493743896484375,-0.7741851806640625
536,0.364959716796875,-0.5360107421875,-0.6821441650390625
537,0.245025634765625,-0.582305908203125,-0.6260528564453125
538,0.29144287109375,-0.55535888671875,-0.6172637939453125
539,0.20977783203125,-0.606353759765625,-0.682464599609375
540,0.178009033203125,-0.6046142578125,-0.73431396484375
541,0.1359710693359375,-0.5935821533203125,-0.765899658203125
542,0.1027679443359375,-0.5802764892578125,-0.7827606201171875
543,0.080963134765625,-0.5750274658203125,-0.7846221923828125
544,0.0838775634765625,-0.588836669921875,-0.772186279296875
545,0.1063385009765625,-0.6117401123046875,-0.76141357421875
546,0.1172637939453125,-0.6352081298828125,-0.7440948486328125
547,0.101287841796875,-0.66070556640625,-0.7317352294921875
548,0.06451416015625,-0.67596435546875,-0.737701416015625
549,0.02362060546875,-0.6948089599609375,-0.764312744140625
550,-0.003753662109375,-0.7159423828125,-0.7991180419921875
551,-0.004730224609375,-0.7191619873046875,-0.8392181396484375
552,0.0133209228515625,-0.6981201171875,-0.875396728515625
553,0.0297088623046875,-0.65692138671875,-0.89666748046875
554,0.0517425537109375,-0.6253509521484375,-0.903411865234375
555,0.07000732421875,-0.6153106689453125,-0.8978271484375
556,0.09075927734375,-0.6394805908203125,-0.8853302001953125
557,0.0793609619140625,-0.6609039306640625,-0.881072998046875
558,0.042022705078125,-0.670166015625,-0.8805694580078125
559,0.0149688720703125,-0.6846160888671875,-0.8835601806640625
560,0.0009918212890625,-0.6904296875,-0.8885040283203125
561,0.0034332275390625,-0.68231201171875,-0.888336181640625
562,0.02960205078125,-0.65863037109375,-0.8841094970703125
563,0.069732666015625,-0.6233062744140625,-0.8771820068359375
564,0.1002960205078125,-0.5916595458984375,-0.8698272705078125
565,0.1139373779296875,-0.56732177734375,-0.866424560546875
566,0.1193389892578125,-0.5594482421875,-0.859222412109375
567,0.1176300048828125,-0.5614166259765625,-0.8403472900390625
568,0.1142730712890625,-0.5638427734375,-0.807647705078125
569,0.1134490966796875,-0.574920654296875,-0.787506103515625
570,0.1071014404296875,-0.5882415771484375,-0.767547607421875
571,0.09613037109375,-0.6024322509765625,-0.7721099853515625
572,0.079376220703125,-0.608184814453125,-0.7953338623046875
573,0.063323974609375,-0.6000518798828125,-0.84320068359375
574,0.0645904541015625,-0.6066741943359375,-0.8199310302734375
575,0.0714111328125,-0.581268310546875,-0.8543701171875
576,0.0885467529296875,-0.55523681640625,-0.84857177734375
577,0.109619140625,-0.545867919921875,-0.832489013671875
578,0.1284942626953125,-0.5430145263671875,-0.80718994140625
579,0.1328125,-0.541900634765625,-0.79315185546875
580,0.1479644775390625,-0.54791259765625,-0.78106689453125
581,0.1544189453125,-0.545989990234375,-0.74774169921875
582,0.157318115234375,-0.549072265625,-0.76068115234375
583,0.1548919677734375,-0.545989990234375,-0.739227294921875
584,0.15411376953125,-0.54583740234375,-0.753143310546875
585,0.1514129638671875,-0.5431976318359375,-0.7709503173828125
586,0.1513671875,-0.5437774658203125,-0.8024139404296875
587,0.1597900390625,-0.5342864990234375,-0.8509674072265625
588,0.1585540771484375,-0.5251312255859375,-0.87066650390625
589,0.15521240234375,-0.5230712890625,-0.855224609375
590,0.1701202392578125,-0.52252197265625,-0.8509521484375
591,0.1802825927734375,-0.5244598388671875,-0.8495635986328125
592,0.1820068359375,-0.5350799560546875,-0.847625732421875
593,0.1756744384765625,-0.54827880859375,-0.8586883544921875
594,0.1705169677734375,-0.5515594482421875,-0.8737640380859375
595,0.170166015625,-0.5435943603515625,-0.876251220703125
596,0.1786956787109375,-0.53509521484375,-0.868377685546875
597,0.1983642578125,-0.5254974365234375,-0.853363037109375
598,0.2091522216796875,-0.5157012939453125,-0.830535888671875
599,0.21697998046875,-0.50885009765625,-0.805877685546875
600,0.2218780517578125,-0.501373291015625,-0.7914581298828125
601,0.2087249755859375,-0.5074005126953125,-0.79229736328125
602,0.2224884033203125,-0.5006256103515625,-0.7900543212890625
603,0.1862640380859375,-0.5210418701171875,-0.80291748046875
604,0.153717041015625,-0.533233642578125,-0.8113555908203125
605,0.1328582763671875,-0.5379791259765625,-0.8062286376953125
606,0.126068115234375,-0.546905517578125,-0.7985076904296875
607,0.1267242431640625,-0.5547943115234375,-0.7930145263671875
608,0.1389617919921875,-0.547698974609375,-0.7985687255859375
609,0.1743621826171875,-0.5232391357421875,-0.8219451904296875
610,0.158935546875,-0.5344390869140625,-0.8102569580078125
611,0.1792144775390625,-0.5081939697265625,-0.8319244384765625
612,0.1778411865234375,-0.5043487548828125,-0.83074951171875
613,0.170379638671875,-0.5107269287109375,-0.8323822021484375
614,0.155303955078125,-0.519805908203125,-0.8304443359375
615,0.14141845703125,-0.5300445556640625,-0.8194122314453125
616,0.127777099609375,-0.54742431640625,-0.8181304931640625
617,0.1129608154296875,-0.56243896484375,-0.8291015625
618,0.1027374267578125,-0.5584259033203125,-0.830047607421875
619,0.116729736328125,-0.5480499267578125,-0.821746826171875
620,0.149139404296875,-0.5377960205078125,-0.81744384765625
621,0.1818389892578125,-0.5229339599609375,-0.8228607177734375
622,0.1995849609375,-0.50390625,-0.831939697265625
623,0.2030792236328125,-0.4949188232421875,-0.842803955078125
624,0.1923980712890625,-0.4989013671875,-0.8488922119140625
625,0.1812744140625,-0.5119476318359375,-0.8441925048828125
626,0.1768035888671875,-0.5251617431640625,-0.8329925537109375
627,0.17462158203125,-0.531219482421875,-0.82220458984375
628,0.1661529541015625,-0.53240966796875,-0.8133697509765625
629,0.158935546875,-0.540618896484375,-0.805389404296875
630,0.1570587158203125,-0.5510406494140625,-0.8009490966796875
631,0.1668853759765625,-0.5509490966796875,-0.8043670654296875
632,0.1844940185546875,-0.5377349853515625,-0.8134613037109375
633,0.19744873046875,-0.5239410400390625,-0.8158721923828125
634,0.2114105224609375,-0.517333984375,-0.82830810546875
635,0.22601318359375,-0.50872802734375,-0.8382415771484375
636,0.231109619140625,-0.5035552978515625,-0.8402862548828125
637,0.2309112548828125,-0.508453369140625,-0.8412322998046875
638,0.2268524169921875,-0.5172119140625,-0.832183837890625
639,0.223114013671875,-0.525177001953125,-0.8200836181640625
640,0.219757080078125,-0.5379486083984375,-0.815155029296875
641,0.2188568115234375,-0.5461273193359375,-0.813873291015625
642,0.228485107421875,-0.5417633056640625,-0.8143310546875
643,0.246551513671875,-0.5293121337890625,-0.8138427734375
644,0.2669830322265625,-0.519561767578125,-0.811767578125
645,0.281951904296875,-0.515777587890625,-0.8162078857421875
646,0.2872161865234375,-0.5168914794921875,-0.822723388671875
647,0.2900848388671875,-0.5160675048828125,-0.8215179443359375
648,0.2921142578125,-0.508880615234375,-0.8095855712890625
649,0.28741455078125,-0.5038604736328125,-0.7917633056640625
650,0.28912353515625,-0.5114288330078125,-0.77392578125
651,0.28765869140625,-0.52374267578125,-0.761383056640625
652,0.2733917236328125,-0.541839599609375,-0.7619171142578125
653,0.2516632080078125,-0.554290771484375,-0.766754150390625
654,0.2342681884765625,-0.5594329833984375,-0.7559814453125
655,0.16351318359375,-0.525848388671875,-0.700225830078125
656,0.1472625732421875,-0.4738922119140625,-0.61859130859375
657,0.362091064453125,-0.6376190185546875,-0.7181854248046875
658,0.3556671142578125,-0.6472015380859375,-0.7765350341796875
659,0.2198944091796875,-0.538055419921875,-0.7855072021484375
660,0.1413726806640625,-0.5043487548828125,-0.8631134033203125
661,0.1504974365234375,-0.5160064697265625,-0.92767333984375
662,0.16314697265625,-0.523223876953125,-0.937103271484375
663,0.1540374755859375,-0.533294677734375,-0.934234619140625
664,0.13580322265625,-0.5435333251953125,-0.9366607666015624
665,0.12152099609375,-0.5521087646484375,-0.924163818359375
666,0.115997314453125,-0.558563232421875,-0.9016571044921876
667,0.1254119873046875,-0.550018310546875,-0.8813323974609375
668,0.1436920166015625,-0.536224365234375,-0.876312255859375
669,0.1568145751953125,-0.523956298828125,-0.8797149658203125
670,0.1699066162109375,-0.5030059814453125,-0.888397216796875
671,0.1901092529296875,-0.4869384765625,-0.9099273681640624
672,0.2096099853515625,-0.4772796630859375,-0.9464263916015624
673,0.2142486572265625,-0.47113037109375,-0.9889068603515624
674,0.1948089599609375,-0.4697418212890625,-1.021728515625
675,0.1704254150390625,-0.4687347412109375,-1.027175903320312
676,0.1805877685546875,-0.49163818359375,-1.007919311523438
677,0.159515380859375,-0.48583984375,-0.9645843505859376
678,0.1363372802734375,-0.4809417724609375,-0.923980712890625
679,0.13897705078125,-0.4764556884765625,-0.904541015625
680,0.1478729248046875,-0.47515869140625,-0.906768798828125
681,0.1516876220703125,-0.47607421875,-0.92376708984375
682,0.1554718017578125,-0.4787750244140625,-0.9438629150390624
683,0.1631317138671875,-0.47772216796875,-0.9534912109375
684,0.1862640380859375,-0.462677001953125,-0.9407196044921876
685,0.2195587158203125,-0.4348602294921875,-0.871337890625
686,0.27862548828125,-0.4128265380859375,-0.790374755859375
687,0.3129119873046875,-0.4192657470703125,-0.72418212890625
688,0.3280181884765625,-0.428497314453125,-0.6676788330078125
689,0.3416748046875,-0.43695068359375,-0.62933349609375
690,0.3483123779296875,-0.45452880859375,-0.6267547607421875
691,0.3657989501953125,-0.4668731689453125,-0.6524200439453125
692,0.376434326171875,-0.463409423828125,-0.6769561767578125
693,0.384796142578125,-0.4578094482421875,-0.695953369140625
694,0.406829833984375,-0.450286865234375,-0.704833984375
695,0.433746337890625,-0.4411773681640625,-0.720794677734375
696,0.4321441650390625,-0.4392242431640625,-0.7424163818359375
697,0.385223388671875,-0.4406585693359375,-0.74664306640625
698,0.289459228515625,-0.4455413818359375,-0.735626220703125
699,0.2345123291015625,-0.4675140380859375,-0.73236083984375
700,0.2205810546875,-0.5167999267578125,-0.735198974609375
701,0.22723388671875,-0.554107666015625,-0.752838134765625
702,0.23626708984375,-0.4599761962890625,-0.666778564453125
703,0.2351837158203125,-0.5624542236328125,-0.7294158935546875
704,0.1892242431640625,-0.6128082275390625,-0.7913360595703125
705,0.188720703125,-0.535980224609375,-0.7565765380859375
706,0.188201904296875,-0.5403594970703125,-0.8146820068359375
707,0.14501953125,-0.549407958984375,-0.8884735107421875
708,0.121002197265625,-0.5320587158203125,-0.90399169921875
709,0.131439208984375,-0.5364837646484375,-0.9000091552734375
710,0.1367645263671875,-0.5509490966796875,-0.893951416015625
711,0.144805908203125,-0.5495758056640625,-0.8574676513671875
712,0.1739501953125,-0.547576904296875,-0.8262176513671875
713,0.2000274658203125,-0.540130615234375,-0.8064422607421875
714,0.2139129638671875,-0.5223388671875,-0.7906036376953125
715,0.2310791015625,-0.5079345703125,-0.8077239990234375
716,0.2139434814453125,-0.4969940185546875,-0.8316650390625
717,0.18212890625,-0.4993896484375,-0.84600830078125
718,0.1596527099609375,-0.518157958984375,-0.8426971435546875
719,0.1558837890625,-0.54266357421875,-0.8259429931640625
720,0.16131591796875,-0.562225341796875,-0.8063812255859375
721,0.1645965576171875,-0.5659027099609375,-0.7982940673828125
722,0.1685028076171875,-0.5521087646484375,-0.8010711669921875
723,0.1739349365234375,-0.529510498046875,-0.807952880859375
724,0.1868438720703125,-0.5078887939453125,-0.820343017578125
725,0.1912689208984375,-0.4868011474609375,-0.8428802490234375
726,0.180908203125,-0.4737396240234375,-0.8697509765625
727,0.16015625,-0.480621337890625,-0.894622802734375
728,0.134521484375,-0.4965972900390625,-0.9034423828125
729,0.1102294921875,-0.512298583984375,-0.903045654296875
730,0.1040191650390625,-0.52197265625,-0.8980255126953125
731,0.1231842041015625,-0.515899658203125,-0.872100830078125
732,0.16241455078125,-0.488037109375,-0.85577392578125
733,0.193359375,-0.446319580078125,-0.88262939453125
734,0.1956787109375,-0.4026641845703125,-0.9358062744140624
735,0.177001953125,-0.37127685546875,-0.9781494140625
736,0.1565093994140625,-0.3518524169921875,-0.991302490234375
737,0.1429901123046875,-0.3459625244140625,-0.97802734375
738,0.1404266357421875,-0.347869873046875,-0.9503936767578124
739,0.1433258056640625,-0.36236572265625,-0.9175262451171876
740,0.136322021484375,-0.4061279296875,-0.8805084228515625
741,0.1304779052734375,-0.4518890380859375,-0.852508544921875
742,0.1164703369140625,-0.4845733642578125,-0.8373565673828125
743,0.0977630615234375,-0.50543212890625,-0.863372802734375
744,0.059356689453125,-0.5187225341796875,-0.891021728515625
745,0.0275726318359375,-0.522369384765625,-0.9160919189453124
746,0.0216064453125,-0.5150146484375,-0.92559814453125
747,0.0470733642578125,-0.50128173828125,-0.9311065673828124
748,0.07830810546875,-0.4855499267578125,-0.9318389892578124
749,0.110015869140625,-0.4628753662109375,-0.91302490234375
750,0.1371612548828125,-0.4299468994140625,-0.8848419189453125
751,0.16290283203125,-0.4100799560546875,-0.8634185791015625
752,0.16192626953125,-0.4173126220703125,-0.8355712890625
753,0.122406005859375,-0.42437744140625,-0.796112060546875
754,0.0642547607421875,-0.42840576171875,-0.77972412109375
755,0.001190185546875,-0.4305267333984375,-0.78936767578125
756,-0.0687255859375,-0.4534149169921875,-0.765960693359375
757,-0.1256561279296875,-0.487762451171875,-0.73828125
758,-0.1591033935546875,-0.5392303466796875,-0.7183990478515625
759,-0.1507110595703125,-0.570831298828125,-0.7046051025390625
760,-0.11053466796875,-0.5674896240234375,-0.69482421875
761,-0.0437469482421875,-0.5713043212890625,-0.6762237548828125
762,0.0397796630859375,-0.5606231689453125,-0.6434783935546875
763,0.1186981201171875,-0.54595947265625,-0.6873321533203125
764,0.19989013671875,-0.538604736328125,-0.75665283203125
765,0.263580322265625,-0.5383453369140625,-0.818084716796875
766,0.2911834716796875,-0.5603485107421875,-0.8584136962890625
767,0.3496246337890625,-0.5937042236328125,-0.880035400390625
768,0.3211212158203125,-0.601531982421875,-0.87591552734375
769,0.02618408203125,-0.5070648193359375,-0.8217010498046875
770,-0.1042327880859375,-0.485443115234375,-0.8046112060546875
771,-0.03851318359375,-0.549774169921875,-0.8007049560546875
772,0.0100860595703125,-0.562652587890625,-0.7649078369140625
773,0.0093231201171875,-0.5426025390625,-0.739288330078125
774,0.021881103515625,-0.5143585205078125,-0.7421112060546875
775,0.0545806884765625,-0.45953369140625,-0.765655517578125
776,0.034637451171875,-0.43341064453125,-0.8101806640625
777,-0.024322509765625,-0.4361114501953125,-0.954376220703125
778,-0.0773773193359375,-0.400604248046875,-1.087921142578125
779,-0.073577880859375,-0.3497314453125,-1.163360595703125
780,-0.069183349609375,-0.3501129150390625,-1.16973876953125
781,-0.0634613037109375,-0.382659912109375,-1.116714477539062
782,-0.031097412109375,-0.40234375,-1.007049560546875
783,0.004852294921875,-0.43780517578125,-0.9096832275390624
784,0.0399169921875,-0.4658966064453125,-0.851104736328125
785,0.028778076171875,-0.464569091796875,-0.8204345703125
786,0.017333984375,-0.451141357421875,-0.834136962890625
787,0.0240631103515625,-0.4382476806640625,-0.8603363037109375
788,0.043121337890625,-0.417022705078125,-0.869476318359375
789,0.068572998046875,-0.389862060546875,-0.8633270263671875
790,0.0729522705078125,-0.37457275390625,-0.8538055419921875
791,0.0655059814453125,-0.37261962890625,-0.8590545654296875
792,0.0423431396484375,-0.3630218505859375,-0.9295806884765624
793,-0.0009002685546875,-0.3560333251953125,-0.97296142578125
794,-0.0588531494140625,-0.357147216796875,-1.018417358398438
795,-0.1434478759765625,-0.351318359375,-1.076126098632812
796,-0.1796722412109375,-0.37158203125,-1.095718383789062
797,-0.16192626953125,-0.381439208984375,-1.081268310546875
798,-0.1010589599609375,-0.36102294921875,-1.03631591796875
799,-0.03631591796875,-0.324371337890625,-0.978668212890625
800,0.0120391845703125,-0.308685302734375,-0.9421539306640624
801,0.01715087890625,-0.3043670654296875,-0.928131103515625
802,-0.02252197265625,-0.316436767578125,-0.953460693359375
803,-0.0673828125,-0.3365325927734375,-0.9881439208984376
804,-0.072906494140625,-0.3383941650390625,-1.009750366210938
805,-0.052703857421875,-0.311859130859375,-1.017181396484375
806,-0.04669189453125,-0.3055877685546875,-1.014007568359375
807,-0.06341552734375,-0.3262176513671875,-0.991729736328125
808,-0.089324951171875,-0.354888916015625,-0.9616241455078124
809,-0.0973358154296875,-0.37322998046875,-0.9339447021484376
810,-0.095703125,-0.3752288818359375,-0.925384521484375
811,-0.0830078125,-0.376678466796875,-0.924530029296875
812,-0.048370361328125,-0.396820068359375,-0.904815673828125
813,-0.04571533203125,-0.3897552490234375,-0.8786163330078125
814,-0.0754852294921875,-0.33856201171875,-0.89202880859375
815,-0.0485687255859375,-0.3068389892578125,-0.93487548828125
816,-0.0426788330078125,-0.299774169921875,-0.9727935791015624
817,-0.0643768310546875,-0.318511962890625,-0.980072021484375
818,-0.089630126953125,-0.373046875,-0.9503631591796876
819,-0.112274169921875,-0.43048095703125,-0.902862548828125
820,-0.1096343994140625,-0.458465576171875,-0.8657379150390625
821,-0.0946807861328125,-0.4588165283203125,-0.84869384765625
822,-0.0777130126953125,-0.4412994384765625,-0.8472900390625
823,-0.0749969482421875,-0.4251556396484375,-0.8619232177734375
824,-0.08404541015625,-0.409210205078125,-0.8814697265625
825,-0.095489501953125,-0.4027099609375,-0.9066314697265624
826,-0.0891265869140625,-0.4073333740234375,-0.93133544921875
827,-0.080596923828125,-0.3873291015625,-0.9434814453125
828,-0.0815887451171875,-0.3646240234375,-0.9434661865234376
829,-0.07366943359375,-0.374725341796875,-0.9149017333984376
830,-0.0760955810546875,-0.4039306640625,-0.894012451171875
831,-0.09027099609375,-0.4316253662109375,-0.8814239501953125
832,-0.106048583984375,-0.4496917724609375,-0.8821258544921875
833,-0.111053466796875,-0.4541168212890625,-0.8940582275390625
834,-0.089935302734375,-0.4452972412109375,-0.9051055908203124
835,-0.08795166015625,-0.435394287109375,-0.918609619140625
836,-0.10968017578125,-0.4274749755859375,-0.9331817626953124
837,-0.1263275146484375,-0.4296875,-0.9496612548828124
838,-0.133026123046875,-0.4327239990234375,-0.95245361328125
839,-0.1338958740234375,-0.4326934814453125,-0.9398193359375
840,-0.1228790283203125,-0.438262939453125,-0.92218017578125
841,-0.09375,-0.4509429931640625,-0.8969268798828125
842,-0.0711212158203125,-0.4510040283203125,-0.8662261962890625
843,-0.0638427734375,-0.4475555419921875,-0.8334197998046875
844,-0.0657196044921875,-0.4549713134765625,-0.81744384765625
845,-0.0915985107421875,-0.46002197265625,-0.818511962890625
846,-0.1197967529296875,-0.4638214111328125,-0.838531494140625
847,-0.1390380859375,-0.4630279541015625,-0.865142822265625
848,-0.1331329345703125,-0.4571075439453125,-0.8817291259765625
849,-0.1221160888671875,-0.44451904296875,-0.886932373046875
850,-0.1016693115234375,-0.432373046875,-0.8822784423828125
851,-0.0800018310546875,-0.430755615234375,-0.8741455078125
852,-0.074371337890625,-0.429168701171875,-0.8798828125
853,-0.0819549560546875,-0.42816162109375,-0.8879547119140625
854,-0.09332275390625,-0.4359588623046875,-0.8943023681640625
855,-0.1121063232421875,-0.4477691650390625,-0.9036407470703124
856,-0.11993408203125,-0.4451904296875,-0.9079437255859376
857,-0.11602783203125,-0.4400787353515625,-0.90380859375
858,-0.1071929931640625,-0.4362945556640625,-0.893524169921875
859,-0.1082763671875,-0.4368133544921875,-0.8894500732421875
860,-0.106536865234375,-0.4358978271484375,-0.88916015625
861,-0.091644287109375,-0.4292449951171875,-0.8919525146484375
862,-0.07464599609375,-0.4210662841796875,-0.901397705078125
863,-0.064300537109375,-0.4168548583984375,-0.915130615234375
864,-0.063629150390625,-0.4149322509765625,-0.921539306640625
865,-0.0610809326171875,-0.4201202392578125,-0.9298858642578124
866,-0.0591888427734375,-0.4173736572265625,-0.93377685546875
867,-0.06549072265625,-0.4176177978515625,-0.93231201171875
868,-0.07244873046875,-0.4209442138671875,-0.921173095703125
869,-0.0824737548828125,-0.431396484375,-0.9057159423828124
870,-0.0836944580078125,-0.4365081787109375,-0.892303466796875
871,-0.0701751708984375,-0.43194580078125,-0.8814697265625
872,-0.04901123046875,-0.4222869873046875,-0.8703765869140625
873,-0.040191650390625,-0.4201507568359375,-0.8592987060546875
874,-0.0348358154296875,-0.42205810546875,-0.8560028076171875
875,-0.0310516357421875,-0.4188079833984375,-0.8570098876953125
876,-0.0299530029296875,-0.4190673828125,-0.86383056640625
877,-0.03253173828125,-0.416900634765625,-0.87725830078125
878,-0.0414581298828125,-0.411041259765625,-0.8917083740234375
879,-0.0511474609375,-0.40667724609375,-0.90594482421875
880,-0.0579376220703125,-0.4007568359375,-0.91119384765625
881,-0.0572662353515625,-0.3955535888671875,-0.914276123046875
882,-0.0443878173828125,-0.3905792236328125,-0.9083099365234376
883,-0.0371551513671875,-0.3933563232421875,-0.899688720703125
884,-0.03948974609375,-0.401153564453125,-0.8860626220703125
885,-0.046539306640625,-0.41693115234375,-0.8743743896484375
886,-0.0531158447265625,-0.4325408935546875,-0.865936279296875
887,-0.062225341796875,-0.438751220703125,-0.866943359375
888,-0.06817626953125,-0.4395599365234375,-0.8834228515625
889,-0.0697479248046875,-0.4367523193359375,-0.8959197998046875
890,-0.07196044921875,-0.4300079345703125,-0.892669677734375
891,-0.082122802734375,-0.4271392822265625,-0.896728515625
892,-0.0882415771484375,-0.435516357421875,-0.903411865234375
893,-0.09014892578125,-0.439208984375,-0.902923583984375
894,-0.08502197265625,-0.439208984375,-0.8953857421875
895,-0.073028564453125,-0.4368896484375,-0.888153076171875
896,-0.0611572265625,-0.428741455078125,-0.884918212890625
897,-0.05279541015625,-0.4209747314453125,-0.8916473388671875
898,-0.049102783203125,-0.417266845703125,-0.8938446044921875
899,-0.0503997802734375,-0.4194793701171875,-0.9039154052734376
900,-0.0503692626953125,-0.41461181640625,-0.91107177734375
901,-0.0480804443359375,-0.403289794921875,-0.9235076904296876
902,-0.066192626953125,-0.4309539794921875,-0.965301513671875
903,-0.07794189453125,-0.4225921630859375,-0.931488037109375
904,-0.0782012939453125,-0.4222259521484375,-0.9387664794921876
905,-0.071807861328125,-0.417572021484375,-0.914276123046875
906,-0.058929443359375,-0.4156951904296875,-0.896697998046875
907,-0.0530242919921875,-0.417877197265625,-0.8914794921875
908,-0.049041748046875,-0.4168853759765625,-0.9006500244140625
909,-0.0537872314453125,-0.415771484375,-0.9109039306640624
910,-0.0605621337890625,-0.4171142578125,-0.9180145263671876
911,-0.064971923828125,-0.4222412109375,-0.924407958984375
912,-0.068328857421875,-0.423248291015625,-0.938873291015625
913,-0.0749664306640625,-0.4192962646484375,-0.9472198486328124
914,-0.0789642333984375,-0.41961669921875,-0.941314697265625
915,-0.0745086669921875,-0.4155731201171875,-0.9300384521484376
916,-0.060455322265625,-0.41033935546875,-0.917724609375
917,-0.0495452880859375,-0.4044189453125,-0.9055328369140624
918,-0.0511932373046875,-0.4035186767578125,-0.8994903564453125
919,-0.0645599365234375,-0.4137420654296875,-0.8996124267578125
920,-0.06256103515625,-0.4223175048828125,-0.892486572265625
921,-0.0543975830078125,-0.4188079833984375,-0.8806304931640625
922,-0.051422119140625,-0.41180419921875,-0.8848876953125
923,-0.053314208984375,-0.40985107421875,-0.901275634765625
924,-0.05914306640625,-0.4080047607421875,-0.91455078125
925,-0.0659332275390625,-0.4052886962890625,-0.911651611328125
926,-0.0671539306640625,-0.4081878662109375,-0.90594482421875
927,-0.0669403076171875,-0.40863037109375,-0.90325927734375
928,-0.0709381103515625,-0.4110107421875,-0.899139404296875
929,-0.0708465576171875,-0.4208221435546875,-0.8908233642578125
930,-0.0693359375,-0.425262451171875,-0.88226318359375
931,-0.073089599609375,-0.4235382080078125,-0.8903656005859375
932,-0.08465576171875,-0.420867919921875,-0.9213714599609376
933,-0.0915069580078125,-0.41473388671875,-0.948822021484375
934,-0.0940399169921875,-0.4080047607421875,-0.952667236328125
935,-0.1016693115234375,-0.4109039306640625,-0.9386749267578124
936,-0.103179931640625,-0.419189453125,-0.919586181640625
937,-0.09747314453125,-0.4276580810546875,-0.8985748291015625
938,-0.0914459228515625,-0.4322052001953125,-0.881988525390625
939,-0.0877685546875,-0.4335479736328125,-0.8809356689453125
940,-0.0869903564453125,-0.4334869384765625,-0.88580322265625
941,-0.0798492431640625,-0.4317779541015625,-0.884979248046875
942,-0.069915771484375,-0.42840576171875,-0.877410888671875
943,-0.0662841796875,-0.424285888671875,-0.8756256103515625
944,-0.073760986328125,-0.4228973388671875,-0.8915863037109375
945,-0.087799072265625,-0.4248046875,-0.911376953125
946,-0.0879364013671875,-0.4218902587890625,-0.9169464111328124
947,-0.071929931640625,-0.416015625,-0.9069061279296876
948,-0.0571441650390625,-0.4121856689453125,-0.8831329345703125
949,-0.049224853515625,-0.415252685546875,-0.87005615234375
950,-0.0573577880859375,-0.4218902587890625,-0.87396240234375
951,-0.0711822509765625,-0.42962646484375,-0.8877105712890625
952,-0.0771942138671875,-0.42608642578125,-0.9063568115234376
953,-0.081207275390625,-0.4174041748046875,-0.92144775390625
954,-0.0782928466796875,-0.41290283203125,-0.9359130859375
955,-0.07086181640625,-0.411102294921875,-0.9365081787109376
956,-0.06982421875,-0.4124298095703125,-0.9283905029296876
957,-0.068084716796875,-0.413787841796875,-0.9188232421875
958,-0.0632171630859375,-0.414306640625,-0.91229248046875
959,-0.057281494140625,-0.412261962890625,-0.904449462890625
960,-0.0577850341796875,-0.4146728515625,-0.8914642333984375
961,-0.063323974609375,-0.42144775390625,-0.8770599365234375
962,-0.0732879638671875,-0.4311981201171875,-0.8765716552734375
963,-0.0889129638671875,-0.43756103515625,-0.8831634521484375
964,-0.094085693359375,-0.4345855712890625,-0.8961639404296875
965,-0.090667724609375,-0.4257049560546875,-0.904052734375
966,-0.08343505859375,-0.4124298095703125,-0.90179443359375
967,-0.0700836181640625,-0.4036712646484375,-0.9021453857421876
968,-0.0596923828125,-0.4027557373046875,-0.901275634765625
969,-0.06109619140625,-0.404296875,-0.8920440673828125
970,-0.066162109375,-0.415496826171875,-0.896270751953125
971,-0.076019287109375,-0.419769287109375,-0.8983917236328125
972,-0.082550048828125,-0.422149658203125,-0.8936920166015625
973,-0.0886993408203125,-0.4299774169921875,-0.8867645263671875
974,-0.0922698974609375,-0.4300079345703125,-0.8873443603515625
975,-0.0947265625,-0.4244842529296875,-0.8990478515625
976,-0.0924835205078125,-0.4219512939453125,-0.920135498046875
977,-0.0858154296875,-0.4099578857421875,-0.9419708251953124
978,-0.0752410888671875,-0.3979949951171875,-0.950286865234375
979,-0.06982421875,-0.39996337890625,-0.9411773681640624
980,-0.0689849853515625,-0.408050537109375,-0.92193603515625
981,-0.0709381103515625,-0.4138031005859375,-0.9091796875
982,-0.082061767578125,-0.4195556640625,-0.9040985107421876
983,-0.0971832275390625,-0.425994873046875,-0.9006500244140625
984,-0.1056365966796875,-0.4339752197265625,-0.8955841064453125
985,-0.1061859130859375,-0.4361572265625,-0.8913116455078125
986,-0.097259521484375,-0.4281768798828125,-0.894866943359375
987,-0.0891571044921875,-0.416046142578125,-0.89801025390625
988,-0.081451416015625,-0.4085540771484375,-0.9015350341796876
989,-0.082061767578125,-0.397552490234375,-0.910247802734375
990,-0.0692901611328125,-0.385711669921875,-0.915435791015625
991,-0.0762939453125,-0.3700714111328125,-0.9248046875
992,-0.0958404541015625,-0.353118896484375,-0.9583740234375
993,-0.096954345703125,-0.3578948974609375,-1.00958251953125
994,-0.0671539306640625,-0.3544921875,-1.023956298828125
995,-0.0342254638671875,-0.379730224609375,-0.956878662109375
996,-0.04693603515625,-0.441162109375,-0.85247802734375
997,-0.1298065185546875,-0.5061492919921875,-0.77740478515625
998,-0.2368621826171875,-0.5412445068359375,-0.7798004150390625
999,-0.27606201171875,-0.5456085205078125,-0.818084716796875
1000,-0.2430267333984375,-0.5001678466796875,-0.845794677734375
1001,-0.1558380126953125,-0.4439849853515625,-0.832611083984375
1002,-0.14794921875,-0.3847503662109375,-0.9076080322265624
1003,-0.0921783447265625,-0.3925628662109375,-0.845367431640625
1004,-0.26275634765625,-0.415283203125,-0.908538818359375
1005,-0.311187744140625,-0.443939208984375,-0.8647613525390625
1006,-0.31109619140625,-0.4368133544921875,-0.7613983154296875
1007,-0.343414306640625,-0.392852783203125,-0.6884613037109375
1008,-0.574188232421875,-0.2625885009765625,-0.512786865234375
1009,-0.718505859375,-0.0790557861328125,-0.2951202392578125
1010,-0.5430450439453125,-0.1286468505859375,-0.4208984375
1011,-0.53729248046875,-0.2105712890625,-0.5524444580078125
1012,-0.5280303955078125,-0.289093017578125,-0.5880279541015625
1013,-0.5790557861328125,-0.3458251953125,-0.6023101806640625
1014,-0.6358489990234375,-0.368377685546875,-0.5316162109375
1015,-0.59429931640625,-0.3992919921875,-0.4773406982421875
1016,-0.4299163818359375,-0.362884521484375,-0.3666229248046875
1017,-0.2259368896484375,-0.277099609375,-0.2625885009765625
1018,-0.0331878662109375,-0.19500732421875,-0.3230133056640625
1019,0.1081695556640625,-0.1654052734375,-0.529022216796875
1020,0.097442626953125,-0.150970458984375,-0.466094970703125
1021,0.0948028564453125,-0.157989501953125,-0.53363037109375
1022,0.1712799072265625,-0.2266082763671875,-0.67626953125
1023,0.44830322265625,-0.3520355224609375,-0.8991241455078125
1024,0.5797271728515625,-0.3645172119140625,-1.1005859375
1025,0.07275390625,-0.0456695556640625,-0.95672607421875
1026,-0.28289794921875,0.2705841064453125,-0.7301025390625
1027,-0.385650634765625,0.4333648681640625,-0.566680908203125
1028,-0.488800048828125,0.4801483154296875,-0.31024169921875
1029,-0.5635833740234375,0.445465087890625,-0.1767120361328125
1030,-0.684906005859375,0.4454498291015625,-0.4271392822265625
1031,-0.6009674072265625,0.437347412109375,-0.278533935546875
1032,-0.9404296875,0.470428466796875,-0.4791717529296875
1033,-1.3590087890625,0.3484649658203125,-0.4390716552734375
1034,-1.772109985351562,0.0854949951171875,-0.531158447265625
1035,-2.059249877929688,-0.1939239501953125,-0.6378173828125
1036,-2.307662963867188,-0.374969482421875,-0.668426513671875
1037,-2.622039794921875,-0.4840087890625,-0.6309967041015625
1038,-2.87908935546875,-0.6103363037109375,-0.5913848876953125
1039,-2.933700561523438,-0.7490997314453125,-0.580474853515625
1040,-2.771286010742188,-0.825836181640625,-0.563934326171875
1041,-2.553726196289062,-0.748504638671875,-0.5372467041015625
1042,-2.31170654296875,-0.5906219482421875,-0.539154052734375
1043,-2.032272338867188,-0.4668121337890625,-0.5973358154296875
1044,-1.721572875976562,-0.3752593994140625,-0.6661529541015625
1045,-1.393157958984375,-0.268951416015625,-0.61041259765625
1046,-1.077774047851562,-0.1083221435546875,-0.5397491455078125
1047,-0.8094329833984375,0.0920562744140625,-0.5106353759765625
1048,-0.573822021484375,0.2485809326171875,-0.6027374267578125
1049,-0.2555694580078125,0.37432861328125,-0.651214599609375
1050,-0.030670166015625,0.492584228515625,-0.6150054931640625
1051,0.118896484375,0.3168487548828125,-0.4113616943359375
1052,0.152130126953125,0.293975830078125,-0.0381622314453125
1053,-0.0058135986328125,0.333587646484375,0.230712890625
1054,-0.1285858154296875,0.2932281494140625,0.2282257080078125
1055,-0.344451904296875,0.1580047607421875,0.2722320556640625
1056,-0.5236053466796875,0.13922119140625,0.3316802978515625
1057,-0.59381103515625,0.214508056640625,0.324432373046875
1058,-0.6165924072265625,0.2343597412109375,0.2426605224609375
1059,-0.667572021484375,0.1346282958984375,0.0720672607421875
1060,-0.8132476806640625,0.0172271728515625,-0.2307586669921875
1061,-0.7808380126953125,0.1302032470703125,-0.443206787109375
1062,-0.9288787841796876,0.5286407470703125,-1.15057373046875
1063,-1.290435791015625,0.7238006591796875,-1.246841430664062
1064,-1.264328002929688,0.6735687255859375,-1.160369873046875
1065,-1.004501342773438,0.5175323486328125,-0.9178314208984376
1066,-0.690521240234375,0.27313232421875,-0.454254150390625
1067,-0.761932373046875,0.1489410400390625,-0.0843505859375
1068,-0.694732666015625,0.0915985107421875,0.0423583984375
1069,-0.545379638671875,0.147796630859375,-0.1750335693359375
1070,-0.79669189453125,0.20849609375,-0.2236480712890625
1071,-0.7877044677734375,0.2783966064453125,-0.3263702392578125
1072,-1.38970947265625,0.1643218994140625,-0.3454132080078125
1073,-1.595321655273438,0.0138092041015625,-0.2200927734375
1074,-1.490249633789062,0.1055450439453125,-0.2865142822265625
1075,-0.5533294677734375,0.3065032958984375,-0.0226898193359375
1076,-0.680419921875,0.21697998046875,-0.1104278564453125
1077,-0.7903900146484375,0.30072021484375,-0.1913604736328125
1078,-1.055374145507812,0.1971588134765625,-0.2412567138671875
1079,-0.910308837890625,0.3273162841796875,-0.2468109130859375
1080,-1.21343994140625,0.1840667724609375,-0.2833099365234375
1081,-0.794830322265625,0.45281982421875,-0.153656005859375
1082,-0.44647216796875,0.4530181884765625,0.01678466796875
1083,-0.412384033203125,0.5438079833984375,-0.032135009765625
1084,-0.5098419189453125,0.5262298583984375,-0.1391143798828125
1085,-0.6190948486328125,0.642547607421875,-0.2371063232421875
1086,-0.5582427978515625,0.79901123046875,-0.26275634765625
1087,-0.65167236328125,1.077606201171875,-0.45849609375
1088,-0.74786376953125,1.479843139648438,-0.583343505859375
1089,-0.3328704833984375,1.347427368164062,-0.358551025390625
1090,0.0165863037109375,1.097244262695312,-0.0184173583984375
1091,-0.0805206298828125,1.156539916992188,-0.027557373046875
1092,-0.2139892578125,1.055282592773438,0.06982421875
1093,-0.297515869140625,0.8956451416015625,0.100677490234375
1094,-0.3838653564453125,0.8445587158203125,-0.04559326171875
1095,-0.4409637451171875,0.851165771484375,-0.165802001953125
1096,-0.4300384521484375,0.82171630859375,-0.136077880859375
1097,-0.36651611328125,0.72943115234375,-0.0474090576171875
1098,-0.2989349365234375,0.6224212646484375,0.011077880859375
1099,-0.2726287841796875,0.5334930419921875,0.0113525390625
1100,-0.2287445068359375,0.4166259765625,0.0230255126953125
1101,-0.194915771484375,0.3141632080078125,-0.0002593994140625
1102,-0.1796417236328125,0.26593017578125,-0.0432891845703125
1103,-0.1494598388671875,0.229766845703125,-0.0332183837890625
1104,-0.1097412109375,0.168670654296875,-0.0390167236328125
1105,-0.0809783935546875,0.1341094970703125,-0.0409393310546875
1106,-0.053802490234375,0.147674560546875,0.069427490234375
1107,-0.0601806640625,0.2045745849609375,0.12078857421875
1108,-0.0709991455078125,0.1992034912109375,0.1812896728515625
1109,-0.06402587890625,0.1635284423828125,0.2198028564453125
1110,-0.034698486328125,0.1362762451171875,0.2468414306640625
1111,-0.0323638916015625,0.150299072265625,0.21820068359375
1112,-0.0497894287109375,0.1265411376953125,0.160308837890625
1113,-0.12530517578125,0.735443115234375,-0.1417236328125
1114,-0.546142578125,3.1868896484375,-1.500091552734375
1115,-1.975875854492188,6.411483764648438,-0.369781494140625
1116,-2.306930541992188,6.900802612304688,-1.51019287109375
1117,-0.233367919921875,2.754989624023438,-0.601837158203125
1118,-0.0502471923828125,1.198562622070312,0.301727294921875
1119,0.0566253662109375,0.7733612060546875,0.855499267578125
1120,0.137176513671875,0.473480224609375,1.277496337890625
1121,0.0728759765625,0.3863067626953125,0.98046875
1122,0.03155517578125,0.46600341796875,0.4244842529296875
1123,-0.130340576171875,0.6979217529296875,0.0561370849609375
1124,-0.222900390625,1.037841796875,-0.19384765625
1125,-0.246795654296875,1.230010986328125,-0.38299560546875
1126,-0.14605712890625,1.178955078125,-0.4071807861328125
1127,-0.0317535400390625,1.06561279296875,-0.35150146484375
1128,0.02703857421875,0.965545654296875,-0.2569732666015625
1129,0.06182861328125,0.9422454833984376,-0.2381744384765625
1130,0.0813446044921875,0.9569091796875,-0.26068115234375
1131,0.03570556640625,0.9618682861328124,-0.282196044921875
1132,0.0162506103515625,0.9608917236328124,-0.297119140625
1133,-0.009674072265625,0.9618377685546876,-0.28387451171875
1134,-0.0258026123046875,0.969268798828125,-0.252777099609375
1135,-0.0332183837890625,0.97882080078125,-0.2131500244140625
1136,-0.0409698486328125,0.9886932373046876,-0.183013916015625
1137,-0.052886962890625,0.988983154296875,-0.154266357421875
1138,-0.061676025390625,0.9900360107421876,-0.1289825439453125
1139,-0.0604248046875,0.999725341796875,-0.10467529296875
1140,-0.05096435546875,1.00872802734375,-0.079925537109375
1141,-0.045257568359375,1.010452270507812,-0.0622711181640625
1142,-0.0514068603515625,1.034133911132812,-0.0879058837890625
1143,-0.047027587890625,1.020843505859375,-0.1052093505859375
1144,-0.0450439453125,0.9951324462890624,-0.1193389892578125
1145,-0.042449951171875,0.983917236328125,-0.110565185546875
1146,-0.0489501953125,0.9853973388671876,-0.1198272705078125
1147,-0.05487060546875,0.9879608154296876,-0.1440582275390625
1148,-0.054840087890625,0.9884490966796876,-0.1600189208984375
1149,-0.0545501708984375,0.98577880859375,-0.1681060791015625
1150,-0.0600128173828125,0.9790802001953124,-0.171051025390625
1151,-0.0682220458984375,0.975494384765625,-0.1716156005859375
1152,-0.0774078369140625,0.971832275390625,-0.1695098876953125
1153,-0.0829620361328125,0.9719085693359376,-0.1636199951171875
1154,-0.0934600830078125,0.979522705078125,-0.157867431640625
1155,-0.1014862060546875,0.986602783203125,-0.1529388427734375
1156,-0.10565185546875,0.9903411865234376,-0.147430419921875
1157,-0.10943603515625,0.9904632568359376,-0.1382904052734375
1158,-0.11163330078125,0.9889984130859376,-0.13629150390625
1159,-0.114013671875,0.9860076904296876,-0.1334991455078125
1160,-0.1173553466796875,0.979644775390625,-0.1302032470703125
1161,-0.120513916015625,0.9757843017578124,-0.132110595703125
1162,-0.1274871826171875,0.9672698974609376,-0.1338958740234375
1163,-0.1334991455078125,0.9662933349609376,-0.1385498046875
1164,-0.1411285400390625,0.976409912109375,-0.142730712890625
1165,-0.1421051025390625,0.9849395751953124,-0.1462554931640625
1166,-0.1437530517578125,0.9816131591796876,-0.142852783203125
1167,-0.1466217041015625,0.9798736572265624,-0.13433837890625
1168,-0.1465911865234375,0.9804534912109376,-0.13165283203125
1169,-0.143585205078125,0.9835357666015624,-0.1255645751953125
1170,-0.13458251953125,0.98419189453125,-0.117645263671875
1171,-0.12518310546875,0.9856414794921876,-0.111083984375
1172,-0.1161346435546875,0.98687744140625,-0.106903076171875
1173,-0.112152099609375,0.9833831787109376,-0.10333251953125
1174,-0.111785888671875,0.979156494140625,-0.1013946533203125
1175,-0.1090240478515625,0.9792633056640624,-0.108154296875
1176,-0.105926513671875,0.985015869140625,-0.1182098388671875
1177,-0.102325439453125,0.9866790771484376,-0.1253509521484375
1178,-0.0935516357421875,0.98809814453125,-0.1302490234375
1179,-0.086151123046875,0.986419677734375,-0.1307373046875
1180,-0.0777740478515625,0.9840240478515624,-0.1288909912109375
1181,-0.072021484375,0.9805908203125,-0.1258392333984375
1182,-0.07080078125,0.982330322265625,-0.123138427734375
1183,-0.0727996826171875,0.98785400390625,-0.1240692138671875
1184,-0.0764617919921875,0.995452880859375,-0.1256866455078125
1185,-0.079559326171875,0.9993438720703124,-0.12353515625
1186,-0.0836029052734375,0.999114990234375,-0.1202392578125
1187,-0.08819580078125,1.000991821289062,-0.1181640625
1188,-0.09063720703125,1.000442504882812,-0.1171112060546875
1189,-0.0963592529296875,1.00030517578125,-0.1158447265625
1190,-0.1007537841796875,0.996002197265625,-0.1168670654296875
1191,-0.1054229736328125,0.989837646484375,-0.1160125732421875
1192,-0.110198974609375,0.986053466796875,-0.1166534423828125
1193,-0.1123504638671875,0.988800048828125,-0.1201019287109375
1194,-0.111053466796875,0.99151611328125,-0.1231231689453125
1195,-0.10748291015625,0.9911651611328124,-0.1219482421875
1196,-0.10369873046875,0.9902801513671876,-0.118499755859375
1197,-0.1023101806640625,0.98675537109375,-0.11566162109375
1198,-0.1000213623046875,0.98492431640625,-0.1145477294921875
1199,-0.102264404296875,0.984375,-0.1139068603515625
1200,-0.10650634765625,0.982025146484375,-0.115631103515625
1201,-0.1123199462890625,0.982818603515625,-0.1165313720703125
1202,-0.1145782470703125,0.98394775390625,-0.1181488037109375
1203,-0.115753173828125,0.9822998046875,-0.11993408203125
1204,-0.1162872314453125,0.981597900390625,-0.118682861328125
1205,-0.112548828125,0.9805145263671876,-0.1177520751953125
1206,-0.11114501953125,0.9815521240234376,-0.11663818359375
1207,-0.1099090576171875,0.9800872802734376,-0.1154022216796875
1208,-0.1098785400390625,0.9793701171875,-0.1138153076171875
1209,-0.1141510009765625,0.9817962646484376,-0.11456298828125
1210,-0.11712646484375,0.9868621826171876,-0.1159210205078125
1211,-0.1193695068359375,0.98974609375,-0.1173553466796875
1212,-0.1178131103515625,0.991729736328125,-0.1184844970703125
1213,-0.11419677734375,0.9943084716796876,-0.11614990234375
1214,-0.112762451171875,0.9940032958984376,-0.1137847900390625
1215,-0.108673095703125,0.99359130859375,-0.1113739013671875
1216,-0.10577392578125,0.9920654296875,-0.1121368408203125
1217,-0.1052093505859375,0.987396240234375,-0.115753173828125
1218,-0.1045989990234375,0.983642578125,-0.1190185546875
1219,-0.106109619140625,0.9810638427734376,-0.1201171875
1220,-0.108551025390625,0.9829254150390624,-0.1185455322265625
1221,-0.1087188720703125,0.9822235107421876,-0.11395263671875
1222,-0.1080474853515625,0.982696533203125,-0.1096649169921875
1223,-0.106475830078125,0.9841156005859376,-0.1050872802734375
1224,-0.1058502197265625,0.9832000732421876,-0.1023712158203125
1225,-0.1038970947265625,0.986328125,-0.1004638671875
1226,-0.1032562255859375,0.993560791015625,-0.1016693115234375
1227,-0.101837158203125,0.9987030029296876,-0.099578857421875
1228,-0.0981903076171875,0.99755859375,-0.097625732421875
1229,-0.0956573486328125,0.99200439453125,-0.0965118408203125
1230,-0.0944671630859375,0.9878997802734376,-0.09552001953125
1231,-0.09259033203125,0.9905242919921876,-0.0956268310546875
1232,-0.0930938720703125,0.9969940185546876,-0.0949554443359375
1233,-0.094329833984375,1.004318237304688,-0.0925750732421875
1234,-0.095977783203125,1.00860595703125,-0.0874786376953125
1235,-0.0954742431640625,1.006027221679688,-0.080780029296875
1236,-0.095306396484375,1.001007080078125,-0.0750274658203125
1237,-0.0944366455078125,0.9945068359375,-0.070281982421875
1238,-0.0966339111328125,0.99224853515625,-0.06463623046875
1239,-0.10064697265625,0.9914093017578124,-0.0616912841796875
1240,-0.1059722900390625,0.99169921875,-0.055938720703125
1241,-0.1114654541015625,0.996002197265625,-0.0509185791015625
1242,-0.1250457763671875,0.9967041015625,-0.0484161376953125
1243,-0.1325531005859375,1.005096435546875,-0.046875
1244,-0.14117431640625,1.006515502929688,-0.0405731201171875
1245,-0.14776611328125,0.9950714111328124,-0.0279083251953125
1246,-0.1484375,0.981231689453125,-0.022003173828125
1247,-0.15167236328125,0.970947265625,-0.0224761962890625
1248,-0.1531524658203125,0.96905517578125,-0.0200958251953125
1249,-0.1533660888671875,0.9699249267578124,-0.0140838623046875
1250,-0.155975341796875,0.97625732421875,-0.0053253173828125
1251,-0.155792236328125,0.986114501953125,0.00567626953125
1252,-0.1559295654296875,0.9965057373046876,0.0170440673828125
1253,-0.147674560546875,1.005157470703125,0.0376434326171875
1254,-0.1538848876953125,1.011917114257812,0.0353546142578125
1255,-0.1473388671875,1.022308349609375,0.0235137939453125
1256,-0.1453094482421875,1.020889282226562,0.0162200927734375
1257,-0.1458740234375,1.01715087890625,0.012725830078125
1258,-0.1502532958984375,1.003890991210938,0.01141357421875
1259,-0.1451873779296875,0.994476318359375,0.0113525390625
1260,-0.1360626220703125,0.978607177734375,0.01177978515625
1261,-0.123565673828125,0.9571075439453124,0.0018157958984375
1262,-0.103973388671875,0.9469757080078124,-0.0105133056640625
1263,-0.0997161865234375,0.9420013427734376,-0.0320892333984375
1264,-0.0910186767578125,0.93609619140625,-0.0436248779296875
1265,-0.0839385986328125,0.9356842041015624,-0.0461578369140625
1266,-0.07891845703125,0.9424591064453124,-0.04638671875
1267,-0.0846405029296875,0.951690673828125,-0.0508575439453125
1268,-0.102020263671875,0.9542388916015624,-0.045562744140625
1269,-0.1191253662109375,0.9499053955078124,-0.0321044921875
1270,-0.129852294921875,0.95281982421875,-0.0155029296875
1271,-0.138336181640625,0.959136962890625,-0.0078125
1272,-0.1511383056640625,0.96759033203125,-0.0045013427734375
1273,-0.164276123046875,0.984619140625,-0.00152587890625
1274,-0.1727447509765625,1.026214599609375,-0.0003204345703125
1275,-0.1697998046875,1.083465576171875,-0.0006103515625
1276,-0.15594482421875,1.119735717773438,0.0004425048828125
1277,-0.165435791015625,1.111053466796875,0.0152740478515625
1278,-0.2314910888671875,1.061370849609375,0.042388916015625
1279,-0.26043701171875,1.002838134765625,0.0492095947265625
1280,-0.2322540283203125,0.9695587158203124,0.02996826171875
1281,-0.1895904541015625,0.9720611572265624,-0.0193328857421875
1282,-0.145477294921875,0.990875244140625,-0.067047119140625
1283,-0.11004638671875,1.00701904296875,-0.0845184326171875
1284,-0.088623046875,1.013397216796875,-0.080902099609375
1285,-0.0685272216796875,1.001754760742188,-0.0573883056640625
1286,-0.0722503662109375,0.9883270263671876,-0.03076171875
1287,-0.0888519287109375,0.980987548828125,-0.025390625
1288,-0.108551025390625,0.98101806640625,-0.0344085693359375
1289,-0.117889404296875,0.987396240234375,-0.0396881103515625
1290,-0.1090850830078125,0.9937286376953124,-0.0390625
1291,-0.1016845703125,0.9984130859375,-0.039947509765625
1292,-0.0972900390625,0.9994964599609376,-0.0447235107421875
1293,-0.0964202880859375,0.9995574951171876,-0.0508575439453125
1294,-0.1053314208984375,0.9923858642578124,-0.0587921142578125
1295,-0.11663818359375,0.98333740234375,-0.0643768310546875
1296,-0.1277923583984375,0.9754180908203124,-0.06768798828125
1297,-0.1327056884765625,0.9688568115234376,-0.0687713623046875
1298,-0.1379241943359375,0.9649658203125,-0.07098388671875
1299,-0.159332275390625,0.960906982421875,-0.0754241943359375
1300,-0.1721038818359375,0.968292236328125,-0.0746002197265625
1301,-0.1766510009765625,0.96435546875,-0.0765380859375
1302,-0.1836700439453125,0.9632720947265624,-0.0796661376953125
1303,-0.1817779541015625,0.9689788818359376,-0.0749969482421875
1304,-0.1788330078125,0.9690704345703124,-0.0725860595703125
1305,-0.17633056640625,0.969940185546875,-0.0707855224609375
1306,-0.170074462890625,0.9687652587890624,-0.0697784423828125
1307,-0.16192626953125,0.967254638671875,-0.07623291015625
1308,-0.15753173828125,0.973297119140625,-0.08123779296875
1309,-0.1561737060546875,0.9734039306640624,-0.081756591796875
1310,-0.157470703125,0.9698944091796876,-0.0818023681640625
1311,-0.16156005859375,0.970184326171875,-0.0834808349609375
1312,-0.1674041748046875,0.9700775146484376,-0.0850830078125
1313,-0.171295166015625,0.9697418212890624,-0.0876007080078125
1314,-0.1726837158203125,0.9726715087890624,-0.08575439453125
1315,-0.1758270263671875,0.9784393310546876,-0.0836944580078125
1316,-0.167999267578125,0.97564697265625,-0.0842132568359375
1317,-0.1768798828125,0.9758148193359376,-0.08013916015625
1318,-0.1780548095703125,0.9832305908203124,-0.0755767822265625
1319,-0.1786651611328125,0.9810333251953124,-0.076873779296875
1320,-0.178985595703125,0.973052978515625,-0.074615478515625
1321,-0.1777191162109375,0.966339111328125,-0.075286865234375
1322,-0.1815185546875,0.966827392578125,-0.0788116455078125
1323,-0.1766357421875,0.971893310546875,-0.0849609375
1324,-0.17730712890625,0.97296142578125,-0.08917236328125
1325,-0.1781158447265625,0.969879150390625,-0.0889892578125
1326,-0.1764678955078125,0.970611572265625,-0.0882568359375
1327,-0.177581787109375,0.971527099609375,-0.0881195068359375
1328,-0.1776580810546875,0.964569091796875,-0.0872650146484375
1329,-0.1807861328125,0.9625396728515624,-0.084747314453125
1330,-0.1762542724609375,0.961151123046875,-0.0841217041015625
1331,-0.1740570068359375,0.9622039794921876,-0.0872344970703125
1332,-0.17095947265625,0.970855712890625,-0.0907440185546875
1333,-0.1667022705078125,0.9759368896484376,-0.0959320068359375
1334,-0.161651611328125,0.981536865234375,-0.09619140625
1335,-0.15789794921875,0.9842529296875,-0.0972442626953125
1336,-0.1516571044921875,0.98028564453125,-0.0948333740234375
1337,-0.1449432373046875,0.97674560546875,-0.0919342041015625
1338,-0.138671875,0.973388671875,-0.0905303955078125
1339,-0.1340484619140625,0.971282958984375,-0.087921142578125
1340,-0.1356964111328125,0.97039794921875,-0.087921142578125
1341,-0.1399993896484375,0.9721832275390624,-0.09088134765625
1342,-0.145660400390625,0.978668212890625,-0.096649169921875
1343,-0.1529693603515625,0.9852294921875,-0.102783203125
1344,-0.159515380859375,0.9896240234375,-0.104461669921875
1345,-0.165740966796875,0.992462158203125,-0.103424072265625
1346,-0.17388916015625,0.994598388671875,-0.1006317138671875
1347,-0.1826934814453125,0.9942779541015624,-0.0957183837890625
1348,-0.186859130859375,0.988922119140625,-0.088897705078125
1349,-0.1896820068359375,0.9850921630859376,-0.0849151611328125
1350,-0.1935272216796875,0.9814453125,-0.0792083740234375
1351,-0.1940765380859375,0.9775238037109376,-0.07440185546875
1352,-0.191925048828125,0.975433349609375,-0.070220947265625
1353,-0.189300537109375,0.9766693115234376,-0.06964111328125
1354,-0.188995361328125,0.9754791259765624,-0.070098876953125
1355,-0.1928558349609375,0.9751129150390624,-0.07147216796875
1356,-0.193450927734375,0.9777069091796876,-0.073486328125
1357,-0.1927337646484375,0.9762420654296876,-0.0783843994140625
1358,-0.19134521484375,0.9746551513671876,-0.0832672119140625
1359,-0.1902923583984375,0.97332763671875,-0.0900421142578125
1360,-0.187835693359375,0.9750518798828124,-0.0958404541015625
1361,-0.184661865234375,0.9807586669921876,-0.1027069091796875
1362,-0.1815185546875,0.9845428466796876,-0.1057891845703125
1363,-0.178955078125,0.9838104248046876,-0.104766845703125
1364,-0.1775054931640625,0.981109619140625,-0.102294921875
1365,-0.178619384765625,0.97650146484375,-0.101226806640625
1366,-0.1815643310546875,0.97430419921875,-0.0986328125
1367,-0.183135986328125,0.976226806640625,-0.0987396240234375
1368,-0.185089111328125,0.97802734375,-0.098663330078125
1369,-0.1895751953125,0.978759765625,-0.0957489013671875
1370,-0.1891021728515625,0.9830322265625,-0.09161376953125
1371,-0.188751220703125,0.988372802734375,-0.0882110595703125
1372,-0.19049072265625,0.98944091796875,-0.084930419921875
1373,-0.1925201416015625,0.988525390625,-0.0823211669921875
1374,-0.1926727294921875,0.9874420166015624,-0.0845489501953125
1375,-0.1952056884765625,0.9835662841796876,-0.088043212890625
1376,-0.1937408447265625,0.9819183349609376,-0.09222412109375
1377,-0.19091796875,0.981292724609375,-0.096923828125
1378,-0.187713623046875,0.9814910888671876,-0.097442626953125
1379,-0.1847686767578125,0.981170654296875,-0.098541259765625
1380,-0.181121826171875,0.9803314208984376,-0.0982666015625
1381,-0.179534912109375,0.9799346923828124,-0.0956268310546875
1382,-0.1805419921875,0.9806060791015624,-0.094207763671875
1383,-0.1829681396484375,0.9812469482421876,-0.0933380126953125
1384,-0.18359375,0.97967529296875,-0.092498779296875
1385,-0.1793365478515625,0.9772796630859376,-0.0928802490234375
1386,-0.1766510009765625,0.977813720703125,-0.093963623046875
1387,-0.1736297607421875,0.9766387939453124,-0.0972137451171875
1388,-0.17572021484375,0.9748687744140624,-0.09716796875
1389,-0.1797637939453125,0.974151611328125,-0.095062255859375
1390,-0.183624267578125,0.974945068359375,-0.0962066650390625
1391,-0.1816558837890625,0.9737091064453124,-0.0936737060546875
1392,-0.181915283203125,0.9757843017578124,-0.0901947021484375
1393,-0.1784820556640625,0.9783477783203124,-0.0897979736328125
1394,-0.1748504638671875,0.9797821044921876,-0.0901947021484375
1395,-0.1739044189453125,0.9787750244140624,-0.088623046875
1396,-0.1731414794921875,0.9773712158203124,-0.0890350341796875
1397,-0.1750640869140625,0.9773406982421876,-0.0940399169921875
1398,-0.1753082275390625,0.977203369140625,-0.09619140625
1399,-0.1750946044921875,0.9754180908203124,-0.0959930419921875
1400,-0.1768798828125,0.9750518798828124,-0.097503662109375
1401,-0.1787261962890625,0.97589111328125,-0.09613037109375
1402,-0.180999755859375,0.9771881103515624,-0.0948638916015625
1403,-0.18121337890625,0.977508544921875,-0.093109130859375
1404,-0.1838226318359375,0.9756622314453124,-0.0921478271484375
1405,-0.1863250732421875,0.9766998291015624,-0.09100341796875
1406,-0.1874237060546875,0.9763031005859376,-0.0894927978515625
1407,-0.1886138916015625,0.9802398681640624,-0.091278076171875
1408,-0.189361572265625,0.9788665771484376,-0.089324951171875
1409,-0.1885833740234375,0.9756622314453124,-0.0875396728515625
1410,-0.1898040771484375,0.9773712158203124,-0.08837890625
1411,-0.1888275146484375,0.9791717529296876,-0.09228515625
1412,-0.1846466064453125,0.9799957275390624,-0.095001220703125
1413,-0.1765899658203125,0.9763336181640624,-0.0924224853515625
1414,-0.16961669921875,0.9735870361328124,-0.0943603515625
1415,-0.1646575927734375,0.972320556640625,-0.09881591796875
1416,-0.1609954833984375,0.9747161865234376,-0.10205078125
1417,-0.164215087890625,0.9794464111328124,-0.1054229736328125
1418,-0.1722412109375,0.979705810546875,-0.1088104248046875
1419,-0.1828460693359375,0.9787750244140624,-0.1076507568359375
1420,-0.198974609375,0.9766845703125,-0.1047515869140625
1421,-0.20977783203125,0.9741973876953124,-0.0998992919921875
1422,-0.2147674560546875,0.9745635986328124,-0.08941650390625
1423,-0.2189178466796875,0.9752655029296876,-0.0811767578125
1424,-0.22125244140625,0.9723358154296876,-0.0698394775390625
1425,-0.223541259765625,0.9728240966796876,-0.0601806640625
1426,-0.2276153564453125,0.9739532470703124,-0.054290771484375
1427,-0.23089599609375,0.9749603271484376,-0.0540313720703125
1428,-0.232421875,0.97589111328125,-0.05255126953125
1429,-0.232940673828125,0.97802734375,-0.0531005859375
1430,-0.23260498046875,0.98175048828125,-0.05413818359375
1431,-0.2285308837890625,0.9828033447265624,-0.056396484375
1432,-0.2201690673828125,0.9796295166015624,-0.059234619140625
1433,-0.20703125,0.9801483154296876,-0.06610107421875
1434,-0.19512939453125,0.9846954345703124,-0.0746917724609375
1435,-0.184295654296875,0.98736572265625,-0.0830078125
1436,-0.1782989501953125,0.986602783203125,-0.0864715576171875
1437,-0.174041748046875,0.9821929931640624,-0.0927276611328125
1438,-0.1718292236328125,0.977691650390625,-0.0973358154296875
1439,-0.174468994140625,0.9720916748046876,-0.102264404296875
1440,-0.1775360107421875,0.9683685302734376,-0.1058197021484375
1441,-0.1819610595703125,0.966400146484375,-0.1074066162109375
1442,-0.184295654296875,0.964996337890625,-0.106201171875
1443,-0.187774658203125,0.9674530029296876,-0.10272216796875
1444,-0.1887664794921875,0.9715118408203124,-0.100128173828125
1445,-0.192108154296875,0.9742431640625,-0.0950927734375
1446,-0.1948394775390625,0.976837158203125,-0.086944580078125
1447,-0.1952972412109375,0.97662353515625,-0.0778961181640625
1448,-0.19464111328125,0.9769744873046876,-0.0713653564453125
1449,-0.1930389404296875,0.979736328125,-0.066314697265625
1450,-0.189666748046875,0.982147216796875,-0.0643463134765625
1451,-0.1855926513671875,0.982635498046875,-0.06341552734375
1452,-0.18017578125,0.983612060546875,-0.06573486328125
1453,-0.176116943359375,0.9833984375,-0.0689697265625
1454,-0.178070068359375,0.981201171875,-0.0753021240234375
1455,-0.1827850341796875,0.9771728515625,-0.0800018310546875
1456,-0.1878204345703125,0.974090576171875,-0.0860595703125
1457,-0.19281005859375,0.96734619140625,-0.091156005859375
1458,-0.191009521484375,0.9620819091796876,-0.093536376953125
1459,-0.187347412109375,0.9613494873046876,-0.094207763671875
1460,-0.18072509765625,0.9609527587890624,-0.0936431884765625
1461,-0.17974853515625,0.965728759765625,-0.0949859619140625
1462,-0.1819915771484375,0.9703369140625,-0.0934600830078125
1463,-0.183929443359375,0.97296142578125,-0.0893707275390625
1464,-0.184906005859375,0.9739532470703124,-0.082427978515625
1465,-0.1844940185546875,0.9738006591796876,-0.078521728515625
1466,-0.1825408935546875,0.9731903076171876,-0.07574462890625
1467,-0.180694580078125,0.9774627685546876,-0.0754547119140625
1468,-0.1790008544921875,0.979156494140625,-0.0763092041015625
1469,-0.177337646484375,0.97711181640625,-0.0755462646484375
1470,-0.1792144775390625,0.9781036376953124,-0.0757293701171875
1471,-0.1818389892578125,0.977813720703125,-0.07470703125
1472,-0.1795654296875,0.9781646728515624,-0.076171875
1473,-0.1795501708984375,0.9779510498046876,-0.077301025390625
1474,-0.178924560546875,0.9769744873046876,-0.0750732421875
1475,-0.180511474609375,0.9742279052734376,-0.07684326171875
1476,-0.1826324462890625,0.9708709716796876,-0.0764007568359375
1477,-0.18035888671875,0.9686279296875,-0.0796051025390625
1478,-0.18023681640625,0.9664764404296876,-0.0836334228515625
1479,-0.178192138671875,0.9678802490234376,-0.086181640625
1480,-0.1781005859375,0.972381591796875,-0.0886383056640625
1481,-0.1767120361328125,0.98004150390625,-0.0891876220703125
1482,-0.17572021484375,0.987640380859375,-0.0891571044921875
1483,-0.174560546875,0.9898529052734376,-0.0866546630859375
1484,-0.1731414794921875,0.9884490966796876,-0.07989501953125
1485,-0.1746978759765625,0.984771728515625,-0.0762786865234375
1486,-0.17803955078125,0.9782562255859376,-0.0744171142578125
1487,-0.183685302734375,0.9739532470703124,-0.0724639892578125
1488,-0.186492919921875,0.9714508056640624,-0.076568603515625
1489,-0.1884002685546875,0.96978759765625,-0.0802001953125
1490,-0.185577392578125,0.971160888671875,-0.08514404296875
1491,-0.1851654052734375,0.9745635986328124,-0.090118408203125
1492,-0.182464599609375,0.9799652099609376,-0.0937652587890625
1493,-0.1784210205078125,0.983489990234375,-0.094451904296875
1494,-0.176025390625,0.983734130859375,-0.0955810546875
1495,-0.1701202392578125,0.9788360595703124,-0.0941619873046875
1496,-0.1705780029296875,0.9753570556640624,-0.091156005859375
1497,-0.17095947265625,0.97412109375,-0.0885162353515625
1498,-0.1752471923828125,0.973236083984375,-0.08966064453125
1499,-0.1790313720703125,0.9715118408203124,-0.0880889892578125
1500,-0.1832275390625,0.9705810546875,-0.0850372314453125
1501,-0.188018798828125,0.9764404296875,-0.0854339599609375
1502,-0.1923675537109375,0.9825286865234376,-0.0862579345703125
1503,-0.1908416748046875,0.98284912109375,-0.08447265625
1504,-0.1886749267578125,0.9799346923828124,-0.080108642578125
1505,-0.1842193603515625,0.97662353515625,-0.0756683349609375
1506,-0.185302734375,0.9804534912109376,-0.0755157470703125
1507,-0.1898193359375,0.9861602783203124,-0.078125
1508,-0.1930389404296875,0.9882354736328124,-0.0793304443359375
1509,-0.1966705322265625,0.9881439208984376,-0.0757598876953125
1510,-0.1968536376953125,0.9935760498046876,-0.073699951171875
1511,-0.197998046875,0.98968505859375,-0.0731658935546875
1512,-0.1964111328125,0.9869232177734376,-0.071075439453125
1513,-0.194610595703125,0.982452392578125,-0.0689544677734375
1514,-0.19146728515625,0.9798431396484376,-0.0694732666015625
1515,-0.190338134765625,0.978729248046875,-0.073089599609375
1516,-0.187774658203125,0.979583740234375,-0.073883056640625
1517,-0.1890869140625,0.9800262451171876,-0.078094482421875
1518,-0.188385009765625,0.980377197265625,-0.081787109375
1519,-0.189605712890625,0.9794158935546876,-0.083404541015625
1520,-0.1884307861328125,0.980194091796875,-0.0846710205078125
1521,-0.19036865234375,0.97845458984375,-0.087799072265625
1522,-0.1892547607421875,0.975555419921875,-0.08758544921875
1523,-0.187042236328125,0.9750823974609376,-0.088348388671875
1524,-0.188720703125,0.9749298095703124,-0.0920867919921875
1525,-0.1883392333984375,0.9764862060546876,-0.0939178466796875
1526,-0.18829345703125,0.9772186279296876,-0.0948028564453125
1527,-0.189697265625,0.976776123046875,-0.093505859375
1528,-0.1894378662109375,0.9744415283203124,-0.09320068359375
1529,-0.18853759765625,0.97467041015625,-0.094146728515625
1530,-0.184661865234375,0.97308349609375,-0.093505859375
1531,-0.181915283203125,0.9753265380859376,-0.093597412109375
1532,-0.1793975830078125,0.9779815673828124,-0.0935516357421875
1533,-0.17877197265625,0.979095458984375,-0.0896148681640625
1534,-0.1803131103515625,0.9805908203125,-0.088348388671875
1535,-0.1812286376953125,0.98272705078125,-0.0892333984375
1536,-0.1823883056640625,0.982940673828125,-0.0889739990234375
1537,-0.1812744140625,0.980499267578125,-0.088104248046875
1538,-0.1797027587890625,0.9787445068359376,-0.0897369384765625
1539,-0.1777801513671875,0.977813720703125,-0.091705322265625
1540,-0.1747589111328125,0.9780120849609376,-0.0921478271484375
1541,-0.174163818359375,0.9800567626953124,-0.0968780517578125
1542,-0.1712799072265625,0.9801177978515624,-0.100341796875
1543,-0.1725616455078125,0.97894287109375,-0.1035003662109375
1544,-0.17303466796875,0.9799041748046876,-0.106475830078125
1545,-0.1747283935546875,0.9789581298828124,-0.105560302734375
1546,-0.1768646240234375,0.9796600341796876,-0.1066131591796875
1547,-0.1790313720703125,0.97900390625,-0.106903076171875
1548,-0.1792449951171875,0.980010986328125,-0.10589599609375
1549,-0.181793212890625,0.98004150390625,-0.1037139892578125
1550,-0.182891845703125,0.981109619140625,-0.099822998046875
1551,-0.180023193359375,0.9825592041015624,-0.09716796875
1552,-0.17822265625,0.9834442138671876,-0.0957489013671875
1553,-0.1764678955078125,0.9841461181640624,-0.09344482421875
1554,-0.1757049560546875,0.9839630126953124,-0.093597412109375
1555,-0.1764373779296875,0.98577880859375,-0.0938568115234375
1556,-0.1785125732421875,0.9839019775390624,-0.0945281982421875
1557,-0.1788330078125,0.9819183349609376,-0.0976715087890625
1558,-0.177886962890625,0.9767913818359376,-0.0982818603515625
1559,-0.1775360107421875,0.974212646484375,-0.1004791259765625
1560,-0.175994873046875,0.9736175537109376,-0.1024627685546875
1561,-0.17529296875,0.9736328125,-0.10504150390625
1562,-0.1728057861328125,0.9740753173828124,-0.10430908203125
1563,-0.1694793701171875,0.976165771484375,-0.10205078125
1564,-0.167938232421875,0.9783782958984376,-0.1025543212890625
1565,-0.1676483154296875,0.9798126220703124,-0.1006927490234375
1566,-0.1696319580078125,0.9801177978515624,-0.0979156494140625
1567,-0.175445556640625,0.9818878173828124,-0.0957183837890625
1568,-0.186126708984375,0.97967529296875,-0.0954437255859375
1569,-0.1953582763671875,0.977325439453125,-0.0944976806640625
1570,-0.201416015625,0.969818115234375,-0.09783935546875
1571,-0.2077484130859375,0.9641876220703124,-0.099029541015625
1572,-0.2108001708984375,0.9620513916015624,-0.097625732421875
1573,-0.20953369140625,0.9585113525390624,-0.0917816162109375
1574,-0.2027435302734375,0.9553985595703124,-0.0861053466796875
1575,-0.1944122314453125,0.9571990966796876,-0.0826416015625
1576,-0.185455322265625,0.962890625,-0.07635498046875
1577,-0.1784820556640625,0.97161865234375,-0.0726776123046875
1578,-0.1718597412109375,0.980316162109375,-0.0720977783203125
1579,-0.1681060791015625,0.989105224609375,-0.07391357421875
1580,-0.1645660400390625,0.992889404296875,-0.0802154541015625
1581,-0.16412353515625,0.9937591552734376,-0.087158203125
1582,-0.1642913818359375,0.9917449951171876,-0.095550537109375
1583,-0.1616058349609375,0.986328125,-0.102325439453125
1584,-0.159332275390625,0.982391357421875,-0.1075286865234375
1585,-0.157745361328125,0.97882080078125,-0.113861083984375
1586,-0.15667724609375,0.9774932861328124,-0.1194000244140625
1587,-0.155059814453125,0.97552490234375,-0.12286376953125
1588,-0.151702880859375,0.974212646484375,-0.125335693359375
1589,-0.153076171875,0.97552490234375,-0.1282958984375
1590,-0.1561737060546875,0.975677490234375,-0.12554931640625
1591,-0.158538818359375,0.9746856689453124,-0.1222381591796875
1592,-0.162384033203125,0.974212646484375,-0.115325927734375
1593,-0.1662445068359375,0.9763031005859376,-0.109283447265625
1594,-0.1669769287109375,0.975128173828125,-0.1038818359375
1595,-0.1639251708984375,0.97760009765625,-0.101226806640625
1596,-0.1654205322265625,0.979583740234375,-0.0994110107421875
1597,-0.16278076171875,0.9810791015625,-0.09783935546875
1598,-0.1605987548828125,0.980194091796875,-0.094940185546875
1599,-0.1560211181640625,0.9799346923828124,-0.0949859619140625
1600,-0.153594970703125,0.981292724609375,-0.0940399169921875
1601,-0.15289306640625,0.98272705078125,-0.0968170166015625
1602,-0.1554718017578125,0.9852752685546876,-0.099456787109375
1603,-0.154022216796875,0.986419677734375,-0.1039276123046875
1604,-0.1537628173828125,0.9844207763671876,-0.1065521240234375
1605,-0.1526641845703125,0.9844970703125,-0.112060546875
1606,-0.149932861328125,0.98406982421875,-0.117279052734375
1607,-0.148712158203125,0.9832916259765624,-0.11932373046875
1608,-0.146820068359375,0.9824981689453124,-0.1196746826171875
1609,-0.1452178955078125,0.98175048828125,-0.121002197265625
1610,-0.145965576171875,0.981414794921875,-0.11822509765625
1611,-0.1482086181640625,0.981475830078125,-0.1158905029296875
1612,-0.149444580078125,0.98114013671875,-0.115386962890625
1613,-0.1523284912109375,0.9817047119140624,-0.1160125732421875
1614,-0.1534881591796875,0.9834442138671876,-0.1160430908203125
1615,-0.154327392578125,0.9841766357421876,-0.1143646240234375
1616,-0.1506195068359375,0.98126220703125,-0.113433837890625
1617,-0.147064208984375,0.980133056640625,-0.11297607421875
1618,-0.1439361572265625,0.9811859130859376,-0.11309814453125
1619,-0.1425628662109375,0.98016357421875,-0.1114044189453125
1620,-0.1421051025390625,0.9779815673828124,-0.1111297607421875
1621,-0.1409454345703125,0.97869873046875,-0.111541748046875
1622,-0.142791748046875,0.9782257080078124,-0.11431884765625
1623,-0.144927978515625,0.978912353515625,-0.116790771484375
1624,-0.1448974609375,0.9790191650390624,-0.1183624267578125
1625,-0.1434783935546875,0.9827880859375,-0.1194000244140625
1626,-0.143096923828125,0.985198974609375,-0.11846923828125
1627,-0.141693115234375,0.983795166015625,-0.1142730712890625
1628,-0.1414031982421875,0.9826507568359376,-0.1112518310546875
1629,-0.1418609619140625,0.9816131591796876,-0.1069488525390625
1630,-0.1419219970703125,0.98077392578125,-0.102325439453125
1631,-0.1453094482421875,0.9819183349609376,-0.098388671875
1632,-0.1461639404296875,0.9825592041015624,-0.0946807861328125
1633,-0.1469268798828125,0.9832000732421876,-0.09539794921875
1634,-0.14886474609375,0.9843597412109376,-0.0959930419921875
1635,-0.14923095703125,0.98382568359375,-0.0974578857421875
1636,-0.1488037109375,0.983184814453125,-0.0984649658203125
1637,-0.1493988037109375,0.9814605712890624,-0.102996826171875
1638,-0.1490020751953125,0.9834747314453124,-0.10595703125
1639,-0.1468048095703125,0.9832916259765624,-0.10833740234375
1640,-0.145721435546875,0.983734130859375,-0.108367919921875
1641,-0.1484527587890625,0.984832763671875,-0.1085052490234375
1642,-0.150848388671875,0.9863739013671876,-0.110626220703125
1643,-0.152801513671875,0.985107421875,-0.1072845458984375
1644,-0.155029296875,0.9848175048828124,-0.106414794921875
1645,-0.155731201171875,0.9828033447265624,-0.10638427734375
1646,-0.1552734375,0.9808502197265624,-0.103607177734375
1647,-0.1533966064453125,0.9794464111328124,-0.09979248046875
1648,-0.150421142578125,0.9777679443359376,-0.09912109375
1649,-0.1482391357421875,0.978057861328125,-0.096771240234375
1650,-0.146881103515625,0.9802703857421876,-0.0942535400390625
1651,-0.1477203369140625,0.9815216064453124,-0.092071533203125
1652,-0.147613525390625,0.9810333251953124,-0.0903778076171875
1653,-0.1510467529296875,0.9812469482421876,-0.0904388427734375
1654,-0.15435791015625,0.982086181640625,-0.0929718017578125
1655,-0.15496826171875,0.983917236328125,-0.095611572265625
1656,-0.153594970703125,0.98211669921875,-0.097808837890625
1657,-0.1502838134765625,0.9835968017578124,-0.099029541015625
1658,-0.14642333984375,0.9847412109375,-0.1017913818359375
1659,-0.147369384765625,0.9857177734375,-0.102142333984375
1660,-0.1465301513671875,0.986236572265625,-0.100830078125
1661,-0.1461334228515625,0.983642578125,-0.100189208984375
1662,-0.1471405029296875,0.9797210693359376,-0.1005401611328125
1663,-0.1457061767578125,0.9798736572265624,-0.1007843017578125
1664,-0.1452789306640625,0.980010986328125,-0.100372314453125
1665,-0.1448822021484375,0.979400634765625,-0.0989227294921875
1666,-0.14630126953125,0.97802734375,-0.0991058349609375
1667,-0.1470489501953125,0.979736328125,-0.1000823974609375
1668,-0.1492767333984375,0.9812469482421876,-0.1009674072265625
1669,-0.1486663818359375,0.982086181640625,-0.1007843017578125
1670,-0.1474761962890625,0.98333740234375,-0.1003570556640625
1671,-0.1478118896484375,0.9845123291015624,-0.09942626953125
1672,-0.1483612060546875,0.983978271484375,-0.0960235595703125
1673,-0.147857666015625,0.9833526611328124,-0.094207763671875
1674,-0.148406982421875,0.9838104248046876,-0.0947418212890625
1675,-0.1489410400390625,0.984283447265625,-0.0939178466796875
1676,-0.149627685546875,0.98260498046875,-0.094482421875
1677,-0.15191650390625,0.9833221435546876,-0.0939788818359375
1678,-0.1539306640625,0.980224609375,-0.0955963134765625
1679,-0.155303955078125,0.9793701171875,-0.0949249267578125
1680,-0.1559906005859375,0.979705810546875,-0.095367431640625
1681,-0.1540374755859375,0.9798431396484376,-0.0980072021484375
1682,-0.150970458984375,0.979888916015625,-0.099639892578125
1683,-0.148651123046875,0.9791717529296876,-0.1002349853515625
1684,-0.1443634033203125,0.975189208984375,-0.099853515625
1685,-0.1436614990234375,0.977752685546875,-0.1006622314453125
1686,-0.14208984375,0.9822540283203124,-0.1021270751953125
1687,-0.138763427734375,0.98529052734375,-0.1000213623046875
1688,-0.1399078369140625,0.985595703125,-0.09832763671875
1689,-0.1403656005859375,0.9871826171875,-0.09649658203125
1690,-0.1418304443359375,0.985992431640625,-0.09356689453125
1691,-0.145904541015625,0.981536865234375,-0.090484619140625
1692,-0.150054931640625,0.9863128662109376,-0.09002685546875
1693,-0.1563568115234375,0.984832763671875,-0.08599853515625
1694,-0.1568145751953125,0.9835205078125,-0.0844268798828125
1695,-0.15850830078125,0.9824981689453124,-0.0826568603515625
1696,-0.1601104736328125,0.9830322265625,-0.0847015380859375
1697,-0.1616973876953125,0.98309326171875,-0.0846710205078125
1698,-0.164093017578125,0.98162841796875,-0.083648681640625
1699,-0.165283203125,0.9827423095703124,-0.0852813720703125
1700,-0.165924072265625,0.9819183349609376,-0.08837890625
1701,-0.1671600341796875,0.9810943603515624,-0.0895843505859375
1702,-0.1644134521484375,0.9783477783203124,-0.091888427734375
1703,-0.1619873046875,0.9788818359375,-0.092742919921875
1704,-0.1569366455078125,0.9832763671875,-0.09600830078125
1705,-0.1522216796875,0.982147216796875,-0.0962371826171875
1706,-0.1486358642578125,0.9774627685546876,-0.0968170166015625
1707,-0.1461029052734375,0.97662353515625,-0.0973052978515625
1708,-0.1450042724609375,0.9770965576171876,-0.0998687744140625
1709,-0.145111083984375,0.9772491455078124,-0.1045074462890625
1710,-0.1443023681640625,0.9757080078125,-0.1053314208984375
1711,-0.1443634033203125,0.977935791015625,-0.107879638671875
1712,-0.1436614990234375,0.9788970947265624,-0.109161376953125
1713,-0.1418609619140625,0.980255126953125,-0.1083526611328125
1714,-0.1372528076171875,0.9821319580078124,-0.1051177978515625
1715,-0.1349945068359375,0.9839324951171876,-0.102752685546875
1716,-0.1328582763671875,0.9836883544921876,-0.099395751953125
1717,-0.1326141357421875,0.9818267822265624,-0.0982513427734375
1718,-0.133880615234375,0.980987548828125,-0.0972137451171875
1719,-0.1352996826171875,0.98272705078125,-0.099395751953125
1720,-0.135986328125,0.982421875,-0.1001129150390625
1721,-0.1364898681640625,0.985015869140625,-0.1014862060546875
1722,-0.138214111328125,0.9834136962890624,-0.105377197265625
1723,-0.1370697021484375,0.984039306640625,-0.1050262451171875
1724,-0.137054443359375,0.9842529296875,-0.1050262451171875
1725,-0.1353759765625,0.9833526611328124,-0.1016845703125
1726,-0.1367950439453125,0.983245849609375,-0.0987548828125
1727,-0.1375274658203125,0.9852447509765624,-0.099029541015625
1728,-0.1369781494140625,0.98541259765625,-0.0971832275390625
1729,-0.137237548828125,0.9825592041015624,-0.0958709716796875
1730,-0.1389312744140625,0.983551025390625,-0.0953369140625
1731,-0.1394805908203125,0.9831390380859376,-0.0970458984375
1732,-0.1394195556640625,0.9834442138671876,-0.09613037109375
1733,-0.1403656005859375,0.98626708984375,-0.0983428955078125
1734,-0.1393890380859375,0.98748779296875,-0.0973968505859375
1735,-0.1380615234375,0.9882965087890624,-0.096160888671875
1736,-0.137847900390625,0.9879608154296876,-0.096893310546875
1737,-0.13690185546875,0.9864349365234376,-0.0959930419921875
1738,-0.1371307373046875,0.983734130859375,-0.09759521484375
1739,-0.137298583984375,0.9827423095703124,-0.10125732421875
1740,-0.139373779296875,0.982330322265625,-0.1021270751953125
1741,-0.1413116455078125,0.979278564453125,-0.104156494140625
1742,-0.143890380859375,0.9814605712890624,-0.1074371337890625
1743,-0.1445770263671875,0.981842041015625,-0.1066741943359375
1744,-0.142822265625,0.9813079833984376,-0.10699462890625
1745,-0.1419525146484375,0.9764251708984376,-0.1053314208984375
1746,-0.13824462890625,0.9740142822265624,-0.1046142578125
1747,-0.1351776123046875,0.9774322509765624,-0.104248046875
1748,-0.1352386474609375,0.9796600341796876,-0.1036224365234375
1749,-0.1353759765625,0.9815216064453124,-0.1008758544921875
1750,-0.1391754150390625,0.9839935302734376,-0.0996246337890625
1751,-0.1407470703125,0.9845428466796876,-0.098358154296875
1752,-0.1387939453125,0.9842529296875,-0.0997772216796875
1753,-0.1380615234375,0.9835052490234376,-0.099365234375
1754,-0.1389617919921875,0.98419189453125,-0.09844970703125
1755,-0.1408233642578125,0.9854736328125,-0.0980224609375
1756,-0.1467437744140625,0.9867401123046876,-0.0973358154296875
1757,-0.1485748291015625,0.9888458251953124,-0.0989227294921875
1758,-0.1475067138671875,0.9884185791015624,-0.0979766845703125
1759,-0.145416259765625,0.98760986328125,-0.0986480712890625
1760,-0.1417083740234375,0.9878692626953124,-0.0997314453125
1761,-0.13818359375,0.9860992431640624,-0.1001739501953125
1762,-0.13702392578125,0.9847869873046876,-0.1006317138671875
1763,-0.138671875,0.982177734375,-0.0995635986328125
1764,-0.1416168212890625,0.9808807373046876,-0.100616455078125
1765,-0.1436004638671875,0.9817962646484376,-0.1019134521484375
1766,-0.145355224609375,0.9822998046875,-0.1036834716796875
1767,-0.1459197998046875,0.9845733642578124,-0.1033782958984375
1768,-0.1459503173828125,0.985260009765625,-0.102294921875
1769,-0.1440277099609375,0.985687255859375,-0.1016845703125
1770,-0.14361572265625,0.9860076904296876,-0.102264404296875
1771,-0.1431427001953125,0.9831695556640624,-0.099761962890625
1772,-0.1417388916015625,0.980438232421875,-0.1004791259765625
1773,-0.142059326171875,0.978118896484375,-0.0995025634765625
1774,-0.14422607421875,0.9774322509765624,-0.1015777587890625
1775,-0.145233154296875,0.9782257080078124,-0.10284423828125
1776,-0.1460418701171875,0.97906494140625,-0.1072845458984375
1777,-0.148040771484375,0.9798126220703124,-0.10845947265625
1778,-0.1476898193359375,0.9820098876953124,-0.107940673828125
1779,-0.1465911865234375,0.9825897216796876,-0.10858154296875
1780,-0.146636962890625,0.9823150634765624,-0.1077117919921875
1781,-0.1463470458984375,0.98291015625,-0.1067962646484375
1782,-0.1441497802734375,0.980377197265625,-0.1060028076171875
1783,-0.1413726806640625,0.98260498046875,-0.1048126220703125
1784,-0.143402099609375,0.9833221435546876,-0.104827880859375
1785,-0.1430206298828125,0.9830780029296876,-0.1037750244140625
1786,-0.143157958984375,0.983795166015625,-0.1038360595703125
1787,-0.1424102783203125,0.9844970703125,-0.1027374267578125
1788,-0.144500732421875,0.98480224609375,-0.1026153564453125
1789,-0.1439971923828125,0.983184814453125,-0.1021728515625
1790,-0.1430511474609375,0.982666015625,-0.102569580078125
1791,-0.1454315185546875,0.980621337890625,-0.1015777587890625
1792,-0.1441802978515625,0.978973388671875,-0.1039886474609375
1793,-0.1403961181640625,0.979400634765625,-0.1060638427734375
1794,-0.1387786865234375,0.9814300537109376,-0.10662841796875
1795,-0.1356048583984375,0.9829559326171876,-0.1082611083984375
1796,-0.1357269287109375,0.9842987060546876,-0.1075286865234375
1797,-0.135223388671875,0.983642578125,-0.106414794921875
1798,-0.13671875,0.9834747314453124,-0.107696533203125
1799,-0.1381072998046875,0.9836578369140624,-0.1072845458984375
1800,-0.1399383544921875,0.983245849609375,-0.1063690185546875
1801,-0.1422271728515625,0.984893798828125,-0.1068115234375
1802,-0.1420135498046875,0.983489990234375,-0.105560302734375
1803,-0.141754150390625,0.983428955078125,-0.10223388671875
1804,-0.13995361328125,0.9843292236328124,-0.100494384765625
1805,-0.13885498046875,0.9856414794921876,-0.0992889404296875
1806,-0.137939453125,0.9847259521484376,-0.097869873046875
1807,-0.137725830078125,0.98333740234375,-0.098297119140625
1808,-0.1373748779296875,0.9838714599609376,-0.0982208251953125
1809,-0.1369476318359375,0.984130859375,-0.1015472412109375
1810,-0.136138916015625,0.9822998046875,-0.1034393310546875
1811,-0.1362457275390625,0.9829864501953124,-0.1040191650390625
1812,-0.1361083984375,0.9821929931640624,-0.1049957275390625
1813,-0.13720703125,0.9814453125,-0.1067047119140625
1814,-0.13885498046875,0.9799041748046876,-0.108184814453125
1815,-0.1399383544921875,0.97967529296875,-0.1080169677734375
1816,-0.13922119140625,0.9793853759765624,-0.1085662841796875
1817,-0.1395721435546875,0.9799957275390624,-0.1086578369140625
1818,-0.1388702392578125,0.9806976318359376,-0.109649658203125
1819,-0.1365966796875,0.9805755615234376,-0.108306884765625
1820,-0.1370086669921875,0.9824066162109376,-0.1049346923828125
1821,-0.1360321044921875,0.98284912109375,-0.103729248046875
1822,-0.1375885009765625,0.984527587890625,-0.1016082763671875
1823,-0.139190673828125,0.9878082275390624,-0.100006103515625
1824,-0.141204833984375,0.985870361328125,-0.0995635986328125
1825,-0.142364501953125,0.986175537109375,-0.09857177734375
1826,-0.1445770263671875,0.9869842529296876,-0.0966796875
1827,-0.1449432373046875,0.986907958984375,-0.0972747802734375
1828,-0.1429595947265625,0.9847259521484376,-0.0980072021484375
1829,-0.1395263671875,0.9832916259765624,-0.0981292724609375
1830,-0.1359100341796875,0.9831390380859376,-0.1001739501953125
1831,-0.135711669921875,0.983184814453125,-0.1017913818359375
1832,-0.1348114013671875,0.9826507568359376,-0.102996826171875
1833,-0.13629150390625,0.9817657470703124,-0.103118896484375
1834,-0.1378936767578125,0.9819793701171876,-0.10552978515625
1835,-0.14056396484375,0.9819488525390624,-0.1059417724609375
1836,-0.142608642578125,0.9831085205078124,-0.108612060546875
1837,-0.1433563232421875,0.9827423095703124,-0.1080322265625
1838,-0.1446685791015625,0.9848175048828124,-0.10687255859375
1839,-0.1431884765625,0.98565673828125,-0.1049346923828125
1840,-0.1432952880859375,0.9862060546875,-0.1023406982421875
1841,-0.143829345703125,0.9874267578125,-0.1002655029296875
1842,-0.1419219970703125,0.9864501953125,-0.097991943359375
1843,-0.142120361328125,0.9844970703125,-0.09521484375
1844,-0.142547607421875,0.9824981689453124,-0.0952911376953125
1845,-0.1431884765625,0.981903076171875,-0.0964508056640625
1846,-0.1449737548828125,0.9810333251953124,-0.0994415283203125
1847,-0.1454620361328125,0.982147216796875,-0.10223388671875
1848,-0.1442413330078125,0.982391357421875,-0.1071929931640625
1849,-0.1433563232421875,0.98175048828125,-0.10882568359375
1850,-0.1420440673828125,0.982086181640625,-0.1108551025390625
1851,-0.139801025390625,0.982696533203125,-0.11090087890625
1852,-0.1388092041015625,0.9827880859375,-0.109771728515625
1853,-0.138214111328125,0.9837799072265624,-0.108795166015625
1854,-0.140228271484375,0.9820709228515624,-0.10577392578125
1855,-0.140289306640625,0.9779205322265624,-0.10528564453125
1856,-0.140869140625,0.9765167236328124,-0.1065216064453125
1857,-0.141357421875,0.976226806640625,-0.1047821044921875
1858,-0.143829345703125,0.97625732421875,-0.1038055419921875
1859,-0.14361572265625,0.979217529296875,-0.10369873046875
1860,-0.14422607421875,0.982452392578125,-0.102752685546875
1861,-0.1411285400390625,0.982818603515625,-0.1011199951171875
1862,-0.1418304443359375,0.982574462890625,-0.1012420654296875
1863,-0.139129638671875,0.98394775390625,-0.1007843017578125
1864,-0.1396942138671875,0.9811248779296876,-0.1005401611328125
1865,-0.14141845703125,0.9813385009765624,-0.102142333984375
1866,-0.1397705078125,0.9796600341796876,-0.1038055419921875
1867,-0.140289306640625,0.9787750244140624,-0.105438232421875
1868,-0.13818359375,0.9791412353515624,-0.1082611083984375
1869,-0.138336181640625,0.9814300537109376,-0.111114501953125
1870,-0.138763427734375,0.9817962646484376,-0.1125640869140625
1871,-0.1393280029296875,0.9817352294921876,-0.1118621826171875
1872,-0.1398773193359375,0.9837188720703124,-0.1090240478515625
1873,-0.1418914794921875,0.9840087890625,-0.1059417724609375
1874,-0.1409454345703125,0.9857177734375,-0.101318359375
1875,-0.139984130859375,0.988525390625,-0.0973968505859375
1876,-0.1389312744140625,0.989288330078125,-0.0974273681640625
1877,-0.13629150390625,0.9892120361328124,-0.0946197509765625
1878,-0.1377410888671875,0.9899444580078124,-0.097625732421875
1879,-0.1378173828125,0.9856109619140624,-0.097137451171875
1880,-0.1374053955078125,0.979583740234375,-0.0979766845703125
1881,-0.13824462890625,0.9781646728515624,-0.1038360595703125
1882,-0.1385040283203125,0.9785614013671876,-0.111053466796875
1883,-0.1367034912109375,0.980133056640625,-0.113677978515625
1884,-0.1362457275390625,0.9785003662109376,-0.1159515380859375
1885,-0.1363525390625,0.9772491455078124,-0.11798095703125
1886,-0.134490966796875,0.97821044921875,-0.118408203125
1887,-0.1323089599609375,0.97967529296875,-0.1155853271484375
1888,-0.1304473876953125,0.980133056640625,-0.111602783203125
1889,-0.130645751953125,0.9802398681640624,-0.10888671875
1890,-0.133331298828125,0.9817047119140624,-0.104827880859375
1891,-0.1344757080078125,0.9839019775390624,-0.1036529541015625
1892,-0.1370849609375,0.984619140625,-0.1033477783203125
1893,-0.13983154296875,0.985931396484375,-0.1013336181640625
1894,-0.14129638671875,0.98565673828125,-0.10186767578125
1895,-0.142333984375,0.98675537109375,-0.102386474609375
1896,-0.142852783203125,0.9893035888671876,-0.1027374267578125
1897,-0.13916015625,0.9902801513671876,-0.102508544921875
1898,-0.13385009765625,0.9857635498046876,-0.1009368896484375
1899,-0.130279541015625,0.984710693359375,-0.10260009765625
1900,-0.128814697265625,0.9820404052734376,-0.1063995361328125
1901,-0.128387451171875,0.9801177978515624,-0.1094818115234375
1902,-0.1284637451171875,0.9790496826171876,-0.1105194091796875
1903,-0.1306610107421875,0.979705810546875,-0.111968994140625
1904,-0.135467529296875,0.9795074462890624,-0.11376953125
1905,-0.138885498046875,0.9795074462890624,-0.114715576171875
1906,-0.1416168212890625,0.9798431396484376,-0.113494873046875
1907,-0.1417083740234375,0.98046875,-0.1126861572265625
1908,-0.1406097412109375,0.9816436767578124,-0.109222412109375
1909,-0.1392059326171875,0.983917236328125,-0.1049041748046875
1910,-0.1363372802734375,0.9859619140625,-0.1010894775390625
1911,-0.1341094970703125,0.98577880859375,-0.097991943359375
1912,-0.1342926025390625,0.9877777099609376,-0.0970458984375
1913,-0.13677978515625,0.98638916015625,-0.0999755859375
1914,-0.1374053955078125,0.9833984375,-0.101043701171875
1915,-0.1394500732421875,0.984283447265625,-0.1040191650390625
1916,-0.1411590576171875,0.985992431640625,-0.1045379638671875
1917,-0.1427001953125,0.9860382080078124,-0.104644775390625
1918,-0.142578125,0.9866790771484376,-0.1032257080078125
1919,-0.1415557861328125,0.9860687255859376,-0.10089111328125
1920,-0.13873291015625,0.9859161376953124,-0.1005401611328125
1921,-0.1369781494140625,0.984466552734375,-0.1011505126953125
1922,-0.136749267578125,0.9832611083984376,-0.10235595703125
1923,-0.1390228271484375,0.9808197021484376,-0.1022796630859375
1924,-0.14068603515625,0.97869873046875,-0.1046600341796875
1925,-0.1425628662109375,0.980133056640625,-0.107177734375
1926,-0.14385986328125,0.9816436767578124,-0.1078033447265625
1927,-0.141754150390625,0.9827880859375,-0.1057281494140625
1928,-0.1402740478515625,0.98541259765625,-0.105194091796875
1929,-0.138275146484375,0.988372802734375,-0.103973388671875
1930,-0.135894775390625,0.987823486328125,-0.1004791259765625
1931,-0.1363677978515625,0.9855194091796876,-0.098968505859375
1932,-0.1374053955078125,0.9862060546875,-0.1016693115234375
1933,-0.1383209228515625,0.984771728515625,-0.1016845703125
1934,-0.1417694091796875,0.982940673828125,-0.1032257080078125
1935,-0.1454620361328125,0.9806365966796876,-0.1030120849609375
1936,-0.145782470703125,0.980010986328125,-0.1016693115234375
1937,-0.1455841064453125,0.9792327880859376,-0.104156494140625
1938,-0.145416259765625,0.979949951171875,-0.1046295166015625
1939,-0.1457366943359375,0.9818267822265624,-0.102935791015625
1940,-0.14453125,0.9828643798828124,-0.1035003662109375
1941,-0.1429443359375,0.9838104248046876,-0.101104736328125
1942,-0.1411895751953125,0.9817352294921876,-0.0998992919921875
1943,-0.1417694091796875,0.98114013671875,-0.098968505859375
1944,-0.139495849609375,0.981842041015625,-0.09771728515625
1945,-0.139434814453125,0.9817657470703124,-0.09716796875
1946,-0.140289306640625,0.9835662841796876,-0.096343994140625
1947,-0.141021728515625,0.9844970703125,-0.099609375
1948,-0.143157958984375,0.984893798828125,-0.102203369140625
1949,-0.1429595947265625,0.9838714599609376,-0.1045684814453125
1950,-0.1413421630859375,0.981536865234375,-0.10693359375
1951,-0.1414947509765625,0.980316162109375,-0.1071014404296875
1952,-0.141143798828125,0.980499267578125,-0.105926513671875
1953,-0.1421966552734375,0.98046875,-0.105987548828125
1954,-0.1431732177734375,0.981231689453125,-0.1065826416015625
1955,-0.1446533203125,0.983428955078125,-0.1044769287109375
1956,-0.145782470703125,0.984344482421875,-0.1025390625
1957,-0.1445159912109375,0.9835968017578124,-0.1009979248046875
1958,-0.1425933837890625,0.984710693359375,-0.0994415283203125
1959,-0.1417388916015625,0.98455810546875,-0.097686767578125
1960,-0.1414794921875,0.9842376708984376,-0.0951995849609375
1961,-0.138916015625,0.981658935546875,-0.096527099609375
1962,-0.1381378173828125,0.9808197021484376,-0.0988311767578125
1963,-0.1419525146484375,0.9837799072265624,-0.1021575927734375
1964,-0.1441192626953125,0.98516845703125,-0.10467529296875
1965,-0.1455535888671875,0.9846649169921876,-0.105194091796875
1966,-0.144287109375,0.9847259521484376,-0.10430908203125
1967,-0.143707275390625,0.983642578125,-0.1033172607421875
1968,-0.14349365234375,0.9850006103515624,-0.1014556884765625
1969,-0.143310546875,0.98211669921875,-0.099884033203125
1970,-0.14178466796875,0.9812164306640624,-0.0980072021484375
1971,-0.1410064697265625,0.98077392578125,-0.09844970703125
1972,-0.1421051025390625,0.9810028076171876,-0.098876953125
1973,-0.14532470703125,0.97998046875,-0.0982513427734375
1974,-0.1454010009765625,0.98040771484375,-0.0985870361328125
1975,-0.1446685791015625,0.9818267822265624,-0.0997161865234375
1976,-0.1454620361328125,0.9813995361328124,-0.1002349853515625
