time_idx,accelerometerAccelerationX(G),accelerometerAccelerationY(G),accelerometerAccelerationZ(G)
280000,0.325042724609375,-0.60784912109375,0.676116943359375
280001,0.325042724609375,-0.60784912109375,0.676116943359375
280002,0.3070068359375,-0.6486358642578125,0.68389892578125
280003,0.2095489501953125,-0.7704315185546875,0.812286376953125
280004,0.2095489501953125,-0.7704315185546875,0.812286376953125
280005,0.1815032958984375,-0.7871856689453125,0.807861328125
280006,0.164581298828125,-0.7902679443359375,0.7921142578125
280007,0.1182708740234375,-0.71826171875,0.7452239990234375
280008,0.1182708740234375,-0.71826171875,0.7452239990234375
280009,0.100921630859375,-0.6835479736328125,0.6410980224609375
280010,0.093597412109375,-0.667633056640625,0.574920654296875
280011,0.0923919677734375,-0.67156982421875,0.60687255859375
280012,0.0923919677734375,-0.67156982421875,0.60687255859375
280013,0.0923919677734375,-0.67156982421875,0.60687255859375
280014,0.0969085693359375,-0.6813201904296875,0.6488037109375
280015,0.148834228515625,-0.773590087890625,0.7634429931640625
280016,0.148834228515625,-0.773590087890625,0.7634429931640625
280017,0.1693267822265625,-0.793060302734375,0.76116943359375
280018,0.1943511962890625,-0.7846832275390625,0.7378387451171875
280019,0.237518310546875,-0.737091064453125,0.63714599609375
280020,0.237518310546875,-0.737091064453125,0.63714599609375
280021,0.237518310546875,-0.737091064453125,0.63714599609375
280022,0.2656707763671875,-0.710693359375,0.6024627685546875
280023,0.3633575439453125,-0.6583251953125,0.57403564453125
280024,0.3633575439453125,-0.6583251953125,0.57403564453125
280025,0.39141845703125,-0.650848388671875,0.5834197998046875
280026,0.39141845703125,-0.650848388671875,0.5834197998046875
280027,0.4642791748046875,-0.5811614990234375,0.649871826171875
280028,0.4642791748046875,-0.5811614990234375,0.649871826171875
280029,0.4642791748046875,-0.5811614990234375,0.649871826171875
280030,0.4886322021484375,-0.5438690185546875,0.6450042724609375
280031,0.5850982666015625,-0.5417633056640625,0.5930633544921875
280032,0.5850982666015625,-0.5417633056640625,0.5930633544921875
280033,0.6084747314453125,-0.58563232421875,0.583587646484375
280034,0.622589111328125,-0.618560791015625,0.5817413330078125
280035,0.60687255859375,-0.6717529296875,0.582916259765625
280036,0.60687255859375,-0.6717529296875,0.582916259765625
280037,0.5847625732421875,-0.6844635009765625,0.607391357421875
280038,0.5847625732421875,-0.6844635009765625,0.607391357421875
280039,0.540679931640625,-0.708221435546875,0.707977294921875
280040,0.540679931640625,-0.708221435546875,0.707977294921875
280041,0.540679931640625,-0.708221435546875,0.707977294921875
280042,0.5207672119140625,-0.72711181640625,0.711273193359375
280043,0.3814544677734375,-0.7041168212890625,0.6282196044921875
280044,0.3814544677734375,-0.7041168212890625,0.6282196044921875
280045,0.33795166015625,-0.6710968017578125,0.6070709228515625
280046,0.3135986328125,-0.618438720703125,0.604705810546875
280047,0.2935638427734375,-0.5706634521484375,0.632476806640625
280048,0.2723388671875,-0.5489044189453125,0.6613311767578125
280049,0.2723388671875,-0.5489044189453125,0.6613311767578125
280050,0.2661285400390625,-0.549591064453125,0.6956024169921875
280051,0.3010711669921875,-0.6001434326171875,0.7708892822265625
280052,0.3010711669921875,-0.6001434326171875,0.7708892822265625
280053,0.3010711669921875,-0.6001434326171875,0.7708892822265625
280054,0.3095550537109375,-0.606231689453125,0.7885589599609375
280055,0.298553466796875,-0.6507568359375,0.769256591796875
280056,0.2766876220703125,-0.669036865234375,0.77691650390625
280057,0.2435150146484375,-0.6829833984375,0.7650146484375
280058,0.20086669921875,-0.687042236328125,0.7398223876953125
280059,0.166351318359375,-0.672454833984375,0.7285919189453125
280060,0.158233642578125,-0.6501312255859375,0.7154998779296875
280061,0.1719970703125,-0.6504364013671875,0.6739654541015625
280062,0.18414306640625,-0.6828460693359375,0.61968994140625
280063,0.2059783935546875,-0.72802734375,0.5872802734375
280064,0.2059783935546875,-0.72802734375,0.5872802734375
280065,0.2059783935546875,-0.72802734375,0.5872802734375
280066,0.2108612060546875,-0.7387847900390625,0.589111328125
280067,0.2348480224609375,-0.79681396484375,0.6290740966796875
280068,0.2348480224609375,-0.79681396484375,0.6290740966796875
280069,0.2484588623046875,-0.80224609375,0.678955078125
280070,0.2492218017578125,-0.786956787109375,0.7053070068359375
280071,0.2158050537109375,-0.7339019775390625,0.660919189453125
280072,0.2158050537109375,-0.7339019775390625,0.660919189453125
280073,0.19976806640625,-0.7206268310546875,0.626739501953125
280074,0.183135986328125,-0.7360076904296875,0.6008758544921875
280075,0.12860107421875,-0.810638427734375,0.59588623046875
280076,0.12860107421875,-0.810638427734375,0.59588623046875
280077,0.12860107421875,-0.810638427734375,0.59588623046875
280078,0.0825653076171875,-0.872314453125,0.622222900390625
280079,0.0624237060546875,-0.84393310546875,0.7845611572265625
280080,0.0624237060546875,-0.84393310546875,0.7845611572265625
280081,0.1171722412109375,-0.7849884033203125,0.80181884765625
280082,0.17431640625,-0.7300262451171875,0.7928924560546875
280083,0.2965087890625,-0.6468505859375,0.6385040283203125
280084,0.2965087890625,-0.6468505859375,0.6385040283203125
280085,0.372650146484375,-0.6233673095703125,0.643280029296875
280086,0.4560394287109375,-0.6425933837890625,0.7110595703125
280087,0.602142333984375,-0.6901397705078125,0.79443359375
280088,0.602142333984375,-0.6901397705078125,0.79443359375
280089,0.6181793212890625,-0.692352294921875,0.811187744140625
280090,0.5905914306640625,-0.6712799072265625,0.793426513671875
280091,0.4998931884765625,-0.6016693115234375,0.645172119140625
280092,0.4998931884765625,-0.6016693115234375,0.645172119140625
280093,0.471710205078125,-0.5782928466796875,0.5863494873046875
280094,0.4536285400390625,-0.56304931640625,0.535980224609375
280095,0.440399169921875,-0.5483551025390625,0.4976348876953125
280096,0.436187744140625,-0.516387939453125,0.4779205322265625
280097,0.436187744140625,-0.516387939453125,0.4779205322265625
280098,0.4305572509765625,-0.48284912109375,0.4740142822265625
280099,0.41259765625,-0.5166778564453125,0.5428009033203125
280100,0.41259765625,-0.5166778564453125,0.5428009033203125
280101,0.436614990234375,-0.5262298583984375,0.5494232177734375
280102,0.4607086181640625,-0.53399658203125,0.5375518798828125
280103,0.4726715087890625,-0.55462646484375,0.541900634765625
280104,0.4839935302734375,-0.585845947265625,0.5814208984375
280105,0.4839935302734375,-0.585845947265625,0.5814208984375
280106,0.495574951171875,-0.6156005859375,0.6341400146484375
280107,0.459747314453125,-0.5889892578125,0.728240966796875
280108,0.459747314453125,-0.5889892578125,0.728240966796875
280109,0.4423675537109375,-0.5715179443359375,0.7422637939453125
280110,0.4181671142578125,-0.5743865966796875,0.7385406494140625
280111,0.3337860107421875,-0.588653564453125,0.69390869140625
280112,0.3337860107421875,-0.588653564453125,0.69390869140625
280113,0.3337860107421875,-0.588653564453125,0.69390869140625
280114,0.2007598876953125,-0.609771728515625,0.6043701171875
280115,0.108551025390625,-0.6225433349609375,0.525299072265625
280116,0.108551025390625,-0.6225433349609375,0.525299072265625
280117,0.1084442138671875,-0.6296539306640625,0.501953125
280118,0.1341552734375,-0.6462860107421875,0.5005340576171875
280119,0.23040771484375,-0.69781494140625,0.54290771484375
280120,0.23040771484375,-0.69781494140625,0.54290771484375
280121,0.23040771484375,-0.69781494140625,0.54290771484375
280122,0.2902984619140625,-0.7280731201171875,0.5944061279296875
280123,0.505340576171875,-0.7775421142578125,0.741119384765625
280124,0.505340576171875,-0.7775421142578125,0.741119384765625
280125,0.5621795654296875,-0.7637786865234375,0.8267974853515625
280126,0.5644073486328125,-0.7659912109375,0.8934173583984375
280127,0.5516357421875,-0.86053466796875,0.8145751953125
280128,0.5384979248046875,-0.78118896484375,0.8513336181640625
280129,0.4775390625,-0.6716156005859375,0.7855377197265625
280130,0.4846038818359375,-0.678863525390625,0.6029205322265625
280131,0.5059814453125,-0.5746917724609375,0.6636962890625
280132,0.5059814453125,-0.5746917724609375,0.6636962890625
280133,0.5059814453125,-0.5746917724609375,0.6636962890625
280134,0.505615234375,-0.5655517578125,0.614776611328125
280135,0.535980224609375,-0.60333251953125,0.5663604736328125
280136,0.5446014404296875,-0.6740264892578125,0.5893096923828125
280137,0.5229339599609375,-0.76995849609375,0.671783447265625
280138,0.457916259765625,-0.869049072265625,0.761932373046875
280139,0.3736572265625,-0.932281494140625,0.8125762939453125
280140,0.30120849609375,-0.9456939697265624,0.7982635498046875
280141,0.30120849609375,-0.9456939697265624,0.7982635498046875
280142,0.26324462890625,-0.9287261962890624,0.7597198486328125
280143,0.203887939453125,-0.75152587890625,0.640380859375
280144,0.203887939453125,-0.75152587890625,0.640380859375
280145,0.2187652587890625,-0.692901611328125,0.5670318603515625
280146,0.2698974609375,-0.638397216796875,0.5395965576171875
280147,0.2710113525390625,-0.6182861328125,0.479339599609375
280148,0.2825469970703125,-0.627410888671875,0.46881103515625
280149,0.2620849609375,-0.6417388916015625,0.438079833984375
280150,0.2474517822265625,-0.6633758544921875,0.4590301513671875
280151,0.1738739013671875,-0.730072021484375,0.524139404296875
280152,0.1738739013671875,-0.730072021484375,0.524139404296875
280153,0.1738739013671875,-0.730072021484375,0.524139404296875
280154,0.1487274169921875,-0.75103759765625,0.5688323974609375
280155,0.11883544921875,-0.7545928955078125,0.569061279296875
280156,0.1221160888671875,-0.7463531494140625,0.5357818603515625
280157,0.1449737548828125,-0.7277679443359375,0.5064697265625
280158,0.185394287109375,-0.7011260986328125,0.497314453125
280159,0.2457733154296875,-0.669158935546875,0.513916015625
280160,0.333404541015625,-0.6446075439453125,0.5455780029296875
280161,0.333404541015625,-0.6446075439453125,0.5455780029296875
280162,0.5829925537109375,-0.64581298828125,0.596405029296875
280163,0.7270355224609375,-0.6607208251953125,0.61956787109375
280164,0.846466064453125,-0.6710968017578125,0.641265869140625
280165,0.846466064453125,-0.6710968017578125,0.641265869140625
280166,0.9239044189453124,-0.6888580322265625,0.65435791015625
280167,0.9560699462890624,-0.67022705078125,0.6416015625
280168,0.9439697265625,-0.6352691650390625,0.61962890625
280169,0.9242401123046876,-0.6175689697265625,0.566375732421875
280170,0.906585693359375,-0.63543701171875,0.521728515625
280171,0.83990478515625,-0.675628662109375,0.4161376953125
280172,0.83990478515625,-0.675628662109375,0.4161376953125
280173,0.83990478515625,-0.675628662109375,0.4161376953125
280174,0.7811431884765625,-0.7076263427734375,0.390625
280175,0.669525146484375,-0.7996978759765625,0.393524169921875
280176,0.596588134765625,-0.85211181640625,0.4332275390625
280177,0.4989776611328125,-0.8928680419921875,0.4917755126953125
280178,0.452728271484375,-0.9114227294921876,0.595947265625
280179,0.27471923828125,-0.8912811279296875,0.7134552001953125
280180,0.27471923828125,-0.8912811279296875,0.7134552001953125
280181,0.24603271484375,-0.838043212890625,0.7712860107421875
280182,0.200927734375,-0.7604827880859375,0.7506103515625
280183,0.1683807373046875,-0.6981201171875,0.707611083984375
280184,0.151336669921875,-0.648712158203125,0.6797637939453125
280185,0.1432037353515625,-0.6067352294921875,0.6627349853515625
280186,0.1539764404296875,-0.5669403076171875,0.6461029052734375
280187,0.212493896484375,-0.4974517822265625,0.6141815185546875
280188,0.212493896484375,-0.4974517822265625,0.6141815185546875
280189,0.24945068359375,-0.4662628173828125,0.618896484375
280190,0.292236328125,-0.4411773681640625,0.624481201171875
280191,0.3834686279296875,-0.5005950927734375,0.5738983154296875
280192,0.3834686279296875,-0.5005950927734375,0.5738983154296875
280193,0.3834686279296875,-0.5005950927734375,0.5738983154296875
280194,0.42437744140625,-0.5621490478515625,0.5441436767578125
280195,0.445556640625,-0.625732421875,0.628387451171875
280196,0.405242919921875,-0.6114501953125,0.65338134765625
280197,0.405242919921875,-0.6114501953125,0.65338134765625
280198,0.3453521728515625,-0.6440582275390625,0.5832366943359375
280199,0.562469482421875,-0.6689453125,0.4127960205078125
280200,0.562469482421875,-0.6689453125,0.4127960205078125
280201,0.562469482421875,-0.6689453125,0.4127960205078125
280202,0.6609344482421875,-0.6760711669921875,0.52947998046875
280203,0.541778564453125,-0.8521575927734375,0.7967987060546875
280204,0.541778564453125,-0.8521575927734375,0.7967987060546875
280205,0.460418701171875,-0.8875579833984375,0.8939208984375
280206,0.378082275390625,-0.909149169921875,0.912506103515625
280207,0.2842559814453125,-0.9282073974609376,0.8535614013671875
280208,0.1687469482421875,-0.961334228515625,0.758270263671875
280209,0.0919952392578125,-0.927154541015625,0.68487548828125
280210,0.059539794921875,-0.855010986328125,0.5757904052734375
280211,-0.0547027587890625,-0.8961639404296875,0.4013214111328125
280212,-0.0547027587890625,-0.8961639404296875,0.4013214111328125
280213,-0.11334228515625,-0.9417266845703124,0.41156005859375
280214,-0.137054443359375,-0.9564971923828124,0.468658447265625
280215,-0.090606689453125,-0.9101715087890624,0.6491546630859375
280216,-0.090606689453125,-0.9101715087890624,0.6491546630859375
280217,-0.090606689453125,-0.9101715087890624,0.6491546630859375
280218,0.0049896240234375,-0.8324737548828125,0.6922607421875
280219,0.257476806640625,-0.6839447021484375,0.690521240234375
280220,0.3393707275390625,-0.670379638671875,0.676055908203125
280221,0.3799896240234375,-0.6594696044921875,0.65936279296875
280222,0.393768310546875,-0.6390838623046875,0.6498565673828125
280223,0.3962249755859375,-0.6113433837890625,0.624359130859375
280224,0.3932647705078125,-0.5841522216796875,0.5970458984375
280225,0.38958740234375,-0.5508270263671875,0.5861358642578125
280226,0.3926849365234375,-0.50140380859375,0.599822998046875
280227,0.4851837158203125,-0.42254638671875,0.611236572265625
280228,0.4851837158203125,-0.42254638671875,0.611236572265625
280229,0.5818328857421875,-0.408050537109375,0.60601806640625
280230,0.70062255859375,-0.4007415771484375,0.5777435302734375
280231,0.83148193359375,-0.417144775390625,0.540557861328125
280232,0.83148193359375,-0.417144775390625,0.540557861328125
280233,0.825408935546875,-0.4203643798828125,0.554595947265625
280234,0.809478759765625,-0.4094390869140625,0.595703125
280235,0.7744903564453125,-0.3914794921875,0.68865966796875
280236,0.7744903564453125,-0.3914794921875,0.68865966796875
280237,0.7509918212890625,-0.39654541015625,0.73004150390625
280238,0.7205657958984375,-0.4250335693359375,0.7685546875
280239,0.640228271484375,-0.5526275634765625,0.8198394775390625
280240,0.640228271484375,-0.5526275634765625,0.8198394775390625
280241,0.5834197998046875,-0.62310791015625,0.832550048828125
280242,0.5057220458984375,-0.67132568359375,0.80206298828125
280243,0.422271728515625,-0.7001190185546875,0.7595367431640625
280244,0.3343658447265625,-0.7178192138671875,0.7179412841796875
280245,0.2423858642578125,-0.7343902587890625,0.6724853515625
280246,0.1455078125,-0.77191162109375,0.6291046142578125
280247,-0.0060577392578125,-0.89471435546875,0.512359619140625
280248,-0.0060577392578125,-0.89471435546875,0.512359619140625
280249,-0.0083770751953125,-0.904693603515625,0.4881744384765625
280250,0.0547943115234375,-0.8248748779296875,0.4554290771484375
280251,0.1430816650390625,-0.763214111328125,0.3572235107421875
280252,0.238372802734375,-0.7836761474609375,0.30303955078125
280253,0.330535888671875,-0.8433837890625,0.32427978515625
280254,0.4045867919921875,-0.9093017578125,0.40423583984375
280255,0.5163726806640625,-1.002151489257812,0.623382568359375
280256,0.5163726806640625,-1.002151489257812,0.623382568359375
280257,0.55084228515625,-0.9655914306640624,0.711334228515625
280258,0.5548858642578125,-0.904998779296875,0.7884368896484375
280259,0.5153656005859375,-0.85528564453125,0.8655242919921875
280260,0.4305419921875,-0.79937744140625,0.9244232177734376
280261,0.4305419921875,-0.79937744140625,0.9244232177734376
280262,0.3132476806640625,-0.7305908203125,0.9222259521484376
280263,0.173614501953125,-0.6050872802734375,0.5489654541015625
280264,0.173614501953125,-0.6050872802734375,0.5489654541015625
280265,0.1602783203125,-0.6122894287109375,0.530059814453125
280266,0.1035003662109375,-0.619598388671875,0.528656005859375
280267,0.07452392578125,-0.6181640625,0.5620574951171875
280268,0.087921142578125,-0.62078857421875,0.63616943359375
280269,0.1318511962890625,-0.641357421875,0.717926025390625
280270,0.1701507568359375,-0.6768951416015625,0.78289794921875
280271,0.228790283203125,-0.72003173828125,0.8518829345703125
280272,0.228790283203125,-0.72003173828125,0.8518829345703125
280273,0.23028564453125,-0.7235565185546875,0.8399810791015625
280274,0.2178802490234375,-0.7177581787109375,0.80322265625
280275,0.184417724609375,-0.7079620361328125,0.74456787109375
280276,0.137725830078125,-0.6963043212890625,0.6710968017578125
280277,0.0869140625,-0.69097900390625,0.6037139892578125
280278,0.030548095703125,-0.69842529296875,0.5670623779296875
280279,-0.0259246826171875,-0.7169036865234375,0.5719757080078125
280280,-0.0653533935546875,-0.7517547607421875,0.6040802001953125
280281,-0.0653533935546875,-0.7517547607421875,0.6040802001953125
280282,-0.0843658447265625,-0.783966064453125,0.6417083740234375
280283,0.00360107421875,-0.78668212890625,0.6691436767578125
280284,0.00360107421875,-0.78668212890625,0.6691436767578125
280285,0.0721588134765625,-0.747314453125,0.65142822265625
280286,0.150970458984375,-0.707672119140625,0.6265869140625
280287,0.229736328125,-0.6849212646484375,0.60003662109375
280288,0.307708740234375,-0.67510986328125,0.579681396484375
280289,0.307708740234375,-0.67510986328125,0.579681396484375
280290,0.3913116455078125,-0.66961669921875,0.573516845703125
280291,0.6272430419921875,-0.633941650390625,0.5657501220703125
280292,0.6272430419921875,-0.633941650390625,0.5657501220703125
280293,0.6272430419921875,-0.633941650390625,0.5657501220703125
280294,0.776214599609375,-0.6084136962890625,0.5684661865234375
280295,0.8645477294921875,-0.6018829345703125,0.579315185546875
280296,0.93756103515625,-0.606201171875,0.59332275390625
280297,0.9769134521484376,-0.6206207275390625,0.611083984375
280298,0.97540283203125,-0.658538818359375,0.6282958984375
280299,0.9430694580078124,-0.7059478759765625,0.6278076171875
280300,0.8919830322265625,-0.736358642578125,0.611602783203125
280301,0.838409423828125,-0.7535858154296875,0.6123809814453125
280302,0.7800140380859375,-0.7607421875,0.6244049072265625
280303,0.7015533447265625,-0.7558135986328125,0.6251220703125
280304,0.608001708984375,-0.7333526611328125,0.613555908203125
280305,0.512969970703125,-0.7047119140625,0.6095733642578125
280306,0.4276580810546875,-0.681854248046875,0.627471923828125
280307,0.36273193359375,-0.665863037109375,0.655975341796875
280308,0.3144073486328125,-0.65203857421875,0.678009033203125
280309,0.2796630859375,-0.65863037109375,0.699066162109375
280310,0.258270263671875,-0.671112060546875,0.7086029052734375
280311,0.254913330078125,-0.6855926513671875,0.7165985107421875
280312,0.25494384765625,-0.6939544677734375,0.736053466796875
280313,0.2430419921875,-0.687530517578125,0.767974853515625
280314,0.203155517578125,-0.685089111328125,0.7985382080078125
280315,0.0668792724609375,-0.709136962890625,0.75927734375
280316,0.0668792724609375,-0.709136962890625,0.75927734375
280317,-0.015289306640625,-0.7003936767578125,0.73883056640625
280318,-0.1080474853515625,-0.7017364501953125,0.72052001953125
280319,-0.180755615234375,-0.717926025390625,0.6376495361328125
280320,-0.1897735595703125,-0.7476654052734375,0.494873046875
280321,-0.138916015625,-0.775482177734375,0.3985443115234375
280322,-0.0684967041015625,-0.787322998046875,0.3981170654296875
280323,0.04302978515625,-0.805419921875,0.4387054443359375
280324,0.04302978515625,-0.805419921875,0.4387054443359375
280325,0.1119384765625,-0.8218231201171875,0.482269287109375
280326,0.1614990234375,-0.851898193359375,0.5569305419921875
280327,0.1946868896484375,-0.8773040771484375,0.643768310546875
280328,0.2126617431640625,-0.9014739990234376,0.7415924072265625
280329,0.213409423828125,-0.9152069091796876,0.7943115234375
280330,0.20831298828125,-0.913360595703125,0.823822021484375
280331,0.1940155029296875,-0.9002227783203125,0.8385162353515625
280332,0.164337158203125,-0.878021240234375,0.8372802734375
280333,0.1201171875,-0.8354644775390625,0.81610107421875
280334,0.085601806640625,-0.77386474609375,0.76214599609375
280335,0.0662689208984375,-0.7179718017578125,0.6916046142578125
280336,0.0485687255859375,-0.6863861083984375,0.6330108642578125
280337,0.031097412109375,-0.6779022216796875,0.5817413330078125
280338,0.0165557861328125,-0.6832427978515625,0.557891845703125
280339,0.01904296875,-0.6831512451171875,0.567840576171875
280340,0.04486083984375,-0.6845550537109375,0.58935546875
280341,0.0996246337890625,-0.6815643310546875,0.634765625
280342,0.177215576171875,-0.677093505859375,0.6926727294921875
280343,0.3538818359375,-0.67913818359375,0.7703704833984375
280344,0.3538818359375,-0.67913818359375,0.7703704833984375
280345,0.415496826171875,-0.6666107177734375,0.7859344482421875
280346,0.4469451904296875,-0.6493682861328125,0.7787628173828125
280347,0.4542694091796875,-0.6069488525390625,0.71002197265625
280348,0.4542694091796875,-0.6069488525390625,0.71002197265625
280349,0.4455718994140625,-0.6036834716796875,0.6408538818359375
280350,0.4331817626953125,-0.5832366943359375,0.6100921630859375
280351,0.44158935546875,-0.5340728759765625,0.5952301025390625
280352,0.44158935546875,-0.5340728759765625,0.5952301025390625
280353,0.4890594482421875,-0.52197265625,0.5781097412109375
280354,0.5669403076171875,-0.51068115234375,0.590911865234375
280355,0.6775665283203125,-0.5381011962890625,0.61383056640625
280356,0.6775665283203125,-0.5381011962890625,0.61383056640625
280357,0.6718597412109375,-0.5330352783203125,0.597564697265625
280358,0.616912841796875,-0.48956298828125,0.561370849609375
280359,0.538787841796875,-0.4317474365234375,0.52789306640625
280360,0.4719390869140625,-0.387176513671875,0.512359619140625
280361,0.4719390869140625,-0.387176513671875,0.512359619140625
280362,0.4294281005859375,-0.36572265625,0.5185546875
280363,0.4116668701171875,-0.4729461669921875,0.6519927978515625
280364,0.4116668701171875,-0.4729461669921875,0.6519927978515625
280365,0.4116668701171875,-0.4729461669921875,0.6519927978515625
280366,0.3943634033203125,-0.5139617919921875,0.682708740234375
280367,0.248779296875,-0.5418548583984375,0.8509979248046875
280368,0.248779296875,-0.5418548583984375,0.8509979248046875
280369,0.202728271484375,-0.55511474609375,0.87481689453125
280370,0.170745849609375,-0.5634613037109375,0.860198974609375
280371,0.164764404296875,-0.5772552490234375,0.8300323486328125
280372,0.1786346435546875,-0.6082611083984375,0.7837982177734375
280373,0.199676513671875,-0.6460723876953125,0.732025146484375
280374,0.2091064453125,-0.681884765625,0.6840972900390625
280375,0.21124267578125,-0.7187042236328125,0.6280059814453125
280376,0.220245361328125,-0.746917724609375,0.5601806640625
280377,0.2499847412109375,-0.74822998046875,0.5152435302734375
280378,0.3017730712890625,-0.7374267578125,0.4955902099609375
280379,0.3607635498046875,-0.7331695556640625,0.4885406494140625
280380,0.4173736572265625,-0.72784423828125,0.5034637451171875
280381,0.4571990966796875,-0.7371826171875,0.5404815673828125
280382,0.4808807373046875,-0.76910400390625,0.5676422119140625
280383,0.5087127685546875,-0.89117431640625,0.6795654296875
280384,0.5087127685546875,-0.89117431640625,0.6795654296875
280385,0.50482177734375,-0.9209442138671876,0.7447052001953125
280386,0.486175537109375,-0.9178466796875,0.802215576171875
280387,0.455230712890625,-0.8793792724609375,0.84454345703125
280388,0.4036407470703125,-0.8339385986328125,0.8499298095703125
280389,0.3242645263671875,-0.80401611328125,0.834442138671875
280390,0.2453765869140625,-0.75390625,0.8392181396484375
280391,0.1770172119140625,-0.7081756591796875,0.8035430908203125
280392,0.141326904296875,-0.6772918701171875,0.75823974609375
280393,0.1397705078125,-0.6982574462890625,0.7234039306640625
280394,0.1490020751953125,-0.7593841552734375,0.7071380615234375
280395,0.17486572265625,-0.805877685546875,0.73114013671875
280396,0.1967620849609375,-0.84381103515625,0.7428131103515625
280397,0.209014892578125,-0.858154296875,0.789306640625
280398,0.2157135009765625,-0.83380126953125,0.814849853515625
280399,0.2275390625,-0.8013763427734375,0.806304931640625
280400,0.2382049560546875,-0.7696533203125,0.76953125
280401,0.2456817626953125,-0.7342071533203125,0.7257232666015625
280402,0.2368011474609375,-0.7025604248046875,0.667938232421875
280403,0.2130279541015625,-0.6820526123046875,0.61260986328125
280404,0.1616668701171875,-0.6775360107421875,0.581634521484375
280405,0.1616668701171875,-0.6775360107421875,0.581634521484375
280406,0.0897216796875,-0.6880645751953125,0.5737762451171875
280407,-0.0240936279296875,-0.71734619140625,0.59307861328125
280408,-0.0440826416015625,-0.736541748046875,0.59344482421875
280409,-0.0421905517578125,-0.744537353515625,0.5819549560546875
280410,-0.0022735595703125,-0.7288360595703125,0.5599517822265625
280411,0.0687103271484375,-0.7237701416015625,0.5358734130859375
280412,0.15203857421875,-0.7398529052734375,0.51629638671875
280413,0.15203857421875,-0.7398529052734375,0.51629638671875
280414,0.2309112548828125,-0.751190185546875,0.5107421875
280415,0.3245086669921875,-0.738128662109375,0.4954833984375
280416,0.354034423828125,-0.7280731201171875,0.4956207275390625
280417,0.412353515625,-0.67950439453125,0.50311279296875
280418,0.4903106689453125,-0.6110076904296875,0.51300048828125
280419,0.5528717041015625,-0.5672607421875,0.528656005859375
280420,0.599151611328125,-0.5446014404296875,0.5319671630859375
280421,0.6530303955078125,-0.552734375,0.525543212890625
280422,0.727874755859375,-0.5669708251953125,0.52606201171875
280423,0.798187255859375,-0.5760498046875,0.5304718017578125
280424,0.8607177734375,-0.588470458984375,0.53515625
280425,0.92230224609375,-0.6070098876953125,0.5558624267578125
280426,0.9587554931640624,-0.6450958251953125,0.5941925048828125
280427,0.9431610107421876,-0.695037841796875,0.6479034423828125
280428,0.9077911376953124,-0.7090606689453125,0.7182769775390625
280429,0.86749267578125,-0.718292236328125,0.79852294921875
280430,0.7975921630859375,-0.721160888671875,0.8516845703125
280431,0.587249755859375,-0.71343994140625,0.881317138671875
280432,0.587249755859375,-0.71343994140625,0.881317138671875
280433,0.4900665283203125,-0.6726837158203125,0.8685760498046875
280434,0.412078857421875,-0.6199951171875,0.85302734375
280435,0.3402557373046875,-0.5679473876953125,0.83099365234375
280436,0.2834930419921875,-0.5149078369140625,0.7891387939453125
280437,0.2527618408203125,-0.4793548583984375,0.7427978515625
280438,0.23492431640625,-0.4640350341796875,0.709075927734375
280439,0.2271728515625,-0.4920501708984375,0.6922607421875
280440,0.2271728515625,-0.4920501708984375,0.6922607421875
280441,0.253082275390625,-0.5291900634765625,0.7061767578125
280442,0.2891082763671875,-0.5505523681640625,0.7544097900390625
280443,0.3305816650390625,-0.5628204345703125,0.8009185791015625
280444,0.369659423828125,-0.578521728515625,0.790924072265625
280445,0.3818511962890625,-0.596466064453125,0.7597198486328125
280446,0.3533172607421875,-0.5854949951171875,0.7652740478515625
280447,0.292877197265625,-0.5703887939453125,0.761383056640625
280448,0.2152557373046875,-0.5769805908203125,0.71893310546875
280449,0.143341064453125,-0.5902862548828125,0.666595458984375
280450,0.107635498046875,-0.5933990478515625,0.62054443359375
280451,0.1397857666015625,-0.59393310546875,0.543060302734375
280452,0.1397857666015625,-0.59393310546875,0.543060302734375
280453,0.180328369140625,-0.5910186767578125,0.507781982421875
280454,0.2285308837890625,-0.5817413330078125,0.470733642578125
280455,0.2713775634765625,-0.584991455078125,0.458282470703125
280456,0.3034515380859375,-0.5964202880859375,0.4737701416015625
280457,0.320892333984375,-0.620147705078125,0.49456787109375
280458,0.342071533203125,-0.6351318359375,0.5281219482421875
280459,0.342437744140625,-0.6803131103515625,0.5979461669921875
280460,0.342437744140625,-0.6803131103515625,0.5979461669921875
280461,0.3249664306640625,-0.696807861328125,0.62603759765625
280462,0.284942626953125,-0.7240142822265625,0.641387939453125
280463,0.2339630126953125,-0.7491455078125,0.6478424072265625
280464,0.1764068603515625,-0.7718505859375,0.6512908935546875
280465,0.1764068603515625,-0.7718505859375,0.6512908935546875
280466,0.116485595703125,-0.8043975830078125,0.665863037109375
280467,-0.0110626220703125,-0.9033355712890624,0.7664031982421875
280468,-0.06170654296875,-0.945526123046875,0.8319854736328125
280469,-0.0908203125,-0.976531982421875,0.8665924072265625
280470,-0.072906494140625,-0.9300079345703124,0.8521728515625
280471,-0.006927490234375,-0.8286590576171875,0.7873382568359375
280472,0.0726165771484375,-0.7550506591796875,0.714019775390625
280473,0.1389312744140625,-0.69854736328125,0.66717529296875
280474,0.1908111572265625,-0.6614227294921875,0.6631011962890625
280475,0.227325439453125,-0.6604461669921875,0.6886444091796875
280476,0.257598876953125,-0.6923370361328125,0.72174072265625
280477,0.3047637939453125,-0.72711181640625,0.7411651611328125
280478,0.3721160888671875,-0.7365875244140625,0.750091552734375
280479,0.421844482421875,-0.73907470703125,0.7425689697265625
280480,0.4552001953125,-0.7213897705078125,0.7199859619140625
280481,0.50054931640625,-0.6771697998046875,0.6900787353515625
280482,0.5581512451171875,-0.615020751953125,0.6443023681640625
280483,0.691162109375,-0.5164642333984375,0.597808837890625
280484,0.691162109375,-0.5164642333984375,0.597808837890625
280485,0.7517852783203125,-0.498626708984375,0.6190032958984375
280486,0.805419921875,-0.5047149658203125,0.6749267578125
280487,0.85308837890625,-0.525390625,0.7512359619140625
280488,0.879150390625,-0.5537109375,0.8246612548828125
280489,0.8873443603515625,-0.5615234375,0.88623046875
280490,0.8760986328125,-0.54229736328125,0.9170074462890624
280491,0.8539276123046875,-0.5175628662109375,0.9224700927734376
280492,0.8137054443359375,-0.5048980712890625,0.927703857421875
280493,0.7567138671875,-0.501495361328125,0.914337158203125
280494,0.6896209716796875,-0.507232666015625,0.8760833740234375
280495,0.502105712890625,-0.546051025390625,0.7441558837890625
280496,0.502105712890625,-0.546051025390625,0.7441558837890625
280497,0.3952789306640625,-0.5787811279296875,0.663970947265625
280498,0.3022308349609375,-0.56646728515625,0.64935302734375
280499,0.226531982421875,-0.5021820068359375,0.65838623046875
280500,0.1656341552734375,-0.467559814453125,0.662017822265625
280501,0.1127777099609375,-0.4611663818359375,0.6379547119140625
280502,0.070709228515625,-0.475738525390625,0.57421875
280503,0.03314208984375,-0.5081329345703125,0.4910430908203125
280504,0.0107269287109375,-0.5631103515625,0.417694091796875
280505,0.0047607421875,-0.6197052001953125,0.3579254150390625
280506,0.0319671630859375,-0.674041748046875,0.3146209716796875
280507,0.09515380859375,-0.7197265625,0.2823638916015625
280508,0.178466796875,-0.736236572265625,0.2936859130859375
280509,0.2617950439453125,-0.7217864990234375,0.34710693359375
280510,0.2617950439453125,-0.7217864990234375,0.34710693359375
280511,0.423919677734375,-0.746124267578125,0.5816650390625
280512,0.423919677734375,-0.746124267578125,0.5816650390625
280513,0.4455718994140625,-0.76373291015625,0.6861114501953125
280514,0.4361114501953125,-0.7745819091796875,0.7946319580078125
280515,0.36492919921875,-0.787078857421875,0.88214111328125
280516,0.36492919921875,-0.787078857421875,0.88214111328125
280517,0.2927703857421875,-0.796142578125,0.87493896484375
280518,0.2152252197265625,-0.800537109375,0.8607025146484375
280519,0.1585845947265625,-0.7663116455078125,0.866058349609375
280520,0.118072509765625,-0.7155303955078125,0.8527069091796875
280521,0.118072509765625,-0.7155303955078125,0.8527069091796875
280522,0.1345672607421875,-0.643096923828125,0.692230224609375
280523,0.1860198974609375,-0.6322021484375,0.6549835205078125
280524,0.232879638671875,-0.6325836181640625,0.6757049560546875
280525,0.2738037109375,-0.65435791015625,0.7284393310546875
280526,0.3166656494140625,-0.670623779296875,0.795928955078125
280527,0.3559417724609375,-0.6806488037109375,0.8573760986328125
280528,0.383941650390625,-0.67742919921875,0.8814544677734375
280529,0.3824615478515625,-0.6666412353515625,0.8672637939453125
280530,0.3537750244140625,-0.6397857666015625,0.8315277099609375
280531,0.3017425537109375,-0.602630615234375,0.7639617919921875
280532,0.3017425537109375,-0.602630615234375,0.7639617919921875
280533,0.2432708740234375,-0.5581817626953125,0.674652099609375
280534,0.152130126953125,-0.4840087890625,0.5367584228515625
280535,0.1177978515625,-0.4699249267578125,0.510406494140625
280536,0.1003570556640625,-0.478485107421875,0.5137786865234375
280537,0.0707855224609375,-0.5166473388671875,0.5150604248046875
280538,0.0495758056640625,-0.54248046875,0.541046142578125
280539,0.054901123046875,-0.5661468505859375,0.5835113525390625
280540,0.0796661376953125,-0.6042327880859375,0.6246795654296875
280541,0.11798095703125,-0.636810302734375,0.6515655517578125
280542,0.180816650390625,-0.6533203125,0.6539306640625
280543,0.268402099609375,-0.6388397216796875,0.6511688232421875
280544,0.3603515625,-0.6250762939453125,0.6428985595703125
280545,0.4526519775390625,-0.59014892578125,0.6316375732421875
280546,0.5280303955078125,-0.55523681640625,0.6304168701171875
280547,0.5801849365234375,-0.5571136474609375,0.6341705322265625
280548,0.6114044189453125,-0.6027984619140625,0.6398773193359375
280549,0.6303558349609375,-0.665679931640625,0.6483001708984375
280550,0.6838226318359375,-0.703643798828125,0.6887359619140625
280551,0.887847900390625,-0.7562713623046875,0.80474853515625
280552,0.887847900390625,-0.7562713623046875,0.80474853515625
280553,0.965972900390625,-0.79730224609375,0.868072509765625
280554,0.9909515380859376,-0.8114013671875,0.923095703125
280555,0.8787994384765625,-0.7906341552734375,0.98175048828125
280556,0.8787994384765625,-0.7906341552734375,0.98175048828125
280557,0.774169921875,-0.7763824462890625,0.982269287109375
280558,0.6505584716796875,-0.750335693359375,0.932464599609375
280559,0.443572998046875,-0.6692657470703125,0.7866973876953125
280560,0.443572998046875,-0.6692657470703125,0.7866973876953125
280561,0.391448974609375,-0.6206817626953125,0.7679901123046875
280562,0.361724853515625,-0.5964813232421875,0.7875213623046875
280563,0.3186187744140625,-0.5981597900390625,0.834503173828125
280564,0.3186187744140625,-0.5981597900390625,0.834503173828125
280565,0.3028411865234375,-0.5909576416015625,0.8701019287109375
280566,0.2855224609375,-0.5785064697265625,0.88916015625
280567,0.259765625,-0.553741455078125,0.88983154296875
280568,0.2237701416015625,-0.52996826171875,0.863800048828125
280569,0.1900177001953125,-0.5121002197265625,0.8330535888671875
280570,0.1770172119140625,-0.4919586181640625,0.721588134765625
280571,0.1809539794921875,-0.4810638427734375,0.6306610107421875
280572,0.187347412109375,-0.4786529541015625,0.5937652587890625
280573,0.2057647705078125,-0.48028564453125,0.5874176025390625
280574,0.2427215576171875,-0.477325439453125,0.5899810791015625
280575,0.293212890625,-0.4814300537109375,0.5973663330078125
280576,0.3422393798828125,-0.5001068115234375,0.609344482421875
280577,0.3523712158203125,-0.537933349609375,0.639495849609375
280578,0.336517333984375,-0.563507080078125,0.6608734130859375
280579,0.312744140625,-0.577880859375,0.662872314453125
280580,0.2747650146484375,-0.5881195068359375,0.6508941650390625
280581,0.22528076171875,-0.595306396484375,0.6189422607421875
280582,0.182159423828125,-0.5999755859375,0.5805816650390625
280583,0.15960693359375,-0.6064910888671875,0.566131591796875
280584,0.1484222412109375,-0.6176605224609375,0.544403076171875
280585,0.162841796875,-0.63067626953125,0.5190277099609375
280586,0.197998046875,-0.6491546630859375,0.533905029296875
280587,0.227813720703125,-0.684173583984375,0.5763397216796875
280588,0.2478790283203125,-0.72137451171875,0.64508056640625
280589,0.25970458984375,-0.7488861083984375,0.733642578125
280590,0.2479705810546875,-0.7740631103515625,0.8153839111328125
280591,0.2069854736328125,-0.793243408203125,0.8697357177734375
280592,0.151336669921875,-0.784576416015625,0.8928070068359375
280593,0.0873565673828125,-0.7576904296875,0.8756866455078125
280594,0.035247802734375,-0.7247467041015625,0.79736328125
280595,0.005645751953125,-0.7134857177734375,0.697052001953125
280596,0.005645751953125,-0.7134857177734375,0.697052001953125
280597,-0.0138092041015625,-0.718414306640625,0.61407470703125
280598,-0.02532958984375,-0.749420166015625,0.55999755859375
280599,-0.003753662109375,-0.7586669921875,0.5787200927734375
280600,0.05450439453125,-0.75433349609375,0.6306304931640625
280601,0.140716552734375,-0.74407958984375,0.6867218017578125
280602,0.2387237548828125,-0.7232818603515625,0.7346038818359375
280603,0.344757080078125,-0.696197509765625,0.77801513671875
280604,0.438079833984375,-0.6758575439453125,0.7998504638671875
280605,0.4934234619140625,-0.66290283203125,0.7975921630859375
280606,0.517059326171875,-0.6432342529296875,0.7826690673828125
280607,0.5096588134765625,-0.627197265625,0.7526397705078125
280608,0.4658660888671875,-0.621490478515625,0.7068023681640625
280609,0.4185333251953125,-0.613922119140625,0.6648406982421875
280610,0.4008331298828125,-0.6008148193359375,0.6327056884765625
280611,0.3933563232421875,-0.584808349609375,0.59942626953125
280612,0.3819427490234375,-0.550201416015625,0.5636444091796875
280613,0.385833740234375,-0.5007781982421875,0.5411224365234375
280614,0.4201812744140625,-0.454498291015625,0.537200927734375
280615,0.539703369140625,-0.4761505126953125,0.6129150390625
280616,0.539703369140625,-0.4761505126953125,0.6129150390625
280617,0.59808349609375,-0.50469970703125,0.66650390625
280618,0.64178466796875,-0.5358123779296875,0.7183837890625
280619,0.6681060791015625,-0.5539398193359375,0.7772369384765625
280620,0.6887969970703125,-0.553741455078125,0.827667236328125
280621,0.6971588134765625,-0.532684326171875,0.8545379638671875
280622,0.69317626953125,-0.5022125244140625,0.8673858642578125
280623,0.663787841796875,-0.48309326171875,0.8674468994140625
280624,0.6129913330078125,-0.4771728515625,0.851165771484375
280625,0.5460662841796875,-0.4832916259765625,0.820404052734375
280626,0.4688568115234375,-0.5010528564453125,0.7814788818359375
280627,0.389129638671875,-0.51629638671875,0.7454986572265625
280628,0.304840087890625,-0.5291290283203125,0.717742919921875
280629,0.223480224609375,-0.5360565185546875,0.701416015625
280630,0.152069091796875,-0.5375213623046875,0.6766357421875
280631,0.101470947265625,-0.5474090576171875,0.644073486328125
280632,0.101470947265625,-0.5474090576171875,0.644073486328125
280633,0.0732879638671875,-0.5688323974609375,0.60101318359375
280634,0.0614013671875,-0.6358489990234375,0.4800567626953125
280635,0.072601318359375,-0.6713714599609375,0.4192047119140625
280636,0.072601318359375,-0.6713714599609375,0.4192047119140625
280637,0.0942535400390625,-0.7128143310546875,0.3816986083984375
280638,0.198883056640625,-0.7849273681640625,0.3826141357421875
280639,0.2664031982421875,-0.82391357421875,0.41522216796875
280640,0.3365478515625,-0.8685150146484375,0.46075439453125
280641,0.40289306640625,-0.9118194580078124,0.5071258544921875
280642,0.458526611328125,-0.9503173828125,0.56427001953125
280643,0.4946136474609375,-0.9742889404296876,0.641021728515625
280644,0.50848388671875,-0.97442626953125,0.701416015625
280645,0.5174560546875,-0.93072509765625,0.7437286376953125
280646,0.5155029296875,-0.873626708984375,0.7619476318359375
280647,0.4918975830078125,-0.8389739990234375,0.7649993896484375
280648,0.45263671875,-0.814697265625,0.7605133056640625
280649,0.3991546630859375,-0.7918243408203125,0.772064208984375
280650,0.3530120849609375,-0.7659149169921875,0.7761993408203125
280651,0.322021484375,-0.7492218017578125,0.7506561279296875
280652,0.3096160888671875,-0.750091552734375,0.719696044921875
280653,0.3170318603515625,-0.74761962890625,0.6750640869140625
280654,0.3202056884765625,-0.752227783203125,0.6538543701171875
280655,0.32745361328125,-0.7333831787109375,0.6508331298828125
280656,0.322418212890625,-0.7120513916015625,0.64794921875
280657,0.322418212890625,-0.7120513916015625,0.64794921875
280658,0.3032684326171875,-0.7029876708984375,0.643218994140625
280659,0.2687225341796875,-0.6923828125,0.65576171875
280660,0.2619781494140625,-0.6988525390625,0.6557464599609375
280661,0.2517242431640625,-0.7036590576171875,0.6466522216796875
280662,0.2382049560546875,-0.6920318603515625,0.6245880126953125
280663,0.2275238037109375,-0.6717071533203125,0.6068572998046875
280664,0.2275238037109375,-0.6717071533203125,0.6068572998046875
280665,0.2053375244140625,-0.6556549072265625,0.5844879150390625
280666,0.1725006103515625,-0.6515960693359375,0.563568115234375
280667,0.085357666015625,-0.69805908203125,0.5020904541015625
280668,0.048095703125,-0.73541259765625,0.483001708984375
280669,0.0388336181640625,-0.7583770751953125,0.47900390625
280670,0.0499267578125,-0.7767791748046875,0.4816741943359375
280671,0.1470489501953125,-0.80047607421875,0.48876953125
280672,0.1470489501953125,-0.80047607421875,0.48876953125
280673,0.226226806640625,-0.8091888427734375,0.4903564453125
280674,0.31591796875,-0.81341552734375,0.501251220703125
280675,0.3977203369140625,-0.802093505859375,0.5203094482421875
280676,0.478546142578125,-0.7869720458984375,0.5596923828125
280677,0.5568389892578125,-0.7799224853515625,0.5909576416015625
280678,0.6327667236328125,-0.7887420654296875,0.619171142578125
280679,0.6865386962890625,-0.8092193603515625,0.6360015869140625
280680,0.7212371826171875,-0.82757568359375,0.6409454345703125
280681,0.747314453125,-0.8379669189453125,0.6330413818359375
280682,0.816986083984375,-0.8623199462890625,0.6245574951171875
280683,0.816986083984375,-0.8623199462890625,0.6245574951171875
280684,0.8630523681640625,-0.860748291015625,0.64337158203125
280685,0.88909912109375,-0.8390655517578125,0.6920166015625
280686,0.87347412109375,-0.8020477294921875,0.768096923828125
280687,0.8158111572265625,-0.7576904296875,0.838134765625
280688,0.727996826171875,-0.7080535888671875,0.8663482666015625
280689,0.6263275146484375,-0.6477813720703125,0.835205078125
280690,0.5320587158203125,-0.5979766845703125,0.766326904296875
280691,0.459136962890625,-0.55548095703125,0.69146728515625
280692,0.4130859375,-0.5169219970703125,0.6482391357421875
280693,0.4130859375,-0.5169219970703125,0.6482391357421875
280694,0.385101318359375,-0.500274658203125,0.64300537109375
280695,0.373809814453125,-0.52508544921875,0.69970703125
280696,0.3838348388671875,-0.5319671630859375,0.7483978271484375
280697,0.3914031982421875,-0.5355072021484375,0.797943115234375
280698,0.3874053955078125,-0.5286865234375,0.83355712890625
280699,0.3713836669921875,-0.5101470947265625,0.84442138671875
280700,0.3503570556640625,-0.4920654296875,0.8238677978515625
280701,0.331268310546875,-0.4833221435546875,0.7622222900390625
280702,0.312286376953125,-0.4804534912109375,0.700927734375
280703,0.2930450439453125,-0.4791259765625,0.6676025390625
280704,0.2727203369140625,-0.48101806640625,0.6410064697265625
280705,0.2727203369140625,-0.48101806640625,0.6410064697265625
280706,0.2484588623046875,-0.48272705078125,0.614837646484375
280707,0.206817626953125,-0.4853668212890625,0.601104736328125
280708,0.17486572265625,-0.4962310791015625,0.5942230224609375
280709,0.1402587890625,-0.5183258056640625,0.587615966796875
280710,0.115203857421875,-0.53839111328125,0.57470703125
280711,0.1063232421875,-0.560211181640625,0.571685791015625
280712,0.110992431640625,-0.5804901123046875,0.57672119140625
280713,0.1200103759765625,-0.6042633056640625,0.573455810546875
280714,0.13018798828125,-0.6302032470703125,0.5584564208984375
280715,0.1436614990234375,-0.6510772705078125,0.54443359375
280716,0.151763916015625,-0.66455078125,0.546600341796875
280717,0.151763916015625,-0.66455078125,0.546600341796875
280718,0.17340087890625,-0.70928955078125,0.581695556640625
280719,0.2010650634765625,-0.7519683837890625,0.62261962890625
280720,0.23126220703125,-0.7982635498046875,0.683685302734375
280721,0.2487335205078125,-0.828369140625,0.7520751953125
280722,0.2490081787109375,-0.83050537109375,0.8043670654296875
280723,0.2317962646484375,-0.808837890625,0.8196868896484375
280724,0.21173095703125,-0.777801513671875,0.7985992431640625
280725,0.1929931640625,-0.7472381591796875,0.7504119873046875
280726,0.1781005859375,-0.7317352294921875,0.6869354248046875
280727,0.16455078125,-0.741485595703125,0.6287841796875
280728,0.1541595458984375,-0.7630767822265625,0.5926513671875
280729,0.148681640625,-0.7853240966796875,0.5875091552734375
280730,0.1601715087890625,-0.795440673828125,0.6202239990234375
280731,0.1977386474609375,-0.7886962890625,0.67193603515625
280732,0.1977386474609375,-0.7886962890625,0.67193603515625
280733,0.2529144287109375,-0.769622802734375,0.7141571044921875
280734,0.3742218017578125,-0.744720458984375,0.6987457275390625
280735,0.4077301025390625,-0.71075439453125,0.677276611328125
280736,0.411834716796875,-0.672637939453125,0.66876220703125
280737,0.4055023193359375,-0.6482086181640625,0.6605987548828125
280738,0.402679443359375,-0.6361846923828125,0.6490631103515625
280739,0.41241455078125,-0.6361846923828125,0.6408233642578125
280740,0.44049072265625,-0.6335906982421875,0.640411376953125
280741,0.4736480712890625,-0.619415283203125,0.6380462646484375
280742,0.4940185546875,-0.5963134765625,0.6220703125
280743,0.5099945068359375,-0.5585174560546875,0.6036834716796875
280744,0.5334930419921875,-0.517669677734375,0.5958099365234375
280745,0.574493408203125,-0.4869842529296875,0.6140289306640625
280746,0.655517578125,-0.465423583984375,0.6984100341796875
280747,0.655517578125,-0.465423583984375,0.6984100341796875
280748,0.6795654296875,-0.4723663330078125,0.7534027099609375
280749,0.70013427734375,-0.48944091796875,0.81573486328125
280750,0.7194366455078125,-0.508087158203125,0.8773956298828125
280751,0.7299041748046875,-0.5261688232421875,0.9260101318359376
280752,0.718658447265625,-0.5299530029296875,0.9521942138671876
280753,0.6806182861328125,-0.519134521484375,0.9586181640625
280754,0.6126251220703125,-0.508819580078125,0.9348907470703124
280755,0.5244293212890625,-0.5132598876953125,0.876983642578125
280756,0.4319610595703125,-0.5364837646484375,0.8086700439453125
280757,0.3443145751953125,-0.5717315673828125,0.745147705078125
280758,0.270233154296875,-0.616851806640625,0.6966094970703125
280759,0.215423583984375,-0.6500244140625,0.6558990478515625
280760,0.1815032958984375,-0.6595611572265625,0.6175384521484375
280761,0.1714630126953125,-0.6533203125,0.579986572265625
280762,0.182159423828125,-0.6417388916015625,0.5340118408203125
280763,0.20733642578125,-0.630126953125,0.487030029296875
280764,0.20733642578125,-0.630126953125,0.487030029296875
280765,0.2329254150390625,-0.6245269775390625,0.4518280029296875
280766,0.2556304931640625,-0.6162109375,0.4231719970703125
280767,0.305511474609375,-0.6708526611328125,0.3751983642578125
280768,0.3339691162109375,-0.7268829345703125,0.3768768310546875
280769,0.362945556640625,-0.7744598388671875,0.3982696533203125
280770,0.40142822265625,-0.7988433837890625,0.4102325439453125
280771,0.445068359375,-0.8045806884765625,0.42816162109375
280772,0.4956817626953125,-0.8009490966796875,0.46209716796875
280773,0.5422821044921875,-0.7810821533203125,0.4947967529296875
280774,0.566497802734375,-0.7657623291015625,0.537109375
280775,0.5718994140625,-0.751190185546875,0.587188720703125
280776,0.5718994140625,-0.751190185546875,0.587188720703125
280777,0.5282745361328125,-0.759246826171875,0.6422576904296875
280778,0.3800048828125,-0.7567901611328125,0.7722015380859375
280779,0.29443359375,-0.7411956787109375,0.82098388671875
280780,0.29443359375,-0.7411956787109375,0.82098388671875
280781,0.2198486328125,-0.723358154296875,0.8465118408203125
280782,0.1359100341796875,-0.7613067626953125,0.781707763671875
280783,0.1359100341796875,-0.7613067626953125,0.781707763671875
280784,0.131500244140625,-0.795440673828125,0.749908447265625
280785,0.1329498291015625,-0.808502197265625,0.7410125732421875
280786,0.1258697509765625,-0.776763916015625,0.731048583984375
280787,0.1258697509765625,-0.776763916015625,0.731048583984375
280788,0.1258697509765625,-0.776763916015625,0.731048583984375
280789,0.1180267333984375,-0.7508392333984375,0.7040557861328125
280790,0.12994384765625,-0.6933441162109375,0.6789703369140625
280791,0.1537933349609375,-0.670928955078125,0.644378662109375
280792,0.1537933349609375,-0.670928955078125,0.644378662109375
280793,0.1947479248046875,-0.6612091064453125,0.5948486328125
280794,0.280548095703125,-0.601531982421875,0.63543701171875
280795,0.29095458984375,-0.5894622802734375,0.644195556640625
280796,0.29095458984375,-0.5894622802734375,0.644195556640625
280797,0.289947509765625,-0.587860107421875,0.6670684814453125
280798,0.290252685546875,-0.6436920166015625,0.7030029296875
280799,0.310150146484375,-0.6849212646484375,0.6799163818359375
280800,0.310150146484375,-0.6849212646484375,0.6799163818359375
280801,0.34490966796875,-0.7106781005859375,0.6273040771484375
280802,0.436798095703125,-0.716033935546875,0.521148681640625
280803,0.4964141845703125,-0.7155303955078125,0.483673095703125
280804,0.4964141845703125,-0.7155303955078125,0.483673095703125
280805,0.5738067626953125,-0.7159576416015625,0.4619140625
280806,0.738128662109375,-0.7142181396484375,0.4720306396484375
280807,0.748565673828125,-0.7065582275390625,0.459869384765625
280808,0.748565673828125,-0.7065582275390625,0.459869384765625
280809,0.7333221435546875,-0.6916656494140625,0.456512451171875
280810,0.707305908203125,-0.6487274169921875,0.4506072998046875
280811,0.694122314453125,-0.649169921875,0.4529571533203125
280812,0.694122314453125,-0.649169921875,0.4529571533203125
280813,0.6891632080078125,-0.6726531982421875,0.461334228515625
280814,0.780120849609375,-0.758056640625,0.7113037109375
280815,0.780120849609375,-0.758056640625,0.7113037109375
280816,0.7947235107421875,-0.7832794189453125,0.8148193359375
280817,0.7947235107421875,-0.7832794189453125,0.8148193359375
280818,0.686370849609375,-0.7717132568359375,0.93585205078125
280819,0.5748443603515625,-0.753448486328125,0.90911865234375
280820,0.5748443603515625,-0.753448486328125,0.90911865234375
280821,0.4346771240234375,-0.7326812744140625,0.8300628662109375
280822,0.2093505859375,-0.700897216796875,0.6632080078125
280823,0.22320556640625,-0.6417694091796875,0.65399169921875
280824,0.22320556640625,-0.6417694091796875,0.65399169921875
280825,0.2760772705078125,-0.5821075439453125,0.6717376708984375
280826,0.342071533203125,-0.5615997314453125,0.7849578857421875
280827,0.35760498046875,-0.57928466796875,0.824462890625
280828,0.35760498046875,-0.57928466796875,0.824462890625
280829,0.368438720703125,-0.5800323486328125,0.8260498046875
280830,0.3829345703125,-0.5384979248046875,0.7370758056640625
280831,0.38671875,-0.513885498046875,0.6805419921875
280832,0.38671875,-0.513885498046875,0.6805419921875
280833,0.39166259765625,-0.49798583984375,0.6269378662109375
280834,0.42730712890625,-0.4937896728515625,0.5986480712890625
280835,0.4368896484375,-0.5148468017578125,0.6023712158203125
280836,0.4368896484375,-0.5148468017578125,0.6023712158203125
280837,0.426544189453125,-0.5401611328125,0.6009521484375
280838,0.3546905517578125,-0.5860595703125,0.6086273193359375
280839,0.313232421875,-0.6107940673828125,0.5969085693359375
280840,0.313232421875,-0.6107940673828125,0.5969085693359375
280841,0.29010009765625,-0.63470458984375,0.5797576904296875
280842,0.244415283203125,-0.678558349609375,0.5395660400390625
280843,0.234039306640625,-0.6699066162109375,0.52227783203125
280844,0.234039306640625,-0.6699066162109375,0.52227783203125
280845,0.2394561767578125,-0.656707763671875,0.518035888671875
280846,0.2657470703125,-0.65716552734375,0.5739593505859375
280847,0.26544189453125,-0.6777496337890625,0.6462860107421875
280848,0.26544189453125,-0.6777496337890625,0.6462860107421875
280849,0.2539825439453125,-0.68292236328125,0.7362823486328125
280850,0.1521759033203125,-0.6955413818359375,0.8524322509765625
280851,0.082794189453125,-0.715576171875,0.840850830078125
280852,0.082794189453125,-0.715576171875,0.840850830078125
280853,0.0282745361328125,-0.7142486572265625,0.803009033203125
280854,-0.038848876953125,-0.68841552734375,0.686920166015625
280855,-0.0742340087890625,-0.72412109375,0.604217529296875
280856,-0.0742340087890625,-0.72412109375,0.604217529296875
280857,-0.0432586669921875,-0.763946533203125,0.6136322021484375
280858,0.135711669921875,-0.718658447265625,0.667877197265625
280859,0.2301483154296875,-0.7023162841796875,0.7112884521484375
280860,0.3187103271484375,-0.6748046875,0.771575927734375
280861,0.3846282958984375,-0.6447906494140625,0.810546875
280862,0.441925048828125,-0.63336181640625,0.81597900390625
280863,0.4866485595703125,-0.645721435546875,0.792938232421875
280864,0.4866485595703125,-0.645721435546875,0.792938232421875
280865,0.5094757080078125,-0.6646728515625,0.74957275390625
280866,0.428497314453125,-0.6575469970703125,0.7347869873046875
280867,0.428497314453125,-0.6575469970703125,0.7347869873046875
280868,0.3979949951171875,-0.6307830810546875,0.724090576171875
280869,0.39630126953125,-0.600433349609375,0.7054443359375
280870,0.4192657470703125,-0.569915771484375,0.6845855712890625
280871,0.457672119140625,-0.5362548828125,0.6758270263671875
280872,0.457672119140625,-0.5362548828125,0.6758270263671875
280873,0.5169830322265625,-0.508575439453125,0.6681671142578125
280874,0.6165924072265625,-0.4979248046875,0.6209716796875
280875,0.6487274169921875,-0.4899139404296875,0.6015167236328125
280876,0.6487274169921875,-0.4899139404296875,0.6015167236328125
280877,0.6591796875,-0.464202880859375,0.593841552734375
280878,0.6588592529296875,-0.41680908203125,0.631866455078125
280879,0.66961669921875,-0.404052734375,0.66796875
280880,0.66961669921875,-0.404052734375,0.66796875
280881,0.682159423828125,-0.3951263427734375,0.7118988037109375
280882,0.6374969482421875,-0.3506927490234375,0.8365325927734375
280883,0.6374969482421875,-0.3506927490234375,0.8365325927734375
280884,0.5753021240234375,-0.325653076171875,0.8796844482421875
280885,0.49224853515625,-0.3162994384765625,0.8904571533203125
280886,0.405914306640625,-0.3399810791015625,0.8746795654296875
280887,0.3162384033203125,-0.385223388671875,0.865631103515625
280888,0.3162384033203125,-0.385223388671875,0.865631103515625
280889,0.22216796875,-0.4494476318359375,0.8553314208984375
280890,0.033203125,-0.627197265625,0.83563232421875
280891,-0.0501251220703125,-0.6881256103515625,0.8210601806640625
280892,-0.10565185546875,-0.68701171875,0.7742767333984375
280893,-0.1185455322265625,-0.667633056640625,0.693511962890625
280894,-0.0749664306640625,-0.6606292724609375,0.5968017578125
280895,0.00048828125,-0.65911865234375,0.5352020263671875
280896,0.00048828125,-0.65911865234375,0.5352020263671875
280897,0.0748443603515625,-0.67303466796875,0.46697998046875
280898,0.25054931640625,-0.7089996337890625,0.3756103515625
280899,0.335693359375,-0.737762451171875,0.3868560791015625
280900,0.335693359375,-0.737762451171875,0.3868560791015625
280901,0.420684814453125,-0.7845611572265625,0.42791748046875
280902,0.6268463134765625,-0.8719482421875,0.5826873779296875
280903,0.7124176025390625,-0.8902130126953125,0.6741790771484375
280904,0.7124176025390625,-0.8902130126953125,0.6741790771484375
280905,0.75701904296875,-0.8811798095703125,0.7599639892578125
280906,0.677886962890625,-0.797607421875,0.8665618896484375
280907,0.5637359619140625,-0.7437896728515625,0.8938446044921875
280908,0.5637359619140625,-0.7437896728515625,0.8938446044921875
280909,0.42352294921875,-0.6943511962890625,0.902862548828125
280910,0.165802001953125,-0.6512603759765625,0.8518218994140625
280911,0.095489501953125,-0.6512451171875,0.82073974609375
280912,0.095489501953125,-0.6512451171875,0.82073974609375
280913,0.0643157958984375,-0.668304443359375,0.795166015625
280914,0.12652587890625,-0.69512939453125,0.7886810302734375
280915,0.12652587890625,-0.69512939453125,0.7886810302734375
280916,0.153961181640625,-0.6921539306640625,0.7946319580078125
280917,0.1675567626953125,-0.682830810546875,0.7965087890625
280918,0.16986083984375,-0.67877197265625,0.7802581787109375
280919,0.162567138671875,-0.6726531982421875,0.758544921875
280920,0.162567138671875,-0.6726531982421875,0.758544921875
280921,0.15289306640625,-0.65826416015625,0.752960205078125
280922,0.147491455078125,-0.61004638671875,0.71551513671875
280923,0.1478271484375,-0.594207763671875,0.6919097900390625
280924,0.1478271484375,-0.594207763671875,0.6919097900390625
280925,0.1409149169921875,-0.5758514404296875,0.675140380859375
280926,0.0298004150390625,-0.58734130859375,0.6200408935546875
280927,0.0298004150390625,-0.58734130859375,0.6200408935546875
280928,0.0298004150390625,-0.58734130859375,0.6200408935546875
280929,0.001617431640625,-0.623077392578125,0.6315155029296875
280930,0.0347900390625,-0.6694793701171875,0.6294097900390625
280931,0.0347900390625,-0.6694793701171875,0.6294097900390625
280932,0.0347900390625,-0.6694793701171875,0.6294097900390625
280933,0.0914764404296875,-0.6525421142578125,0.622528076171875
280934,0.2613067626953125,-0.6077728271484375,0.616973876953125
280935,0.358306884765625,-0.606781005859375,0.608184814453125
280936,0.358306884765625,-0.606781005859375,0.608184814453125
280937,0.445220947265625,-0.612335205078125,0.6114501953125
280938,0.6654205322265625,-0.660186767578125,0.6261138916015625
280939,0.6654205322265625,-0.660186767578125,0.6261138916015625
280940,0.6654205322265625,-0.660186767578125,0.6261138916015625
280941,0.730621337890625,-0.655853271484375,0.6189422607421875
280942,0.9035186767578124,-0.5837860107421875,0.6335906982421875
280943,0.9035186767578124,-0.5837860107421875,0.6335906982421875
280944,0.9035186767578124,-0.5837860107421875,0.6335906982421875
280945,0.9385986328125,-0.583465576171875,0.651611328125
280946,0.917999267578125,-0.6283416748046875,0.6910247802734375
280947,0.917999267578125,-0.6283416748046875,0.6910247802734375
280948,0.917999267578125,-0.6283416748046875,0.6910247802734375
280949,0.8745880126953125,-0.6452789306640625,0.70947265625
280950,0.6626434326171875,-0.67559814453125,0.760467529296875
280951,0.6626434326171875,-0.67559814453125,0.760467529296875
280952,0.6626434326171875,-0.67559814453125,0.760467529296875
280953,0.5719757080078125,-0.6604156494140625,0.7805633544921875
280954,0.2696685791015625,-0.5995330810546875,0.750823974609375
280955,0.2696685791015625,-0.5995330810546875,0.750823974609375
280956,0.2696685791015625,-0.5995330810546875,0.750823974609375
280957,0.2115325927734375,-0.5984039306640625,0.7224884033203125
280958,0.128082275390625,-0.621002197265625,0.7241668701171875
280959,0.128082275390625,-0.621002197265625,0.7241668701171875
280960,0.128082275390625,-0.621002197265625,0.7241668701171875
280961,0.096527099609375,-0.6074676513671875,0.7595977783203125
280962,0.039886474609375,-0.5803375244140625,0.857513427734375
280963,0.039886474609375,-0.5803375244140625,0.857513427734375
280964,0.039886474609375,-0.5803375244140625,0.857513427734375
280965,0.076202392578125,-0.577911376953125,0.7937469482421875
280966,0.210540771484375,-0.5530548095703125,0.646514892578125
280967,0.210540771484375,-0.5530548095703125,0.646514892578125
280968,0.210540771484375,-0.5530548095703125,0.646514892578125
280969,0.2405853271484375,-0.5821685791015625,0.6163177490234375
280970,0.3197784423828125,-0.65399169921875,0.637725830078125
280971,0.3197784423828125,-0.65399169921875,0.637725830078125
280972,0.3197784423828125,-0.65399169921875,0.637725830078125
280973,0.339752197265625,-0.65228271484375,0.6316070556640625
280974,0.3634490966796875,-0.6890106201171875,0.57525634765625
280975,0.3634490966796875,-0.6890106201171875,0.57525634765625
280976,0.3634490966796875,-0.6890106201171875,0.57525634765625
280977,0.352294921875,-0.6981658935546875,0.579925537109375
280978,0.2747344970703125,-0.7569122314453125,0.6750030517578125
280979,0.2747344970703125,-0.7569122314453125,0.6750030517578125
280980,0.2747344970703125,-0.7569122314453125,0.6750030517578125
280981,0.246185302734375,-0.7740325927734375,0.7338409423828125
280982,0.1017303466796875,-0.7394866943359375,0.819915771484375
280983,0.1017303466796875,-0.7394866943359375,0.819915771484375
280984,0.1017303466796875,-0.7394866943359375,0.819915771484375
280985,0.0571441650390625,-0.7059173583984375,0.7740478515625
280986,0.0154876708984375,-0.706756591796875,0.57391357421875
280987,0.0154876708984375,-0.706756591796875,0.57391357421875
280988,0.0154876708984375,-0.706756591796875,0.57391357421875
280989,0.011505126953125,-0.74102783203125,0.5481109619140625
280990,0.0910491943359375,-0.7606964111328125,0.649322509765625
280991,0.0910491943359375,-0.7606964111328125,0.649322509765625
280992,0.0910491943359375,-0.7606964111328125,0.649322509765625
280993,0.1631011962890625,-0.7309722900390625,0.697052001953125
280994,0.3972320556640625,-0.7176666259765625,0.725189208984375
280995,0.3972320556640625,-0.7176666259765625,0.725189208984375
280996,0.3972320556640625,-0.7176666259765625,0.725189208984375
280997,0.445526123046875,-0.712615966796875,0.7332000732421875
280998,0.455535888671875,-0.6372833251953125,0.698883056640625
280999,0.455535888671875,-0.6372833251953125,0.698883056640625
281000,0.45306396484375,-0.600982666015625,0.677490234375
281001,0.45306396484375,-0.600982666015625,0.677490234375
281002,0.5306243896484375,-0.5247802734375,0.6786956787109375
281003,0.5306243896484375,-0.5247802734375,0.6786956787109375
281004,0.5306243896484375,-0.5247802734375,0.6786956787109375
281005,0.5850830078125,-0.51409912109375,0.6642913818359375
281006,0.7227020263671875,-0.4445037841796875,0.5777587890625
281007,0.7227020263671875,-0.4445037841796875,0.5777587890625
281008,0.7227020263671875,-0.4445037841796875,0.5777587890625
281009,0.70166015625,-0.388946533203125,0.552581787109375
281010,0.6578826904296875,-0.3274993896484375,0.541259765625
281011,0.67291259765625,-0.348052978515625,0.572540283203125
281012,0.67291259765625,-0.348052978515625,0.572540283203125
281013,0.690032958984375,-0.3838348388671875,0.6245880126953125
281014,0.705963134765625,-0.44134521484375,0.78759765625
281015,0.705963134765625,-0.44134521484375,0.78759765625
281016,0.705963134765625,-0.44134521484375,0.78759765625
281017,0.7021026611328125,-0.45257568359375,0.8282623291015625
281018,0.5934295654296875,-0.4681396484375,0.8388519287109375
281019,0.494171142578125,-0.5040435791015625,0.8199310302734375
281020,0.494171142578125,-0.5040435791015625,0.8199310302734375
281021,0.373321533203125,-0.564208984375,0.7812957763671875
281022,0.069244384765625,-0.739990234375,0.6012725830078125
281023,0.069244384765625,-0.739990234375,0.6012725830078125
281024,0.069244384765625,-0.739990234375,0.6012725830078125
281025,0.038299560546875,-0.7584381103515625,0.5425262451171875
281026,0.1996307373046875,-0.8069000244140625,0.4197998046875
281027,0.1996307373046875,-0.8069000244140625,0.4197998046875
281028,0.1996307373046875,-0.8069000244140625,0.4197998046875
281029,0.2771759033203125,-0.8187408447265625,0.4430084228515625
281030,0.4568023681640625,-0.88079833984375,0.646881103515625
281031,0.4568023681640625,-0.88079833984375,0.646881103515625
281032,0.4568023681640625,-0.88079833984375,0.646881103515625
281033,0.49188232421875,-0.9026641845703124,0.729034423828125
281034,0.4810028076171875,-0.8843994140625,0.863067626953125
281035,0.4312591552734375,-0.8393707275390625,0.9001617431640625
281036,0.4312591552734375,-0.8393707275390625,0.9001617431640625
281037,0.3563995361328125,-0.781280517578125,0.89971923828125
281038,0.1385650634765625,-0.582916259765625,0.7092437744140625
281039,0.1385650634765625,-0.582916259765625,0.7092437744140625
281040,0.1385650634765625,-0.582916259765625,0.7092437744140625
281041,0.09771728515625,-0.5629425048828125,0.63751220703125
281042,0.071197509765625,-0.6487274169921875,0.5384368896484375
281043,0.0979156494140625,-0.7091217041015625,0.558074951171875
281044,0.0979156494140625,-0.7091217041015625,0.558074951171875
281045,0.1480865478515625,-0.7517852783203125,0.628936767578125
281046,0.307708740234375,-0.7957611083984375,0.8227996826171875
281047,0.307708740234375,-0.7957611083984375,0.8227996826171875
281048,0.307708740234375,-0.7957611083984375,0.8227996826171875
281049,0.3363189697265625,-0.76812744140625,0.8249664306640625
281050,0.34918212890625,-0.650665283203125,0.648956298828125
281051,0.34918212890625,-0.650665283203125,0.648956298828125
281052,0.34918212890625,-0.650665283203125,0.648956298828125
281053,0.32965087890625,-0.6327362060546875,0.573394775390625
281054,0.1397857666015625,-0.6784820556640625,0.5413665771484375
281055,0.1397857666015625,-0.6784820556640625,0.5413665771484375
281056,0.1397857666015625,-0.6784820556640625,0.5413665771484375
281057,0.0771636962890625,-0.7237548828125,0.591094970703125
281058,0.0330047607421875,-0.7910614013671875,0.685943603515625
281059,0.0330047607421875,-0.7910614013671875,0.685943603515625
281060,0.0330047607421875,-0.7910614013671875,0.685943603515625
281061,0.0496673583984375,-0.768157958984375,0.6780242919921875
281062,0.210906982421875,-0.72119140625,0.5477447509765625
281063,0.210906982421875,-0.72119140625,0.5477447509765625
281064,0.210906982421875,-0.72119140625,0.5477447509765625
281065,0.2828369140625,-0.704315185546875,0.5175933837890625
281066,0.400726318359375,-0.69171142578125,0.520294189453125
281067,0.4695587158203125,-0.6847686767578125,0.5401763916015625
281068,0.4695587158203125,-0.6847686767578125,0.5401763916015625
281069,0.5510406494140625,-0.6706085205078125,0.5595855712890625
281070,0.80419921875,-0.673858642578125,0.6320343017578125
281071,0.80419921875,-0.673858642578125,0.6320343017578125
281072,0.80419921875,-0.673858642578125,0.6320343017578125
281073,0.8810272216796875,-0.7051239013671875,0.642303466796875
281074,0.9131011962890624,-0.7475433349609375,0.582183837890625
281075,0.9131011962890624,-0.7475433349609375,0.582183837890625
281076,0.9131011962890624,-0.7475433349609375,0.582183837890625
281077,0.8543853759765625,-0.735198974609375,0.5767822265625
281078,0.6975250244140625,-0.7793426513671875,0.5828094482421875
281079,0.6975250244140625,-0.7793426513671875,0.5828094482421875
281080,0.6975250244140625,-0.7793426513671875,0.5828094482421875
281081,0.639862060546875,-0.7957763671875,0.600250244140625
281082,0.3990478515625,-0.699554443359375,0.630523681640625
281083,0.3990478515625,-0.699554443359375,0.630523681640625
281084,0.3990478515625,-0.699554443359375,0.630523681640625
281085,0.3322906494140625,-0.6597442626953125,0.61981201171875
281086,0.204986572265625,-0.6508941650390625,0.6196746826171875
281087,0.204986572265625,-0.6508941650390625,0.6196746826171875
281088,0.204986572265625,-0.6508941650390625,0.6196746826171875
281089,0.197265625,-0.655792236328125,0.634429931640625
281090,0.2357635498046875,-0.6499481201171875,0.762359619140625
281091,0.2357635498046875,-0.6499481201171875,0.762359619140625
281092,0.2357635498046875,-0.6499481201171875,0.762359619140625
281093,0.2431182861328125,-0.6782989501953125,0.8028717041015625
281094,0.087982177734375,-0.7954559326171875,0.8156280517578125
281095,0.087982177734375,-0.7954559326171875,0.8156280517578125
281096,0.0098724365234375,-0.7724761962890625,0.72393798828125
281097,-0.02130126953125,-0.717864990234375,0.5861663818359375
281098,0.0099029541015625,-0.6739501953125,0.43707275390625
281099,0.0099029541015625,-0.6739501953125,0.43707275390625
281100,0.0099029541015625,-0.6739501953125,0.43707275390625
281101,0.046600341796875,-0.6795501708984375,0.4212799072265625
281102,0.23321533203125,-0.7667694091796875,0.428497314453125
281103,0.23321533203125,-0.7667694091796875,0.428497314453125
281104,0.23321533203125,-0.7667694091796875,0.428497314453125
281105,0.2888336181640625,-0.7955474853515625,0.4855194091796875
281106,0.36944580078125,-0.8475189208984375,0.748138427734375
281107,0.36944580078125,-0.8475189208984375,0.748138427734375
281108,0.36944580078125,-0.8475189208984375,0.748138427734375
281109,0.36688232421875,-0.85382080078125,0.79388427734375
281110,0.2584228515625,-0.7548370361328125,0.701171875
281111,0.2584228515625,-0.7548370361328125,0.701171875
281112,0.2584228515625,-0.7548370361328125,0.701171875
281113,0.2129669189453125,-0.7246551513671875,0.633941650390625
281114,0.0545501708984375,-0.7606353759765625,0.4973297119140625
281115,0.0545501708984375,-0.7606353759765625,0.4973297119140625
281116,0.0053558349609375,-0.791412353515625,0.5102386474609375
281117,-0.0168304443359375,-0.8092193603515625,0.5591888427734375
281118,0.05657958984375,-0.77935791015625,0.687652587890625
281119,0.05657958984375,-0.77935791015625,0.687652587890625
281120,0.05657958984375,-0.77935791015625,0.687652587890625
281121,0.1289825439453125,-0.746368408203125,0.7255859375
281122,0.2940826416015625,-0.686492919921875,0.72021484375
281123,0.2940826416015625,-0.686492919921875,0.72021484375
281124,0.2940826416015625,-0.686492919921875,0.72021484375
281125,0.314208984375,-0.6672821044921875,0.69793701171875
281126,0.3030548095703125,-0.65069580078125,0.68402099609375
281127,0.3030548095703125,-0.65069580078125,0.68402099609375
281128,0.3030548095703125,-0.65069580078125,0.68402099609375
281129,0.3335418701171875,-0.609222412109375,0.6900482177734375
281130,0.4600830078125,-0.572662353515625,0.666229248046875
281131,0.4600830078125,-0.572662353515625,0.666229248046875
281132,0.527435302734375,-0.5668487548828125,0.6406097412109375
281133,0.5984039306640625,-0.5468292236328125,0.6171112060546875
281134,0.6854705810546875,-0.4711761474609375,0.58880615234375
281135,0.6854705810546875,-0.4711761474609375,0.58880615234375
281136,0.6854705810546875,-0.4711761474609375,0.58880615234375
281137,0.6881561279296875,-0.4351959228515625,0.595947265625
281138,0.6670684814453125,-0.440032958984375,0.669403076171875
281139,0.6670684814453125,-0.440032958984375,0.669403076171875
281140,0.6582794189453125,-0.46429443359375,0.699981689453125
281141,0.637420654296875,-0.481353759765625,0.723052978515625
281142,0.58856201171875,-0.4996490478515625,0.7477264404296875
281143,0.58856201171875,-0.4996490478515625,0.7477264404296875
281144,0.58856201171875,-0.4996490478515625,0.7477264404296875
281145,0.553619384765625,-0.513092041015625,0.7519378662109375
281146,0.3423614501953125,-0.5792694091796875,0.699127197265625
281147,0.3423614501953125,-0.5792694091796875,0.699127197265625
281148,0.3423614501953125,-0.5792694091796875,0.699127197265625
281149,0.2447509765625,-0.601715087890625,0.67254638671875
281150,-0.0002288818359375,-0.648529052734375,0.57867431640625
281151,-0.0002288818359375,-0.648529052734375,0.57867431640625
281152,-0.0002288818359375,-0.648529052734375,0.57867431640625
281153,-0.0176849365234375,-0.6837005615234375,0.5284271240234375
281154,0.1530609130859375,-0.78900146484375,0.43896484375
281155,0.1530609130859375,-0.78900146484375,0.43896484375
281156,0.2325592041015625,-0.8059844970703125,0.466278076171875
281157,0.30780029296875,-0.82958984375,0.5239105224609375
281158,0.4236297607421875,-0.89483642578125,0.700775146484375
281159,0.4236297607421875,-0.89483642578125,0.700775146484375
281160,0.4236297607421875,-0.89483642578125,0.700775146484375
281161,0.4578399658203125,-0.9104766845703124,0.767059326171875
281162,0.4161376953125,-0.8245849609375,0.841827392578125
281163,0.4161376953125,-0.8245849609375,0.841827392578125
281164,0.4161376953125,-0.8245849609375,0.841827392578125
281165,0.3249053955078125,-0.7771453857421875,0.8464202880859375
281166,0.1738433837890625,-0.6533966064453125,0.72296142578125
281167,0.1738433837890625,-0.6533966064453125,0.72296142578125
281168,0.1934814453125,-0.63818359375,0.6934356689453125
281169,0.2259979248046875,-0.6277923583984375,0.6881103515625
281170,0.31793212890625,-0.63116455078125,0.747955322265625
281171,0.31793212890625,-0.63116455078125,0.747955322265625
281172,0.31793212890625,-0.63116455078125,0.747955322265625
281173,0.368316650390625,-0.6484375,0.8006439208984375
281174,0.4125213623046875,-0.720001220703125,0.84356689453125
281175,0.4125213623046875,-0.720001220703125,0.84356689453125
281176,0.380615234375,-0.7115631103515625,0.79168701171875
281177,0.332733154296875,-0.6945953369140625,0.7290191650390625
281178,0.2382659912109375,-0.6484832763671875,0.621490478515625
281179,0.2382659912109375,-0.6484832763671875,0.621490478515625
281180,0.2382659912109375,-0.6484832763671875,0.621490478515625
281181,0.194610595703125,-0.6334381103515625,0.5915985107421875
281182,0.0583648681640625,-0.656646728515625,0.6125640869140625
281183,0.0583648681640625,-0.656646728515625,0.6125640869140625
281184,0.018310546875,-0.6957855224609375,0.646087646484375
281185,-0.018524169921875,-0.7393035888671875,0.677276611328125
281186,-0.0688323974609375,-0.792327880859375,0.690185546875
281187,-0.0688323974609375,-0.792327880859375,0.690185546875
281188,-0.0688323974609375,-0.792327880859375,0.690185546875
281189,-0.06524658203125,-0.7909088134765625,0.6561279296875
281190,0.0578765869140625,-0.74163818359375,0.5156707763671875
281191,0.0578765869140625,-0.74163818359375,0.5156707763671875
281192,0.1162567138671875,-0.7236328125,0.475799560546875
281193,0.1766204833984375,-0.7115020751953125,0.446441650390625
281194,0.31048583984375,-0.698333740234375,0.461029052734375
281195,0.31048583984375,-0.698333740234375,0.461029052734375
281196,0.3818359375,-0.705902099609375,0.496337890625
281197,0.4633331298828125,-0.7110137939453125,0.5415802001953125
281198,0.6376800537109375,-0.674652099609375,0.620941162109375
281199,0.6376800537109375,-0.674652099609375,0.620941162109375
281200,0.6376800537109375,-0.674652099609375,0.620941162109375
281201,0.72784423828125,-0.633941650390625,0.6300048828125
281202,1.0369873046875,-0.6835479736328125,0.6042022705078125
281203,1.0369873046875,-0.6835479736328125,0.6042022705078125
281204,1.0369873046875,-0.6835479736328125,0.6042022705078125
281205,1.069717407226562,-0.7499847412109375,0.5841827392578125
281206,0.911407470703125,-0.7970123291015625,0.6541595458984375
281207,0.911407470703125,-0.7970123291015625,0.6541595458984375
281208,0.911407470703125,-0.7970123291015625,0.6541595458984375
281209,0.819976806640625,-0.7762908935546875,0.699676513671875
281210,0.5328369140625,-0.68585205078125,0.6733856201171875
281211,0.5328369140625,-0.68585205078125,0.6733856201171875
281212,0.454803466796875,-0.65875244140625,0.657440185546875
281213,0.380096435546875,-0.6513671875,0.656524658203125
281214,0.263427734375,-0.674713134765625,0.6417388916015625
281215,0.263427734375,-0.674713134765625,0.6417388916015625
281216,0.2376251220703125,-0.66156005859375,0.6417999267578125
281217,0.228118896484375,-0.6473846435546875,0.66717529296875
281218,0.217041015625,-0.644866943359375,0.7755889892578125
281219,0.217041015625,-0.644866943359375,0.7755889892578125
281220,0.1988525390625,-0.6624755859375,0.823944091796875
281221,0.1639251708984375,-0.6941070556640625,0.8408203125
281222,0.0418853759765625,-0.689788818359375,0.8292388916015625
281223,0.0418853759765625,-0.689788818359375,0.8292388916015625
281224,0.0418853759765625,-0.689788818359375,0.8292388916015625
281225,-0.035186767578125,-0.6855316162109375,0.768890380859375
281226,-0.0225830078125,-0.6510772705078125,0.5201416015625
281227,-0.0225830078125,-0.6510772705078125,0.5201416015625
281228,0.0122528076171875,-0.64105224609375,0.52362060546875
281229,0.0403900146484375,-0.64910888671875,0.5259857177734375
281230,0.142791748046875,-0.7269134521484375,0.50970458984375
281231,0.142791748046875,-0.7269134521484375,0.50970458984375
281232,0.142791748046875,-0.7269134521484375,0.50970458984375
281233,0.2029266357421875,-0.7684478759765625,0.526275634765625
281234,0.2942962646484375,-0.806549072265625,0.71612548828125
281235,0.2942962646484375,-0.806549072265625,0.71612548828125
281236,0.2969207763671875,-0.8007965087890625,0.7794036865234375
281237,0.2789764404296875,-0.7880096435546875,0.8228302001953125
281238,0.1766204833984375,-0.7523651123046875,0.8197174072265625
281239,0.1766204833984375,-0.7523651123046875,0.8197174072265625
281240,0.1766204833984375,-0.7523651123046875,0.8197174072265625
281241,0.11712646484375,-0.73406982421875,0.7745819091796875
281242,0.0021820068359375,-0.7277679443359375,0.583221435546875
281243,0.0021820068359375,-0.7277679443359375,0.583221435546875
281244,0.0021820068359375,-0.7277679443359375,0.583221435546875
281245,-0.03314208984375,-0.749969482421875,0.559600830078125
281246,-0.05120849609375,-0.7740936279296875,0.62554931640625
281247,-0.0157318115234375,-0.7698974609375,0.68524169921875
281248,0.0524444580078125,-0.7509002685546875,0.731719970703125
281249,0.146240234375,-0.7280426025390625,0.76654052734375
281250,0.307342529296875,-0.682098388671875,0.811614990234375
281251,0.307342529296875,-0.682098388671875,0.811614990234375
281252,0.307342529296875,-0.682098388671875,0.811614990234375
281253,0.3525390625,-0.651214599609375,0.8169708251953125
281254,0.381500244140625,-0.51953125,0.730926513671875
281255,0.381500244140625,-0.51953125,0.730926513671875
281256,0.3807525634765625,-0.486053466796875,0.689788818359375
281257,0.379669189453125,-0.4586944580078125,0.6452484130859375
281258,0.3990478515625,-0.3987579345703125,0.542633056640625
281259,0.3990478515625,-0.3987579345703125,0.542633056640625
281260,0.3990478515625,-0.3987579345703125,0.542633056640625
281261,0.40704345703125,-0.370452880859375,0.4970245361328125
281262,0.5668182373046875,-0.3861541748046875,0.53399658203125
281263,0.5668182373046875,-0.3861541748046875,0.53399658203125
281264,0.6608428955078125,-0.43896484375,0.6327056884765625
281265,0.7511138916015625,-0.5018463134765625,0.7461395263671875
281266,0.8139801025390625,-0.54852294921875,0.833770751953125
281267,0.83135986328125,-0.5567626953125,0.8737030029296875
281268,0.801971435546875,-0.535797119140625,0.8856658935546875
281269,0.7334442138671875,-0.5040283203125,0.8730621337890625
281270,0.5186920166015625,-0.495849609375,0.82525634765625
281271,0.5186920166015625,-0.495849609375,0.82525634765625
281272,0.5186920166015625,-0.495849609375,0.82525634765625
281273,0.3193511962890625,-0.555023193359375,0.799530029296875
281274,0.23895263671875,-0.5899658203125,0.78369140625
281275,0.174041748046875,-0.6182403564453125,0.75762939453125
281276,0.121917724609375,-0.6424102783203125,0.7342681884765625
281277,0.090545654296875,-0.663818359375,0.7154388427734375
281278,0.0625,-0.7053375244140625,0.687469482421875
281279,0.0625,-0.7053375244140625,0.687469482421875
281280,0.0625,-0.7053375244140625,0.687469482421875
281281,0.0625762939453125,-0.7360687255859375,0.6684112548828125
281282,0.14532470703125,-0.7568359375,0.6233062744140625
281283,0.20196533203125,-0.7638397216796875,0.6011962890625
281284,0.264007568359375,-0.777008056640625,0.5935516357421875
281285,0.32049560546875,-0.7971649169921875,0.5960845947265625
281286,0.400848388671875,-0.843902587890625,0.635955810546875
281287,0.400848388671875,-0.843902587890625,0.635955810546875
281288,0.400848388671875,-0.843902587890625,0.635955810546875
281289,0.4174041748046875,-0.883026123046875,0.752288818359375
281290,0.3094482421875,-0.8146514892578125,0.867340087890625
281291,0.3094482421875,-0.8146514892578125,0.867340087890625
281292,0.228912353515625,-0.7332611083984375,0.868255615234375
281293,0.157684326171875,-0.64776611328125,0.8374786376953125
281294,0.051361083984375,-0.5369720458984375,0.7594451904296875
281295,0.051361083984375,-0.5369720458984375,0.7594451904296875
281296,0.0136260986328125,-0.5273590087890625,0.725128173828125
281297,-0.0131988525390625,-0.547210693359375,0.7020721435546875
281298,-0.03802490234375,-0.62298583984375,0.726409912109375
281299,-0.03802490234375,-0.62298583984375,0.726409912109375
281300,-0.027099609375,-0.66217041015625,0.776519775390625
281301,-0.0028076171875,-0.69976806640625,0.83203125
281302,0.028961181640625,-0.72784423828125,0.8673858642578125
281303,0.0679931640625,-0.737701416015625,0.870086669921875
281304,0.1109619140625,-0.727996826171875,0.8335113525390625
281305,0.1520233154296875,-0.7025604248046875,0.7651824951171875
281306,0.188079833984375,-0.6507720947265625,0.6168060302734375
281307,0.188079833984375,-0.6507720947265625,0.6168060302734375
281308,0.192138671875,-0.6305999755859375,0.5589752197265625
281309,0.1803741455078125,-0.62786865234375,0.5296783447265625
281310,0.10980224609375,-0.703582763671875,0.55596923828125
281311,0.10980224609375,-0.703582763671875,0.55596923828125
281312,0.10980224609375,-0.703582763671875,0.55596923828125
281313,0.0702056884765625,-0.748321533203125,0.6100311279296875
281314,0.0281829833984375,-0.831451416015625,0.729248046875
281315,0.0281829833984375,-0.831451416015625,0.729248046875
281316,0.0411224365234375,-0.809234619140625,0.7078704833984375
281317,0.073699951171875,-0.7682342529296875,0.67132568359375
281318,0.1199493408203125,-0.7336578369140625,0.6394805908203125
281319,0.171722412109375,-0.7179107666015625,0.62115478515625
281320,0.171722412109375,-0.7179107666015625,0.62115478515625
281321,0.23101806640625,-0.7049560546875,0.61566162109375
281322,0.4208831787109375,-0.6461181640625,0.648681640625
281323,0.4208831787109375,-0.6461181640625,0.648681640625
281324,0.465484619140625,-0.613250732421875,0.6366424560546875
281325,0.4922637939453125,-0.5829315185546875,0.62750244140625
281326,0.51007080078125,-0.571075439453125,0.6273345947265625
281327,0.52001953125,-0.595916748046875,0.64337158203125
281328,0.5336151123046875,-0.64776611328125,0.6741485595703125
281329,0.55792236328125,-0.719451904296875,0.7066192626953125
281330,0.610748291015625,-0.8716278076171875,0.7562103271484375
281331,0.610748291015625,-0.8716278076171875,0.7562103271484375
281332,0.610992431640625,-0.9025115966796876,0.7767333984375
281333,0.5767822265625,-0.8967132568359375,0.796417236328125
281334,0.429962158203125,-0.8620758056640625,0.846710205078125
281335,0.429962158203125,-0.8620758056640625,0.846710205078125
281336,0.35675048828125,-0.8453216552734375,0.840606689453125
281337,0.2989959716796875,-0.82366943359375,0.793121337890625
281338,0.22052001953125,-0.7700653076171875,0.6462554931640625
281339,0.22052001953125,-0.7700653076171875,0.6462554931640625
281340,0.1896820068359375,-0.737518310546875,0.5924072265625
281341,0.161468505859375,-0.6986846923828125,0.5683441162109375
281342,0.135955810546875,-0.66064453125,0.580596923828125
281343,0.1284637451171875,-0.6362762451171875,0.612945556640625
281344,0.13275146484375,-0.61920166015625,0.6405029296875
281345,0.1362762451171875,-0.605010986328125,0.65826416015625
281346,0.1345062255859375,-0.58172607421875,0.6692962646484375
281347,0.1345062255859375,-0.58172607421875,0.6692962646484375
281348,0.1345062255859375,-0.58172607421875,0.6692962646484375
281349,0.130584716796875,-0.57818603515625,0.6556396484375
281350,0.1373291015625,-0.578521728515625,0.5933990478515625
281351,0.1373291015625,-0.578521728515625,0.5933990478515625
281352,0.1373291015625,-0.578521728515625,0.5933990478515625
281353,0.1397705078125,-0.6066131591796875,0.59735107421875
281354,0.110931396484375,-0.700469970703125,0.649078369140625
281355,0.110931396484375,-0.700469970703125,0.649078369140625
281356,0.1169586181640625,-0.7050933837890625,0.68914794921875
281357,0.133544921875,-0.702484130859375,0.72381591796875
281358,0.2130126953125,-0.7222747802734375,0.7393341064453125
281359,0.2130126953125,-0.7222747802734375,0.7393341064453125
281360,0.2130126953125,-0.7222747802734375,0.7393341064453125
281361,0.2772979736328125,-0.7540740966796875,0.72259521484375
281362,0.2804718017578125,-0.7439727783203125,0.7152557373046875
281363,0.267608642578125,-0.7161865234375,0.70245361328125
281364,0.267608642578125,-0.7161865234375,0.70245361328125
281365,0.2449493408203125,-0.6865386962890625,0.685455322265625
281366,0.2022857666015625,-0.676422119140625,0.6779632568359375
281367,0.1799774169921875,-0.6978607177734375,0.693267822265625
281368,0.136322021484375,-0.71527099609375,0.7186737060546875
281369,0.0867919921875,-0.7329254150390625,0.753387451171875
281370,0.0174560546875,-0.7586212158203125,0.808135986328125
281371,0.0174560546875,-0.7586212158203125,0.808135986328125
281372,0.0174560546875,-0.7586212158203125,0.808135986328125
281373,0.0065460205078125,-0.761749267578125,0.81982421875
281374,0.0883331298828125,-0.7058563232421875,0.6955718994140625
281375,0.0883331298828125,-0.7058563232421875,0.6955718994140625
281376,0.0883331298828125,-0.7058563232421875,0.6955718994140625
281377,0.122711181640625,-0.683380126953125,0.6290283203125
281378,0.19854736328125,-0.66278076171875,0.5262451171875
281379,0.2303314208984375,-0.6540985107421875,0.506988525390625
281380,0.2511749267578125,-0.663177490234375,0.5058135986328125
281381,0.2654266357421875,-0.6856689453125,0.5073089599609375
281382,0.2867584228515625,-0.7438201904296875,0.5125274658203125
281383,0.2867584228515625,-0.7438201904296875,0.5125274658203125
281384,0.2907257080078125,-0.7689056396484375,0.5166015625
281385,0.291717529296875,-0.790191650390625,0.5293731689453125
281386,0.2977294921875,-0.800537109375,0.54913330078125
281387,0.3086700439453125,-0.8022613525390625,0.5666961669921875
281388,0.3086700439453125,-0.8022613525390625,0.5666961669921875
281389,0.3302459716796875,-0.7991180419921875,0.5790557861328125
281390,0.3620452880859375,-0.7916412353515625,0.62457275390625
281391,0.3620452880859375,-0.7916412353515625,0.62457275390625
281392,0.3519287109375,-0.7863616943359375,0.6551971435546875
281393,0.332550048828125,-0.7825927734375,0.687347412109375
281394,0.2855682373046875,-0.782196044921875,0.7050933837890625
281395,0.2855682373046875,-0.782196044921875,0.7050933837890625
281396,0.2855682373046875,-0.782196044921875,0.7050933837890625
281397,0.2661895751953125,-0.7670440673828125,0.6816558837890625
281398,0.2252197265625,-0.6794586181640625,0.60076904296875
281399,0.2165985107421875,-0.6327056884765625,0.5656585693359375
281400,0.2383270263671875,-0.601593017578125,0.560211181640625
281401,0.295135498046875,-0.591796875,0.60015869140625
281402,0.4409637451171875,-0.6214141845703125,0.742706298828125
281403,0.4409637451171875,-0.6214141845703125,0.742706298828125
281404,0.49859619140625,-0.6443328857421875,0.822357177734375
281405,0.5352325439453125,-0.657684326171875,0.895355224609375
281406,0.5445404052734375,-0.6570281982421875,0.9548492431640624
281407,0.5268707275390625,-0.6378326416015625,0.9826202392578124
281408,0.4850311279296875,-0.619903564453125,0.9749755859375
281409,0.4234161376953125,-0.6073760986328125,0.9319000244140624
281410,0.303314208984375,-0.5990753173828125,0.797027587890625
281411,0.303314208984375,-0.5990753173828125,0.797027587890625
281412,0.257781982421875,-0.600067138671875,0.7440643310546875
281413,0.2253875732421875,-0.6030731201171875,0.717132568359375
281414,0.2014617919921875,-0.5980377197265625,0.7200469970703125
281415,0.2014617919921875,-0.5980377197265625,0.7200469970703125
281416,0.2095947265625,-0.5940704345703125,0.7297515869140625
281417,0.2095947265625,-0.5940704345703125,0.7297515869140625
281418,0.2237548828125,-0.5821075439453125,0.7328948974609375
281419,0.22125244140625,-0.575836181640625,0.72216796875
281420,0.21405029296875,-0.5730438232421875,0.70147705078125
281421,0.2014007568359375,-0.574951171875,0.673004150390625
281422,0.1862335205078125,-0.57666015625,0.6361541748046875
281423,0.1699676513671875,-0.5793304443359375,0.599029541015625
281424,0.1699676513671875,-0.5793304443359375,0.599029541015625
281425,0.1558685302734375,-0.58367919921875,0.5686798095703125
281426,0.140289306640625,-0.604583740234375,0.5244903564453125
281427,0.1553497314453125,-0.6135711669921875,0.5109405517578125
281428,0.1553497314453125,-0.6135711669921875,0.5109405517578125
281429,0.1822509765625,-0.624481201171875,0.5060577392578125
281430,0.2975311279296875,-0.7120208740234375,0.5886993408203125
281431,0.2975311279296875,-0.7120208740234375,0.5886993408203125
281432,0.333770751953125,-0.765472412109375,0.653167724609375
281433,0.351898193359375,-0.8131256103515625,0.7254486083984375
281434,0.3527374267578125,-0.8380126953125,0.786590576171875
281435,0.3444366455078125,-0.8412017822265625,0.819000244140625
281436,0.333282470703125,-0.83013916015625,0.809783935546875
281437,0.3243255615234375,-0.8100738525390625,0.7651214599609375
281438,0.3119049072265625,-0.764923095703125,0.6586456298828125
281439,0.3119049072265625,-0.764923095703125,0.6586456298828125
281440,0.3141937255859375,-0.756866455078125,0.6227569580078125
281441,0.3203887939453125,-0.7602691650390625,0.6146697998046875
281442,0.3265228271484375,-0.76763916015625,0.6312103271484375
281443,0.34063720703125,-0.776947021484375,0.6553497314453125
281444,0.3607025146484375,-0.7877349853515625,0.6713409423828125
281445,0.378326416015625,-0.807098388671875,0.686065673828125
281446,0.3938751220703125,-0.821868896484375,0.6932830810546875
281447,0.400787353515625,-0.8329925537109375,0.69073486328125
281448,0.400787353515625,-0.8329925537109375,0.69073486328125
281449,0.4013824462890625,-0.835357666015625,0.6795654296875
281450,0.394287109375,-0.799652099609375,0.5957489013671875
281451,0.394287109375,-0.799652099609375,0.5957489013671875
281452,0.3928070068359375,-0.7832794189453125,0.5720977783203125
281453,0.380767822265625,-0.7811431884765625,0.5687255859375
281454,0.3785858154296875,-0.7705535888671875,0.5736846923828125
281455,0.3779144287109375,-0.7490234375,0.576080322265625
281456,0.35675048828125,-0.738372802734375,0.584503173828125
281457,0.3419036865234375,-0.7208099365234375,0.601318359375
281458,0.3238525390625,-0.6888580322265625,0.599456787109375
281459,0.30108642578125,-0.6608123779296875,0.595947265625
281460,0.2754974365234375,-0.6390533447265625,0.5868988037109375
281461,0.25335693359375,-0.6215972900390625,0.5768890380859375
281462,0.2190704345703125,-0.610015869140625,0.555816650390625
281463,0.2190704345703125,-0.610015869140625,0.555816650390625
281464,0.2190704345703125,-0.610015869140625,0.555816650390625
281465,0.209381103515625,-0.610321044921875,0.55255126953125
281466,0.1816253662109375,-0.6057891845703125,0.5950927734375
281467,0.1816253662109375,-0.6057891845703125,0.5950927734375
281468,0.1843719482421875,-0.629150390625,0.6220245361328125
281469,0.1997833251953125,-0.6246795654296875,0.6327056884765625
281470,0.2067718505859375,-0.6363372802734375,0.633392333984375
281471,0.2067718505859375,-0.6363372802734375,0.633392333984375
281472,0.2067718505859375,-0.6363372802734375,0.633392333984375
281473,0.216461181640625,-0.620391845703125,0.61962890625
281474,0.2214508056640625,-0.6290435791015625,0.601959228515625
281475,0.2258758544921875,-0.648651123046875,0.6197967529296875
281476,0.233123779296875,-0.6698455810546875,0.6508636474609375
281477,0.23828125,-0.6926116943359375,0.6867218017578125
281478,0.2288360595703125,-0.72735595703125,0.748870849609375
281479,0.2288360595703125,-0.72735595703125,0.748870849609375
281480,0.2288360595703125,-0.72735595703125,0.748870849609375
281481,0.2355804443359375,-0.7260284423828125,0.7503662109375
281482,0.267974853515625,-0.7191009521484375,0.714080810546875
281483,0.3095703125,-0.7151336669921875,0.669677734375
281484,0.354217529296875,-0.71728515625,0.6380767822265625
281485,0.3953857421875,-0.7238922119140625,0.6288604736328125
281486,0.44866943359375,-0.7372283935546875,0.67767333984375
281487,0.44866943359375,-0.7372283935546875,0.67767333984375
281488,0.4691925048828125,-0.742919921875,0.711883544921875
281489,0.487762451171875,-0.7468719482421875,0.7355804443359375
281490,0.4979095458984375,-0.747528076171875,0.747528076171875
281491,0.5065155029296875,-0.7489013671875,0.7563018798828125
281492,0.5065155029296875,-0.7489013671875,0.7563018798828125
281493,0.509490966796875,-0.7523193359375,0.7530059814453125
281494,0.5090484619140625,-0.7609405517578125,0.722198486328125
281495,0.5103759765625,-0.7595977783203125,0.7033843994140625
281496,0.5124359130859375,-0.7585296630859375,0.67852783203125
281497,0.5195770263671875,-0.757354736328125,0.6553192138671875
281498,0.52752685546875,-0.7686614990234375,0.6276397705078125
281499,0.52752685546875,-0.7686614990234375,0.6276397705078125
281500,0.53582763671875,-0.770263671875,0.614288330078125
281501,0.5457305908203125,-0.7771148681640625,0.604644775390625
281502,0.58642578125,-0.762237548828125,0.6275177001953125
281503,0.58642578125,-0.762237548828125,0.6275177001953125
281504,0.58642578125,-0.762237548828125,0.6275177001953125
281505,0.5885467529296875,-0.7261810302734375,0.663543701171875
281506,0.56085205078125,-0.6973419189453125,0.6795654296875
281507,0.521209716796875,-0.661468505859375,0.6917724609375
281508,0.47723388671875,-0.633209228515625,0.70330810546875
281509,0.4293365478515625,-0.605865478515625,0.70709228515625
281510,0.3418426513671875,-0.567962646484375,0.6782989501953125
281511,0.3418426513671875,-0.567962646484375,0.6782989501953125
281512,0.3041534423828125,-0.5475311279296875,0.6472930908203125
281513,0.2608642578125,-0.5258026123046875,0.612274169921875
281514,0.17364501953125,-0.495941162109375,0.5696563720703125
281515,0.17364501953125,-0.495941162109375,0.5696563720703125
281516,0.1445465087890625,-0.486114501953125,0.5676116943359375
281517,0.126708984375,-0.4840850830078125,0.5802764892578125
281518,0.1237335205078125,-0.4950714111328125,0.60357666015625
281519,0.1326446533203125,-0.507904052734375,0.617828369140625
281520,0.1326446533203125,-0.507904052734375,0.617828369140625
281521,0.1838531494140625,-0.5105743408203125,0.6534576416015625
281522,0.2451171875,-0.546356201171875,0.711669921875
281523,0.2451171875,-0.546356201171875,0.711669921875
281524,0.2902984619140625,-0.583648681640625,0.73736572265625
281525,0.334014892578125,-0.6107330322265625,0.760101318359375
281526,0.382354736328125,-0.6132965087890625,0.799774169921875
281527,0.382354736328125,-0.6132965087890625,0.799774169921875
281528,0.388916015625,-0.6075286865234375,0.8090972900390625
281529,0.4013214111328125,-0.6065673828125,0.816131591796875
281530,0.4208984375,-0.607818603515625,0.81243896484375
281531,0.4445648193359375,-0.60003662109375,0.797393798828125
281532,0.4659271240234375,-0.586456298828125,0.783477783203125
281533,0.481903076171875,-0.56719970703125,0.7828826904296875
281534,0.4909820556640625,-0.5506439208984375,0.7928314208984375
281535,0.4781494140625,-0.547882080078125,0.8134613037109375
281536,0.4781494140625,-0.547882080078125,0.8134613037109375
281537,0.447601318359375,-0.550537109375,0.836090087890625
281538,0.3424072265625,-0.54998779296875,0.796875
281539,0.3424072265625,-0.54998779296875,0.796875
281540,0.3175811767578125,-0.5333404541015625,0.7472076416015625
281541,0.2987823486328125,-0.5176239013671875,0.6936187744140625
281542,0.2873687744140625,-0.5164947509765625,0.6513824462890625
281543,0.2836151123046875,-0.5237884521484375,0.626129150390625
281544,0.2834320068359375,-0.5311737060546875,0.6171112060546875
281545,0.2870635986328125,-0.548065185546875,0.628265380859375
281546,0.2984161376953125,-0.5902099609375,0.6851806640625
281547,0.2984161376953125,-0.5902099609375,0.6851806640625
281548,0.2940216064453125,-0.5994415283203125,0.7010955810546875
281549,0.2824859619140625,-0.6022796630859375,0.6942138671875
281550,0.27105712890625,-0.6107635498046875,0.67181396484375
281551,0.2598876953125,-0.621856689453125,0.64666748046875
281552,0.2464141845703125,-0.6306610107421875,0.62030029296875
281553,0.235809326171875,-0.63189697265625,0.586090087890625
281554,0.225006103515625,-0.6347198486328125,0.5581817626953125
281555,0.2180023193359375,-0.640655517578125,0.54248046875
281556,0.21746826171875,-0.6524505615234375,0.5356903076171875
281557,0.22344970703125,-0.676055908203125,0.5396881103515625
281558,0.237518310546875,-0.7030029296875,0.5562286376953125
281559,0.2551727294921875,-0.7228546142578125,0.58502197265625
281560,0.273895263671875,-0.72900390625,0.623870849609375
281561,0.2952728271484375,-0.724884033203125,0.656768798828125
281562,0.3249664306640625,-0.7161407470703125,0.679412841796875
281563,0.3576507568359375,-0.709869384765625,0.6923828125
281564,0.3576507568359375,-0.709869384765625,0.6923828125
281565,0.382659912109375,-0.69964599609375,0.6888427734375
281566,0.4115447998046875,-0.6602935791015625,0.6904754638671875
281567,0.4214935302734375,-0.643798828125,0.7035980224609375
281568,0.4438323974609375,-0.62396240234375,0.71380615234375
281569,0.4869384765625,-0.59906005859375,0.7215118408203125
281570,0.5478057861328125,-0.570526123046875,0.7200164794921875
281571,0.6063690185546875,-0.5434112548828125,0.70294189453125
281572,0.6492919921875,-0.5140380859375,0.6688232421875
281573,0.6646575927734375,-0.489898681640625,0.6283416748046875
281574,0.5849609375,-0.469390869140625,0.5558929443359375
281575,0.5849609375,-0.469390869140625,0.5558929443359375
281576,0.538726806640625,-0.4723663330078125,0.5261688232421875
281577,0.53460693359375,-0.4906005859375,0.5210418701171875
281578,0.6577911376953125,-0.5572357177734375,0.5806732177734375
281579,0.6577911376953125,-0.5572357177734375,0.5806732177734375
281580,0.6577911376953125,-0.5572357177734375,0.5806732177734375
281581,0.7197113037109375,-0.56915283203125,0.6393280029296875
281582,0.776275634765625,-0.54473876953125,0.7308807373046875
281583,0.7825164794921875,-0.53948974609375,0.760498046875
281584,0.7696533203125,-0.550811767578125,0.7753753662109375
281585,0.725189208984375,-0.57598876953125,0.7881317138671875
281586,0.6419830322265625,-0.60638427734375,0.7873992919921875
281587,0.5326080322265625,-0.639068603515625,0.761322021484375
281588,0.418731689453125,-0.669677734375,0.72711181640625
281589,0.3073577880859375,-0.700592041015625,0.6735992431640625
281590,0.2142486572265625,-0.729217529296875,0.6082000732421875
281591,0.1561279296875,-0.746856689453125,0.5639801025390625
281592,0.141815185546875,-0.7567138671875,0.5394744873046875
281593,0.14678955078125,-0.760528564453125,0.501861572265625
281594,0.168670654296875,-0.7661285400390625,0.472015380859375
281595,0.20318603515625,-0.7688446044921875,0.4607086181640625
281596,0.20318603515625,-0.7688446044921875,0.4607086181640625
281597,0.24267578125,-0.77166748046875,0.476593017578125
281598,0.376220703125,-0.829864501953125,0.53753662109375
281599,0.376220703125,-0.829864501953125,0.53753662109375
281600,0.438507080078125,-0.8347320556640625,0.5711517333984375
281601,0.467742919921875,-0.846527099609375,0.58929443359375
281602,0.5010223388671875,-0.8465118408203125,0.6441650390625
281603,0.52154541015625,-0.8331298828125,0.67974853515625
281604,0.52154541015625,-0.8331298828125,0.67974853515625
281605,0.5230712890625,-0.8310699462890625,0.72393798828125
281606,0.511962890625,-0.788330078125,0.8091888427734375
281607,0.493927001953125,-0.7490081787109375,0.8202667236328125
281608,0.493927001953125,-0.7490081787109375,0.8202667236328125
281609,0.457550048828125,-0.7102508544921875,0.8050537109375
281610,0.3339996337890625,-0.713043212890625,0.718994140625
281611,0.3339996337890625,-0.713043212890625,0.718994140625
281612,0.2960205078125,-0.751312255859375,0.670440673828125
281613,0.259002685546875,-0.794158935546875,0.6506195068359375
281614,0.219451904296875,-0.80889892578125,0.6241607666015625
281615,0.219451904296875,-0.80889892578125,0.6241607666015625
281616,0.2102508544921875,-0.819091796875,0.6401519775390625
281617,0.19927978515625,-0.8323211669921875,0.6456756591796875
281618,0.1974334716796875,-0.8110504150390625,0.6620025634765625
281619,0.1930084228515625,-0.7596282958984375,0.660736083984375
281620,0.1831207275390625,-0.71807861328125,0.6469268798828125
281621,0.17291259765625,-0.6839752197265625,0.620697021484375
281622,0.155181884765625,-0.6727752685546875,0.5692138671875
281623,0.155181884765625,-0.6727752685546875,0.5692138671875
281624,0.1451873779296875,-0.6878204345703125,0.5546417236328125
281625,0.1314849853515625,-0.70587158203125,0.5477447509765625
281626,0.1162109375,-0.7206573486328125,0.5531463623046875
281627,0.107635498046875,-0.7280120849609375,0.55828857421875
281628,0.1138153076171875,-0.730926513671875,0.564849853515625
281629,0.140472412109375,-0.7247467041015625,0.5682373046875
281630,0.189453125,-0.7100067138671875,0.5721282958984375
281631,0.2611083984375,-0.7055511474609375,0.5782623291015625
281632,0.2611083984375,-0.7055511474609375,0.5782623291015625
281633,0.332794189453125,-0.703216552734375,0.562347412109375
281634,0.449188232421875,-0.7049407958984375,0.5335540771484375
281635,0.5050506591796875,-0.701263427734375,0.5256500244140625
281636,0.5667572021484375,-0.6934967041015625,0.520843505859375
281637,0.637298583984375,-0.6885833740234375,0.5204315185546875
281638,0.6984100341796875,-0.672760009765625,0.5197601318359375
281639,0.7444915771484375,-0.6560516357421875,0.5223846435546875
281640,0.78216552734375,-0.6389617919921875,0.537811279296875
281641,0.812225341796875,-0.6196441650390625,0.5493316650390625
281642,0.854278564453125,-0.588287353515625,0.550811767578125
281643,0.854278564453125,-0.588287353515625,0.550811767578125
281644,0.8551025390625,-0.5867919921875,0.557037353515625
281645,0.8434906005859375,-0.606475830078125,0.5568695068359375
281646,0.8284454345703125,-0.6371002197265625,0.5543670654296875
281647,0.8122711181640625,-0.6611328125,0.5594940185546875
281648,0.8122711181640625,-0.6611328125,0.5594940185546875
281649,0.7920379638671875,-0.673004150390625,0.5806732177734375
281650,0.7332000732421875,-0.6886444091796875,0.6248321533203125
281651,0.6902008056640625,-0.70294189453125,0.63409423828125
281652,0.6902008056640625,-0.70294189453125,0.63409423828125
281653,0.6299285888671875,-0.70513916015625,0.6352996826171875
281654,0.4896697998046875,-0.6548614501953125,0.650726318359375
281655,0.4199676513671875,-0.622894287109375,0.660888671875
281656,0.3598480224609375,-0.599365234375,0.6732177734375
281657,0.3131866455078125,-0.5732269287109375,0.6803741455078125
281658,0.2895965576171875,-0.5390472412109375,0.686553955078125
281659,0.293182373046875,-0.51165771484375,0.6932220458984375
281660,0.3125152587890625,-0.5078887939453125,0.7016143798828125
281661,0.3412017822265625,-0.515594482421875,0.7134552001953125
281662,0.3597259521484375,-0.5228729248046875,0.7304840087890625
281663,0.3599090576171875,-0.5530548095703125,0.7553558349609375
281664,0.323028564453125,-0.6202850341796875,0.787261962890625
281665,0.253814697265625,-0.69158935546875,0.8118896484375
281666,0.1703033447265625,-0.755157470703125,0.8079986572265625
281667,0.0689239501953125,-0.809417724609375,0.8028106689453125
281668,-0.02532958984375,-0.8095550537109375,0.8214111328125
281669,-0.0650634765625,-0.7692108154296875,0.7526702880859375
281670,-0.046356201171875,-0.7249755859375,0.6176910400390625
281671,-0.0082244873046875,-0.689361572265625,0.5166473388671875
281672,0.03167724609375,-0.675048828125,0.460968017578125
281673,0.0845947265625,-0.67584228515625,0.43017578125
281674,0.146453857421875,-0.6877899169921875,0.412872314453125
281675,0.212860107421875,-0.7244110107421875,0.4069976806640625
281676,0.212860107421875,-0.7244110107421875,0.4069976806640625
281677,0.284332275390625,-0.7636566162109375,0.46356201171875
281678,0.3885040283203125,-0.7914581298828125,0.7504425048828125
281679,0.4052581787109375,-0.79541015625,0.8787384033203125
281680,0.3892364501953125,-0.8001708984375,0.94866943359375
281681,0.34466552734375,-0.7978057861328125,0.9486846923828124
281682,0.2860260009765625,-0.7689666748046875,0.879119873046875
281683,0.238067626953125,-0.729827880859375,0.76873779296875
281684,0.2052459716796875,-0.698699951171875,0.6492462158203125
281685,0.1788482666015625,-0.6688079833984375,0.5519256591796875
281686,0.114166259765625,-0.642547607421875,0.4534149169921875
281687,0.114166259765625,-0.642547607421875,0.4534149169921875
281688,0.0910186767578125,-0.654327392578125,0.442047119140625
281689,0.0886993408203125,-0.67266845703125,0.447967529296875
281690,0.113250732421875,-0.692169189453125,0.498870849609375
281691,0.1608734130859375,-0.701904296875,0.581268310546875
281692,0.2283477783203125,-0.709747314453125,0.6576385498046875
281693,0.3014984130859375,-0.7064056396484375,0.7219390869140625
281694,0.378509521484375,-0.698699951171875,0.7401275634765625
281695,0.443023681640625,-0.6949005126953125,0.7352447509765625
281696,0.4759063720703125,-0.680328369140625,0.7180328369140625
281697,0.474578857421875,-0.6568450927734375,0.6948089599609375
281698,0.4564056396484375,-0.629608154296875,0.66949462890625
281699,0.428680419921875,-0.5959014892578125,0.6374359130859375
281700,0.428680419921875,-0.5959014892578125,0.6374359130859375
281701,0.408660888671875,-0.5325469970703125,0.5922698974609375
281702,0.4400634765625,-0.5047454833984375,0.5930328369140625
281703,0.4945526123046875,-0.482696533203125,0.6002044677734375
281704,0.55645751953125,-0.4601593017578125,0.6027374267578125
281705,0.6175689697265625,-0.4530029296875,0.6008453369140625
281706,0.670166015625,-0.4713592529296875,0.5924072265625
281707,0.6970062255859375,-0.4877166748046875,0.56671142578125
281708,0.6993865966796875,-0.49212646484375,0.55181884765625
281709,0.698577880859375,-0.49322509765625,0.5392913818359375
281710,0.706024169921875,-0.499420166015625,0.546783447265625
281711,0.725921630859375,-0.49713134765625,0.5718536376953125
281712,0.725921630859375,-0.49713134765625,0.5718536376953125
281713,0.743804931640625,-0.49725341796875,0.60711669921875
281714,0.7411956787109375,-0.543212890625,0.7530364990234375
281715,0.7411956787109375,-0.543212890625,0.7530364990234375
281716,0.705474853515625,-0.552398681640625,0.79449462890625
281717,0.649505615234375,-0.5655670166015625,0.821533203125
281718,0.5699920654296875,-0.590667724609375,0.829498291015625
281719,0.470733642578125,-0.632415771484375,0.80743408203125
281720,0.3644866943359375,-0.683013916015625,0.7581787109375
281721,0.269073486328125,-0.737274169921875,0.69775390625
281722,0.1331329345703125,-0.7810211181640625,0.6081695556640625
281723,0.1331329345703125,-0.7810211181640625,0.6081695556640625
281724,0.098968505859375,-0.7734832763671875,0.5607147216796875
281725,0.0904693603515625,-0.770538330078125,0.5139312744140625
281726,0.12158203125,-0.78167724609375,0.474853515625
281727,0.183563232421875,-0.79736328125,0.450714111328125
281728,0.260894775390625,-0.8177032470703125,0.447052001953125
281729,0.34246826171875,-0.8342742919921875,0.4541778564453125
281730,0.4810791015625,-0.8523101806640625,0.502716064453125
281731,0.4810791015625,-0.8523101806640625,0.502716064453125
281732,0.522247314453125,-0.8436279296875,0.5653533935546875
281733,0.5427093505859375,-0.8275299072265625,0.6405792236328125
281734,0.5439453125,-0.8236083984375,0.7155609130859375
281735,0.5240325927734375,-0.8164215087890625,0.7728729248046875
281736,0.5240325927734375,-0.8164215087890625,0.7728729248046875
281737,0.487335205078125,-0.803131103515625,0.786865234375
281738,0.3836669921875,-0.7206878662109375,0.7672271728515625
281739,0.3275146484375,-0.6626129150390625,0.73443603515625
281740,0.2817230224609375,-0.6211090087890625,0.685302734375
281741,0.2526092529296875,-0.5935821533203125,0.6325531005859375
281742,0.2395477294921875,-0.5776824951171875,0.611083984375
281743,0.2425994873046875,-0.5867156982421875,0.6239013671875
281744,0.2582244873046875,-0.6260833740234375,0.6484527587890625
281745,0.28692626953125,-0.677734375,0.670806884765625
281746,0.3614501953125,-0.769989013671875,0.7281494140625
281747,0.3614501953125,-0.769989013671875,0.7281494140625
281748,0.3823394775390625,-0.7805633544921875,0.7424468994140625
281749,0.374755859375,-0.761932373046875,0.728729248046875
281750,0.3449859619140625,-0.737152099609375,0.7046661376953125
281751,0.3029327392578125,-0.710357666015625,0.686798095703125
281752,0.25213623046875,-0.6935882568359375,0.6536407470703125
281753,0.19952392578125,-0.6839141845703125,0.62530517578125
281754,0.1497802734375,-0.6780242919921875,0.6087493896484375
281755,0.10528564453125,-0.6843109130859375,0.60675048828125
281756,0.0696868896484375,-0.701416015625,0.615875244140625
281757,0.0493011474609375,-0.71368408203125,0.6305084228515625
281758,0.0447845458984375,-0.7357635498046875,0.6389312744140625
281759,0.0582733154296875,-0.764984130859375,0.646209716796875
281760,0.0582733154296875,-0.764984130859375,0.646209716796875
281761,0.088623046875,-0.7793426513671875,0.656585693359375
281762,0.16766357421875,-0.7568206787109375,0.6127166748046875
281763,0.220367431640625,-0.742645263671875,0.584869384765625
281764,0.220367431640625,-0.742645263671875,0.584869384765625
281765,0.2654876708984375,-0.7335662841796875,0.556365966796875
281766,0.3287200927734375,-0.715667724609375,0.5082855224609375
281767,0.3768768310546875,-0.7020263671875,0.4891357421875
281768,0.4451446533203125,-0.688751220703125,0.4772186279296875
281769,0.5305633544921875,-0.6756439208984375,0.4800872802734375
281770,0.62353515625,-0.65283203125,0.4886322021484375
281771,0.7133026123046875,-0.61273193359375,0.50555419921875
281772,0.786529541015625,-0.5609588623046875,0.531341552734375
281773,0.8441619873046875,-0.5145416259765625,0.552581787109375
281774,0.8758392333984375,-0.497833251953125,0.553436279296875
281775,0.8907318115234375,-0.5045013427734375,0.5469818115234375
281776,0.896148681640625,-0.5223541259765625,0.5352630615234375
281777,0.900146484375,-0.5416107177734375,0.50634765625
281778,0.9026336669921876,-0.5732421875,0.47802734375
281779,0.8984832763671875,-0.6175079345703125,0.478057861328125
281780,0.8723602294921875,-0.6529083251953125,0.5146331787109375
281781,0.827728271484375,-0.6779632568359375,0.590240478515625
281782,0.7401580810546875,-0.7253570556640625,0.7575836181640625
281783,0.7401580810546875,-0.7253570556640625,0.7575836181640625
281784,0.6940460205078125,-0.7277984619140625,0.7689666748046875
281785,0.6308135986328125,-0.7053985595703125,0.724273681640625
281786,0.564300537109375,-0.66156005859375,0.6549072265625
281787,0.516937255859375,-0.607025146484375,0.59063720703125
281788,0.4921417236328125,-0.5766754150390625,0.5544891357421875
281789,0.467376708984375,-0.584869384765625,0.5388031005859375
281790,0.4360809326171875,-0.60528564453125,0.5317535400390625
281791,0.408599853515625,-0.61639404296875,0.550567626953125
281792,0.3889007568359375,-0.616424560546875,0.5908050537109375
281793,0.3793487548828125,-0.610565185546875,0.65570068359375
281794,0.375091552734375,-0.6279296875,0.7292633056640625
281795,0.375091552734375,-0.6279296875,0.7292633056640625
281796,0.359588623046875,-0.684539794921875,0.7901763916015625
281797,0.2696380615234375,-0.7950439453125,0.8417816162109375
281798,0.1900634765625,-0.83135986328125,0.851165771484375
281799,0.1900634765625,-0.83135986328125,0.851165771484375
281800,0.11761474609375,-0.841156005859375,0.79296875
281801,0.061126708984375,-0.7186737060546875,0.61126708984375
281802,0.0663299560546875,-0.615325927734375,0.465972900390625
281803,0.0663299560546875,-0.615325927734375,0.465972900390625
281804,0.115325927734375,-0.64794921875,0.4388580322265625
281805,0.1853485107421875,-0.6908111572265625,0.454254150390625
281806,0.2620849609375,-0.7257232666015625,0.5050811767578125
281807,0.3216400146484375,-0.7483367919921875,0.5776824951171875
281808,0.3652496337890625,-0.758819580078125,0.662445068359375
281809,0.390869140625,-0.7642669677734375,0.7581634521484375
281810,0.39324951171875,-0.77313232421875,0.835205078125
281811,0.3778839111328125,-0.7795257568359375,0.8770599365234375
281812,0.3471832275390625,-0.774810791015625,0.873870849609375
281813,0.2970123291015625,-0.7472991943359375,0.8321533203125
281814,0.2344512939453125,-0.7091064453125,0.7581939697265625
281815,0.2344512939453125,-0.7091064453125,0.7581939697265625
281816,0.18035888671875,-0.668853759765625,0.670135498046875
281817,0.09228515625,-0.6395416259765625,0.5138397216796875
281818,0.0583343505859375,-0.661834716796875,0.4715423583984375
281819,0.036163330078125,-0.68701171875,0.4606475830078125
281820,0.036590576171875,-0.698944091796875,0.489501953125
281821,0.0712432861328125,-0.6933441162109375,0.5558319091796875
281822,0.1405792236328125,-0.685638427734375,0.639801025390625
281823,0.240478515625,-0.6818695068359375,0.709075927734375
281824,0.3547210693359375,-0.674957275390625,0.749725341796875
281825,0.456634521484375,-0.669586181640625,0.76434326171875
281826,0.524627685546875,-0.664520263671875,0.76165771484375
281827,0.524627685546875,-0.664520263671875,0.76165771484375
281828,0.544342041015625,-0.652923583984375,0.745269775390625
281829,0.4764556884765625,-0.6073760986328125,0.692779541015625
281830,0.4232330322265625,-0.58197021484375,0.6622314453125
281831,0.3839874267578125,-0.5619354248046875,0.6425323486328125
281832,0.3729705810546875,-0.547332763671875,0.63616943359375
281833,0.39508056640625,-0.53826904296875,0.633056640625
281834,0.4382476806640625,-0.5396575927734375,0.63568115234375
281835,0.4382476806640625,-0.5396575927734375,0.63568115234375
281836,0.4898834228515625,-0.5342864990234375,0.6160430908203125
281837,0.562774658203125,-0.4750823974609375,0.54974365234375
281838,0.5778656005859375,-0.431884765625,0.5309906005859375
281839,0.5921478271484375,-0.3998260498046875,0.537445068359375
281840,0.62164306640625,-0.390655517578125,0.5691680908203125
281841,0.6696624755859375,-0.4060516357421875,0.6172943115234375
281842,0.70947265625,-0.436004638671875,0.6619873046875
281843,0.731109619140625,-0.4683074951171875,0.7077178955078125
281844,0.732391357421875,-0.4845123291015625,0.7454986572265625
281845,0.7152862548828125,-0.5006866455078125,0.77874755859375
281846,0.6758880615234375,-0.51287841796875,0.7902374267578125
281847,0.620391845703125,-0.5319976806640625,0.7901763916015625
281848,0.5568084716796875,-0.557342529296875,0.782684326171875
281849,0.475616455078125,-0.590057373046875,0.7677001953125
281850,0.3921051025390625,-0.6161041259765625,0.7503509521484375
281851,0.3085479736328125,-0.63507080078125,0.7165679931640625
281852,0.2344818115234375,-0.6558990478515625,0.6775665283203125
281853,0.179534912109375,-0.66015625,0.641815185546875
281854,0.150787353515625,-0.6667327880859375,0.6151123046875
281855,0.145904541015625,-0.6852264404296875,0.599395751953125
281856,0.17156982421875,-0.7010040283203125,0.587921142578125
281857,0.2149810791015625,-0.709503173828125,0.5750732421875
281858,0.2547760009765625,-0.720489501953125,0.559722900390625
281859,0.2547760009765625,-0.720489501953125,0.559722900390625
281860,0.2809906005859375,-0.732208251953125,0.546905517578125
281861,0.3314056396484375,-0.7696075439453125,0.5417022705078125
281862,0.404541015625,-0.83929443359375,0.627593994140625
281863,0.404541015625,-0.83929443359375,0.627593994140625
281864,0.4231414794921875,-0.8639678955078125,0.6735382080078125
281865,0.4253997802734375,-0.86444091796875,0.724273681640625
281866,0.4049530029296875,-0.8334808349609375,0.77813720703125
281867,0.3499908447265625,-0.77447509765625,0.8155059814453125
281868,0.2796783447265625,-0.7084503173828125,0.834747314453125
281869,0.2288818359375,-0.65704345703125,0.8321685791015625
281870,0.2212066650390625,-0.6368560791015625,0.7411651611328125
281871,0.2212066650390625,-0.6368560791015625,0.7411651611328125
281872,0.2381439208984375,-0.6399078369140625,0.7180328369140625
281873,0.24322509765625,-0.63909912109375,0.7373199462890625
281874,0.2359161376953125,-0.64990234375,0.7596588134765625
281875,0.2396392822265625,-0.6778564453125,0.771759033203125
281876,0.27362060546875,-0.7056732177734375,0.7918243408203125
281877,0.31549072265625,-0.727996826171875,0.7622222900390625
281878,0.331298828125,-0.730621337890625,0.7161712646484375
281879,0.3246917724609375,-0.727386474609375,0.6974029541015625
281880,0.3246917724609375,-0.727386474609375,0.6974029541015625
281881,0.2955474853515625,-0.7247772216796875,0.6721038818359375
281882,0.1984100341796875,-0.7167205810546875,0.6352081298828125
281883,0.158294677734375,-0.70758056640625,0.6284637451171875
281884,0.13385009765625,-0.69146728515625,0.6337127685546875
281885,0.11993408203125,-0.6768646240234375,0.6415863037109375
281886,0.116790771484375,-0.6699371337890625,0.63055419921875
281887,0.116790771484375,-0.6699371337890625,0.63055419921875
281888,0.116668701171875,-0.6819000244140625,0.634033203125
281889,0.10797119140625,-0.6973419189453125,0.63104248046875
281890,0.10687255859375,-0.7046356201171875,0.6217041015625
281891,0.123626708984375,-0.7174530029296875,0.603668212890625
281892,0.15460205078125,-0.7334747314453125,0.589874267578125
281893,0.194122314453125,-0.7344512939453125,0.5842437744140625
281894,0.2347564697265625,-0.7217559814453125,0.5651092529296875
281895,0.2749481201171875,-0.72113037109375,0.5372314453125
281896,0.3258209228515625,-0.720733642578125,0.5288238525390625
281897,0.390472412109375,-0.7104644775390625,0.534637451171875
281898,0.464202880859375,-0.693756103515625,0.5357666015625
281899,0.5523529052734375,-0.680084228515625,0.537994384765625
281900,0.639190673828125,-0.6575469970703125,0.5435791015625
281901,0.71075439453125,-0.630859375,0.5451507568359375
281902,0.7560882568359375,-0.6255950927734375,0.55413818359375
281903,0.7560882568359375,-0.6255950927734375,0.55413818359375
281904,0.779052734375,-0.6251373291015625,0.5699310302734375
281905,0.8000640869140625,-0.65020751953125,0.573028564453125
281906,0.8039093017578125,-0.6865234375,0.5478515625
281907,0.79547119140625,-0.7204132080078125,0.515472412109375
281908,0.7712249755859375,-0.7367706298828125,0.5081634521484375
281909,0.747283935546875,-0.75274658203125,0.53936767578125
281910,0.735595703125,-0.7761383056640625,0.5908203125
281911,0.722442626953125,-0.7955322265625,0.6466064453125
281912,0.7038421630859375,-0.7987518310546875,0.6909027099609375
281913,0.68011474609375,-0.7846832275390625,0.7022857666015625
281914,0.572113037109375,-0.704132080078125,0.657958984375
281915,0.572113037109375,-0.704132080078125,0.657958984375
281916,0.491455078125,-0.6548919677734375,0.6196136474609375
281917,0.410400390625,-0.6402740478515625,0.608612060546875
281918,0.356842041015625,-0.6300048828125,0.6017303466796875
281919,0.3348846435546875,-0.6334991455078125,0.57562255859375
281920,0.31805419921875,-0.661163330078125,0.5717315673828125
281921,0.3000946044921875,-0.6620025634765625,0.6040191650390625
281922,0.27960205078125,-0.6519775390625,0.671417236328125
281923,0.27960205078125,-0.6519775390625,0.671417236328125
281924,0.2500152587890625,-0.656585693359375,0.743804931640625
281925,0.1763916015625,-0.678802490234375,0.858154296875
281926,0.12542724609375,-0.7040252685546875,0.8538360595703125
281927,0.0701904296875,-0.73370361328125,0.784210205078125
281928,0.0255584716796875,-0.735565185546875,0.6946563720703125
281929,0.005157470703125,-0.712982177734375,0.6243743896484375
281930,0.0052032470703125,-0.682159423828125,0.5879058837890625
281931,0.0203857421875,-0.6540679931640625,0.5606536865234375
281932,0.0496826171875,-0.6400146484375,0.529296875
281933,0.0911102294921875,-0.64837646484375,0.51019287109375
281934,0.1378021240234375,-0.68023681640625,0.506256103515625
