time_idx,accelerometerAccelerationX(G),accelerometerAccelerationY(G),accelerometerAccelerationZ(G)
120000,-0.2716522216796875,-1.144607543945312,1.199813842773438
120001,-0.581939697265625,-1.546493530273438,1.389541625976562
120002,-1.234756469726562,-1.376739501953125,1.477584838867188
120003,-1.234756469726562,-1.376739501953125,1.477584838867188
120004,-1.358062744140625,-0.6715850830078125,1.478439331054688
120005,-1.358062744140625,-0.6715850830078125,1.478439331054688
120006,-0.50128173828125,0.376373291015625,-0.91143798828125
120007,-0.50128173828125,0.376373291015625,-0.91143798828125
120008,-0.50128173828125,0.376373291015625,-0.91143798828125
120009,-0.2638092041015625,0.32110595703125,-1.108062744140625
120010,0.256591796875,-0.14556884765625,-0.634552001953125
120011,0.256591796875,-0.14556884765625,-0.634552001953125
120012,0.256591796875,-0.14556884765625,-0.634552001953125
120013,0.4285736083984375,-0.2904510498046875,-0.3512420654296875
120014,0.9135589599609376,-0.36627197265625,0.3847503662109375
120015,0.9135589599609376,-0.36627197265625,0.3847503662109375
120016,0.71209716796875,-0.2823638916015625,0.384857177734375
120017,0.4084930419921875,-0.24578857421875,0.217926025390625
120018,0.020751953125,-0.09832763671875,-0.103851318359375
120019,0.020751953125,-0.09832763671875,-0.103851318359375
120020,0.020751953125,-0.09832763671875,-0.103851318359375
120021,0.02105712890625,-0.0455322265625,-0.2188262939453125
120022,1.126678466796875,-0.3102264404296875,0.1925811767578125
120023,1.126678466796875,-0.3102264404296875,0.1925811767578125
120024,1.126678466796875,-0.3102264404296875,0.1925811767578125
120025,1.953536987304688,-0.53070068359375,0.4318084716796875
120026,2.172958374023438,-0.7283477783203125,1.329513549804688
120027,2.172958374023438,-0.7283477783203125,1.329513549804688
120028,2.172958374023438,-0.7283477783203125,1.329513549804688
120029,1.682418823242188,-0.7364959716796875,1.502151489257812
120030,1.055496215820312,-1.293685913085938,2.207412719726562
120031,0.8433837890625,-1.674942016601562,2.302719116210938
120032,0.8433837890625,-1.674942016601562,2.302719116210938
120033,0.624969482421875,-2.1529541015625,2.110794067382812
120034,0.61114501953125,-2.193923950195312,1.91143798828125
120035,0.61114501953125,-2.193923950195312,1.91143798828125
120036,0.61114501953125,-2.193923950195312,1.91143798828125
120037,0.8618927001953125,-1.97137451171875,1.850540161132812
120038,0.828277587890625,-1.76287841796875,1.205764770507812
120039,0.828277587890625,-1.76287841796875,1.205764770507812
120040,0.828277587890625,-1.76287841796875,1.205764770507812
120041,0.8879241943359375,-1.56463623046875,0.759735107421875
120042,0.916229248046875,-0.8937835693359375,0.29736328125
120043,0.779815673828125,-0.635467529296875,0.292510986328125
120044,0.779815673828125,-0.635467529296875,0.292510986328125
120045,0.545562744140625,-0.3636932373046875,0.2620086669921875
120046,0.2351226806640625,0.265350341796875,-0.1876678466796875
120047,0.2351226806640625,0.265350341796875,-0.1876678466796875
120048,0.2351226806640625,0.265350341796875,-0.1876678466796875
120049,0.2084503173828125,0.3103179931640625,-0.2164764404296875
120050,0.232940673828125,-0.1770477294921875,0.278900146484375
120051,0.232940673828125,-0.1770477294921875,0.278900146484375
120052,0.232940673828125,-0.1770477294921875,0.278900146484375
120053,-0.06243896484375,-0.802734375,0.6714324951171875
120054,-1.481002807617188,-1.574798583984375,1.704269409179688
120055,-1.481002807617188,-1.574798583984375,1.704269409179688
120056,-1.481002807617188,-1.574798583984375,1.704269409179688
120057,-1.6431884765625,-0.9485931396484376,1.120742797851562
120058,-1.212432861328125,-0.106109619140625,0.199371337890625
120059,-1.212432861328125,-0.106109619140625,0.199371337890625
120060,-1.212432861328125,-0.106109619140625,0.199371337890625
120061,-0.7332000732421875,-0.362762451171875,-0.1521453857421875
120062,0.21600341796875,-0.387847900390625,-0.2573699951171875
120063,0.21600341796875,-0.387847900390625,-0.2573699951171875
120064,0.3745880126953125,-0.107940673828125,-0.5102386474609375
120065,0.5252685546875,-0.0168304443359375,-0.5584716796875
120066,0.7705078125,-0.1564178466796875,-0.292999267578125
120067,0.7705078125,-0.1564178466796875,-0.292999267578125
120068,0.7705078125,-0.1564178466796875,-0.292999267578125
120069,0.8586883544921875,-0.2127227783203125,0.0661773681640625
120070,0.6799774169921875,-0.29437255859375,0.539031982421875
120071,0.5130615234375,-0.2965850830078125,0.51995849609375
120072,0.378662109375,-0.212188720703125,0.3886871337890625
120073,0.25152587890625,-0.0684814453125,0.182769775390625
120074,-0.03759765625,0.0990447998046875,-0.276641845703125
120075,-0.03759765625,0.0990447998046875,-0.276641845703125
120076,-0.03759765625,0.0990447998046875,-0.276641845703125
120077,-0.0954437255859375,0.1051177978515625,-0.44952392578125
120078,0.382659912109375,0.0656280517578125,-0.615570068359375
120079,0.382659912109375,0.0656280517578125,-0.615570068359375
120080,0.382659912109375,0.0656280517578125,-0.615570068359375
120081,0.6619110107421875,-0.048675537109375,-0.172698974609375
120082,2.319122314453125,-1.402359008789062,1.08154296875
120083,2.319122314453125,-1.402359008789062,1.08154296875
120084,2.319122314453125,-1.402359008789062,1.08154296875
120085,2.534011840820312,-1.860855102539062,1.70831298828125
120086,0.5172576904296875,-3.018692016601562,3.160934448242188
120087,0.5172576904296875,-3.018692016601562,3.160934448242188
120088,0.5172576904296875,-3.018692016601562,3.160934448242188
120089,-0.0509490966796875,-3.305007934570312,2.922027587890625
120090,0.7806243896484375,-1.225662231445312,1.451736450195312
120091,0.7806243896484375,-1.225662231445312,1.451736450195312
120092,0.6734771728515625,-1.064697265625,1.600631713867188
120093,0.3958892822265625,-1.220626831054688,1.697479248046875
120094,0.3863983154296875,-1.111404418945312,1.035018920898438
120095,0.3863983154296875,-1.111404418945312,1.035018920898438
120096,0.3863983154296875,-1.111404418945312,1.035018920898438
120097,0.71868896484375,-1.029220581054688,0.689300537109375
120098,0.929290771484375,-0.604248046875,0.4285430908203125
120099,0.929290771484375,-0.604248046875,0.4285430908203125
120100,0.929290771484375,-0.604248046875,0.4285430908203125
120101,0.6791229248046875,-0.392974853515625,0.3602752685546875
120102,0.1888580322265625,0.25946044921875,0.2311859130859375
120103,0.1888580322265625,0.25946044921875,0.2311859130859375
120104,0.12255859375,0.3436279296875,0.0862579345703125
120105,0.10107421875,0.309051513671875,-0.0911407470703125
120106,0.098541259765625,0.1740875244140625,-0.065277099609375
120107,0.029083251953125,-0.0614166259765625,0.1873016357421875
120108,0.029083251953125,-0.0614166259765625,0.1873016357421875
120109,-0.213348388671875,-0.4514312744140625,0.500091552734375
120110,-1.170013427734375,-1.452972412109375,1.362503051757812
120111,-1.170013427734375,-1.452972412109375,1.362503051757812
120112,-1.268264770507812,-1.034927368164062,0.85296630859375
120113,-1.252471923828125,-0.6234283447265625,0.9052734375
120114,-0.7567291259765625,-0.3649139404296875,0.5074920654296875
120115,-0.7567291259765625,-0.3649139404296875,0.5074920654296875
120116,-0.4189453125,-0.3041229248046875,0.0428619384765625
120117,-0.15386962890625,-0.1659088134765625,-0.2913360595703125
120118,0.294464111328125,0.0413818359375,-0.5925750732421875
120119,0.294464111328125,0.0413818359375,-0.5925750732421875
120120,0.294464111328125,0.0413818359375,-0.5925750732421875
120121,0.3732452392578125,-0.0417022705078125,-0.6535491943359375
120122,0.4608612060546875,-0.2078399658203125,-0.2617034912109375
120123,0.4608612060546875,-0.2078399658203125,-0.2617034912109375
120124,0.4608612060546875,-0.2078399658203125,-0.2617034912109375
120125,0.535125732421875,-0.0679168701171875,-0.0268402099609375
120126,0.39239501953125,-0.05419921875,0.3105621337890625
120127,0.39239501953125,-0.05419921875,0.3105621337890625
120128,0.2166595458984375,-0.079071044921875,0.225433349609375
120129,0.006622314453125,-0.0781402587890625,0.094146728515625
120130,-0.1593780517578125,-0.132568359375,-0.5481719970703125
120131,-0.1593780517578125,-0.132568359375,-0.5481719970703125
120132,-0.1005706787109375,-0.0523834228515625,-0.603363037109375
120133,0.0232696533203125,0.1121978759765625,-0.256561279296875
120134,0.8529510498046875,-0.19439697265625,0.7164459228515625
120135,0.8529510498046875,-0.19439697265625,0.7164459228515625
120136,0.8529510498046875,-0.19439697265625,0.7164459228515625
120137,1.50531005859375,-0.6869354248046875,0.6624755859375
120138,1.704177856445312,-1.87188720703125,1.5921630859375
120139,1.704177856445312,-1.87188720703125,1.5921630859375
120140,1.02264404296875,-2.130142211914062,2.171859741210938
120141,0.2836761474609375,-2.595199584960938,2.818603515625
120142,0.2324981689453125,-3.857284545898438,2.64495849609375
120143,0.2324981689453125,-3.857284545898438,2.64495849609375
120144,0.2324981689453125,-3.857284545898438,2.64495849609375
120145,0.6440887451171875,-3.315048217773438,2.344131469726562
120146,1.172225952148438,-1.440567016601562,1.675216674804688
120147,1.172225952148438,-1.440567016601562,1.675216674804688
120148,1.172225952148438,-1.440567016601562,1.675216674804688
120149,0.96759033203125,-1.79547119140625,0.8015899658203125
120150,0.79266357421875,-1.727813720703125,0.6992034912109375
120151,0.7186126708984375,-1.512191772460938,0.6422119140625
120152,0.7186126708984375,-1.512191772460938,0.6422119140625
120153,0.6872100830078125,-1.21832275390625,0.4951629638671875
120154,0.5056915283203125,-0.41070556640625,0.2177886962890625
120155,0.5056915283203125,-0.41070556640625,0.2177886962890625
120156,0.5056915283203125,-0.41070556640625,0.2177886962890625
120157,0.3560791015625,-0.189117431640625,0.13958740234375
120158,-0.099029541015625,0.2576446533203125,-0.20751953125
120159,-0.099029541015625,0.2576446533203125,-0.20751953125
120160,-0.099029541015625,0.2576446533203125,-0.20751953125
120161,-0.157257080078125,0.3228759765625,-0.2328033447265625
120162,-0.01953125,0.13494873046875,0.2880401611328125
120163,-0.01953125,0.13494873046875,0.2880401611328125
120164,-0.281585693359375,-0.1732177734375,0.615478515625
120165,-0.7222747802734375,-0.7767791748046875,1.029983520507812
120166,-1.626861572265625,-1.731857299804688,1.517471313476562
120167,-1.626861572265625,-1.731857299804688,1.517471313476562
120168,-1.902496337890625,-1.163955688476562,0.5457763671875
120169,-1.744338989257812,-0.537017822265625,0.994842529296875
120170,-0.6600341796875,-0.431610107421875,0.22052001953125
120171,-0.6600341796875,-0.431610107421875,0.22052001953125
120172,-0.6600341796875,-0.431610107421875,0.22052001953125
120173,-0.3020477294921875,-0.2412261962890625,-0.0821990966796875
120174,0.6089630126953125,0.1064453125,-0.3063201904296875
120175,0.6089630126953125,0.1064453125,-0.3063201904296875
120176,0.6839141845703125,0.0869903564453125,-0.6227264404296875
120177,0.6850738525390625,-0.0690155029296875,-0.599395751953125
120178,0.7315826416015625,-0.2234344482421875,-0.3423919677734375
120179,0.7315826416015625,-0.2234344482421875,-0.3423919677734375
120180,0.694091796875,-0.197906494140625,-0.101104736328125
120181,0.6503448486328125,-0.146270751953125,0.1916656494140625
120182,0.43524169921875,-0.0497894287109375,0.2751007080078125
120183,0.43524169921875,-0.0497894287109375,0.2751007080078125
120184,0.43524169921875,-0.0497894287109375,0.2751007080078125
120185,0.24993896484375,-0.056976318359375,0.238067626953125
120186,0.010040283203125,0.037109375,-0.0640869140625
120187,0.010040283203125,0.037109375,-0.0640869140625
120188,0.19708251953125,-0.0085296630859375,-0.1394500732421875
120189,0.19708251953125,-0.0085296630859375,-0.1394500732421875
120190,1.944732666015625,-0.83038330078125,0.36163330078125
120191,1.944732666015625,-0.83038330078125,0.36163330078125
120192,2.24261474609375,-1.01806640625,0.6138763427734375
120193,2.268890380859375,-1.238998413085938,1.071792602539062
120194,1.695159912109375,-1.605133056640625,2.22845458984375
120195,1.695159912109375,-1.605133056640625,2.22845458984375
120196,1.695159912109375,-1.605133056640625,2.22845458984375
120197,1.09979248046875,-1.982284545898438,2.7205810546875
120198,-0.3651275634765625,-3.35235595703125,2.7801513671875
120199,-0.3651275634765625,-3.35235595703125,2.7801513671875
120200,-0.3651275634765625,-3.35235595703125,2.7801513671875
120201,0.088348388671875,-2.723907470703125,2.582794189453125
120202,-0.1256103515625,-1.640716552734375,1.98736572265625
120203,-0.1256103515625,-1.640716552734375,1.98736572265625
120204,-0.2749786376953125,-1.452789306640625,1.775131225585938
120205,-0.18023681640625,-1.3355712890625,1.17376708984375
120206,0.314178466796875,-1.078338623046875,0.2686309814453125
120207,0.314178466796875,-1.078338623046875,0.2686309814453125
120208,0.314178466796875,-1.078338623046875,0.2686309814453125
120209,0.4950408935546875,-0.78179931640625,0.1295013427734375
120210,0.60302734375,0.02978515625,0.04864501953125
120211,0.60302734375,0.02978515625,0.04864501953125
120212,0.60302734375,0.02978515625,0.04864501953125
120213,0.4211578369140625,0.2196044921875,-0.0933990478515625
120214,0.3984222412109375,0.1854705810546875,0.071441650390625
120215,0.3984222412109375,0.1854705810546875,0.071441650390625
120216,0.421966552734375,0.029632568359375,0.241973876953125
120217,0.436859130859375,-0.089019775390625,0.3828125
120218,0.34613037109375,-0.028076171875,0.58026123046875
120219,0.34613037109375,-0.028076171875,0.58026123046875
120220,0.34613037109375,-0.028076171875,0.58026123046875
120221,0.218048095703125,-0.0648345947265625,0.650543212890625
120222,-0.4708404541015625,-0.886993408203125,1.10150146484375
120223,-0.4708404541015625,-0.886993408203125,1.10150146484375
120224,-0.601104736328125,-1.12017822265625,1.05804443359375
120225,-0.5679473876953125,-1.08123779296875,0.7466583251953125
120226,-0.1435699462890625,-0.468780517578125,0.5656890869140625
120227,-0.1435699462890625,-0.468780517578125,0.5656890869140625
120228,-0.1435699462890625,-0.468780517578125,0.5656890869140625
120229,-0.09234619140625,-0.26922607421875,0.4827423095703125
120230,-0.0886077880859375,-0.1042327880859375,-0.3961181640625
120231,-0.0886077880859375,-0.1042327880859375,-0.3961181640625
120232,-0.005126953125,-0.2113494873046875,-0.6980438232421875
120233,0.04144287109375,-0.32623291015625,-0.86199951171875
120234,0.0902252197265625,-0.4933624267578125,-0.974334716796875
120235,0.0902252197265625,-0.4933624267578125,-0.974334716796875
120236,0.219970703125,-0.2833099365234375,-0.423248291015625
120237,0.28204345703125,-0.048553466796875,0.158172607421875
120238,0.0691375732421875,-0.03399658203125,0.435302734375
120239,0.0691375732421875,-0.03399658203125,0.435302734375
120240,-0.02398681640625,-0.1568603515625,0.2211151123046875
120241,-0.0577392578125,-0.278076171875,-0.106658935546875
120242,-0.07830810546875,-0.2456512451171875,-0.210968017578125
120243,-0.0137481689453125,-0.0460968017578125,0.0600128173828125
120244,-0.0137481689453125,-0.0460968017578125,0.0600128173828125
120245,0.28741455078125,0.0507965087890625,0.5454254150390625
120246,2.581039428710938,-1.105194091796875,0.6877899169921875
120247,2.581039428710938,-1.105194091796875,0.6877899169921875
120248,2.47906494140625,-1.107818603515625,0.9202728271484376
120249,1.838455200195312,-0.968109130859375,1.209060668945312
120250,0.7687225341796875,-1.505889892578125,2.658645629882812
120251,0.7687225341796875,-1.505889892578125,2.658645629882812
120252,0.7687225341796875,-1.505889892578125,2.658645629882812
120253,0.564056396484375,-2.264816284179688,2.472854614257812
120254,0.7301177978515625,-2.923049926757812,2.335784912109375
120255,0.8160552978515625,-2.348175048828125,2.110702514648438
120256,0.796051025390625,-1.780670166015625,1.922271728515625
120257,0.7540435791015625,-1.458541870117188,1.833526611328125
120258,0.7803802490234375,-1.406509399414062,1.243896484375
120259,0.7803802490234375,-1.406509399414062,1.243896484375
120260,0.670501708984375,-1.472869873046875,0.92510986328125
120261,0.548065185546875,-1.41741943359375,0.670013427734375
120262,0.508453369140625,-1.226333618164062,0.56707763671875
120263,0.5054931640625,-0.9922637939453124,0.5198516845703125
120264,0.5054931640625,-0.9922637939453124,0.5198516845703125
120265,0.49456787109375,-0.48175048828125,0.1695098876953125
120266,0.4628448486328125,-0.2624053955078125,-0.062286376953125
120267,0.3677978515625,-0.0992889404296875,-0.1202239990234375
120268,0.3677978515625,-0.0992889404296875,-0.1202239990234375
120269,0.190338134765625,0.0441436767578125,-0.0011138916015625
120270,-0.308807373046875,0.25152587890625,-0.0268402099609375
120271,-0.308807373046875,0.25152587890625,-0.0268402099609375
120272,-0.2816925048828125,0.122650146484375,0.047027587890625
120273,-0.228729248046875,-0.1312713623046875,0.2312164306640625
120274,-0.529998779296875,-0.74102783203125,0.438079833984375
120275,-0.529998779296875,-0.74102783203125,0.438079833984375
120276,-0.529998779296875,-0.74102783203125,0.438079833984375
120277,-0.9348907470703124,-1.225631713867188,1.007843017578125
120278,-0.5035552978515625,-1.035400390625,1.2467041015625
120279,-0.5035552978515625,-1.035400390625,1.2467041015625
120280,-0.2115936279296875,-0.9600677490234376,1.149459838867188
120281,-0.0451507568359375,-0.8043365478515625,0.82562255859375
120282,-0.0435638427734375,-0.5945281982421875,0.28546142578125
120283,-0.159454345703125,-0.3977813720703125,0.0070648193359375
120284,-0.2894439697265625,-0.1944732666015625,0.0229034423828125
120285,-0.2894439697265625,-0.1944732666015625,0.0229034423828125
120286,-0.20806884765625,0.000762939453125,-0.42742919921875
120287,-0.20806884765625,0.000762939453125,-0.42742919921875
120288,-0.20806884765625,0.000762939453125,-0.42742919921875
120289,0.26654052734375,-0.431884765625,-0.5196990966796875
120290,0.488677978515625,-0.5846099853515625,-0.40521240234375
120291,0.6624755859375,-0.6179046630859375,-0.187774658203125
120292,0.759735107421875,-0.48828125,-0.04254150390625
120293,0.724212646484375,-0.247161865234375,-0.0931549072265625
120294,0.425933837890625,0.060821533203125,-0.036346435546875
120295,0.425933837890625,0.060821533203125,-0.036346435546875
120296,0.425933837890625,0.060821533203125,-0.036346435546875
120297,0.1110687255859375,-0.084686279296875,-0.2033233642578125
120298,0.232696533203125,-0.051300048828125,0.1064605712890625
120299,0.232696533203125,-0.051300048828125,0.1064605712890625
120300,0.74334716796875,-0.07489013671875,0.6449737548828125
120301,1.581100463867188,-0.3339080810546875,1.037857055664062
120302,2.457305908203125,-0.844818115234375,0.81268310546875
120303,2.457305908203125,-0.844818115234375,0.81268310546875
120304,2.457305908203125,-0.844818115234375,0.81268310546875
120305,1.5426025390625,-0.766815185546875,1.468582153320312
120306,0.9744110107421876,-1.708297729492188,3.102340698242188
120307,0.9744110107421876,-1.708297729492188,3.102340698242188
120308,1.03216552734375,-2.523910522460938,2.666763305664062
120309,0.9039459228515624,-2.991836547851562,2.211090087890625
120310,0.496490478515625,-2.074905395507812,2.210906982421875
120311,0.496490478515625,-2.074905395507812,2.210906982421875
120312,0.38861083984375,-1.551559448242188,2.135421752929688
120313,0.39093017578125,-1.280242919921875,1.807464599609375
120314,0.5109100341796875,-1.31915283203125,1.011032104492188
120315,0.5109100341796875,-1.31915283203125,1.011032104492188
120316,0.53485107421875,-1.33154296875,0.866058349609375
120317,0.6009674072265625,-1.17431640625,0.7724456787109375
120318,0.6793670654296875,-0.639129638671875,0.2877197265625
120319,0.6793670654296875,-0.639129638671875,0.2877197265625
120320,0.6591949462890625,-0.360321044921875,0.149505615234375
120321,0.610931396484375,-0.1186981201171875,0.0260162353515625
120322,0.353607177734375,0.1917877197265625,-0.03955078125
120323,0.353607177734375,0.1917877197265625,-0.03955078125
120324,0.353607177734375,0.1917877197265625,-0.03955078125
120325,0.17633056640625,0.2949676513671875,0.0687255859375
120326,-0.253021240234375,0.151611328125,-0.0915069580078125
120327,-0.253021240234375,0.151611328125,-0.0915069580078125
120328,-0.2242279052734375,0.09417724609375,0.090057373046875
120329,-0.154388427734375,0.016632080078125,0.3278350830078125
120330,-0.2093963623046875,-0.32568359375,0.742645263671875
120331,-0.2093963623046875,-0.32568359375,0.742645263671875
120332,-0.45953369140625,-0.8995361328125,0.9965057373046876
120333,-0.78607177734375,-1.558135986328125,1.528045654296875
120334,-1.240509033203125,-1.625198364257812,1.501510620117188
120335,-1.240509033203125,-1.625198364257812,1.501510620117188
120336,-1.240509033203125,-1.625198364257812,1.501510620117188
120337,-1.126510620117188,-0.8314666748046875,1.50311279296875
120338,-0.1942596435546875,-0.19110107421875,-0.0619964599609375
120339,-0.1942596435546875,-0.19110107421875,-0.0619964599609375
120340,-0.075897216796875,-0.1726837158203125,-0.2081756591796875
120341,0.1038818359375,-0.0845794677734375,-0.4899749755859375
120342,0.3665313720703125,0.0254669189453125,-0.7754974365234375
120343,0.5682525634765625,-0.0353546142578125,-0.6537017822265625
120344,0.5682525634765625,-0.0353546142578125,-0.6537017822265625
120345,0.679290771484375,-0.3120269775390625,-0.3482666015625
120346,0.4929962158203125,-0.4102325439453125,0.086212158203125
120347,0.4929962158203125,-0.4102325439453125,0.086212158203125
120348,0.2599639892578125,-0.3346710205078125,0.2796478271484375
120349,0.068267822265625,-0.186981201171875,0.2511749267578125
120350,0.0552825927734375,-0.008209228515625,-0.2132568359375
120351,0.0552825927734375,-0.008209228515625,-0.2132568359375
120352,0.2590789794921875,-0.00408935546875,-0.440460205078125
120353,0.4915771484375,-0.001129150390625,-0.6085052490234375
120354,0.704193115234375,0.0029449462890625,-0.4611053466796875
120355,0.8869781494140625,0.0110626220703125,-0.0509185791015625
120356,1.154266357421875,-0.1132049560546875,0.4552001953125
120357,1.643035888671875,-0.4462890625,0.890838623046875
120358,2.155975341796875,-1.084014892578125,1.002166748046875
120359,2.155975341796875,-1.084014892578125,1.002166748046875
120360,1.913009643554688,-1.323410034179688,1.35321044921875
120361,1.436203002929688,-1.7127685546875,2.317611694335938
120362,0.603363037109375,-3.014907836914062,2.675369262695312
120363,0.603363037109375,-3.014907836914062,2.675369262695312
120364,0.8034515380859375,-3.041641235351562,1.885345458984375
120365,0.944000244140625,-2.468475341796875,1.875778198242188
120366,0.86712646484375,-1.800262451171875,2.1898193359375
120367,0.7331085205078125,-1.4544677734375,2.101486206054688
120368,0.6604156494140625,-1.520187377929688,1.727264404296875
120369,0.5938568115234375,-1.690139770507812,1.207931518554688
120370,0.56695556640625,-1.4986572265625,0.746307373046875
120371,0.56695556640625,-1.4986572265625,0.746307373046875
120372,0.6697845458984375,-1.179306030273438,0.702423095703125
120373,0.8157958984375,-0.784271240234375,0.6352996826171875
120374,0.881500244140625,-0.43560791015625,0.4922637939453125
120375,0.849853515625,-0.2009124755859375,0.374267578125
120376,0.735931396484375,-0.0370330810546875,0.2635955810546875
120377,0.57403564453125,0.1563873291015625,0.1324005126953125
120378,0.2584991455078125,0.4744415283203125,-0.19775390625
120379,0.2584991455078125,0.4744415283203125,-0.19775390625
120380,0.188140869140625,0.4490814208984375,-0.303314208984375
120381,0.1899566650390625,0.262481689453125,-0.2701416015625
120382,0.2280426025390625,-0.0205841064453125,-0.195068359375
120383,0.3110809326171875,-0.227813720703125,-0.1040802001953125
120384,0.3980712890625,-0.2669525146484375,0.0360565185546875
120385,0.416595458984375,-0.2126312255859375,0.1810302734375
120386,-0.12078857421875,-0.3959197998046875,0.491119384765625
120387,-0.12078857421875,-0.3959197998046875,0.491119384765625
120388,-0.12078857421875,-0.3959197998046875,0.491119384765625
120389,-0.651763916015625,-0.87908935546875,0.9671630859375
120390,-1.677505493164062,-2.093063354492188,1.66168212890625
120391,-1.742630004882812,-1.822067260742188,0.9602203369140624
120392,-1.392166137695312,-0.9457550048828124,1.256454467773438
120393,-0.8028564453125,-0.421844482421875,1.4249267578125
120394,-0.1410980224609375,-0.4446563720703125,0.0381317138671875
120395,-0.1410980224609375,-0.4446563720703125,0.0381317138671875
120396,-0.0024261474609375,-0.5196533203125,-0.2492523193359375
120397,0.153533935546875,-0.4461822509765625,-0.4874267578125
120398,0.272125244140625,-0.2821807861328125,-0.621826171875
120399,0.317138671875,-0.1685028076171875,-0.4403228759765625
120400,0.2640380859375,-0.1826171875,-0.39288330078125
120401,0.318695068359375,-0.3395843505859375,-0.5298919677734375
120402,0.545684814453125,-0.2036590576171875,0.1378021240234375
120403,0.545684814453125,-0.2036590576171875,0.1378021240234375
120404,0.4996337890625,-0.2094879150390625,0.25543212890625
120405,0.4232940673828125,-0.2165374755859375,0.084930419921875
120406,0.374267578125,-0.2368011474609375,-0.00518798828125
120407,0.3647308349609375,-0.2544097900390625,0.045013427734375
120408,0.376983642578125,-0.2572784423828125,0.011474609375
120409,0.431396484375,-0.2154388427734375,-0.166961669921875
120410,1.272979736328125,0.0294647216796875,0.869903564453125
120411,1.272979736328125,0.0294647216796875,0.869903564453125
120412,1.272979736328125,0.0294647216796875,0.869903564453125
120413,1.917678833007812,-0.12847900390625,1.03704833984375
120414,1.477737426757812,-0.0657501220703125,0.0113067626953125
120415,1.477737426757812,-0.0657501220703125,0.0113067626953125
120416,0.9308929443359376,-0.10638427734375,0.8012542724609375
120417,0.73223876953125,-0.54827880859375,1.5108642578125
120418,1.3916015625,-1.72479248046875,2.433349609375
120419,1.3916015625,-1.72479248046875,2.433349609375
120420,1.509262084960938,-2.346847534179688,2.37469482421875
120421,1.046157836914062,-2.80059814453125,1.868637084960938
120422,0.5587310791015625,-2.705307006835938,1.694778442382812
120423,0.2160797119140625,-2.371078491210938,2.071929931640625
120424,-0.1929931640625,-2.02734375,2.427398681640625
120425,-0.0668487548828125,-1.643035888671875,2.0194091796875
120426,0.8802337646484375,-1.665283203125,0.84954833984375
120427,0.8802337646484375,-1.665283203125,0.84954833984375
120428,1.1253662109375,-1.49609375,0.6509552001953125
120429,1.121810913085938,-1.145233154296875,0.5119171142578125
120430,1.02679443359375,-0.8123779296875,0.4548492431640625
120431,0.9210968017578124,-0.628204345703125,0.3669281005859375
120432,0.81219482421875,-0.585693359375,0.306060791015625
120433,0.743072509765625,-0.4790802001953125,0.1707763671875
120434,0.6026458740234375,-0.035125732421875,-0.2282867431640625
120435,0.6026458740234375,-0.035125732421875,-0.2282867431640625
120436,0.488189697265625,0.1532135009765625,-0.3934783935546875
120437,0.391815185546875,0.2238616943359375,-0.43731689453125
120438,0.372039794921875,0.131134033203125,-0.049163818359375
120439,0.372039794921875,0.131134033203125,-0.049163818359375
120440,0.406707763671875,-0.0066375732421875,0.090362548828125
120441,0.44281005859375,-0.1212310791015625,0.2144317626953125
120442,0.379058837890625,-0.293243408203125,0.295806884765625
120443,0.1598663330078125,-0.6105804443359375,0.356475830078125
120444,-0.1689453125,-1.009185791015625,0.6873626708984375
120445,-0.5556488037109375,-1.500213623046875,1.160308837890625
120446,-0.9765777587890624,-2.1190185546875,1.421707153320312
120447,-0.9765777587890624,-2.1190185546875,1.421707153320312
120448,-1.08544921875,-1.684173583984375,1.057052612304688
120449,-1.0531005859375,-0.8015899658203125,1.117843627929688
120450,-0.8163604736328125,-0.1394500732421875,0.53631591796875
120451,-0.496124267578125,-0.07916259765625,-0.38604736328125
120452,-0.2579803466796875,-0.2823486328125,-0.681671142578125
120453,-0.1425628662109375,-0.402435302734375,-0.64862060546875
120454,-0.09002685546875,-0.436614990234375,-0.6133270263671875
120455,-0.0001373291015625,-0.3915557861328125,-0.574127197265625
120456,0.127227783203125,-0.2932281494140625,-0.4606170654296875
120457,0.2235260009765625,-0.1729736328125,-0.33245849609375
120458,0.352325439453125,0.01458740234375,0.1690826416015625
120459,0.352325439453125,0.01458740234375,0.1690826416015625
120460,0.352325439453125,0.01458740234375,0.1690826416015625
120461,0.4135894775390625,-0.02783203125,0.3376007080078125
120462,0.3949432373046875,-0.1300506591796875,-0.016204833984375
120463,0.3949432373046875,-0.1300506591796875,-0.016204833984375
120464,0.4291229248046875,-0.047119140625,0.031585693359375
120465,0.5087127685546875,0.0208282470703125,0.0313720703125
120466,0.7796783447265625,0.2347564697265625,0.266998291015625
120467,0.7796783447265625,0.2347564697265625,0.266998291015625
120468,0.7796783447265625,0.2347564697265625,0.266998291015625
120469,1.009811401367188,0.1869659423828125,0.4958648681640625
120470,1.644790649414062,-0.3383026123046875,0.84991455078125
120471,1.753219604492188,-0.5717620849609375,1.004104614257812
120472,1.52593994140625,-0.695587158203125,1.044219970703125
120473,1.180801391601562,-0.7729339599609375,1.42694091796875
120474,0.8170928955078125,-1.219970703125,2.49127197265625
120475,0.8170928955078125,-1.219970703125,2.49127197265625
120476,0.908050537109375,-1.776107788085938,2.487411499023438
120477,1.007247924804688,-2.353286743164062,2.117584228515625
120478,0.858245849609375,-2.420913696289062,2.0465087890625
120479,0.858245849609375,-2.420913696289062,2.0465087890625
120480,0.54376220703125,-2.197463989257812,2.515182495117188
120481,0.350433349609375,-1.901336669921875,2.259750366210938
120482,0.3780059814453125,-1.790924072265625,1.535140991210938
120483,0.5011138916015625,-1.877838134765625,1.143463134765625
120484,0.57366943359375,-1.855270385742188,0.9824676513671876
120485,0.5870361328125,-1.624359130859375,0.83837890625
120486,0.650299072265625,-0.9541168212890624,0.3675537109375
120487,0.650299072265625,-0.9541168212890624,0.3675537109375
120488,0.6379241943359375,-0.7029266357421875,0.284576416015625
120489,0.5500335693359375,-0.48944091796875,0.334197998046875
120490,0.3883209228515625,0.019012451171875,0.284454345703125
120491,0.3883209228515625,0.019012451171875,0.284454345703125
120492,0.3739013671875,0.26910400390625,0.1304779052734375
120493,0.3930511474609375,0.4099884033203125,0.0056915283203125
120494,0.4628143310546875,0.147369384765625,-0.0361175537109375
120495,0.4628143310546875,0.147369384765625,-0.0361175537109375
120496,0.4628143310546875,0.147369384765625,-0.0361175537109375
120497,0.43218994140625,-0.1049041748046875,0.020477294921875
120498,-0.5091705322265625,-1.045455932617188,0.64788818359375
120499,-0.5091705322265625,-1.045455932617188,0.64788818359375
120500,-0.9969329833984376,-1.6156005859375,1.159835815429688
120501,-1.344146728515625,-1.858978271484375,1.381027221679688
120502,-1.555496215820312,-1.173477172851562,0.9769287109375
120503,-1.555496215820312,-1.173477172851562,0.9769287109375
120504,-1.330551147460938,-0.6529083251953125,0.8588409423828125
120505,-0.9768829345703124,-0.46685791015625,0.3077545166015625
120506,-0.644195556640625,-0.4366455078125,-0.029541015625
120507,-0.3826751708984375,-0.32159423828125,-0.2343292236328125
120508,-0.1568603515625,-0.2229766845703125,-0.503173828125
120509,0.0252227783203125,-0.1728973388671875,-0.7674407958984375
120510,0.178558349609375,-0.156524658203125,-0.91455078125
120511,0.3531951904296875,-0.149200439453125,-0.77447509765625
120512,0.5640106201171875,-0.0975341796875,-0.5093536376953125
120513,0.74810791015625,0.0004425048828125,-0.321990966796875
120514,0.9639434814453124,-0.14434814453125,0.1849822998046875
120515,0.9639434814453124,-0.14434814453125,0.1849822998046875
120516,0.9368743896484376,-0.14813232421875,0.563079833984375
120517,0.829833984375,-0.0923919677734375,0.761474609375
120518,0.7444610595703125,-0.064666748046875,0.654144287109375
120519,0.6862945556640625,-0.0836944580078125,0.1568756103515625
120520,0.59002685546875,-0.099853515625,-0.379669189453125
120521,0.4175262451171875,-0.009857177734375,-0.3072662353515625
120522,0.2355499267578125,0.1581573486328125,0.2393646240234375
120523,0.1310882568359375,0.0755462646484375,0.2792205810546875
120524,0.20068359375,-0.102142333984375,-0.0816802978515625
120525,0.4337005615234375,-0.1597900390625,0.0154571533203125
120526,1.16021728515625,-0.3751373291015625,0.9748077392578124
120527,1.16021728515625,-0.3751373291015625,0.9748077392578124
120528,1.5426025390625,-0.7377166748046875,1.149246215820312
120529,1.786529541015625,-1.133438110351562,0.937103271484375
120530,1.758758544921875,-1.275543212890625,0.7858123779296875
120531,1.447006225585938,-1.14093017578125,0.879119873046875
120532,1.117935180664062,-1.050033569335938,1.1571044921875
120533,0.8734893798828125,-1.107742309570312,1.585891723632812
120534,0.7578887939453125,-1.402511596679688,1.9632568359375
120535,0.6699676513671875,-2.001739501953125,2.154693603515625
120536,0.4870758056640625,-2.634368896484375,2.062942504882812
120537,0.13543701171875,-2.9749755859375,1.795806884765625
120538,-0.3959503173828125,-3.112991333007812,1.736297607421875
120539,-0.3959503173828125,-3.112991333007812,1.736297607421875
120540,0.0099639892578125,-3.029281616210938,1.671234130859375
120541,0.687164306640625,-2.768310546875,1.619842529296875
120542,1.260345458984375,-2.397872924804688,1.161285400390625
120543,1.657180786132812,-1.941360473632812,0.8947296142578125
120544,1.743087768554688,-1.49774169921875,0.8845062255859375
120545,1.391189575195312,-1.177444458007812,0.81195068359375
120546,0.9502105712890624,-0.8478546142578125,0.64190673828125
120547,0.7468719482421875,-0.531524658203125,0.496246337890625
120548,0.6769561767578125,-0.308258056640625,0.30474853515625
120549,0.627227783203125,-0.1058807373046875,0.0472869873046875
120550,0.5711212158203125,0.0673065185546875,-0.2117919921875
120551,0.4822540283203125,0.070281982421875,-0.44049072265625
120552,0.381744384765625,-0.042755126953125,-0.5382080078125
120553,0.24371337890625,-0.1459808349609375,-0.543487548828125
120554,-0.031005859375,-0.42510986328125,-0.433319091796875
120555,-0.5163726806640625,-1.016036987304688,-0.121734619140625
120556,-1.064987182617188,-1.680526733398438,0.3104095458984375
120557,-1.491622924804688,-1.913772583007812,0.73919677734375
120558,-1.87506103515625,-1.661605834960938,1.018295288085938
120559,-2.124725341796875,-1.0089111328125,0.9868316650390624
120560,-2.016433715820312,-0.5193939208984375,0.6686859130859375
120561,-1.547653198242188,-0.53167724609375,0.5300750732421875
120562,-0.502838134765625,-0.547027587890625,0.4198455810546875
120563,-0.502838134765625,-0.547027587890625,0.4198455810546875
120564,-0.502838134765625,-0.547027587890625,0.4198455810546875
120565,-0.1567230224609375,-0.3831939697265625,0.176483154296875
120566,0.3296966552734375,-0.0765838623046875,-0.0837554931640625
120567,0.3625946044921875,-0.030364990234375,-0.2885284423828125
120568,0.320892333984375,-0.0195465087890625,-0.4849090576171875
120569,0.37005615234375,-0.010955810546875,-0.57244873046875
120570,0.5405731201171875,0.003692626953125,-0.4969635009765625
120571,0.73431396484375,-0.0321197509765625,-0.321807861328125
120572,0.889862060546875,-0.0833892822265625,-0.1321563720703125
120573,0.995513916015625,-0.084716796875,0.0789642333984375
120574,1.005966186523438,-0.0563201904296875,0.367218017578125
120575,0.87530517578125,0.0270843505859375,0.611541748046875
120576,0.87530517578125,0.0270843505859375,0.611541748046875
120577,0.65716552734375,0.105621337890625,0.5870513916015625
120578,0.20849609375,0.2574920654296875,-0.23236083984375
120579,0.20849609375,0.2574920654296875,-0.23236083984375
120580,0.0779266357421875,0.229095458984375,-0.42919921875
120581,0.0779266357421875,0.229095458984375,-0.42919921875
120582,0.411102294921875,0.2070159912109375,0.2234039306640625
120583,0.411102294921875,0.2070159912109375,0.2234039306640625
120584,0.6963958740234375,-0.035675048828125,0.3902587890625
120585,1.072219848632812,-0.4189300537109375,0.7319793701171875
120586,1.709335327148438,-1.50750732421875,2.294219970703125
120587,1.709335327148438,-1.50750732421875,2.294219970703125
120588,1.709335327148438,-1.50750732421875,2.294219970703125
120589,1.712997436523438,-2.154586791992188,3.201339721679688
120590,0.905853271484375,-3.529922485351562,3.210464477539062
120591,0.5292205810546875,-3.633544921875,2.627639770507812
120592,0.589630126953125,-2.954315185546875,2.290313720703125
120593,0.7295074462890625,-1.908493041992188,2.012542724609375
120594,0.7939300537109375,-0.9943695068359376,1.812423706054688
120595,0.7558746337890625,-0.67156982421875,1.819259643554688
120596,0.7077484130859375,-0.8865203857421875,1.604766845703125
120597,0.74298095703125,-1.243850708007812,1.140472412109375
120598,0.855133056640625,-1.4622802734375,0.7174224853515625
120599,1.011505126953125,-1.506362915039062,0.57452392578125
120600,1.122772216796875,-1.400497436523438,0.5206298828125
120601,1.13238525390625,-1.189666748046875,0.472076416015625
120602,1.001129150390625,-0.891937255859375,0.5986785888671875
120603,0.793609619140625,-0.522003173828125,0.6263427734375
120604,0.6041412353515625,-0.1849822998046875,0.5050811767578125
120605,0.4711761474609375,0.0683746337890625,0.407806396484375
120606,0.383148193359375,0.2205352783203125,0.293609619140625
120607,0.31475830078125,0.27691650390625,0.021087646484375
120608,0.243408203125,0.286956787109375,-0.1166229248046875
120609,0.08453369140625,0.115478515625,-0.195068359375
120610,-1.056304931640625,-1.334182739257812,-0.0645599365234375
120611,-1.056304931640625,-1.334182739257812,-0.0645599365234375
120612,-1.650497436523438,-1.84423828125,0.219268798828125
120613,-1.982986450195312,-1.643661499023438,0.5642547607421875
120614,-1.995834350585938,-1.113632202148438,0.67144775390625
120615,-1.662078857421875,-0.8150482177734375,0.5964813232421875
120616,-1.211410522460938,-0.8427581787109375,0.5747528076171875
120617,-0.8347625732421875,-0.8201446533203125,0.534912109375
120618,-0.39471435546875,-0.514617919921875,0.0855865478515625
120619,-0.39471435546875,-0.514617919921875,0.0855865478515625
120620,-0.174835205078125,-0.299652099609375,-0.0613250732421875
120621,-0.0148468017578125,-0.220977783203125,-0.1573333740234375
120622,0.038421630859375,-0.2658843994140625,-0.328399658203125
120623,0.0850372314453125,-0.2793121337890625,-0.492950439453125
120624,0.181304931640625,-0.221343994140625,-0.579193115234375
120625,0.3072052001953125,-0.13397216796875,-0.532196044921875
120626,0.583984375,-0.0505828857421875,-0.0920867919921875
120627,0.583984375,-0.0505828857421875,-0.0920867919921875
120628,0.6768341064453125,-0.1202850341796875,0.0836944580078125
120629,0.7315826416015625,-0.21771240234375,0.19818115234375
120630,0.7151336669921875,-0.2774658203125,0.2299346923828125
120631,0.598419189453125,-0.240814208984375,0.181427001953125
120632,0.471160888671875,-0.096527099609375,0.09747314453125
120633,0.4098358154296875,0.1010894775390625,0.0351715087890625
120634,0.3666229248046875,0.29443359375,0.036468505859375
120635,0.3055572509765625,0.417388916015625,-0.0151824951171875
120636,0.2638702392578125,0.4194488525390625,-0.1876220703125
120637,0.2811431884765625,0.3109893798828125,-0.3095550537109375
120638,0.3360748291015625,0.184478759765625,-0.0796966552734375
120639,0.4536285400390625,0.035858154296875,0.3191680908203125
120640,0.6476593017578125,-0.216094970703125,0.5170440673828125
120641,0.9358062744140624,-0.490997314453125,0.73822021484375
120642,1.262191772460938,-0.7727508544921875,1.176177978515625
120643,1.564895629882812,-1.161483764648438,1.619293212890625
120644,1.75885009765625,-1.724777221679688,1.9129638671875
120645,1.692413330078125,-2.273666381835938,2.1373291015625
120646,0.2506866455078125,-3.186935424804688,2.594223022460938
120647,0.2506866455078125,-3.186935424804688,2.594223022460938
120648,0.0957183837890625,-3.302352905273438,2.735504150390625
120649,0.4226531982421875,-3.020706176757812,2.607666015625
120650,0.6435089111328125,-2.479293823242188,2.29522705078125
120651,0.6886749267578125,-1.883834838867188,2.118759155273438
120652,0.6287078857421875,-1.686874389648438,1.903167724609375
120653,0.5642547607421875,-1.72772216796875,1.388687133789062
120654,0.60711669921875,-1.751953125,0.8695220947265625
120655,0.768768310546875,-1.6197509765625,0.505584716796875
120656,0.9717254638671876,-1.329925537109375,0.3621826171875
120657,1.156631469726562,-1.02862548828125,0.42193603515625
120658,1.232376098632812,-0.8333892822265625,0.5387115478515625
120659,1.198699951171875,-0.7178192138671875,0.6321258544921875
120660,1.108489990234375,-0.5694427490234375,0.6421051025390625
120661,1.003173828125,-0.416717529296875,0.5796051025390625
120662,0.5953369140625,-0.0933380126953125,0.29541015625
120663,0.5953369140625,-0.0933380126953125,0.29541015625
120664,0.29791259765625,0.028167724609375,0.169952392578125
120665,0.0462799072265625,0.1464996337890625,0.0570831298828125
120666,-0.0646514892578125,0.2039031982421875,-0.055816650390625
120667,-0.10113525390625,0.1364288330078125,-0.184417724609375
120668,-0.189666748046875,-0.117462158203125,-0.2426910400390625
120669,-0.42095947265625,-0.527618408203125,-0.1795196533203125
120670,-0.75567626953125,-1.033843994140625,0.0902252197265625
120671,-1.086334228515625,-1.5242919921875,0.637298583984375
120672,-1.263992309570312,-1.668258666992188,1.2857666015625
120673,-1.270980834960938,-1.432464599609375,1.159149169921875
120674,-1.179473876953125,-1.08544921875,0.88568115234375
120675,-1.030349731445312,-0.656097412109375,0.96673583984375
120676,-0.759765625,-0.349578857421875,0.431549072265625
120677,-0.4893646240234375,-0.25604248046875,-0.1053314208984375
120678,-0.2658843994140625,-0.205780029296875,-0.2660980224609375
120679,-0.2658843994140625,-0.205780029296875,-0.2660980224609375
120680,-0.1616363525390625,-0.13311767578125,-0.367401123046875
120681,-0.0500335693359375,-0.0490264892578125,-0.5306243896484375
120682,0.0926666259765625,-0.0460205078125,-0.5024871826171875
120683,0.2810211181640625,-0.0732421875,-0.3534088134765625
120684,0.2810211181640625,-0.0732421875,-0.3534088134765625
120685,0.4807891845703125,-0.04388427734375,-0.2136383056640625
120686,0.6985931396484375,0.02490234375,0.364593505859375
120687,0.6985931396484375,0.02490234375,0.364593505859375
120688,0.5102691650390625,0.030731201171875,0.382720947265625
120689,0.317169189453125,0.0648040771484375,0.229522705078125
120690,0.17852783203125,0.0944976806640625,0.0039825439453125
120691,0.053375244140625,0.1181488037109375,-0.2245330810546875
120692,-0.06195068359375,0.1657562255859375,-0.3681182861328125
120693,-0.1067047119140625,0.2429046630859375,-0.3538818359375
120694,0.01263427734375,0.279754638671875,-0.166046142578125
120695,0.3470306396484375,0.20196533203125,0.1785125732421875
120696,0.8672943115234375,-0.1306915283203125,0.6260986328125
120697,1.474090576171875,-0.6813507080078125,0.834442138671875
120698,1.880889892578125,-1.140228271484375,1.061111450195312
120699,1.960708618164062,-1.539627075195312,1.71923828125
120700,1.960708618164062,-1.539627075195312,1.71923828125
120701,1.912200927734375,-2.076217651367188,2.200347900390625
120702,1.3443603515625,-2.967178344726562,2.785751342773438
120703,0.7944488525390625,-3.04827880859375,2.73358154296875
120704,0.5035858154296875,-2.9332275390625,2.607635498046875
120705,0.446990966796875,-2.588394165039062,2.343017578125
120706,0.4355010986328125,-1.975479125976562,2.01519775390625
120707,0.443756103515625,-1.325653076171875,1.822555541992188
120708,0.457733154296875,-0.971466064453125,1.641189575195312
120709,0.5035858154296875,-0.890594482421875,1.264190673828125
120710,0.589996337890625,-0.9712982177734376,0.8226318359375
120711,0.68621826171875,-1.122146606445312,0.5696868896484375
120712,0.68621826171875,-1.122146606445312,0.5696868896484375
120713,0.7807464599609375,-1.168746948242188,0.5330810546875
120714,0.767425537109375,-0.8957672119140625,0.6630859375
120715,0.767425537109375,-0.8957672119140625,0.6630859375
120716,0.666412353515625,-0.7446746826171875,0.569793701171875
120717,0.5019683837890625,-0.5599822998046875,0.4622955322265625
120718,0.29559326171875,-0.3213653564453125,0.364410400390625
120719,0.085662841796875,-0.0979766845703125,0.2897491455078125
120720,0.085662841796875,-0.0979766845703125,0.2897491455078125
120721,-0.0906524658203125,0.067169189453125,0.1756744384765625
120722,-0.2587127685546875,0.1372222900390625,-0.1559295654296875
120723,-0.3336029052734375,-0.0836944580078125,-0.2394256591796875
120724,-0.5192413330078125,-0.5132598876953125,-0.229827880859375
120725,-0.739471435546875,-1.058807373046875,-0.0682830810546875
120726,-1.098922729492188,-1.655624389648438,0.635589599609375
120727,-1.098922729492188,-1.655624389648438,0.635589599609375
120728,-1.098922729492188,-1.655624389648438,0.635589599609375
120729,-1.31005859375,-1.1982421875,1.162628173828125
120730,-0.7732086181640625,-0.3546295166015625,0.6468505859375
120731,-0.7732086181640625,-0.3546295166015625,0.6468505859375
120732,-0.49176025390625,-0.20831298828125,0.406768798828125
120733,-0.301605224609375,-0.125,0.10968017578125
120734,-0.1647491455078125,-0.0546722412109375,-0.2110748291015625
120735,-0.0522613525390625,-0.0034027099609375,-0.4718780517578125
120736,0.043731689453125,-0.028839111328125,-0.6065216064453125
120737,0.13714599609375,-0.0498809814453125,-0.627532958984375
120738,0.468780517578125,-0.0081634521484375,-0.33001708984375
120739,0.645721435546875,-0.0545501708984375,-0.1844024658203125
120740,0.645721435546875,-0.0545501708984375,-0.1844024658203125
120741,0.7492523193359375,-0.1925506591796875,-0.0587005615234375
120742,0.7400360107421875,-0.25616455078125,0.1490936279296875
120743,0.608734130859375,-0.2113494873046875,0.325286865234375
120744,0.608734130859375,-0.2113494873046875,0.325286865234375
120745,0.4357757568359375,-0.1288909912109375,0.328155517578125
120746,0.15386962890625,0.058319091796875,0.056396484375
120747,0.120635986328125,0.167449951171875,-0.0247802734375
120748,0.185455322265625,0.2791900634765625,-0.0010986328125
120749,0.4936065673828125,0.2862091064453125,0.2601470947265625
120750,1.210037231445312,-0.0506591796875,0.6134185791015625
120751,2.01446533203125,-0.5013275146484375,0.585662841796875
120752,2.54022216796875,-0.7870330810546875,0.48980712890625
120753,2.615310668945312,-0.8180084228515625,0.4982452392578125
120754,2.12542724609375,-0.6401214599609375,0.7602081298828125
120755,1.537994384765625,-0.4919281005859375,1.124435424804688
120756,1.12713623046875,-0.63421630859375,1.6507568359375
120757,0.8921051025390625,-1.086685180664062,2.273086547851562
120758,0.8403167724609375,-1.727935791015625,2.708770751953125
120759,0.78216552734375,-2.477691650390625,2.915664672851562
120760,0.4525146484375,-3.181594848632812,2.785263061523438
120761,-0.07562255859375,-3.36358642578125,2.38824462890625
120762,-0.3962860107421875,-2.822891235351562,2.080047607421875
120763,-0.2952880859375,-2.005355834960938,1.915664672851562
120764,0.1349639892578125,-1.574920654296875,1.69561767578125
120765,0.4767303466796875,-1.500015258789062,1.440521240234375
120766,0.549774169921875,-1.456451416015625,1.209487915039062
120767,0.549285888671875,-1.346145629882812,0.814544677734375
120768,0.580780029296875,-1.221389770507812,0.4648590087890625
120769,0.5906982421875,-1.05810546875,0.2982177734375
120770,0.5223388671875,-0.8494720458984375,0.3040771484375
120771,0.3870086669921875,-0.638885498046875,0.36444091796875
120772,0.2396392822265625,-0.455047607421875,0.3367767333984375
120773,0.1622314453125,-0.2663726806640625,0.236572265625
120774,0.154541015625,-0.06121826171875,0.160675048828125
120775,0.1976165771484375,0.1054840087890625,0.128204345703125
120776,0.260498046875,0.182586669921875,0.1051483154296875
120777,0.30194091796875,0.1505889892578125,0.0932769775390625
120778,0.2809906005859375,0.031341552734375,0.1717376708984375
120779,0.2809906005859375,0.031341552734375,0.1717376708984375
120780,0.1808929443359375,-0.0851287841796875,0.2755279541015625
120781,-0.4201507568359375,-0.6427459716796875,0.52691650390625
120782,-0.78173828125,-1.1026611328125,0.71221923828125
120783,-1.031448364257812,-1.29815673828125,0.9235687255859376
120784,-1.175537109375,-1.145278930664062,1.03125
120785,-1.238632202148438,-0.7617034912109375,1.130599975585938
120786,-1.098190307617188,-0.426788330078125,0.9206695556640624
120787,-0.7431793212890625,-0.344573974609375,0.351226806640625
120788,-0.430450439453125,-0.2921142578125,0.0052490234375
120789,-0.2523193359375,-0.2043914794921875,-0.056427001953125
120790,-0.10601806640625,-0.113677978515625,-0.1021881103515625
120791,0.0538787841796875,-0.0507049560546875,-0.2595672607421875
120792,0.1816558837890625,-0.047393798828125,-0.4832916259765625
120793,0.2748870849609375,-0.110687255859375,-0.593902587890625
120794,0.3926239013671875,-0.21258544921875,-0.5551300048828125
120795,0.5462188720703125,-0.2547149658203125,-0.464447021484375
120796,0.5462188720703125,-0.2547149658203125,-0.464447021484375
120797,0.746734619140625,-0.226318359375,-0.03326416015625
120798,0.730010986328125,-0.2077789306640625,0.158782958984375
120799,0.61798095703125,-0.148162841796875,0.29473876953125
120800,0.44281005859375,-0.073089599609375,0.3792266845703125
120801,0.2410888671875,-0.0790863037109375,0.289093017578125
120802,0.0668182373046875,-0.172576904296875,-0.0308990478515625
120803,0.0044708251953125,-0.259033203125,-0.3496856689453125
120804,0.14044189453125,-0.26348876953125,-0.3120269775390625
120805,0.4356689453125,-0.1773529052734375,0.0236968994140625
120806,0.8785552978515625,-0.2153167724609375,0.4081573486328125
120807,1.5245361328125,-0.5092926025390625,0.6535491943359375
120808,2.149978637695312,-0.828521728515625,0.8834075927734375
120809,2.594482421875,-1.18365478515625,1.006072998046875
120810,2.583663940429688,-1.486907958984375,1.044784545898438
120811,1.879898071289062,-1.5341796875,1.207748413085938
120812,0.980377197265625,-1.456497192382812,1.753189086914062
120813,0.1373748779296875,-1.5963134765625,2.449996948242188
120814,-0.4170074462890625,-2.14984130859375,2.53521728515625
120815,-0.4998016357421875,-2.827957153320312,2.122039794921875
120816,-0.2567138671875,-3.156784057617188,1.979751586914062
120817,0.0032958984375,-2.871841430664062,2.012008666992188
120818,0.1922149658203125,-2.084259033203125,1.919525146484375
120819,0.375640869140625,-1.57891845703125,1.774124145507812
120820,0.4799346923828125,-1.631011962890625,1.557281494140625
120821,0.4784698486328125,-1.737884521484375,1.12103271484375
120822,0.5507049560546875,-1.700469970703125,0.706573486328125
120823,0.7289276123046875,-1.525711059570312,0.6034393310546875
120824,0.895599365234375,-1.238327026367188,0.6082305908203125
120825,0.91961669921875,-0.9317626953125,0.564544677734375
120826,0.8170623779296875,-0.6706390380859375,0.486846923828125
120827,0.717559814453125,-0.4627227783203125,0.41656494140625
120828,0.6333465576171875,-0.2924957275390625,0.33050537109375
120829,0.547332763671875,-0.1562347412109375,0.2535858154296875
120830,0.4371795654296875,-0.0615692138671875,0.1652984619140625
120831,0.3103179931640625,0.0093536376953125,0.055572509765625
120832,0.1860809326171875,0.0760955810546875,-0.0323028564453125
120833,0.089111328125,0.1043853759765625,-0.106597900390625
120834,-0.06817626953125,0.00347900390625,0.0151824951171875
120835,-0.06817626953125,0.00347900390625,0.0151824951171875
120836,-0.264892578125,-0.23785400390625,0.2207183837890625
120837,-0.604278564453125,-0.7404022216796875,0.566986083984375
120838,-1.3458251953125,-1.796432495117188,1.29034423828125
120839,-1.3458251953125,-1.796432495117188,1.29034423828125
120840,-1.594131469726562,-1.685470581054688,1.314712524414062
120841,-1.572494506835938,-0.9802398681640624,1.258697509765625
120842,-1.161773681640625,-0.3889007568359375,0.7404632568359375
120843,-0.659332275390625,-0.2684478759765625,0.0576019287109375
120844,-0.3998565673828125,-0.212738037109375,-0.1812286376953125
120845,-0.277740478515625,-0.15521240234375,-0.26995849609375
120846,-0.0899810791015625,-0.11309814453125,-0.35137939453125
120847,0.0973052978515625,-0.015869140625,-0.41363525390625
120848,0.1839599609375,0.03009033203125,-0.478668212890625
120849,0.24407958984375,-0.13177490234375,-0.5610198974609375
120850,0.6884918212890625,-0.2857208251953125,-0.0778045654296875
120851,0.6884918212890625,-0.2857208251953125,-0.0778045654296875
120852,0.8554840087890625,-0.1507720947265625,0.1479949951171875
120853,0.9389190673828124,-0.0528411865234375,0.2346038818359375
120854,0.9901885986328124,-0.0210418701171875,0.1003875732421875
120855,0.9644927978515624,0.01873779296875,-0.0276336669921875
120856,0.8430633544921875,0.0490570068359375,0.0484771728515625
120857,0.6395721435546875,0.046783447265625,0.0770111083984375
120858,0.4218292236328125,0.0410919189453125,-0.148956298828125
120859,0.2447357177734375,0.082794189453125,-0.264373779296875
120860,0.131103515625,0.1379241943359375,-0.1510162353515625
120861,0.1165313720703125,0.139678955078125,0.0826873779296875
120862,0.5990447998046875,-0.3068695068359375,0.805694580078125
120863,0.5990447998046875,-0.3068695068359375,0.805694580078125
120864,0.5990447998046875,-0.3068695068359375,0.805694580078125
120865,1.100479125976562,-0.7968292236328125,1.19854736328125
120866,1.431732177734375,-1.925552368164062,2.164627075195312
120867,1.431732177734375,-1.925552368164062,2.164627075195312
120868,1.169418334960938,-2.629119873046875,2.273818969726562
120869,-0.409881591796875,-3.576766967773438,2.540908813476562
120870,-0.1576385498046875,-2.334793090820312,2.216201782226562
120871,-0.1576385498046875,-2.334793090820312,2.216201782226562
120872,0.3807220458984375,-1.685943603515625,2.018035888671875
120873,0.59814453125,-1.294891357421875,2.04461669921875
120874,0.6165618896484375,-1.064910888671875,1.925704956054688
120875,0.588897705078125,-0.9554595947265624,1.649826049804688
120876,0.5296173095703125,-0.946533203125,1.3897705078125
120877,0.451873779296875,-0.94610595703125,1.134490966796875
120878,0.3837127685546875,-0.7310028076171875,0.64715576171875
120879,0.3837127685546875,-0.7310028076171875,0.64715576171875
120880,0.44427490234375,-0.6396942138671875,0.6154632568359375
120881,0.5387420654296875,-0.5820770263671875,0.627166748046875
120882,0.5767822265625,-0.5374298095703125,0.62274169921875
120883,0.5597381591796875,-0.4970855712890625,0.597686767578125
120884,0.4944305419921875,-0.4159698486328125,0.55426025390625
120885,0.378814697265625,-0.279205322265625,0.4688720703125
120886,0.2528533935546875,-0.1204833984375,0.3402252197265625
120887,0.134735107421875,0.01422119140625,0.161590576171875
120888,0.022247314453125,0.0846099853515625,-0.044952392578125
120889,-0.052337646484375,0.1033935546875,-0.1123199462890625
120890,-0.139862060546875,-0.0178985595703125,-0.045379638671875
120891,-0.3115081787109375,-0.3647613525390625,0.10986328125
120892,-0.4644317626953125,-0.835906982421875,0.439056396484375
120893,-0.56927490234375,-1.197494506835938,0.729644775390625
120894,-0.845733642578125,-1.192245483398438,0.9561920166015624
120895,-0.845733642578125,-1.192245483398438,0.9561920166015624
120896,-0.9242401123046876,-1.051345825195312,0.7958984375
120897,-0.8857421875,-0.952117919921875,0.6092987060546875
120898,-0.723541259765625,-0.774810791015625,0.5040283203125
120899,-0.723541259765625,-0.774810791015625,0.5040283203125
120900,-0.5064239501953125,-0.5421295166015625,0.3765716552734375
120901,-0.0518035888671875,-0.2759857177734375,0.1816558837890625
120902,0.125640869140625,-0.2107086181640625,0.0083465576171875
120903,0.2266082763671875,-0.1814117431640625,-0.261138916015625
120904,0.277496337890625,-0.1693267822265625,-0.4724884033203125
120905,0.3372955322265625,-0.12591552734375,-0.4720916748046875
120906,0.4069976806640625,-0.0589141845703125,-0.3090972900390625
120907,0.46539306640625,-0.050140380859375,-0.2803955078125
120908,0.545318603515625,-0.1363983154296875,-0.37042236328125
120909,0.6334381103515625,-0.1944732666015625,-0.1619110107421875
120910,0.6342315673828125,-0.232330322265625,0.1202545166015625
120911,0.5481414794921875,-0.28338623046875,0.1595916748046875
120912,0.452972412109375,-0.30010986328125,0.0961456298828125
120913,0.380889892578125,-0.2393798828125,0.0138702392578125
120914,0.3650054931640625,-0.15081787109375,-0.029083251953125
120915,0.41082763671875,-0.098724365234375,-0.0268707275390625
120916,0.51153564453125,-0.0645904541015625,0.0573883056640625
120917,0.7046661376953125,-0.0733184814453125,0.352813720703125
120918,1.425704956054688,-0.461151123046875,1.159332275390625
120919,1.425704956054688,-0.461151123046875,1.159332275390625
120920,1.425704956054688,-0.461151123046875,1.159332275390625
120921,1.6627197265625,-0.7652740478515625,1.314163208007812
120922,1.308135986328125,-1.137435913085938,1.185012817382812
120923,0.7295684814453125,-1.16925048828125,1.332870483398438
120924,0.21624755859375,-1.31982421875,1.784515380859375
120925,-0.1544342041015625,-1.711044311523438,2.171142578125
120926,-0.3480682373046875,-2.296951293945312,2.20709228515625
120927,-0.196502685546875,-2.71258544921875,2.0391845703125
120928,0.21087646484375,-2.642578125,1.878433227539062
120929,0.5784149169921875,-1.819549560546875,1.85516357421875
120930,0.5784149169921875,-1.819549560546875,1.85516357421875
120931,0.48687744140625,-1.678909301757812,1.787490844726562
120932,0.4329681396484375,-1.831329345703125,1.503128051757812
120933,0.451416015625,-1.951339721679688,1.197265625
120934,0.51348876953125,-1.917404174804688,1.020416259765625
120935,0.613739013671875,-1.664016723632812,0.8263702392578125
120936,0.7031097412109375,-1.316726684570312,0.6434326171875
120937,0.72003173828125,-1.0078125,0.5594329833984375
120938,0.6365814208984375,-0.7083740234375,0.5419158935546875
120939,0.6365814208984375,-0.7083740234375,0.5419158935546875
120940,0.4746856689453125,-0.4381103515625,0.5619354248046875
120941,0.188262939453125,-0.10821533203125,0.493743896484375
120942,0.1522369384765625,0.0743255615234375,0.3536834716796875
120943,0.1522369384765625,0.0743255615234375,0.3536834716796875
120944,0.1576995849609375,0.2803802490234375,0.2328033447265625
120945,0.236297607421875,0.2810211181640625,-0.03399658203125
120946,0.152801513671875,-0.2384185791015625,0.11669921875
120947,0.152801513671875,-0.2384185791015625,0.11669921875
120948,-0.0219879150390625,-0.4536590576171875,0.26416015625
120949,-0.2450714111328125,-0.6798095703125,0.406036376953125
120950,-0.4731903076171875,-0.87744140625,0.5818634033203125
120951,-0.4731903076171875,-0.87744140625,0.5818634033203125
120952,-0.628173828125,-1.035079956054688,0.7780914306640625
120953,-0.7636871337890625,-1.087387084960938,0.8483734130859375
120954,-0.7441864013671875,-1.002349853515625,0.798187255859375
120955,-0.6317596435546875,-0.825347900390625,0.9070892333984376
120956,-0.4504241943359375,-0.6085205078125,0.81243896484375
120957,-0.2216949462890625,-0.445556640625,0.370513916015625
120958,-0.03533935546875,-0.3320465087890625,0.07025146484375
120959,-0.03533935546875,-0.3320465087890625,0.07025146484375
120960,0.0434417724609375,-0.2057647705078125,-0.0251922607421875
120961,0.062957763671875,-0.0318756103515625,-0.447052001953125
120962,0.1719207763671875,-0.0667877197265625,-0.60870361328125
120963,0.347686767578125,-0.075469970703125,-0.547515869140625
120964,0.5001678466796875,-0.0378265380859375,-0.2886505126953125
120965,0.574371337890625,-0.011260986328125,-0.013763427734375
120966,0.6001739501953125,-0.0644378662109375,0.0596923828125
120967,0.60247802734375,-0.1553802490234375,0.0495758056640625
120968,0.56201171875,-0.1419525146484375,-0.0334625244140625
120969,0.46844482421875,-0.0561065673828125,-0.119476318359375
120970,0.3149871826171875,0.0086212158203125,-0.1864166259765625
120971,0.3149871826171875,0.0086212158203125,-0.1864166259765625
120972,0.1588897705078125,0.0719757080078125,-0.2392425537109375
120973,0.0901336669921875,0.1319427490234375,-0.200836181640625
120974,0.4499969482421875,0.10308837890625,0.549072265625
120975,1.109146118164062,-0.3430328369140625,1.323440551757812
120976,1.742385864257812,-0.929779052734375,1.36328125
120977,2.12347412109375,-1.312606811523438,1.01287841796875
120978,2.151885986328125,-1.543991088867188,1.232406616210938
120979,1.843887329101562,-1.7283935546875,1.691024780273438
120980,1.481948852539062,-2.02789306640625,1.932083129882812
120981,1.004043579101562,-2.495956420898438,2.618927001953125
120982,0.454193115234375,-3.179702758789062,3.158767700195312
120983,0.454193115234375,-3.179702758789062,3.158767700195312
120984,0.1930084228515625,-3.427200317382812,2.6517333984375
120985,-0.0445556640625,-1.935882568359375,1.8681640625
120986,-0.1688385009765625,-1.358444213867188,1.779266357421875
120987,-0.1533355712890625,-1.081268310546875,1.51873779296875
120988,0.077880859375,-1.030441284179688,1.212478637695312
120989,0.431304931640625,-1.1270751953125,0.9804840087890624
120990,0.71893310546875,-1.178558349609375,0.786651611328125
120991,0.8820037841796875,-1.126251220703125,0.74639892578125
120992,0.90252685546875,-0.98565673828125,0.7325439453125
120993,0.8294677734375,-0.7552490234375,0.6581268310546875
120994,0.755096435546875,-0.526947021484375,0.65301513671875
120995,0.755096435546875,-0.526947021484375,0.65301513671875
120996,0.7181549072265625,-0.353790283203125,0.6248779296875
120997,0.6450042724609375,-0.051422119140625,0.3777313232421875
120998,0.527008056640625,0.0703277587890625,0.202423095703125
120999,0.3770904541015625,0.1480712890625,-0.003753662109375
121000,0.196075439453125,0.146270751953125,-0.1843414306640625
121001,0.02532958984375,0.064666748046875,-0.273712158203125
121002,-0.1145782470703125,-0.064971923828125,-0.251312255859375
121003,-0.2620849609375,-0.2932281494140625,-0.10491943359375
121004,-0.4234771728515625,-0.63275146484375,0.12744140625
121005,-0.5514678955078125,-0.9505157470703124,0.3574676513671875
121006,-0.61572265625,-1.164474487304688,0.592864990234375
121007,-0.6713714599609375,-1.26861572265625,0.738006591796875
121008,-0.7490692138671875,-1.322311401367188,0.6898040771484375
121009,-0.8531951904296875,-1.280197143554688,0.4694061279296875
121010,-0.933929443359375,-1.1077880859375,0.399322509765625
121011,-0.894805908203125,-0.856781005859375,0.4112701416015625
121012,-0.7136688232421875,-0.6417388916015625,0.3733062744140625
121013,-0.4923553466796875,-0.511474609375,0.2692413330078125
121014,-0.0913543701171875,-0.2984771728515625,0.11297607421875
121015,-0.0913543701171875,-0.2984771728515625,0.11297607421875
121016,-0.0913543701171875,-0.2984771728515625,0.11297607421875
121017,0.20306396484375,-0.0221710205078125,-0.200958251953125
121018,0.20306396484375,-0.0221710205078125,-0.200958251953125
121019,0.3069305419921875,0.0507965087890625,-0.08233642578125
121020,0.4209442138671875,0.0771636962890625,-0.00408935546875
121021,0.5727081298828125,0.06689453125,0.1018829345703125
121022,0.7236785888671875,-0.0190277099609375,0.1417694091796875
121023,0.8147125244140625,-0.15045166015625,0.0725860595703125
121024,0.8466796875,-0.210540771484375,-0.0447235107421875
121025,0.8026580810546875,-0.1461639404296875,-0.0611724853515625
121026,0.685028076171875,-0.0291290283203125,-0.081695556640625
121027,0.5801239013671875,0.0908966064453125,-0.1456756591796875
121028,0.5116119384765625,0.203643798828125,-0.09814453125
121029,0.5464935302734375,0.2350311279296875,0.226226806640625
121030,0.8267669677734375,0.0363922119140625,0.75628662109375
121031,0.8267669677734375,0.0363922119140625,0.75628662109375
121032,1.673309326171875,-1.00384521484375,1.242782592773438
121033,1.738876342773438,-1.442779541015625,1.213455200195312
121034,1.412979125976562,-1.699111938476562,1.305648803710938
121035,0.9359283447265624,-1.952880859375,1.511917114257812
121036,0.4858551025390625,-2.199081420898438,1.857086181640625
121037,0.2113494873046875,-2.488433837890625,2.26611328125
121038,0.22955322265625,-2.830078125,2.408248901367188
121039,0.4068603515625,-2.98956298828125,2.31683349609375
121040,0.5361328125,-2.74212646484375,2.124786376953125
121041,0.45416259765625,-2.27459716796875,1.914749145507812
121042,0.2520904541015625,-1.898590087890625,1.646377563476562
121043,0.1847076416015625,-1.667373657226562,1.34735107421875
121044,0.3485107421875,-1.53466796875,1.076263427734375
121045,0.5720062255859375,-1.447296142578125,0.873809814453125
121046,0.7361297607421875,-1.308334350585938,0.72247314453125
121047,0.7361297607421875,-1.308334350585938,0.72247314453125
121048,0.851959228515625,-1.102432250976562,0.6117401123046875
121049,0.82110595703125,-0.5479888916015625,0.412017822265625
121050,0.82110595703125,-0.5479888916015625,0.412017822265625
121051,0.7003021240234375,-0.388702392578125,0.3400726318359375
121052,0.5345458984375,-0.2104949951171875,0.250823974609375
121053,0.361785888671875,-0.0438385009765625,0.1876220703125
121054,0.1917266845703125,0.0735321044921875,0.1245269775390625
121055,0.1917266845703125,0.0735321044921875,0.1245269775390625
121056,0.0181427001953125,0.117919921875,0.0427093505859375
121057,-0.17950439453125,0.0773468017578125,-0.1435089111328125
121058,-0.163330078125,0.0761260986328125,-0.14190673828125
121059,-0.163330078125,0.0761260986328125,-0.14190673828125
121060,-0.08599853515625,0.0380096435546875,-0.030975341796875
121061,-0.2024383544921875,-0.448516845703125,0.3464813232421875
121062,-0.3930511474609375,-0.8048553466796875,0.6423492431640625
121063,-0.3930511474609375,-0.8048553466796875,0.6423492431640625
121064,-0.5703887939453125,-1.065155029296875,0.9170074462890624
121065,-0.637054443359375,-1.294906616210938,1.041229248046875
121066,-0.680999755859375,-1.186172485351562,0.7769927978515625
121067,-0.7660369873046875,-0.869476318359375,0.6894989013671875
121068,-0.78375244140625,-0.502532958984375,0.7188262939453125
121069,-0.6309967041015625,-0.3241424560546875,0.4279937744140625
121070,-0.316009521484375,-0.27569580078125,-0.35247802734375
121071,-0.316009521484375,-0.27569580078125,-0.35247802734375
121072,-0.2822723388671875,-0.12249755859375,-0.4179534912109375
121073,-0.2332763671875,0.0405731201171875,-0.37823486328125
121074,-0.067535400390625,0.1248321533203125,-0.3349761962890625
121075,-0.067535400390625,0.1248321533203125,-0.3349761962890625
121076,0.2141571044921875,0.1186981201171875,-0.2889556884765625
121077,0.7969818115234375,-0.100616455078125,-0.0331268310546875
121078,0.943206787109375,-0.275726318359375,0.1437530517578125
121079,0.9250640869140624,-0.3745574951171875,0.2697601318359375
121080,0.805877685546875,-0.3623199462890625,0.3466644287109375
121081,0.7481842041015625,-0.3021392822265625,0.3545379638671875
121082,0.771209716796875,-0.1989288330078125,0.29766845703125
121083,0.771209716796875,-0.1989288330078125,0.29766845703125
121084,0.8307037353515625,-0.1024322509765625,0.20281982421875
121085,1.218612670898438,-0.233184814453125,0.0524139404296875
121086,1.569366455078125,-0.507568359375,0.11761474609375
121087,1.569366455078125,-0.507568359375,0.11761474609375
121088,1.844253540039062,-0.80584716796875,0.347076416015625
121089,1.422378540039062,-0.94134521484375,1.531723022460938
121090,1.422378540039062,-0.94134521484375,1.531723022460938
121091,1.41845703125,-1.24810791015625,2.044830322265625
121092,1.429763793945312,-1.68902587890625,2.416549682617188
121093,0.9666900634765624,-2.404754638671875,2.12811279296875
121094,0.9666900634765624,-2.404754638671875,2.12811279296875
121095,0.9666900634765624,-2.404754638671875,2.12811279296875
121096,0.70599365234375,-2.37188720703125,1.812347412109375
121097,0.3910980224609375,-2.185134887695312,1.670120239257812
121098,-0.481903076171875,-1.987564086914062,1.30987548828125
121099,-0.363861083984375,-1.86029052734375,1.30096435546875
121100,0.103546142578125,-1.627166748046875,1.32171630859375
121101,0.7872314453125,-0.9429779052734376,0.4963226318359375
121102,0.7872314453125,-0.9429779052734376,0.4963226318359375
121103,0.7872314453125,-0.9429779052734376,0.4963226318359375
121104,0.9667510986328124,-0.647552490234375,0.2983856201171875
121105,0.9526519775390624,-0.394683837890625,0.279449462890625
121106,0.776336669921875,-0.3586273193359375,0.3541717529296875
121107,0.6146392822265625,-0.2874298095703125,0.402099609375
121108,0.5210418701171875,-0.2072601318359375,0.4170379638671875
121109,0.3662872314453125,-0.105926513671875,0.389984130859375
121110,0.3662872314453125,-0.105926513671875,0.389984130859375
121111,0.3662872314453125,-0.105926513671875,0.389984130859375
121112,0.227874755859375,-0.0890960693359375,0.3370819091796875
121113,-0.0941314697265625,-0.271575927734375,0.2243804931640625
121114,-0.3623504638671875,-0.5651397705078125,0.2035369873046875
121115,-0.695098876953125,-0.9146881103515624,0.19415283203125
121116,-0.8726959228515625,-1.144241333007812,0.3666229248046875
121117,-0.7661590576171875,-1.214202880859375,0.6509552001953125
121118,-0.58544921875,-1.16180419921875,0.87451171875
121119,-0.451995849609375,-1.0943603515625,1.0469970703125
121120,-0.451995849609375,-1.0943603515625,1.0469970703125
121121,-0.009979248046875,-0.384674072265625,0.1636199951171875
121122,-0.0326690673828125,-0.2677764892578125,0.0105743408203125
121123,-0.0326690673828125,-0.2677764892578125,0.0105743408203125
121124,-0.1165008544921875,-0.2097625732421875,0.052276611328125
121125,-0.20159912109375,-0.13214111328125,-0.011932373046875
121126,-0.1927032470703125,-0.0397186279296875,-0.1657257080078125
121127,-0.0384979248046875,-0.0015411376953125,-0.269378662109375
121128,0.195037841796875,-0.013092041015625,-0.2633056640625
121129,0.3854522705078125,-0.0462646484375,-0.1356964111328125
121130,0.46136474609375,-0.0797271728515625,0.0295562744140625
121131,0.4122161865234375,-0.0499114990234375,0.1356964111328125
121132,0.2812042236328125,0.019805908203125,0.11212158203125
121133,0.0755615234375,0.030029296875,-0.0384979248046875
121134,0.0755615234375,0.030029296875,-0.0384979248046875
121135,0.0254364013671875,0.0748138427734375,-0.104949951171875
121136,0.0189361572265625,0.104339599609375,-0.156402587890625
121137,0.06512451171875,0.1479644775390625,-0.2220306396484375
121138,0.213470458984375,0.20745849609375,-0.1289520263671875
121139,0.213470458984375,0.20745849609375,-0.1289520263671875
121140,0.6854400634765625,0.1027069091796875,0.3861236572265625
121141,2.171417236328125,-0.7875518798828125,0.6610260009765625
121142,2.574615478515625,-1.060928344726562,0.55389404296875
121143,2.574615478515625,-1.060928344726562,0.55389404296875
121144,2.356246948242188,-1.105789184570312,0.7790374755859375
121145,0.9806060791015624,-1.641998291015625,2.45220947265625
121146,0.9806060791015624,-1.641998291015625,2.45220947265625
121147,0.9806060791015624,-1.641998291015625,2.45220947265625
121148,0.6925506591796875,-2.323226928710938,2.410171508789062
121149,0.348114013671875,-3.0341796875,2.268386840820312
121150,0.4272613525390625,-2.49053955078125,1.851516723632812
121151,0.4272613525390625,-2.49053955078125,1.851516723632812
121152,0.4970855712890625,-1.88433837890625,1.568252563476562
121153,0.73724365234375,-1.300521850585938,1.457717895507812
121154,0.7662811279296875,-1.278228759765625,1.318450927734375
121155,0.6684417724609375,-1.301132202148438,1.027664184570312
121156,0.5349884033203125,-1.239578247070312,0.752655029296875
121157,0.4851837158203125,-1.057815551757812,0.5817108154296875
121158,0.5330963134765625,-0.8839569091796875,0.4742279052734375
121159,0.619873046875,-0.7188262939453125,0.2915191650390625
121160,0.7194976806640625,-0.584991455078125,0.1611785888671875
121161,0.76922607421875,-0.42926025390625,0.1399993896484375
121162,0.7032470703125,-0.227203369140625,0.20843505859375
121163,0.7032470703125,-0.227203369140625,0.20843505859375
121164,0.55841064453125,-0.0290374755859375,0.29473876953125
121165,0.02679443359375,0.0949554443359375,0.010772705078125
121166,0.02679443359375,0.0949554443359375,0.010772705078125
121167,0.02679443359375,0.0949554443359375,0.010772705078125
121168,-0.0987548828125,0.0073394775390625,-0.03448486328125
121169,-0.5417327880859375,-0.5622406005859375,0.091796875
121170,-0.8265533447265625,-0.9718017578125,0.2403106689453125
121171,-0.8265533447265625,-0.9718017578125,0.2403106689453125
121172,-1.035308837890625,-1.305374145507812,0.5771331787109375
121173,-1.265350341796875,-1.420928955078125,1.220489501953125
121174,-1.193405151367188,-1.095626831054688,1.183609008789062
121175,-1.193405151367188,-1.095626831054688,1.183609008789062
121176,-0.9168548583984376,-0.633697509765625,0.942657470703125
121177,-0.448333740234375,-0.3658905029296875,0.2932891845703125
121178,-0.38665771484375,-0.227294921875,0.0464630126953125
121179,-0.3067779541015625,-0.0394439697265625,-0.2627410888671875
121180,-0.200225830078125,0.13140869140625,-0.5759735107421875
121181,0.2135467529296875,0.05303955078125,-0.68365478515625
121182,0.2135467529296875,0.05303955078125,-0.68365478515625
121183,0.2135467529296875,0.05303955078125,-0.68365478515625
121184,0.5067291259765625,-0.076171875,-0.56097412109375
121185,0.9785308837890624,-0.25457763671875,-0.12225341796875
121186,1.02496337890625,-0.2771759033203125,0.1484222412109375
121187,1.02496337890625,-0.2771759033203125,0.1484222412109375
121188,0.91357421875,-0.2406158447265625,0.3993072509765625
121189,0.4515533447265625,-0.09820556640625,0.4153594970703125
121190,0.28240966796875,-0.0438995361328125,0.2337188720703125
121191,0.2288665771484375,-0.0228729248046875,-0.0592041015625
121192,0.291839599609375,-0.0364532470703125,-0.315185546875
121193,0.500732421875,-0.07037353515625,-0.28192138671875
121194,0.876708984375,-0.1536102294921875,0.0487518310546875
121195,0.876708984375,-0.1536102294921875,0.0487518310546875
121196,1.37591552734375,-0.3351593017578125,0.4504241943359375
121197,1.929779052734375,-0.9376678466796876,1.320968627929688
121198,1.929779052734375,-0.9376678466796876,1.320968627929688
121199,1.929779052734375,-0.9376678466796876,1.320968627929688
121200,1.6278076171875,-1.088577270507812,2.0145263671875
121201,0.8413238525390625,-2.058334350585938,3.05535888671875
121202,0.3593597412109375,-2.764404296875,2.500701904296875
121203,0.3593597412109375,-2.764404296875,2.500701904296875
121204,0.06829833984375,-2.95294189453125,1.793136596679688
121205,0.5360870361328125,-1.276443481445312,1.823074340820312
121206,0.5360870361328125,-1.276443481445312,1.823074340820312
121207,0.5360870361328125,-1.276443481445312,1.823074340820312
121208,0.415557861328125,-1.21429443359375,2.003082275390625
121209,0.0918121337890625,-1.876205444335938,1.15277099609375
121210,0.0918121337890625,-1.876205444335938,1.15277099609375
121211,0.0918121337890625,-1.876205444335938,1.15277099609375
121212,0.304962158203125,-1.610305786132812,0.632293701171875
121213,0.8871002197265625,-0.4341278076171875,0.2800140380859375
121214,0.8871002197265625,-0.4341278076171875,0.2800140380859375
121215,0.815826416015625,-0.1374969482421875,0.35821533203125
121216,0.60784912109375,0.0930938720703125,0.3423614501953125
121217,0.417572021484375,0.1961517333984375,0.2772674560546875
121218,0.3001556396484375,0.2158203125,0.22735595703125
121219,0.3001556396484375,0.2158203125,0.22735595703125
121220,0.2533721923828125,0.2059173583984375,0.1778564453125
121221,0.198638916015625,0.0256805419921875,0.14031982421875
121222,0.17669677734375,-0.131195068359375,0.2239990234375
121223,0.17669677734375,-0.131195068359375,0.2239990234375
121224,0.133209228515625,-0.2568817138671875,0.31231689453125
121225,-0.5710601806640625,-0.551605224609375,1.081893920898438
121226,-0.5710601806640625,-0.551605224609375,1.081893920898438
121227,-0.5710601806640625,-0.551605224609375,1.081893920898438
121228,-0.826446533203125,-0.8773193359375,1.31976318359375
121229,-1.04876708984375,-1.172317504882812,0.7886505126953125
121230,-1.09356689453125,-0.997161865234375,0.93133544921875
121231,-1.09356689453125,-0.997161865234375,0.93133544921875
121232,-0.993011474609375,-0.6464385986328125,0.917816162109375
121233,-0.000946044921875,-0.195404052734375,-0.2999725341796875
121234,-0.000946044921875,-0.195404052734375,-0.2999725341796875
121235,-0.000946044921875,-0.195404052734375,-0.2999725341796875
121236,0.195556640625,-0.1714019775390625,-0.434600830078125
121237,0.3014984130859375,-0.187530517578125,-0.677276611328125
121238,0.3014984130859375,-0.187530517578125,-0.677276611328125
121239,0.3014984130859375,-0.187530517578125,-0.677276611328125
121240,0.4220733642578125,-0.158660888671875,-0.4072265625
121241,0.63348388671875,0.0650177001953125,0.3232574462890625
121242,0.621673583984375,-0.0672454833984375,0.3136444091796875
121243,0.621673583984375,-0.0672454833984375,0.3136444091796875
121244,0.5623931884765625,-0.190887451171875,0.2862091064453125
121245,0.3544769287109375,-0.108795166015625,-0.098663330078125
121246,0.3544769287109375,-0.108795166015625,-0.098663330078125
121247,0.3544769287109375,-0.108795166015625,-0.098663330078125
121248,0.3637847900390625,-0.0103607177734375,-0.07891845703125
121249,0.7421417236328125,-0.230987548828125,0.3701934814453125
121250,1.30914306640625,-0.6432342529296875,0.8896026611328125
121251,1.30914306640625,-0.6432342529296875,0.8896026611328125
121252,1.76678466796875,-0.9974365234375,0.9793701171875
121253,1.278488159179688,-1.320693969726562,1.472274780273438
121254,1.278488159179688,-1.320693969726562,1.472274780273438
121255,1.278488159179688,-1.320693969726562,1.472274780273438
121256,0.771484375,-1.663986206054688,2.359390258789062
121257,0.0515899658203125,-2.966644287109375,2.445999145507812
121258,0.0685577392578125,-3.311965942382812,2.302825927734375
121259,0.0685577392578125,-3.311965942382812,2.302825927734375
121260,0.231689453125,-2.968399047851562,2.41497802734375
121261,0.475921630859375,-1.329620361328125,1.609161376953125
121262,0.475921630859375,-1.329620361328125,1.609161376953125
121263,0.475921630859375,-1.329620361328125,1.609161376953125
121264,0.4080963134765625,-1.453231811523438,1.2552490234375
121265,0.515411376953125,-1.443130493164062,0.79339599609375
121266,0.7020416259765625,-1.23199462890625,0.6157989501953125
121267,0.7020416259765625,-1.23199462890625,0.6157989501953125
121268,0.7949981689453125,-0.938720703125,0.532867431640625
121269,0.5777435302734375,-0.392486572265625,0.307098388671875
121270,0.4625091552734375,-0.189544677734375,0.21484375
121271,0.4625091552734375,-0.189544677734375,0.21484375
121272,0.318603515625,-0.0465240478515625,0.12542724609375
121273,0.0452423095703125,0.1468353271484375,-0.094757080078125
121274,0.0296173095703125,0.1875762939453125,-0.1142730712890625
121275,0.0296173095703125,0.1875762939453125,-0.1142730712890625
121276,0.068084716796875,0.1665191650390625,-0.083160400390625
121277,0.16796875,0.0376739501953125,0.056182861328125
121278,0.1634368896484375,0.0198822021484375,0.14849853515625
121279,0.1634368896484375,0.0198822021484375,0.14849853515625
121280,0.0894012451171875,-0.0429840087890625,0.2440643310546875
121281,-0.290313720703125,-0.544891357421875,0.65960693359375
121282,-0.4856414794921875,-1.008041381835938,1.060806274414062
121283,-0.4856414794921875,-1.008041381835938,1.060806274414062
121284,-0.5919189453125,-1.440582275390625,1.306121826171875
121285,-0.5067138671875,-1.236831665039062,0.980133056640625
121286,-0.491119384765625,-0.764129638671875,0.9691162109375
121287,-0.491119384765625,-0.764129638671875,0.9691162109375
121288,-0.4448394775390625,-0.288848876953125,0.8241729736328125
121289,-0.127471923828125,0.04510498046875,-0.701446533203125
121290,-0.127471923828125,0.04510498046875,-0.701446533203125
121291,-0.073577880859375,0.065399169921875,-0.666290283203125
121292,0.0626983642578125,0.0916595458984375,-0.56298828125
121293,0.4826812744140625,-0.1040802001953125,-0.3307952880859375
121294,0.4826812744140625,-0.1040802001953125,-0.3307952880859375
121295,0.4826812744140625,-0.1040802001953125,-0.3307952880859375
121296,0.5782623291015625,-0.1994476318359375,-0.061676025390625
121297,0.2744293212890625,-0.2340850830078125,0.1085968017578125
121298,0.2744293212890625,-0.2340850830078125,0.1085968017578125
121299,0.2744293212890625,-0.2340850830078125,0.1085968017578125
121300,0.1560211181640625,-0.1894073486328125,-0.0968017578125
121301,0.0004119873046875,-0.066314697265625,-0.1369476318359375
121302,0.0004119873046875,-0.066314697265625,-0.1369476318359375
121303,0.0004119873046875,-0.066314697265625,-0.1369476318359375
121304,0.083953857421875,-0.06207275390625,0.0583953857421875
121305,1.199234008789062,-0.61981201171875,1.098907470703125
121306,1.903717041015625,-1.189971923828125,1.242263793945312
121307,1.903717041015625,-1.189971923828125,1.242263793945312
121308,2.149887084960938,-1.69927978515625,1.121841430664062
121309,1.2012939453125,-2.174484252929688,2.458526611328125
121310,0.71942138671875,-2.487899780273438,2.962722778320312
121311,0.71942138671875,-2.487899780273438,2.962722778320312
121312,0.2264251708984375,-2.873428344726562,2.7418212890625
121313,0.9340057373046876,-1.772232055664062,2.245834350585938
121314,0.9340057373046876,-1.772232055664062,2.245834350585938
121315,0.9340057373046876,-1.772232055664062,2.245834350585938
121316,0.95660400390625,-1.538711547851562,2.259963989257812
121317,0.2135467529296875,-1.550018310546875,1.179534912109375
121318,0.2135467529296875,-1.550018310546875,1.179534912109375
121319,0.2013397216796875,-1.31524658203125,1.000152587890625
121320,0.2013397216796875,-1.31524658203125,1.000152587890625
121321,0.5652618408203125,-0.493316650390625,0.4970703125
121322,0.5652618408203125,-0.493316650390625,0.4970703125
121323,0.5652618408203125,-0.493316650390625,0.4970703125
121324,0.64569091796875,-0.2840576171875,0.393951416015625
121325,0.43145751953125,0.11822509765625,0.19384765625
121326,0.43145751953125,0.11822509765625,0.19384765625
121327,0.2730255126953125,0.1974945068359375,0.187286376953125
121328,0.1270599365234375,0.2462921142578125,0.1479644775390625
121329,-0.0352325439453125,0.247161865234375,0.007537841796875
121330,-0.0352325439453125,0.247161865234375,0.007537841796875
121331,-0.0352325439453125,0.247161865234375,0.007537841796875
121332,-0.01043701171875,0.142730712890625,-0.038330078125
121333,0.1766510009765625,-0.2207489013671875,0.4673004150390625
121334,0.1766510009765625,-0.2207489013671875,0.4673004150390625
121335,0.1766510009765625,-0.2207489013671875,0.4673004150390625
121336,0.033538818359375,-0.3366851806640625,0.7404022216796875
121337,-0.758880615234375,-1.122695922851562,1.255889892578125
121338,-0.758880615234375,-1.122695922851562,1.255889892578125
121339,-0.758880615234375,-1.122695922851562,1.255889892578125
121340,-0.70196533203125,-1.282379150390625,1.0545654296875
121341,-0.401611328125,-0.964080810546875,0.84234619140625
121342,-0.34716796875,-0.5713348388671875,0.7616119384765625
121343,-0.34716796875,-0.5713348388671875,0.7616119384765625
121344,-0.3006134033203125,-0.2311248779296875,0.4391632080078125
121345,0.0248260498046875,0.0257415771484375,-0.7125701904296875
121346,0.0248260498046875,0.0257415771484375,-0.7125701904296875
121347,0.0248260498046875,0.0257415771484375,-0.7125701904296875
121348,0.0608978271484375,-0.0377197265625,-0.6666717529296875
121349,0.6321258544921875,-0.2543487548828125,0.1041107177734375
121350,0.6321258544921875,-0.2543487548828125,0.1041107177734375
121351,0.6321258544921875,-0.2543487548828125,0.1041107177734375
121352,0.682403564453125,-0.289642333984375,0.0919189453125
121353,0.104949951171875,-0.4574127197265625,0.1139373779296875
121354,0.104949951171875,-0.4574127197265625,0.1139373779296875
121355,0.104949951171875,-0.4574127197265625,0.1139373779296875
121356,-0.009033203125,-0.5333099365234375,0.1207275390625
121357,0.1552886962890625,-0.399505615234375,0.1016845703125
121358,0.1552886962890625,-0.399505615234375,0.1016845703125
121359,0.1552886962890625,-0.399505615234375,0.1016845703125
121360,0.399078369140625,-0.3271636962890625,0.176544189453125
121361,1.713699340820312,-0.43585205078125,0.515045166015625
121362,1.713699340820312,-0.43585205078125,0.515045166015625
121363,1.713699340820312,-0.43585205078125,0.515045166015625
121364,1.873580932617188,-0.7085113525390625,0.468902587890625
121365,1.341400146484375,-1.090499877929688,1.104660034179688
121366,1.083251953125,-1.121734619140625,1.786651611328125
121367,1.083251953125,-1.121734619140625,1.786651611328125
121368,0.9686737060546876,-1.254226684570312,2.407440185546875
121369,0.595001220703125,-2.36700439453125,2.055816650390625
121370,0.595001220703125,-2.36700439453125,2.055816650390625
121371,0.595001220703125,-2.36700439453125,2.055816650390625
121372,0.49053955078125,-2.489212036132812,1.647293090820312
121373,0.4534759521484375,-1.8948974609375,1.711959838867188
121374,0.4534759521484375,-1.8948974609375,1.711959838867188
121375,0.4534759521484375,-1.8948974609375,1.711959838867188
121376,0.6331024169921875,-1.760711669921875,1.61907958984375
121377,1.100753784179688,-1.1212158203125,0.6496429443359375
121378,1.100753784179688,-1.1212158203125,0.6496429443359375
121379,1.100753784179688,-1.1212158203125,0.6496429443359375
121380,1.054428100585938,-0.927276611328125,0.4893646240234375
121381,0.5105133056640625,-0.4607696533203125,0.4115142822265625
121382,0.5105133056640625,-0.4607696533203125,0.4115142822265625
121383,0.5105133056640625,-0.4607696533203125,0.4115142822265625
121384,0.29693603515625,-0.2938995361328125,0.3313446044921875
121385,-0.108795166015625,0.0484619140625,-0.089080810546875
121386,-0.108795166015625,0.0484619140625,-0.089080810546875
121387,-0.108795166015625,0.0484619140625,-0.089080810546875
121388,-0.11932373046875,0.0393829345703125,-0.1027679443359375
121389,-0.136383056640625,-0.4790496826171875,0.5543365478515625
121390,-0.136383056640625,-0.4790496826171875,0.5543365478515625
121391,-0.4420928955078125,-0.7934722900390625,0.80621337890625
121392,-0.8910675048828125,-1.144561767578125,1.0335693359375
121393,-1.403427124023438,-1.141082763671875,1.08905029296875
121394,-1.403427124023438,-1.141082763671875,1.08905029296875
121395,-1.403427124023438,-1.141082763671875,1.08905029296875
121396,-1.41851806640625,-0.8176422119140625,0.8714752197265625
121397,-0.543304443359375,-0.274627685546875,-0.19293212890625
121398,-0.543304443359375,-0.274627685546875,-0.19293212890625
121399,-0.543304443359375,-0.274627685546875,-0.19293212890625
121400,-0.3191986083984375,-0.1854705810546875,-0.3095855712890625
121401,0.1393890380859375,0.1093902587890625,-0.536285400390625
121402,0.1393890380859375,0.1093902587890625,-0.536285400390625
121403,0.1393890380859375,0.1093902587890625,-0.536285400390625
121404,0.2695159912109375,0.0276336669921875,-0.4410552978515625
121405,0.8646240234375,-0.2906951904296875,-0.0793609619140625
121406,0.8646240234375,-0.2906951904296875,-0.0793609619140625
121407,0.988983154296875,-0.2608795166015625,0.2173004150390625
121408,0.9451141357421876,-0.1883087158203125,0.3900604248046875
121409,0.4198760986328125,-0.1142120361328125,-0.060791015625
121410,0.4198760986328125,-0.1142120361328125,-0.060791015625
121411,0.4198760986328125,-0.1142120361328125,-0.060791015625
121412,0.18780517578125,-0.0904388427734375,-0.2323455810546875
121413,0.003448486328125,0.06781005859375,-0.4207305908203125
121414,0.003448486328125,0.06781005859375,-0.4207305908203125
121415,0.003448486328125,0.06781005859375,-0.4207305908203125
121416,0.0580291748046875,0.0608367919921875,-0.3915252685546875
121417,1.3935546875,-1.01641845703125,1.387985229492188
121418,1.3935546875,-1.01641845703125,1.387985229492188
121419,1.3935546875,-1.01641845703125,1.387985229492188
121420,1.933441162109375,-1.557235717773438,1.60888671875
121421,0.6583404541015625,-2.570892333984375,2.773422241210938
121422,0.6583404541015625,-2.570892333984375,2.773422241210938
121423,-0.1585540771484375,-2.738372802734375,2.786773681640625
121424,-0.152435302734375,-2.675582885742188,2.504486083984375
121425,1.076675415039062,-2.052734375,2.219757080078125
121426,1.076675415039062,-2.052734375,2.219757080078125
121427,1.076675415039062,-2.052734375,2.219757080078125
121428,1.379791259765625,-1.564727783203125,2.275100708007812
121429,0.5637054443359375,-1.369033813476562,1.0728759765625
121430,0.5637054443359375,-1.369033813476562,1.0728759765625
121431,0.5637054443359375,-1.369033813476562,1.0728759765625
121432,0.256561279296875,-1.283050537109375,0.8578338623046875
121433,0.3646392822265625,-0.8903961181640625,0.425994873046875
121434,0.3646392822265625,-0.8903961181640625,0.425994873046875
121435,0.3646392822265625,-0.8903961181640625,0.425994873046875
121436,0.5058746337890625,-0.7018280029296875,0.3496551513671875
121437,0.32470703125,0.0074462890625,0.179962158203125
121438,0.32470703125,0.0074462890625,0.179962158203125
121439,0.32470703125,0.0074462890625,0.179962158203125
121440,0.160888671875,0.1439056396484375,0.0538330078125
121441,-0.1964569091796875,0.2440032958984375,-0.0907745361328125
121442,-0.30523681640625,0.2205047607421875,-0.051239013671875
121443,-0.30523681640625,0.2205047607421875,-0.051239013671875
121444,-0.2592620849609375,0.2456817626953125,0.1130218505859375
121445,-0.1712799072265625,-0.2171478271484375,0.7726593017578125
121446,-0.1712799072265625,-0.2171478271484375,0.7726593017578125
121447,-0.1712799072265625,-0.2171478271484375,0.7726593017578125
121448,-0.520599365234375,-0.6302337646484375,1.209320068359375
121449,-1.110076904296875,-1.074676513671875,0.8072357177734375
121450,-1.110076904296875,-1.074676513671875,0.8072357177734375
121451,-1.110076904296875,-1.074676513671875,0.8072357177734375
121452,-0.9441986083984376,-0.8736724853515625,0.9509124755859376
121453,-0.2709808349609375,-0.408905029296875,-0.024932861328125
121454,-0.2709808349609375,-0.408905029296875,-0.024932861328125
121455,-0.0023956298828125,-0.1400299072265625,-0.25543212890625
121456,-0.0023956298828125,-0.1400299072265625,-0.25543212890625
121457,0.488555908203125,0.10577392578125,-0.623291015625
121458,0.488555908203125,0.10577392578125,-0.623291015625
121459,0.488555908203125,0.10577392578125,-0.623291015625
121460,0.5283355712890625,-0.0308380126953125,-0.6847686767578125
121461,0.70361328125,-0.080047607421875,0.305999755859375
121462,0.70361328125,-0.080047607421875,0.305999755859375
121463,0.598480224609375,-0.108673095703125,0.3717803955078125
121464,0.458831787109375,-0.147003173828125,0.329498291015625
121465,0.1881866455078125,-0.2724456787109375,-0.270477294921875
121466,0.1881866455078125,-0.2724456787109375,-0.270477294921875
121467,0.1881866455078125,-0.2724456787109375,-0.270477294921875
121468,0.1150665283203125,-0.2537384033203125,-0.37841796875
121469,0.406494140625,-0.1083831787109375,-0.0123138427734375
121470,0.406494140625,-0.1083831787109375,-0.0123138427734375
121471,0.406494140625,-0.1083831787109375,-0.0123138427734375
121472,0.796783447265625,-0.3000640869140625,0.490966796875
121473,1.758590698242188,-1.39141845703125,1.094482421875
121474,1.758590698242188,-1.39141845703125,1.094482421875
121475,1.758590698242188,-1.39141845703125,1.094482421875
121476,1.277603149414062,-1.425918579101562,1.4468994140625
121477,0.4062042236328125,-1.771804809570312,2.759445190429688
121478,0.1372528076171875,-2.323348999023438,3.080612182617188
121479,0.1372528076171875,-2.323348999023438,3.080612182617188
121480,0.050018310546875,-2.9490966796875,2.6676025390625
121481,1.038131713867188,-1.706100463867188,2.295394897460938
121482,1.038131713867188,-1.706100463867188,2.295394897460938
121483,1.038131713867188,-1.706100463867188,2.295394897460938
121484,1.07476806640625,-1.156326293945312,2.212539672851562
121485,0.4539031982421875,-1.391677856445312,1.074630737304688
121486,0.4539031982421875,-1.391677856445312,1.074630737304688
121487,0.4539031982421875,-1.391677856445312,1.074630737304688
121488,0.3872528076171875,-1.303955078125,0.830047607421875
121489,0.5787353515625,-0.548095703125,0.460601806640625
121490,0.5787353515625,-0.548095703125,0.460601806640625
121491,0.5346527099609375,-0.3805694580078125,0.423675537109375
121492,0.4015960693359375,-0.2356414794921875,0.3286285400390625
121493,0.1861114501953125,0.0623626708984375,0.2538299560546875
121494,0.1861114501953125,0.0623626708984375,0.2538299560546875
121495,0.1861114501953125,0.0623626708984375,0.2538299560546875
121496,0.1312255859375,0.1495208740234375,0.2057952880859375
121497,0.1184539794921875,0.1138763427734375,0.0971221923828125
121498,0.1184539794921875,0.1138763427734375,0.0971221923828125
121499,0.1184539794921875,0.1138763427734375,0.0971221923828125
121500,0.1555633544921875,0.047607421875,0.166046142578125
121501,-0.2435150146484375,-0.2876129150390625,0.8347320556640625
121502,-0.2435150146484375,-0.2876129150390625,0.8347320556640625
121503,-0.624359130859375,-0.6621551513671875,1.32537841796875
121504,-0.9599761962890624,-0.9782867431640624,1.707611083984375
121505,-0.8090667724609375,-1.020706176757812,0.865997314453125
121506,-0.8090667724609375,-1.020706176757812,0.865997314453125
121507,-0.8090667724609375,-1.020706176757812,0.865997314453125
121508,-0.7035369873046875,-0.7683868408203125,0.682830810546875
121509,-0.4230804443359375,-0.0341339111328125,-0.19964599609375
121510,-0.4230804443359375,-0.0341339111328125,-0.19964599609375
121511,-0.09246826171875,0.15484619140625,-0.753631591796875
121512,0.1229400634765625,0.1513519287109375,-0.8925628662109375
121513,0.3904266357421875,-0.156585693359375,-0.9003448486328125
121514,0.3904266357421875,-0.156585693359375,-0.9003448486328125
121515,0.3904266357421875,-0.156585693359375,-0.9003448486328125
121516,0.5585479736328125,-0.2002716064453125,-0.7129364013671875
121517,0.923004150390625,-0.35009765625,0.202117919921875
121518,0.923004150390625,-0.35009765625,0.202117919921875
121519,0.923004150390625,-0.35009765625,0.202117919921875
121520,0.6962432861328125,-0.394866943359375,0.387481689453125
121521,0.104736328125,-0.30364990234375,0.12506103515625
121522,0.104736328125,-0.30364990234375,0.12506103515625
121523,0.104736328125,-0.30364990234375,0.12506103515625
121524,0.044219970703125,-0.227142333984375,-0.062286376953125
121525,0.684661865234375,-0.2954559326171875,-0.0534820556640625
121526,0.684661865234375,-0.2954559326171875,-0.0534820556640625
121527,1.26483154296875,-0.51593017578125,0.486663818359375
121528,1.670791625976562,-0.820709228515625,0.968017578125
121529,1.629470825195312,-1.357162475585938,1.598373413085938
121530,1.629470825195312,-1.357162475585938,1.598373413085938
121531,1.300674438476562,-1.643661499023438,1.92626953125
121532,0.877716064453125,-1.951065063476562,2.389663696289062
121533,0.298065185546875,-3.139312744140625,2.499359130859375
121534,0.298065185546875,-3.139312744140625,2.499359130859375
121535,0.298065185546875,-3.139312744140625,2.499359130859375
121536,0.3364410400390625,-3.1873779296875,2.424789428710938
121537,0.6726531982421875,-1.609024047851562,2.126754760742188
121538,0.6726531982421875,-1.609024047851562,2.126754760742188
121539,0.5030670166015625,-1.452163696289062,2.02020263671875
121540,0.5030670166015625,-1.452163696289062,2.02020263671875
121541,0.2386474609375,-1.331527709960938,1.088027954101562
121542,0.2983856201171875,-1.10223388671875,0.72711181640625
121543,0.4633026123046875,-0.797637939453125,0.577880859375
121544,0.655364990234375,-0.5425872802734375,0.54150390625
121545,0.784149169921875,-0.3843536376953125,0.4644317626953125
121546,0.784149169921875,-0.3843536376953125,0.4644317626953125
121547,0.784149169921875,-0.3843536376953125,0.4644317626953125
121548,0.6573486328125,-0.3666534423828125,0.42608642578125
121549,0.2374725341796875,0.1077728271484375,0.1313323974609375
121550,0.2374725341796875,0.1077728271484375,0.1313323974609375
121551,0.2374725341796875,0.1077728271484375,0.1313323974609375
121552,0.1756134033203125,0.17401123046875,0.0177764892578125
121553,0.1172027587890625,0.2218475341796875,-0.1117706298828125
121554,0.1172027587890625,0.2218475341796875,-0.1117706298828125
121555,0.1172027587890625,0.2218475341796875,-0.1117706298828125
121556,0.136383056640625,0.204620361328125,0.029541015625
121557,-0.2054901123046875,-0.2001190185546875,0.3287200927734375
121558,-0.54150390625,-0.5182342529296875,0.6412506103515625
121559,-0.88043212890625,-1.010467529296875,1.377883911132812
121560,-1.017715454101562,-1.530929565429688,1.914337158203125
121561,-0.6226959228515625,-0.9759979248046876,0.63128662109375
121562,-0.6226959228515625,-0.9759979248046876,0.63128662109375
121563,-0.6226959228515625,-0.9759979248046876,0.63128662109375
121564,-0.3698272705078125,-0.4151458740234375,0.7101287841796875
121565,-0.00244140625,-0.10345458984375,-0.22918701171875
121566,-0.00244140625,-0.10345458984375,-0.22918701171875
121567,-0.00244140625,-0.10345458984375,-0.22918701171875
121568,0.05560302734375,0.041351318359375,-0.5828399658203125
121569,0.4376678466796875,-0.04541015625,-0.5488739013671875
121570,0.4376678466796875,-0.04541015625,-0.5488739013671875
121571,0.4376678466796875,-0.04541015625,-0.5488739013671875
121572,0.50396728515625,-0.2034759521484375,-0.4588775634765625
121573,0.43817138671875,-0.34503173828125,0.2578887939453125
121574,0.43817138671875,-0.34503173828125,0.2578887939453125
121575,0.43817138671875,-0.34503173828125,0.2578887939453125
121576,0.2833251953125,-0.101226806640625,0.356231689453125
121577,0.0055084228515625,0.089447021484375,0.039031982421875
121578,0.0055084228515625,0.089447021484375,0.039031982421875
121579,0.0055084228515625,0.089447021484375,0.039031982421875
121580,-0.072845458984375,0.0061492919921875,-0.15704345703125
121581,0.244354248046875,-0.236968994140625,-0.2523345947265625
121582,0.244354248046875,-0.236968994140625,-0.2523345947265625
121583,0.244354248046875,-0.236968994140625,-0.2523345947265625
121584,0.536773681640625,-0.4007415771484375,0.29278564453125
121585,1.794815063476562,-1.731353759765625,1.67303466796875
121586,1.794815063476562,-1.731353759765625,1.67303466796875
121587,1.794830322265625,-2.22662353515625,2.26519775390625
121588,1.450347900390625,-2.638427734375,2.706192016601562
121589,0.189697265625,-2.94488525390625,2.407012939453125
121590,0.189697265625,-2.94488525390625,2.407012939453125
121591,0.0866241455078125,-2.637542724609375,2.383941650390625
121592,0.3111724853515625,-2.260116577148438,2.274200439453125
121593,0.4808349609375,-1.810394287109375,1.881057739257812
121594,0.4808349609375,-1.810394287109375,1.881057739257812
121595,0.4808349609375,-1.810394287109375,1.881057739257812
121596,0.5260162353515625,-1.77154541015625,1.583541870117188
121597,0.7613983154296875,-1.303314208984375,0.7094268798828125
121598,0.7613983154296875,-1.303314208984375,0.7094268798828125
121599,0.9227294921875,-0.9804840087890624,0.4517364501953125
121600,0.9227294921875,-0.9804840087890624,0.4517364501953125
121601,0.922760009765625,-0.48138427734375,0.2725677490234375
121602,0.922760009765625,-0.48138427734375,0.2725677490234375
121603,0.922760009765625,-0.48138427734375,0.2725677490234375
121604,0.7558135986328125,-0.3072662353515625,0.2578887939453125
121605,0.0287017822265625,0.160430908203125,0.127593994140625
121606,0.0287017822265625,0.160430908203125,0.127593994140625
121607,0.0287017822265625,0.160430908203125,0.127593994140625
121608,-0.2950439453125,0.137176513671875,-0.1065826416015625
121609,-0.2564849853515625,-0.07373046875,-0.100006103515625
121610,-0.2564849853515625,-0.07373046875,-0.100006103515625
121611,-0.2564849853515625,-0.07373046875,-0.100006103515625
121612,-0.18035888671875,-0.221405029296875,-0.0041046142578125
121613,-0.4244232177734375,-0.53912353515625,0.383575439453125
121614,-0.6911773681640625,-0.83221435546875,0.859771728515625
121615,-0.6911773681640625,-0.83221435546875,0.859771728515625
121616,-0.8671722412109375,-1.12310791015625,1.394439697265625
121617,-0.6927642822265625,-0.78973388671875,0.8529052734375
121618,-0.6927642822265625,-0.78973388671875,0.8529052734375
121619,-0.76702880859375,-0.5001220703125,0.8671722412109375
121620,-0.66217041015625,-0.3454132080078125,0.2958221435546875
121621,-0.175628662109375,-0.2250518798828125,-0.4826507568359375
121622,-0.175628662109375,-0.2250518798828125,-0.4826507568359375
121623,-0.02978515625,-0.1735687255859375,-0.4413299560546875
121624,0.0699920654296875,-0.050994873046875,-0.45733642578125
121625,0.49505615234375,0.085296630859375,-0.499542236328125
121626,0.49505615234375,0.085296630859375,-0.499542236328125
121627,0.49505615234375,0.085296630859375,-0.499542236328125
121628,0.743499755859375,0.0259857177734375,-0.352294921875
121629,0.57928466796875,-0.343505859375,0.2601318359375
121630,0.57928466796875,-0.343505859375,0.2601318359375
121631,0.57928466796875,-0.343505859375,0.2601318359375
121632,0.40838623046875,-0.3977203369140625,0.3526611328125
121633,0.321258544921875,-0.201507568359375,0.07269287109375
121634,0.321258544921875,-0.201507568359375,0.07269287109375
121635,0.46380615234375,-0.110137939453125,0.0118408203125
121636,0.6770782470703125,-0.121856689453125,-0.07183837890625
121637,1.603927612304688,-0.5283203125,0.6333160400390625
121638,1.603927612304688,-0.5283203125,0.6333160400390625
121639,1.603927612304688,-0.5283203125,0.6333160400390625
121640,1.888687133789062,-0.825347900390625,0.932403564453125
121641,1.324264526367188,-1.086013793945312,1.342987060546875
121642,1.034942626953125,-1.269561767578125,2.162704467773438
121643,1.034942626953125,-1.269561767578125,2.162704467773438
121644,0.775543212890625,-1.659210205078125,2.981292724609375
121645,0.30023193359375,-2.783737182617188,1.867721557617188
121646,0.30023193359375,-2.783737182617188,1.867721557617188
121647,0.5194549560546875,-2.289993286132812,2.179168701171875
121648,0.5818328857421875,-1.838546752929688,2.346832275390625
121649,0.432952880859375,-1.824630737304688,1.888916015625
121650,0.432952880859375,-1.824630737304688,1.888916015625
121651,0.3518218994140625,-1.755661010742188,1.508941650390625
121652,0.31365966796875,-1.507034301757812,1.144378662109375
121653,0.387542724609375,-1.164337158203125,0.8180389404296875
121654,0.5098724365234375,-0.738189697265625,0.59765625
121655,0.6477813720703125,-0.3350677490234375,0.4541778564453125
121656,0.73699951171875,-0.090301513671875,0.2941131591796875
121657,0.5582275390625,0.0177459716796875,0.08685302734375
121658,0.5582275390625,0.0177459716796875,0.08685302734375
121659,0.5582275390625,0.0177459716796875,0.08685302734375
121660,0.39666748046875,0.1129150390625,0.111968994140625
121661,0.14788818359375,0.1808319091796875,0.30218505859375
121662,0.1125946044921875,0.1562652587890625,0.223419189453125
121663,0.1125946044921875,0.1562652587890625,0.223419189453125
121664,0.1359405517578125,0.1134185791015625,0.150604248046875
121665,0.3348388671875,-0.151641845703125,0.55792236328125
121666,0.3348388671875,-0.151641845703125,0.55792236328125
121667,0.19110107421875,-0.3001861572265625,0.840362548828125
121668,-0.1098480224609375,-0.591583251953125,1.02947998046875
121669,-0.954833984375,-1.572784423828125,1.457778930664062
121670,-0.954833984375,-1.572784423828125,1.457778930664062
121671,-1.210723876953125,-1.556381225585938,1.20477294921875
121672,-1.29052734375,-1.076446533203125,0.7396392822265625
121673,-0.9256134033203124,-0.26666259765625,0.0790557861328125
121674,-0.9256134033203124,-0.26666259765625,0.0790557861328125
121675,-0.9256134033203124,-0.26666259765625,0.0790557861328125
121676,-0.671234130859375,-0.2217559814453125,-0.3619232177734375
121677,0.0995635986328125,-0.08624267578125,-0.6923675537109375
121678,0.38092041015625,-0.0257110595703125,-0.7263336181640625
121679,0.5485382080078125,-0.057098388671875,-0.661376953125
121680,0.6659393310546875,-0.195709228515625,-0.512359619140625
121681,0.7491607666015625,-0.3304443359375,-0.2734375
121682,0.805633544921875,-0.3440399169921875,0.088104248046875
121683,0.805633544921875,-0.3440399169921875,0.088104248046875
121684,0.6192474365234375,0.008514404296875,0.5445709228515625
121685,0.4124603271484375,0.20550537109375,0.271270751953125
121686,0.4124603271484375,0.20550537109375,0.271270751953125
121687,0.4124603271484375,0.20550537109375,0.271270751953125
121688,0.265167236328125,0.1455230712890625,-0.0697784423828125
121689,0.176910400390625,-0.0792694091796875,-0.0484161376953125
121690,0.176910400390625,-0.0792694091796875,-0.0484161376953125
121691,0.2536163330078125,-0.15185546875,0.0419464111328125
121692,0.327850341796875,-0.305755615234375,0.073394775390625
121693,0.5194549560546875,-0.4959869384765625,0.461395263671875
121694,0.880126953125,-0.7358551025390625,1.117141723632812
121695,0.880126953125,-0.7358551025390625,1.117141723632812
121696,1.36376953125,-1.249160766601562,1.81695556640625
121697,0.5269775390625,-3.13201904296875,2.850112915039062
121698,0.5269775390625,-3.13201904296875,2.850112915039062
121699,0.5269775390625,-3.13201904296875,2.850112915039062
121700,-0.091949462890625,-3.53369140625,2.58648681640625
121701,1.029449462890625,-1.587295532226562,2.244842529296875
121702,1.029449462890625,-1.587295532226562,2.244842529296875
121703,1.265213012695312,-1.34820556640625,2.147811889648438
121704,1.190643310546875,-1.500930786132812,1.83831787109375
121705,0.663330078125,-1.6729736328125,0.9705810546875
121706,0.663330078125,-1.6729736328125,0.9705810546875
121707,0.663330078125,-1.6729736328125,0.9705810546875
121708,0.5260772705078125,-1.447052001953125,0.792694091796875
121709,0.84454345703125,-0.7120513916015625,0.3382415771484375
121710,0.84454345703125,-0.7120513916015625,0.3382415771484375
121711,0.84454345703125,-0.7120513916015625,0.3382415771484375
121712,0.93157958984375,-0.6855316162109375,0.2655792236328125
121713,0.3282470703125,0.066009521484375,0.2442474365234375
121714,0.3282470703125,0.066009521484375,0.2442474365234375
121715,0.0385894775390625,0.248504638671875,0.173675537109375
121716,-0.1490936279296875,0.338531494140625,-0.0028228759765625
121717,-0.22137451171875,0.165374755859375,-0.2200164794921875
121718,-0.22137451171875,0.165374755859375,-0.2200164794921875
121719,-0.0998077392578125,-0.07916259765625,-0.087127685546875
121720,0.0082550048828125,-0.2556915283203125,0.079071044921875
121721,-0.11749267578125,-0.346466064453125,0.4910430908203125
121722,-0.11749267578125,-0.346466064453125,0.4910430908203125
121723,-0.11749267578125,-0.346466064453125,0.4910430908203125
121724,-0.3442230224609375,-0.495025634765625,0.8690948486328125
121725,-0.803253173828125,-1.44775390625,1.087509155273438
121726,-0.803253173828125,-1.44775390625,1.087509155273438
121727,-0.803253173828125,-1.44775390625,1.087509155273438
121728,-0.925567626953125,-1.261932373046875,0.8095245361328125
121729,-0.8209991455078125,0.0228729248046875,0.0489044189453125
121730,-0.8209991455078125,0.0228729248046875,0.0489044189453125
121731,-0.57269287109375,0.0795440673828125,-0.4253692626953125
121732,-0.309722900390625,0.03094482421875,-0.565765380859375
121733,0.109222412109375,0.0240631103515625,-0.910614013671875
121734,0.109222412109375,0.0240631103515625,-0.910614013671875
121735,0.109222412109375,0.0240631103515625,-0.910614013671875
121736,0.369110107421875,0.031768798828125,-0.9017333984375
121737,0.8966827392578125,-0.07611083984375,-0.3141937255859375
121738,0.9984130859375,-0.189117431640625,-0.09686279296875
121739,0.9984130859375,-0.189117431640625,-0.09686279296875
121740,0.94921875,-0.2794342041015625,0.2461700439453125
121741,0.4705657958984375,-0.263702392578125,0.7030029296875
121742,0.303253173828125,-0.182403564453125,0.5979461669921875
121743,0.180267333984375,-0.080535888671875,0.36712646484375
121744,0.1306304931640625,0.0496368408203125,0.1429901123046875
121745,0.428070068359375,0.033599853515625,0.062896728515625
121746,0.428070068359375,0.033599853515625,0.062896728515625
121747,0.428070068359375,0.033599853515625,0.062896728515625
121748,1.181289672851562,-0.795684814453125,0.291015625
121749,1.682937622070312,-1.615875244140625,0.7929840087890625
121750,1.682937622070312,-1.615875244140625,0.7929840087890625
121751,1.682937622070312,-1.615875244140625,0.7929840087890625
121752,1.632110595703125,-1.74761962890625,1.571029663085938
121753,0.9625244140625,-2.36962890625,3.888275146484375
121754,0.489227294921875,-3.271072387695312,3.169784545898438
121755,0.237091064453125,-3.41845703125,2.020462036132812
121756,0.4063568115234375,-2.72955322265625,1.420425415039062
121757,0.545867919921875,-1.48779296875,1.585479736328125
121758,0.545867919921875,-1.48779296875,1.585479736328125
121759,0.3362884521484375,-1.106201171875,1.868865966796875
121760,0.2878265380859375,-0.963409423828125,1.930877685546875
121761,0.816192626953125,-1.267288208007812,1.098907470703125
121762,0.816192626953125,-1.267288208007812,1.098907470703125
121763,0.816192626953125,-1.267288208007812,1.098907470703125
121764,1.005661010742188,-1.151626586914062,0.6572265625
121765,0.8314666748046875,-0.3279571533203125,0.0664215087890625
121766,0.8314666748046875,-0.3279571533203125,0.0664215087890625
121767,0.69085693359375,-0.13714599609375,0.2031707763671875
121768,0.545166015625,0.019012451171875,0.303558349609375
121769,0.3876190185546875,0.145660400390625,0.313446044921875
121770,0.2501373291015625,0.2728424072265625,0.2823486328125
121771,0.1529388427734375,0.3329925537109375,0.22314453125
121772,0.086669921875,0.2736663818359375,0.142364501953125
121773,0.0270538330078125,-0.1019287109375,0.0715179443359375
121774,0.0270538330078125,-0.1019287109375,0.0715179443359375
121775,0.0270538330078125,-0.1019287109375,0.0715179443359375
121776,-0.0128631591796875,-0.2654266357421875,0.127410888671875
121777,-0.478546142578125,-0.60443115234375,0.91729736328125
121778,-0.478546142578125,-0.60443115234375,0.91729736328125
121779,-0.6875762939453125,-0.9721527099609376,1.3194580078125
121780,-0.801422119140625,-1.287643432617188,1.459304809570312
121781,-0.68939208984375,-1.075729370117188,0.941986083984375
121782,-0.68939208984375,-1.075729370117188,0.941986083984375
121783,-0.6041259765625,-0.754791259765625,0.9171295166015624
121784,-0.4636383056640625,-0.5035858154296875,0.794097900390625
121785,-0.0260162353515625,-0.1562652587890625,-0.4306488037109375
121786,-0.0260162353515625,-0.1562652587890625,-0.4306488037109375
121787,-0.0260162353515625,-0.1562652587890625,-0.4306488037109375
121788,0.1074066162109375,-0.0312347412109375,-0.67236328125
121789,0.2648468017578125,-0.1153717041015625,-0.7203826904296875
121790,0.2648468017578125,-0.1153717041015625,-0.7203826904296875
121791,0.38348388671875,-0.1414337158203125,-0.5077056884765625
121792,0.50543212890625,-0.1795654296875,-0.170928955078125
121793,0.6168670654296875,-0.4258575439453125,0.3786773681640625
121794,0.6168670654296875,-0.4258575439453125,0.3786773681640625
121795,0.6168670654296875,-0.4258575439453125,0.3786773681640625
121796,0.5333251953125,-0.44720458984375,0.45953369140625
121797,-0.0269927978515625,-0.015380859375,-0.28094482421875
121798,-0.0269927978515625,-0.015380859375,-0.28094482421875
121799,-0.06378173828125,0.037506103515625,-0.396942138671875
121800,0.0547637939453125,0.036712646484375,-0.3313140869140625
121801,0.2512969970703125,-0.012481689453125,-0.1556854248046875
121802,0.57427978515625,-0.1724395751953125,0.2512054443359375
121803,1.120346069335938,-0.5092620849609375,0.647979736328125
121804,1.628204345703125,-0.8420257568359375,0.8918914794921875
121805,1.910675048828125,-1.434860229492188,2.097366333007812
121806,1.910675048828125,-1.434860229492188,2.097366333007812
121807,1.742202758789062,-1.748046875,2.84381103515625
121808,1.372039794921875,-2.201080322265625,3.274887084960938
121809,-0.0074615478515625,-2.945648193359375,1.938613891601562
121810,-0.0074615478515625,-2.945648193359375,1.938613891601562
121811,-0.0074615478515625,-2.945648193359375,1.938613891601562
121812,0.05426025390625,-2.583755493164062,1.7677001953125
121813,0.89141845703125,-1.51708984375,1.86602783203125
121814,0.89141845703125,-1.51708984375,1.86602783203125
121815,0.9097137451171876,-1.743865966796875,1.518966674804688
121816,0.8802490234375,-1.912216186523438,0.92047119140625
121817,1.066741943359375,-1.636703491210938,0.346099853515625
121818,1.066741943359375,-1.636703491210938,0.346099853515625
121819,1.136260986328125,-1.28558349609375,0.2637786865234375
121820,1.1099853515625,-0.9222259521484376,0.1416015625
121821,0.7317657470703125,-0.406005859375,0.271087646484375
121822,0.7317657470703125,-0.406005859375,0.271087646484375
121823,0.412628173828125,-0.1376953125,0.302886962890625
121824,0.1210784912109375,0.08209228515625,0.164886474609375
121825,-0.22332763671875,0.1720428466796875,-0.129608154296875
121826,-0.22332763671875,0.1720428466796875,-0.129608154296875
121827,-0.2248077392578125,0.0368194580078125,-0.219207763671875
121828,-0.162811279296875,-0.187652587890625,-0.197052001953125
121829,-0.1326141357421875,-0.410980224609375,-0.025054931640625
121830,-0.17535400390625,-0.5530548095703125,0.332733154296875
121831,-0.349945068359375,-0.7400054931640625,0.781829833984375
121832,-0.70172119140625,-1.063186645507812,1.156326293945312
121833,-1.201873779296875,-1.437973022460938,1.398605346679688
121834,-1.201873779296875,-1.437973022460938,1.398605346679688
121835,-1.377914428710938,-1.149185180664062,1.208511352539062
121836,-1.26959228515625,-0.5489501953125,0.909576416015625
121837,-0.5926055908203125,-0.22125244140625,-0.0873565673828125
121838,-0.5926055908203125,-0.22125244140625,-0.0873565673828125
121839,-0.5926055908203125,-0.22125244140625,-0.0873565673828125
121840,-0.4213409423828125,-0.1853179931640625,-0.1072540283203125
121841,-0.131195068359375,0.017578125,-0.14569091796875
121842,0.0593109130859375,0.1167449951171875,-0.3549041748046875
121843,0.2161712646484375,0.1149749755859375,-0.539886474609375
121844,0.341033935546875,0.0009613037109375,-0.532012939453125
121845,0.578033447265625,-0.2220916748046875,-0.2712554931640625
121846,0.578033447265625,-0.2220916748046875,-0.2712554931640625
121847,0.625030517578125,-0.2999725341796875,-0.1157989501953125
121848,0.6107177734375,-0.37652587890625,0.084136962890625
121849,0.457000732421875,-0.371856689453125,0.1422271728515625
121850,0.457000732421875,-0.371856689453125,0.1422271728515625
121851,0.341522216796875,-0.178253173828125,0.253265380859375
121852,0.188629150390625,0.0369873046875,0.2768096923828125
121853,0.0527191162109375,0.1312713623046875,-0.0102386474609375
121854,0.0541534423828125,0.1363067626953125,-0.3246917724609375
121855,0.2338104248046875,0.1311187744140625,-0.3610076904296875
121856,0.537811279296875,0.156219482421875,-0.1182861328125
121857,1.482925415039062,-0.2708892822265625,0.5046539306640625
121858,1.482925415039062,-0.2708892822265625,0.5046539306640625
121859,1.482925415039062,-0.2708892822265625,0.5046539306640625
121860,1.914718627929688,-0.64306640625,0.5311431884765625
121861,1.843399047851562,-1.919708251953125,3.252166748046875
121862,1.843399047851562,-1.919708251953125,3.252166748046875
121863,1.843399047851562,-1.919708251953125,3.252166748046875
121864,0.2994384765625,-3.411636352539062,3.289962768554688
121865,-0.0845794677734375,-3.371337890625,2.445083618164062
121866,0.1414794921875,-2.591964721679688,1.938461303710938
121867,0.40679931640625,-1.760025024414062,1.876754760742188
121868,0.3748626708984375,-1.16412353515625,2.097564697265625
121869,0.2183380126953125,-1.193099975585938,1.730148315429688
121870,0.2183380126953125,-1.193099975585938,1.730148315429688
121871,0.299774169921875,-1.72564697265625,1.322006225585938
121872,0.46923828125,-1.875534057617188,0.9016571044921876
121873,0.8753509521484375,-1.209625244140625,0.344085693359375
121874,0.8753509521484375,-1.209625244140625,0.344085693359375
121875,0.8505859375,-0.8156585693359375,0.380859375
121876,0.7297821044921875,-0.474273681640625,0.4429779052734375
121877,0.4664306640625,-0.0390777587890625,0.3245849609375
121878,0.4664306640625,-0.0390777587890625,0.3245849609375
121879,0.3369903564453125,0.0255584716796875,0.2046966552734375
121880,0.2183837890625,0.065948486328125,0.0808868408203125
121881,0.016265869140625,0.06103515625,-0.079925537109375
121882,0.016265869140625,0.06103515625,-0.079925537109375
121883,-0.073944091796875,-0.0247650146484375,-0.0550537109375
121884,-0.122894287109375,-0.109130859375,0.0210723876953125
121885,-0.1674652099609375,-0.3450164794921875,0.34881591796875
121886,-0.1674652099609375,-0.3450164794921875,0.34881591796875
121887,-0.1674652099609375,-0.3450164794921875,0.34881591796875
121888,-0.3404693603515625,-0.5577850341796875,0.725067138671875
121889,-1.018218994140625,-1.434722900390625,1.187362670898438
121890,-1.018218994140625,-1.434722900390625,1.187362670898438
121891,-1.096939086914062,-1.164108276367188,0.9228363037109376
121892,-1.035568237304688,-0.6052703857421875,1.157379150390625
121893,-0.810302734375,-0.1979217529296875,0.7631988525390625
121894,-0.424774169921875,-0.0861968994140625,0.016143798828125
121895,-0.1067352294921875,-0.0641937255859375,-0.2884063720703125
121896,0.054412841796875,-0.0696868896484375,-0.3507232666015625
121897,0.1036376953125,-0.04144287109375,-0.5033416748046875
121898,0.0933685302734375,0.059326171875,-0.68560791015625
121899,0.1168212890625,0.0744171142578125,-0.7105712890625
121900,0.2182769775390625,-0.042510986328125,-0.6409912109375
121901,0.5826263427734375,-0.2226104736328125,-0.288970947265625
121902,0.5826263427734375,-0.2226104736328125,-0.288970947265625
121903,0.67071533203125,-0.1928558349609375,0.18310546875
121904,0.60125732421875,-0.123687744140625,0.5739288330078125
121905,0.310150146484375,-0.187713623046875,0.3654327392578125
121906,0.310150146484375,-0.187713623046875,0.3654327392578125
121907,0.1314239501953125,-0.199432373046875,0.016448974609375
121908,0.047393798828125,-0.158477783203125,-0.26275634765625
121909,0.23992919921875,0.011627197265625,-0.2605743408203125
121910,0.23992919921875,0.011627197265625,-0.2605743408203125
121911,0.46148681640625,-0.000335693359375,0.016021728515625
121912,0.9647674560546876,-0.26141357421875,0.4807891845703125
121913,2.287933349609375,-1.129501342773438,1.118576049804688
121914,2.287933349609375,-1.129501342773438,1.118576049804688
121915,2.287933349609375,-1.129501342773438,1.118576049804688
121916,2.384185791015625,-1.341049194335938,1.361358642578125
121917,1.066787719726562,-1.450042724609375,2.222091674804688
121918,0.418853759765625,-1.955581665039062,2.822998046875
121919,0.00628662109375,-2.675949096679688,2.598190307617188
121920,-0.0716552734375,-3.046646118164062,2.227081298828125
121921,0.19635009765625,-2.787872314453125,2.204818725585938
121922,0.4772186279296875,-2.1593017578125,2.197463989257812
121923,0.602447509765625,-1.587692260742188,2.14599609375
121924,0.6077117919921875,-1.417404174804688,1.99542236328125
121925,0.4985809326171875,-1.5264892578125,1.121871948242188
121926,0.4985809326171875,-1.5264892578125,1.121871948242188
121927,0.6368865966796875,-1.434402465820312,0.74114990234375
121928,0.8383331298828125,-1.210845947265625,0.618377685546875
121929,0.9783477783203124,-0.8727264404296875,0.6263885498046875
121930,0.9599151611328124,-0.5862579345703125,0.6329345703125
121931,0.7982940673828125,-0.46832275390625,0.603546142578125
121932,0.6519927978515625,-0.3774871826171875,0.5252838134765625
