time_idx,accelerometerAccelerationX(G),accelerometerAccelerationY(G),accelerometerAccelerationZ(G)
160000,-0.1312408447265625,-0.6857147216796875,0.527099609375
160001,-0.085357666015625,-0.7345123291015625,0.6001739501953125
160002,-0.085357666015625,-0.7345123291015625,0.6001739501953125
160003,0.0057525634765625,-0.7731170654296875,0.736724853515625
160004,0.08612060546875,-0.8035888671875,0.860809326171875
160005,0.1343231201171875,-0.816436767578125,0.9190521240234376
160006,0.15216064453125,-0.8026123046875,0.8841552734375
160007,0.1484527587890625,-0.7669677734375,0.7777252197265625
160008,0.1318511962890625,-0.735626220703125,0.6666717529296875
160009,0.0813751220703125,-0.7460784912109375,0.548858642578125
160010,0.0813751220703125,-0.7460784912109375,0.548858642578125
160011,0.0793914794921875,-0.769683837890625,0.54742431640625
160012,0.09716796875,-0.7776641845703125,0.560028076171875
160013,0.139312744140625,-0.7721710205078125,0.574920654296875
160014,0.2017822265625,-0.7597808837890625,0.56793212890625
160015,0.2669677734375,-0.7521514892578125,0.55078125
160016,0.3172149658203125,-0.74578857421875,0.5400238037109375
160017,0.3446502685546875,-0.7399444580078125,0.534271240234375
160018,0.36083984375,-0.7302398681640625,0.52545166015625
160019,0.36083984375,-0.7302398681640625,0.52545166015625
160020,0.3813018798828125,-0.7118377685546875,0.5066070556640625
160021,0.45648193359375,-0.6400146484375,0.4510498046875
160022,0.481842041015625,-0.58258056640625,0.483642578125
160023,0.4935302734375,-0.556121826171875,0.4816741943359375
160024,0.51837158203125,-0.56585693359375,0.4465179443359375
160025,0.6298370361328125,-0.6126556396484375,0.48089599609375
160026,0.6298370361328125,-0.6126556396484375,0.48089599609375
160027,0.6996002197265625,-0.655059814453125,0.5392913818359375
160028,0.7813262939453125,-0.7003936767578125,0.6042327880859375
160029,0.96563720703125,-0.7630157470703125,0.6865997314453125
160030,0.96563720703125,-0.7630157470703125,0.6865997314453125
160031,1.021835327148438,-0.772216796875,0.765380859375
160032,0.9918365478515624,-0.7502593994140625,0.8589935302734375
160033,0.87811279296875,-0.719146728515625,0.9066314697265624
160034,0.7437744140625,-0.7000579833984375,0.8877105712890625
160035,0.6311798095703125,-0.690338134765625,0.8027191162109375
160036,0.5401611328125,-0.661163330078125,0.7052001953125
160037,0.455169677734375,-0.5923004150390625,0.6594390869140625
160038,0.3831939697265625,-0.506744384765625,0.6529693603515625
160039,0.3349609375,-0.4362030029296875,0.64031982421875
160040,0.312469482421875,-0.3842926025390625,0.61248779296875
160041,0.326751708984375,-0.382080078125,0.5909271240234375
160042,0.326751708984375,-0.382080078125,0.5909271240234375
160043,0.326751708984375,-0.382080078125,0.5909271240234375
160044,0.364227294921875,-0.40350341796875,0.661529541015625
160045,0.466949462890625,-0.43798828125,0.81854248046875
160046,0.4936981201171875,-0.451995849609375,0.8458404541015625
160047,0.4936981201171875,-0.451995849609375,0.8458404541015625
160048,0.4789276123046875,-0.4753875732421875,0.84393310546875
160049,0.3039093017578125,-0.574127197265625,0.724822998046875
160050,0.19024658203125,-0.645660400390625,0.66619873046875
160051,0.19024658203125,-0.645660400390625,0.66619873046875
160052,0.0631561279296875,-0.729827880859375,0.6038665771484375
160053,-0.0703582763671875,-0.825836181640625,0.5213775634765625
160054,-0.05853271484375,-0.85443115234375,0.5020904541015625
160055,-0.05853271484375,-0.85443115234375,0.5020904541015625
160056,-0.05377197265625,-0.87335205078125,0.5231781005859375
160057,-0.1008758544921875,-0.881500244140625,0.596435546875
160058,-0.1246490478515625,-0.8840179443359375,0.6332550048828125
160059,-0.1246490478515625,-0.8840179443359375,0.6332550048828125
160060,-0.1350555419921875,-0.878692626953125,0.6661224365234375
160061,-0.1350555419921875,-0.878692626953125,0.6661224365234375
160062,-0.08428955078125,-0.8100433349609375,0.7066192626953125
160063,-0.0883026123046875,-0.7988128662109375,0.681793212890625
160064,-0.119415283203125,-0.8224945068359375,0.6345062255859375
160065,-0.219818115234375,-0.85614013671875,0.5789031982421875
160066,-0.219818115234375,-0.85614013671875,0.5789031982421875
160067,-0.219818115234375,-0.85614013671875,0.5789031982421875
160068,-0.2475738525390625,-0.8395843505859375,0.601043701171875
160069,-0.220428466796875,-0.794036865234375,0.641448974609375
160070,-0.0185394287109375,-0.6936187744140625,0.686798095703125
160071,-0.0185394287109375,-0.6936187744140625,0.686798095703125
160072,0.0930633544921875,-0.630401611328125,0.72161865234375
160073,0.27056884765625,-0.5285491943359375,0.746368408203125
160074,0.345672607421875,-0.5130767822265625,0.744354248046875
160075,0.345672607421875,-0.5130767822265625,0.744354248046875
160076,0.41552734375,-0.5146331787109375,0.742156982421875
160077,0.52862548828125,-0.46417236328125,0.7368621826171875
160078,0.5561981201171875,-0.4352874755859375,0.702117919921875
160079,0.5561981201171875,-0.4352874755859375,0.702117919921875
160080,0.5672149658203125,-0.4100341796875,0.6512298583984375
160081,0.6303558349609375,-0.3770294189453125,0.5894622802734375
160082,0.8384552001953125,-0.4177703857421875,0.6527252197265625
160083,0.8384552001953125,-0.4177703857421875,0.6527252197265625
160084,0.9954986572265624,-0.4673614501953125,0.72021484375
160085,1.11944580078125,-0.508087158203125,0.79022216796875
160086,1.176116943359375,-0.507171630859375,0.8436737060546875
160087,1.176116943359375,-0.507171630859375,0.8436737060546875
160088,1.153778076171875,-0.456939697265625,0.86676025390625
160089,0.9701385498046876,-0.3619384765625,0.8154296875
160090,0.85357666015625,-0.398193359375,0.77008056640625
160091,0.85357666015625,-0.398193359375,0.77008056640625
160092,0.7324066162109375,-0.4633026123046875,0.735321044921875
160093,0.471343994140625,-0.647857666015625,0.6548004150390625
160094,0.3466644287109375,-0.7322235107421875,0.6205291748046875
160095,0.258758544921875,-0.7753143310546875,0.609619140625
160096,0.2017364501953125,-0.7796478271484375,0.57568359375
160097,0.1761627197265625,-0.7664642333984375,0.5367431640625
160098,0.182342529296875,-0.7496490478515625,0.514129638671875
160099,0.182342529296875,-0.7496490478515625,0.514129638671875
160100,0.2090606689453125,-0.7447052001953125,0.50750732421875
160101,0.31884765625,-0.746673583984375,0.5228424072265625
160102,0.3917694091796875,-0.7452850341796875,0.52716064453125
160103,0.3917694091796875,-0.7452850341796875,0.52716064453125
160104,0.4539947509765625,-0.7449798583984375,0.554840087890625
160105,0.4834136962890625,-0.7967071533203125,0.647674560546875
160106,0.4383087158203125,-0.8374176025390625,0.7149505615234375
160107,0.339508056640625,-0.864105224609375,0.79351806640625
160108,0.187469482421875,-0.8826751708984375,0.8595123291015625
160109,-0.1831817626953125,-0.882568359375,0.911224365234375
160110,-0.1831817626953125,-0.882568359375,0.911224365234375
160111,-0.1831817626953125,-0.882568359375,0.911224365234375
160112,-0.32781982421875,-0.7899017333984375,0.912841796875
160113,-0.439208984375,-0.641876220703125,0.7449493408203125
160114,-0.43841552734375,-0.6510467529296875,0.632598876953125
160115,-0.43841552734375,-0.6510467529296875,0.632598876953125
160116,-0.38134765625,-0.69720458984375,0.55072021484375
160117,-0.196441650390625,-0.719573974609375,0.579833984375
160118,-0.095916748046875,-0.6998443603515625,0.661285400390625
160119,-0.095916748046875,-0.6998443603515625,0.661285400390625
160120,0.016082763671875,-0.6718292236328125,0.7376556396484375
160121,0.1610260009765625,-0.6533203125,0.7185516357421875
160122,0.1610260009765625,-0.6533203125,0.7185516357421875
160123,0.1562652587890625,-0.6817626953125,0.658111572265625
160124,0.145172119140625,-0.7186126708984375,0.6171417236328125
160125,0.162750244140625,-0.793426513671875,0.5753631591796875
160126,0.162750244140625,-0.793426513671875,0.5753631591796875
160127,0.162750244140625,-0.793426513671875,0.5753631591796875
160128,0.1932220458984375,-0.808685302734375,0.58636474609375
160129,0.2982177734375,-0.758636474609375,0.640960693359375
160130,0.3316192626953125,-0.755950927734375,0.6332550048828125
160131,0.3316192626953125,-0.755950927734375,0.6332550048828125
160132,0.3682403564453125,-0.7563323974609375,0.6209716796875
160133,0.4403839111328125,-0.771942138671875,0.614593505859375
160134,0.49658203125,-0.7755584716796875,0.59893798828125
160135,0.49658203125,-0.7755584716796875,0.59893798828125
160136,0.5587921142578125,-0.7755279541015625,0.56982421875
160137,0.66339111328125,-0.677581787109375,0.4945526123046875
160138,0.66339111328125,-0.677581787109375,0.4945526123046875
160139,0.66339111328125,-0.677581787109375,0.4945526123046875
160140,0.6535186767578125,-0.59881591796875,0.47509765625
160141,0.6737213134765625,-0.488189697265625,0.4877471923828125
160142,0.724212646484375,-0.494537353515625,0.52655029296875
160143,0.724212646484375,-0.494537353515625,0.52655029296875
160144,0.78167724609375,-0.555145263671875,0.5740814208984375
160145,0.835693359375,-0.664337158203125,0.723419189453125
160146,0.835693359375,-0.664337158203125,0.723419189453125
160147,0.835693359375,-0.664337158203125,0.723419189453125
160148,0.839141845703125,-0.7389068603515625,0.79986572265625
160149,0.8191070556640625,-0.9100494384765624,0.890777587890625
160150,0.777587890625,-0.9459686279296876,0.8735809326171875
160151,0.777587890625,-0.9459686279296876,0.8735809326171875
160152,0.689483642578125,-0.9142303466796876,0.821868896484375
160153,0.4123382568359375,-0.7544097900390625,0.7249755859375
160154,0.2748260498046875,-0.6600494384765625,0.6709442138671875
160155,0.2748260498046875,-0.6600494384765625,0.6709442138671875
160156,0.192474365234375,-0.59271240234375,0.60491943359375
160157,0.163604736328125,-0.549591064453125,0.5744171142578125
160158,0.1869049072265625,-0.5814361572265625,0.562591552734375
160159,0.1869049072265625,-0.5814361572265625,0.562591552734375
160160,0.23260498046875,-0.6003570556640625,0.5980987548828125
160161,0.2188568115234375,-0.6275482177734375,0.7825164794921875
160162,0.1189727783203125,-0.6894073486328125,0.903656005859375
160163,0.0368194580078125,-0.708251953125,0.9464263916015624
160164,0.03076171875,-0.682830810546875,0.7951202392578125
160165,0.0990142822265625,-0.681243896484375,0.622802734375
160166,0.1398468017578125,-0.6925201416015625,0.541259765625
160167,0.1398468017578125,-0.6925201416015625,0.541259765625
160168,0.0914459228515625,-0.692840576171875,0.410491943359375
160169,-0.1254730224609375,-0.8732452392578125,0.4243621826171875
160170,-0.1254730224609375,-0.8732452392578125,0.4243621826171875
160171,-0.1254730224609375,-0.8732452392578125,0.4243621826171875
160172,-0.162689208984375,-0.907928466796875,0.5310516357421875
160173,-0.196624755859375,-0.943511962890625,0.705780029296875
160174,-0.107269287109375,-0.977874755859375,0.7965240478515625
160175,-0.107269287109375,-0.977874755859375,0.7965240478515625
160176,0.0389251708984375,-0.9816131591796876,0.8850555419921875
160177,0.23553466796875,-0.88067626953125,0.8389739990234375
160178,0.2767181396484375,-0.778076171875,0.7864227294921875
160179,0.2767181396484375,-0.778076171875,0.7864227294921875
160180,0.243560791015625,-0.70361328125,0.6270599365234375
160181,0.0476226806640625,-0.7620086669921875,0.476715087890625
160182,-0.043243408203125,-0.81585693359375,0.446746826171875
160183,-0.043243408203125,-0.81585693359375,0.446746826171875
160184,-0.1066131591796875,-0.8638153076171875,0.4440765380859375
160185,-0.090545654296875,-0.82073974609375,0.671417236328125
160186,-0.0201568603515625,-0.75152587890625,0.7438507080078125
160187,-0.0201568603515625,-0.75152587890625,0.7438507080078125
160188,0.07232666015625,-0.7061004638671875,0.75067138671875
160189,0.242431640625,-0.599853515625,0.736328125
160190,0.281890869140625,-0.5443572998046875,0.722900390625
160191,0.281890869140625,-0.5443572998046875,0.722900390625
160192,0.2900238037109375,-0.49951171875,0.68896484375
160193,0.269805908203125,-0.428619384765625,0.63043212890625
160194,0.269805908203125,-0.428619384765625,0.63043212890625
160195,0.269805908203125,-0.428619384765625,0.63043212890625
160196,0.2837982177734375,-0.4053192138671875,0.6330108642578125
160197,0.34295654296875,-0.330596923828125,0.5684661865234375
160198,0.34295654296875,-0.330596923828125,0.5684661865234375
160199,0.34295654296875,-0.330596923828125,0.5684661865234375
160200,0.3856048583984375,-0.29473876953125,0.5450439453125
160201,0.6712493896484375,-0.334808349609375,0.6823883056640625
160202,0.6712493896484375,-0.334808349609375,0.6823883056640625
160203,0.6712493896484375,-0.334808349609375,0.6823883056640625
160204,0.81109619140625,-0.3976287841796875,0.8097381591796875
160205,0.96893310546875,-0.524871826171875,1.10467529296875
160206,0.96893310546875,-0.524871826171875,1.10467529296875
160207,0.96893310546875,-0.524871826171875,1.10467529296875
160208,0.841278076171875,-0.4750518798828125,1.094741821289062
160209,0.316925048828125,-0.480621337890625,0.79022216796875
160210,0.316925048828125,-0.480621337890625,0.79022216796875
160211,0.1685638427734375,-0.5607757568359375,0.68670654296875
160212,0.1685638427734375,-0.5607757568359375,0.68670654296875
160213,0.0086822509765625,-0.721923828125,0.50836181640625
160214,0.010772705078125,-0.788116455078125,0.4196624755859375
160215,0.010772705078125,-0.788116455078125,0.4196624755859375
160216,0.065093994140625,-0.845855712890625,0.3782958984375
160217,0.35394287109375,-0.881927490234375,0.526397705078125
160218,0.35394287109375,-0.881927490234375,0.526397705078125
160219,0.35394287109375,-0.881927490234375,0.526397705078125
160220,0.4298248291015625,-0.867950439453125,0.569580078125
160221,0.59185791015625,-0.8831024169921875,0.70709228515625
160222,0.59185791015625,-0.8831024169921875,0.70709228515625
160223,0.59185791015625,-0.8831024169921875,0.70709228515625
160224,0.627105712890625,-0.908843994140625,0.6975860595703125
160225,0.58245849609375,-0.8467254638671875,0.7246856689453125
160226,0.58245849609375,-0.8467254638671875,0.7246856689453125
160227,0.58245849609375,-0.8467254638671875,0.7246856689453125
160228,0.463592529296875,-0.813140869140625,0.74993896484375
160229,0.086273193359375,-0.7432708740234375,0.857147216796875
160230,0.086273193359375,-0.7432708740234375,0.857147216796875
160231,0.086273193359375,-0.7432708740234375,0.857147216796875
160232,-0.0286102294921875,-0.7412109375,0.8714447021484375
160233,-0.33349609375,-0.7312164306640625,0.7900848388671875
160234,-0.2332763671875,-0.7904205322265625,0.6808624267578125
160235,-0.0884246826171875,-0.786529541015625,0.5969696044921875
160236,-0.08245849609375,-0.7890625,0.5751190185546875
160237,-0.12677001953125,-0.8064422607421875,0.6568450927734375
160238,-0.12677001953125,-0.8064422607421875,0.6568450927734375
160239,-0.12677001953125,-0.8064422607421875,0.6568450927734375
160240,-0.145416259765625,-0.78851318359375,0.7333526611328125
160241,-0.179351806640625,-0.737030029296875,0.591461181640625
160242,-0.179351806640625,-0.737030029296875,0.591461181640625
160243,-0.179351806640625,-0.737030029296875,0.591461181640625
160244,-0.207489013671875,-0.7569122314453125,0.4991607666015625
160245,-0.176727294921875,-0.8518218994140625,0.4544219970703125
160246,-0.1249847412109375,-0.86785888671875,0.4536895751953125
160247,-0.1249847412109375,-0.86785888671875,0.4536895751953125
160248,-0.0546722412109375,-0.856414794921875,0.4456024169921875
160249,0.263153076171875,-0.752105712890625,0.5079193115234375
160250,0.263153076171875,-0.752105712890625,0.5079193115234375
160251,0.263153076171875,-0.752105712890625,0.5079193115234375
160252,0.36456298828125,-0.7328338623046875,0.5518341064453125
160253,0.5983734130859375,-0.7321624755859375,0.6274871826171875
160254,0.5983734130859375,-0.7321624755859375,0.6274871826171875
160255,0.5983734130859375,-0.7321624755859375,0.6274871826171875
160256,0.6568450927734375,-0.692901611328125,0.604248046875
160257,0.71990966796875,-0.59722900390625,0.5438690185546875
160258,0.7280731201171875,-0.5583953857421875,0.501434326171875
160259,0.7280731201171875,-0.5583953857421875,0.501434326171875
160260,0.728485107421875,-0.5298309326171875,0.4853057861328125
160261,0.9091339111328124,-0.6562042236328125,0.6094512939453125
160262,0.9091339111328124,-0.6562042236328125,0.6094512939453125
160263,0.974029541015625,-0.708282470703125,0.6138763427734375
160264,0.99072265625,-0.7448883056640625,0.6131134033203125
160265,0.9168853759765624,-0.760498046875,0.6766815185546875
160266,0.9168853759765624,-0.760498046875,0.6766815185546875
160267,0.9168853759765624,-0.760498046875,0.6766815185546875
160268,0.8588104248046875,-0.77655029296875,0.7249603271484375
160269,0.583465576171875,-0.7563629150390625,0.7407073974609375
160270,0.583465576171875,-0.7563629150390625,0.7407073974609375
160271,0.583465576171875,-0.7563629150390625,0.7407073974609375
160272,0.4733123779296875,-0.7169952392578125,0.696014404296875
160273,0.2755889892578125,-0.641265869140625,0.6376953125
160274,0.1970977783203125,-0.6121978759765625,0.6211090087890625
160275,0.1970977783203125,-0.6121978759765625,0.6211090087890625
160276,0.1527099609375,-0.5931854248046875,0.60614013671875
160277,0.1768646240234375,-0.5601806640625,0.649078369140625
160278,0.1768646240234375,-0.5601806640625,0.649078369140625
160279,0.1768646240234375,-0.5601806640625,0.649078369140625
160280,0.181182861328125,-0.5752410888671875,0.7091217041015625
160281,0.027587890625,-0.744781494140625,0.851837158203125
160282,0.027587890625,-0.744781494140625,0.851837158203125
160283,0.027587890625,-0.744781494140625,0.851837158203125
160284,-0.115997314453125,-0.798065185546875,0.87322998046875
160285,-0.1841888427734375,-0.7732086181640625,0.5077667236328125
160286,-0.1841888427734375,-0.7732086181640625,0.5077667236328125
160287,-0.1841888427734375,-0.7732086181640625,0.5077667236328125
160288,-0.1262664794921875,-0.738800048828125,0.463592529296875
160289,0.0402374267578125,-0.813934326171875,0.4833526611328125
160290,0.0402374267578125,-0.813934326171875,0.4833526611328125
160291,0.0402374267578125,-0.813934326171875,0.4833526611328125
160292,0.0892333984375,-0.8425750732421875,0.565704345703125
160293,0.141387939453125,-0.8400421142578125,0.8333282470703125
160294,0.141387939453125,-0.8400421142578125,0.8333282470703125
160295,0.141387939453125,-0.8400421142578125,0.8333282470703125
160296,0.184539794921875,-0.8305206298828125,0.86102294921875
160297,0.2166595458984375,-0.8586883544921875,0.590728759765625
160298,0.2166595458984375,-0.8586883544921875,0.590728759765625
160299,0.2166595458984375,-0.8586883544921875,0.590728759765625
160300,0.1382904052734375,-0.87725830078125,0.5308837890625
160301,-0.104095458984375,-0.8897705078125,0.65093994140625
160302,-0.104095458984375,-0.8897705078125,0.65093994140625
160303,-0.104095458984375,-0.8897705078125,0.65093994140625
160304,-0.078369140625,-0.82958984375,0.743560791015625
160305,0.1737518310546875,-0.579193115234375,0.6676788330078125
160306,0.1737518310546875,-0.579193115234375,0.6676788330078125
160307,0.1737518310546875,-0.579193115234375,0.6676788330078125
160308,0.2314910888671875,-0.5514678955078125,0.6663055419921875
160309,0.32232666015625,-0.533721923828125,0.6602783203125
160310,0.32232666015625,-0.533721923828125,0.6602783203125
160311,0.361602783203125,-0.5188140869140625,0.656982421875
160312,0.3987884521484375,-0.512969970703125,0.6758575439453125
160313,0.4339752197265625,-0.4858856201171875,0.6845855712890625
160314,0.464508056640625,-0.472259521484375,0.6734771728515625
160315,0.464508056640625,-0.472259521484375,0.6734771728515625
160316,0.4597015380859375,-0.4773406982421875,0.661773681640625
160317,0.393035888671875,-0.463623046875,0.56134033203125
160318,0.393035888671875,-0.463623046875,0.56134033203125
160319,0.393035888671875,-0.463623046875,0.56134033203125
160320,0.427276611328125,-0.443023681640625,0.5714569091796875
160321,0.6673736572265625,-0.493621826171875,0.791534423828125
160322,0.6673736572265625,-0.493621826171875,0.791534423828125
160323,0.6673736572265625,-0.493621826171875,0.791534423828125
160324,0.7279815673828125,-0.533355712890625,0.8599853515625
160325,0.6780853271484375,-0.4907989501953125,0.942230224609375
160326,0.6780853271484375,-0.4907989501953125,0.942230224609375
160327,0.6780853271484375,-0.4907989501953125,0.942230224609375
160328,0.596954345703125,-0.457794189453125,0.94366455078125
160329,0.33526611328125,-0.4640960693359375,0.8035736083984375
160330,0.33526611328125,-0.4640960693359375,0.8035736083984375
160331,0.33526611328125,-0.4640960693359375,0.8035736083984375
160332,0.302825927734375,-0.5154266357421875,0.74908447265625
160333,0.2959442138671875,-0.669647216796875,0.6075592041015625
160334,0.2959442138671875,-0.669647216796875,0.6075592041015625
160335,0.2959442138671875,-0.669647216796875,0.6075592041015625
160336,0.307037353515625,-0.69775390625,0.5730438232421875
160337,0.34735107421875,-0.737823486328125,0.5305328369140625
160338,0.34735107421875,-0.737823486328125,0.5305328369140625
160339,0.34735107421875,-0.737823486328125,0.5305328369140625
160340,0.3870086669921875,-0.7602996826171875,0.53076171875
160341,0.5587158203125,-0.74664306640625,0.55975341796875
160342,0.5587158203125,-0.74664306640625,0.55975341796875
160343,0.573150634765625,-0.7391357421875,0.593841552734375
160344,0.573150634765625,-0.7391357421875,0.593841552734375
160345,0.3118438720703125,-0.82452392578125,0.7842254638671875
160346,0.3118438720703125,-0.82452392578125,0.7842254638671875
160347,0.3118438720703125,-0.82452392578125,0.7842254638671875
160348,0.1131591796875,-0.9246978759765624,0.779541015625
160349,-0.03680419921875,-0.8626861572265625,0.747833251953125
160350,-0.03680419921875,-0.8626861572265625,0.747833251953125
160351,0.1943359375,-0.8322296142578125,0.53607177734375
160352,0.136260986328125,-0.83502197265625,0.4158935546875
160353,-0.060577392578125,-0.834564208984375,0.498077392578125
160354,-0.060577392578125,-0.834564208984375,0.498077392578125
160355,-0.060577392578125,-0.834564208984375,0.498077392578125
160356,-0.138458251953125,-0.824310302734375,0.577911376953125
160357,-0.2447662353515625,-0.7672576904296875,0.572784423828125
160358,-0.2447662353515625,-0.7672576904296875,0.572784423828125
160359,-0.2447662353515625,-0.7672576904296875,0.572784423828125
160360,-0.176788330078125,-0.76654052734375,0.5917510986328125
160361,-0.0121002197265625,-0.7142333984375,0.6167449951171875
160362,-0.0121002197265625,-0.7142333984375,0.6167449951171875
160363,0.04754638671875,-0.7304229736328125,0.6204833984375
160364,0.116546630859375,-0.7468109130859375,0.6216583251953125
160365,0.2763214111328125,-0.7399749755859375,0.6071929931640625
160366,0.2763214111328125,-0.7399749755859375,0.6071929931640625
160367,0.2763214111328125,-0.7399749755859375,0.6071929931640625
160368,0.3528289794921875,-0.7293548583984375,0.577117919921875
160369,0.528533935546875,-0.7062225341796875,0.418365478515625
160370,0.528533935546875,-0.7062225341796875,0.418365478515625
160371,0.528533935546875,-0.7062225341796875,0.418365478515625
160372,0.5716094970703125,-0.67864990234375,0.4281463623046875
160373,0.712615966796875,-0.5624847412109375,0.579345703125
160374,0.712615966796875,-0.5624847412109375,0.579345703125
160375,0.712615966796875,-0.5624847412109375,0.579345703125
160376,0.7989501953125,-0.527679443359375,0.65045166015625
160377,1.150421142578125,-0.6123504638671875,0.9219207763671876
160378,1.150421142578125,-0.6123504638671875,0.9219207763671876
160379,1.150421142578125,-0.6123504638671875,0.9219207763671876
160380,1.27880859375,-0.661285400390625,0.9604949951171876
160381,1.090499877929688,-0.6708831787109375,0.75640869140625
160382,1.090499877929688,-0.6708831787109375,0.75640869140625
160383,1.090499877929688,-0.6708831787109375,0.75640869140625
160384,0.8973541259765625,-0.6007232666015625,0.631256103515625
160385,0.691986083984375,-0.58892822265625,0.4873504638671875
160386,0.66119384765625,-0.6073760986328125,0.4741668701171875
160387,0.66119384765625,-0.6073760986328125,0.4741668701171875
160388,0.631134033203125,-0.6034088134765625,0.50457763671875
160389,0.5452423095703125,-0.543975830078125,0.7772979736328125
160390,0.5452423095703125,-0.543975830078125,0.7772979736328125
160391,0.5452423095703125,-0.543975830078125,0.7772979736328125
160392,0.5181427001953125,-0.541595458984375,0.8123016357421875
160393,0.3772735595703125,-0.4474029541015625,0.7380828857421875
160394,0.3772735595703125,-0.4474029541015625,0.7380828857421875
160395,0.3772735595703125,-0.4474029541015625,0.7380828857421875
160396,0.2587432861328125,-0.4312286376953125,0.7057037353515625
160397,-0.1144561767578125,-0.406219482421875,0.6372222900390625
160398,-0.1144561767578125,-0.406219482421875,0.6372222900390625
160399,-0.1144561767578125,-0.406219482421875,0.6372222900390625
160400,-0.2075653076171875,-0.4561004638671875,0.759246826171875
160401,-0.014678955078125,-0.6526336669921875,0.554168701171875
160402,-0.014678955078125,-0.6526336669921875,0.554168701171875
160403,-0.014678955078125,-0.6526336669921875,0.554168701171875
160404,0.0447235107421875,-0.658935546875,0.4749603271484375
160405,0.1842041015625,-0.5630645751953125,0.411712646484375
160406,0.1842041015625,-0.5630645751953125,0.411712646484375
160407,0.1842041015625,-0.5630645751953125,0.411712646484375
160408,0.224456787109375,-0.5699462890625,0.3765106201171875
160409,0.2803497314453125,-0.687042236328125,0.4760284423828125
160410,0.2803497314453125,-0.687042236328125,0.4760284423828125
160411,0.2803497314453125,-0.687042236328125,0.4760284423828125
160412,0.279296875,-0.7355194091796875,0.5550384521484375
160413,0.2335205078125,-0.844268798828125,0.746734619140625
160414,0.164093017578125,-0.92022705078125,0.8393402099609375
160415,0.164093017578125,-0.92022705078125,0.8393402099609375
160416,0.0517120361328125,-1.004104614257812,0.891845703125
160417,-0.3332061767578125,-1.150787353515625,0.8842926025390625
160418,-0.3332061767578125,-1.150787353515625,0.8842926025390625
160419,-0.3332061767578125,-1.150787353515625,0.8842926025390625
160420,-0.38995361328125,-1.0838623046875,0.8596649169921875
160421,-0.1746063232421875,-0.735595703125,0.632232666015625
160422,-0.1746063232421875,-0.735595703125,0.632232666015625
160423,-0.1746063232421875,-0.735595703125,0.632232666015625
160424,-0.067657470703125,-0.6885528564453125,0.6389007568359375
160425,0.2222442626953125,-0.6208343505859375,0.746002197265625
160426,0.2222442626953125,-0.6208343505859375,0.746002197265625
160427,0.3347015380859375,-0.595977783203125,0.742095947265625
160428,0.4493560791015625,-0.571685791015625,0.7105560302734375
160429,0.627960205078125,-0.5283660888671875,0.597808837890625
160430,0.627960205078125,-0.5283660888671875,0.597808837890625
160431,0.678131103515625,-0.486083984375,0.57867431640625
160432,0.7516632080078125,-0.4291839599609375,0.5938720703125
160433,0.9910430908203124,-0.4119720458984375,0.7380218505859375
160434,0.9910430908203124,-0.4119720458984375,0.7380218505859375
160435,1.130966186523438,-0.4378204345703125,0.8411102294921875
160436,1.245101928710938,-0.4408416748046875,0.927093505859375
160437,1.261795043945312,-0.325836181640625,0.95751953125
160438,1.261795043945312,-0.325836181640625,0.95751953125
160439,1.15692138671875,-0.269012451171875,0.932586669921875
160440,0.987762451171875,-0.2595367431640625,0.8708343505859375
160441,0.591339111328125,-0.388671875,0.713531494140625
160442,0.591339111328125,-0.388671875,0.713531494140625
160443,0.591339111328125,-0.388671875,0.713531494140625
160444,0.4319610595703125,-0.4766998291015625,0.5969390869140625
160445,0.29486083984375,-0.541534423828125,0.502288818359375
160446,0.29486083984375,-0.541534423828125,0.502288818359375
160447,0.29486083984375,-0.541534423828125,0.502288818359375
160448,0.33551025390625,-0.5474853515625,0.4677581787109375
160449,0.41986083984375,-0.693206787109375,0.4564971923828125
160450,0.41986083984375,-0.693206787109375,0.4564971923828125
160451,0.41986083984375,-0.693206787109375,0.4564971923828125
160452,0.4428863525390625,-0.7541656494140625,0.4781341552734375
160453,0.5166473388671875,-0.780487060546875,0.589630126953125
160454,0.5166473388671875,-0.780487060546875,0.589630126953125
160455,0.5059967041015625,-0.8022003173828125,0.64276123046875
160456,0.4646453857421875,-0.8223724365234375,0.6923370361328125
160457,0.2869873046875,-0.8619537353515625,0.7720794677734375
160458,0.2869873046875,-0.8619537353515625,0.7720794677734375
160459,0.2869873046875,-0.8619537353515625,0.7720794677734375
160460,0.13763427734375,-0.8823394775390625,0.7665863037109375
160461,-0.320220947265625,-0.9140472412109376,0.80938720703125
160462,-0.759490966796875,-0.876373291015625,0.9948577880859376
160463,-0.92364501953125,-0.7847137451171875,1.144989013671875
160464,-0.34051513671875,-0.707305908203125,0.6724395751953125
160465,0.021209716796875,-0.760406494140625,0.3656005859375
160466,0.021209716796875,-0.760406494140625,0.3656005859375
160467,0.021209716796875,-0.760406494140625,0.3656005859375
160468,-0.09820556640625,-0.7089691162109375,0.4879608154296875
160469,-0.0619354248046875,-0.6879425048828125,0.7539520263671875
160470,-0.0619354248046875,-0.6879425048828125,0.7539520263671875
160471,-0.033294677734375,-0.6857452392578125,0.6696014404296875
160472,-0.06976318359375,-0.707916259765625,0.608428955078125
160473,-0.0968017578125,-0.6882476806640625,0.7631683349609375
160474,-0.0968017578125,-0.6882476806640625,0.7631683349609375
160475,-0.1170501708984375,-0.70281982421875,0.6565704345703125
160476,-0.0828094482421875,-0.7544708251953125,0.6108856201171875
160477,0.1021881103515625,-0.7681427001953125,0.5745697021484375
160478,0.1021881103515625,-0.7681427001953125,0.5745697021484375
160479,0.1021881103515625,-0.7681427001953125,0.5745697021484375
160480,0.1842193603515625,-0.742767333984375,0.583740234375
160481,0.378570556640625,-0.6531524658203125,0.565032958984375
160482,0.378570556640625,-0.6531524658203125,0.565032958984375
160483,0.378570556640625,-0.6531524658203125,0.565032958984375
160484,0.4387359619140625,-0.6220703125,0.5445098876953125
160485,0.705322265625,-0.4615020751953125,0.4847869873046875
160486,0.705322265625,-0.4615020751953125,0.4847869873046875
160487,0.8376922607421875,-0.43206787109375,0.4996490478515625
160488,0.997314453125,-0.4457855224609375,0.57586669921875
160489,1.416275024414062,-0.5991363525390625,0.753021240234375
160490,1.416275024414062,-0.5991363525390625,0.753021240234375
160491,1.416275024414062,-0.5991363525390625,0.753021240234375
160492,1.571731567382812,-0.658111572265625,0.76123046875
160493,1.39453125,-0.6675262451171875,0.8516845703125
160494,1.39453125,-0.6675262451171875,0.8516845703125
160495,1.39453125,-0.6675262451171875,0.8516845703125
160496,1.217254638671875,-0.7209930419921875,0.7834930419921875
160497,0.81695556640625,-0.701995849609375,0.6825408935546875
160498,0.81695556640625,-0.701995849609375,0.6825408935546875
160499,0.81695556640625,-0.701995849609375,0.6825408935546875
160500,0.6607666015625,-0.5301971435546875,0.639373779296875
160501,0.5739898681640625,-0.4805145263671875,0.649017333984375
160502,0.4817352294921875,-0.458099365234375,0.7183990478515625
160503,0.404266357421875,-0.44525146484375,0.7830963134765625
160504,0.356903076171875,-0.41436767578125,0.8216552734375
160505,0.329864501953125,-0.3093109130859375,0.8031005859375
160506,0.329864501953125,-0.3093109130859375,0.8031005859375
160507,0.3292083740234375,-0.256591796875,0.7286224365234375
160508,0.3309326171875,-0.1939544677734375,0.66461181640625
160509,0.06353759765625,-0.1367950439453125,0.6516571044921875
160510,0.06353759765625,-0.1367950439453125,0.6516571044921875
160511,-0.0544281005859375,-0.2962799072265625,0.6071624755859375
160512,-0.132415771484375,-0.5189208984375,0.556304931640625
160513,-0.2643585205078125,-0.7690277099609375,0.5841522216796875
160514,-0.356353759765625,-0.9508514404296876,0.65399169921875
160515,-0.356353759765625,-0.9508514404296876,0.65399169921875
160516,-0.3491058349609375,-0.9604034423828124,0.7021026611328125
160517,-0.123077392578125,-0.7900238037109375,0.2754669189453125
160518,-0.123077392578125,-0.7900238037109375,0.2754669189453125
160519,-0.123077392578125,-0.7900238037109375,0.2754669189453125
160520,-0.10015869140625,-0.7847137451171875,0.4293670654296875
160521,-0.0535125732421875,-0.8462066650390625,0.6881866455078125
160522,-0.0535125732421875,-0.8462066650390625,0.6881866455078125
160523,-0.0535125732421875,-0.8462066650390625,0.6881866455078125
160524,-0.086761474609375,-0.9050140380859376,0.777679443359375
160525,-0.245086669921875,-1.119964599609375,0.904541015625
160526,-0.245086669921875,-1.119964599609375,0.904541015625
160527,-0.245086669921875,-1.119964599609375,0.904541015625
160528,-0.295806884765625,-0.942291259765625,0.8792266845703125
160529,-0.1641387939453125,-0.6694793701171875,0.7279815673828125
160530,-0.1641387939453125,-0.6694793701171875,0.7279815673828125
160531,-0.1641387939453125,-0.6694793701171875,0.7279815673828125
160532,-0.0884857177734375,-0.59967041015625,0.6531829833984375
160533,0.0896759033203125,-0.518280029296875,0.6702728271484375
160534,0.0896759033203125,-0.518280029296875,0.6702728271484375
160535,0.0896759033203125,-0.518280029296875,0.6702728271484375
160536,0.1642913818359375,-0.5115966796875,0.71331787109375
160537,0.441009521484375,-0.4932708740234375,0.740753173828125
160538,0.441009521484375,-0.4932708740234375,0.740753173828125
160539,0.538665771484375,-0.489471435546875,0.729522705078125
160540,0.6304931640625,-0.4802703857421875,0.700836181640625
160541,0.794403076171875,-0.44647216796875,0.6683502197265625
160542,0.794403076171875,-0.44647216796875,0.6683502197265625
160543,0.794403076171875,-0.44647216796875,0.6683502197265625
160544,0.8988037109375,-0.4321746826171875,0.713165283203125
160545,1.356735229492188,-0.568939208984375,0.963531494140625
160546,1.356735229492188,-0.568939208984375,0.963531494140625
160547,1.426467895507812,-0.594879150390625,0.977508544921875
160548,1.375686645507812,-0.523040771484375,0.923919677734375
160549,1.002288818359375,-0.235504150390625,0.7532501220703125
160550,1.002288818359375,-0.235504150390625,0.7532501220703125
160551,0.7915802001953125,-0.220184326171875,0.7000732421875
160552,0.6059722900390625,-0.2724761962890625,0.7093963623046875
160553,0.3607330322265625,-0.45025634765625,0.7287445068359375
160554,0.3607330322265625,-0.45025634765625,0.7287445068359375
160555,0.292572021484375,-0.547119140625,0.6861572265625
160556,0.2484130859375,-0.6214752197265625,0.5872650146484375
160557,0.2019195556640625,-0.646209716796875,0.5073394775390625
160558,0.2019195556640625,-0.646209716796875,0.5073394775390625
160559,0.2019195556640625,-0.646209716796875,0.5073394775390625
160560,0.1990966796875,-0.6428070068359375,0.5203094482421875
160561,0.2988128662109375,-0.69598388671875,0.5047760009765625
160562,0.2988128662109375,-0.69598388671875,0.5047760009765625
160563,0.3832550048828125,-0.7289581298828125,0.5081024169921875
160564,0.442108154296875,-0.7530517578125,0.51910400390625
160565,0.4835662841796875,-0.8045654296875,0.6710968017578125
160566,0.4835662841796875,-0.8045654296875,0.6710968017578125
160567,0.4386138916015625,-0.8140411376953125,0.75994873046875
160568,0.317138671875,-0.8587188720703125,0.8141021728515625
160569,-0.375152587890625,-0.9901580810546876,0.9886016845703124
160570,-0.375152587890625,-0.9901580810546876,0.9886016845703124
160571,-0.375152587890625,-0.9901580810546876,0.9886016845703124
160572,-0.5776824951171875,-0.9493560791015624,1.195037841796875
160573,-0.1225128173828125,-0.78338623046875,0.4349212646484375
160574,-0.1225128173828125,-0.78338623046875,0.4349212646484375
160575,-0.314605712890625,-0.8072662353515625,0.4194488525390625
160576,-0.4434356689453125,-0.8056488037109375,0.5352020263671875
160577,-0.4683074951171875,-0.7726898193359375,0.645843505859375
160578,-0.3949432373046875,-0.763641357421875,0.67987060546875
160579,-0.3949432373046875,-0.763641357421875,0.67987060546875
160580,-0.28289794921875,-0.76983642578125,0.6782073974609375
160581,-0.0021820068359375,-0.65325927734375,0.79986572265625
160582,-0.0021820068359375,-0.65325927734375,0.79986572265625
160583,-0.02490234375,-0.646697998046875,0.6917266845703125
160584,-0.03070068359375,-0.667236328125,0.622344970703125
160585,-0.0045928955078125,-0.692901611328125,0.5421142578125
160586,0.0390777587890625,-0.7299346923828125,0.493988037109375
160587,0.0948028564453125,-0.7652740478515625,0.51031494140625
160588,0.1622467041015625,-0.79742431640625,0.5581817626953125
160589,0.33880615234375,-0.7788238525390625,0.6862335205078125
160590,0.33880615234375,-0.7788238525390625,0.6862335205078125
160591,0.4213714599609375,-0.7584991455078125,0.7142333984375
160592,0.50897216796875,-0.7389373779296875,0.6921234130859375
160593,0.6828765869140625,-0.65313720703125,0.5941925048828125
160594,0.6828765869140625,-0.65313720703125,0.5941925048828125
160595,0.6828765869140625,-0.65313720703125,0.5941925048828125
160596,0.7528533935546875,-0.599761962890625,0.534271240234375
160597,0.9783172607421876,-0.52056884765625,0.5106353759765625
160598,0.9783172607421876,-0.52056884765625,0.5106353759765625
160599,1.068161010742188,-0.5156402587890625,0.5346527099609375
160600,1.165451049804688,-0.5255889892578125,0.5592498779296875
160601,1.308151245117188,-0.5928497314453125,0.6566925048828125
160602,1.308151245117188,-0.5928497314453125,0.6566925048828125
160603,1.308151245117188,-0.5928497314453125,0.6566925048828125
160604,1.295455932617188,-0.627227783203125,0.7291107177734375
160605,0.989044189453125,-0.697265625,0.8236846923828125
160606,0.989044189453125,-0.697265625,0.8236846923828125
160607,0.859893798828125,-0.72113037109375,0.7819366455078125
160608,0.747650146484375,-0.7356414794921875,0.7592315673828125
160609,0.5481109619140625,-0.688140869140625,0.7064208984375
160610,0.5481109619140625,-0.688140869140625,0.7064208984375
160611,0.5481109619140625,-0.688140869140625,0.7064208984375
160612,0.4411163330078125,-0.6172332763671875,0.648529052734375
160613,0.22857666015625,-0.5201568603515625,0.692047119140625
160614,0.062347412109375,-0.4530487060546875,0.775115966796875
160615,-0.0299224853515625,-0.437255859375,0.77764892578125
160616,0.030059814453125,-0.435089111328125,0.7616729736328125
160617,0.1206207275390625,-0.351531982421875,0.7262115478515625
160618,0.1206207275390625,-0.351531982421875,0.7262115478515625
160619,0.1200103759765625,-0.3489532470703125,0.6660919189453125
160620,0.107025146484375,-0.3673553466796875,0.610107421875
160621,0.028228759765625,-0.445159912109375,0.629547119140625
160622,0.028228759765625,-0.445159912109375,0.629547119140625
160623,-0.0408477783203125,-0.482391357421875,0.6717376708984375
160624,-0.0408477783203125,-0.482391357421875,0.6717376708984375
160625,-0.1758270263671875,-0.598052978515625,0.6182708740234375
160626,-0.1937408447265625,-0.660308837890625,0.5844573974609375
160627,-0.1937408447265625,-0.660308837890625,0.5844573974609375
160628,-0.1930084228515625,-0.7079925537109375,0.57183837890625
160629,-0.2231597900390625,-0.8084564208984375,0.5396881103515625
160630,-0.2231597900390625,-0.8084564208984375,0.5396881103515625
160631,-0.2021026611328125,-0.8265838623046875,0.5982666015625
160632,-0.1741943359375,-0.8606719970703125,0.67547607421875
160633,-0.02593994140625,-0.8652191162109375,0.8312835693359375
160634,-0.02593994140625,-0.8652191162109375,0.8312835693359375
160635,-0.02593994140625,-0.8652191162109375,0.8312835693359375
160636,0.0711517333984375,-0.8325347900390625,0.834564208984375
160637,0.0432281494140625,-0.871368408203125,0.7195281982421875
160638,-0.0583038330078125,-0.9001312255859375,0.652496337890625
160639,-0.17633056640625,-0.933868408203125,0.626434326171875
160640,-0.253997802734375,-0.9328460693359376,0.6606903076171875
160641,-0.1734161376953125,-0.857269287109375,0.708221435546875
160642,-0.1734161376953125,-0.857269287109375,0.708221435546875
160643,-0.1734161376953125,-0.857269287109375,0.708221435546875
160644,-0.0565948486328125,-0.7942657470703125,0.747711181640625
160645,0.2684478759765625,-0.5973663330078125,0.858642578125
160646,0.2684478759765625,-0.5973663330078125,0.858642578125
160647,0.339599609375,-0.56072998046875,0.86480712890625
160648,0.421234130859375,-0.545379638671875,0.84326171875
160649,0.5016632080078125,-0.514984130859375,0.7904205322265625
160650,0.559417724609375,-0.4898529052734375,0.7361907958984375
160651,0.6143798828125,-0.461090087890625,0.681610107421875
160652,0.707977294921875,-0.4257965087890625,0.6202545166015625
160653,1.003524780273438,-0.3728790283203125,0.690277099609375
160654,1.003524780273438,-0.3728790283203125,0.690277099609375
160655,1.003524780273438,-0.3728790283203125,0.690277099609375
160656,1.176345825195312,-0.36614990234375,0.810333251953125
160657,1.306793212890625,-0.321868896484375,0.97857666015625
160658,1.213958740234375,-0.2574005126953125,1.041610717773438
160659,1.213958740234375,-0.2574005126953125,1.041610717773438
160660,1.06536865234375,-0.215057373046875,1.045150756835938
160661,0.708740234375,-0.26275634765625,0.8863677978515625
160662,0.5738372802734375,-0.3307037353515625,0.8253936767578125
160663,0.4815673828125,-0.414306640625,0.7799530029296875
160664,0.41680908203125,-0.48748779296875,0.723175048828125
160665,0.308929443359375,-0.5214996337890625,0.6251220703125
160666,0.308929443359375,-0.5214996337890625,0.6251220703125
160667,0.2737884521484375,-0.5077056884765625,0.5876922607421875
160668,0.2465362548828125,-0.499969482421875,0.57965087890625
160669,0.22607421875,-0.4981231689453125,0.5588836669921875
160670,0.2128143310546875,-0.5164337158203125,0.518890380859375
160671,0.2128143310546875,-0.5164337158203125,0.518890380859375
160672,0.2206878662109375,-0.54150390625,0.484161376953125
160673,0.236480712890625,-0.7390899658203125,0.5282745361328125
160674,0.236480712890625,-0.7390899658203125,0.5282745361328125
160675,0.2303924560546875,-0.8209228515625,0.5493316650390625
160676,0.2258453369140625,-0.8544464111328125,0.6369476318359375
160677,0.2043914794921875,-0.8325653076171875,0.9047088623046876
160678,0.2043914794921875,-0.8325653076171875,0.9047088623046876
160679,0.1537628173828125,-0.82940673828125,0.860626220703125
160680,-0.3048248291015625,-0.8740081787109375,0.9280548095703124
160681,-0.582733154296875,-0.8026123046875,1.095733642578125
160682,-0.582733154296875,-0.8026123046875,1.095733642578125
160683,-0.582733154296875,-0.8026123046875,1.095733642578125
160684,0.3444671630859375,-0.6379547119140625,0.4444122314453125
160685,-0.40496826171875,-0.7672119140625,0.5793914794921875
160686,-0.40496826171875,-0.7672119140625,0.5793914794921875
160687,-0.3972930908203125,-0.77801513671875,0.7836151123046875
160688,-0.318084716796875,-0.775421142578125,0.8490753173828125
160689,-0.2094268798828125,-0.7696685791015625,0.866241455078125
160690,-0.0731353759765625,-0.7441864013671875,0.879302978515625
160691,0.022705078125,-0.7054595947265625,0.88275146484375
160692,0.0362548828125,-0.6847076416015625,0.8475189208984375
160693,-0.010894775390625,-0.73956298828125,0.70196533203125
160694,-0.010894775390625,-0.73956298828125,0.70196533203125
160695,-0.010894775390625,-0.73956298828125,0.70196533203125
160696,0.000152587890625,-0.762451171875,0.611175537109375
160697,0.0691680908203125,-0.7455902099609375,0.47314453125
160698,0.104156494140625,-0.7480010986328125,0.4861907958984375
160699,0.104156494140625,-0.7480010986328125,0.4861907958984375
160700,0.150360107421875,-0.7708892822265625,0.5409088134765625
160701,0.300445556640625,-0.8155059814453125,0.6194000244140625
160702,0.300445556640625,-0.8155059814453125,0.6194000244140625
160703,0.3689117431640625,-0.787933349609375,0.6043701171875
160704,0.4653472900390625,-0.74658203125,0.5877685546875
160705,0.6905059814453125,-0.63824462890625,0.54412841796875
160706,0.6905059814453125,-0.63824462890625,0.54412841796875
160707,0.793182373046875,-0.602874755859375,0.53790283203125
160708,0.883209228515625,-0.5824127197265625,0.551513671875
160709,1.027603149414062,-0.5662689208984375,0.609832763671875
160710,1.027603149414062,-0.5662689208984375,0.609832763671875
160711,1.084991455078125,-0.53955078125,0.6520538330078125
160712,1.135726928710938,-0.5039825439453125,0.6930084228515625
160713,1.170791625976562,-0.4959869384765625,0.716094970703125
160714,1.150634765625,-0.516265869140625,0.7217559814453125
160715,1.066558837890625,-0.5575714111328125,0.703857421875
160716,0.9572296142578124,-0.604827880859375,0.691070556640625
160717,0.8484039306640625,-0.629302978515625,0.6930999755859375
160718,0.748382568359375,-0.6384124755859375,0.6839599609375
160719,0.748382568359375,-0.6384124755859375,0.6839599609375
160720,0.6717529296875,-0.646484375,0.66644287109375
160721,0.589630126953125,-0.6481170654296875,0.7169952392578125
160722,0.589630126953125,-0.6481170654296875,0.7169952392578125
160723,0.5476531982421875,-0.6236724853515625,0.740264892578125
160724,0.4694976806640625,-0.583892822265625,0.7389984130859375
160725,0.381927490234375,-0.544342041015625,0.722808837890625
160726,0.3218841552734375,-0.5204010009765625,0.707183837890625
160727,0.3218841552734375,-0.5204010009765625,0.707183837890625
160728,0.2929229736328125,-0.512908935546875,0.7147216796875
160729,0.3254852294921875,-0.4464569091796875,0.759674072265625
160730,0.3254852294921875,-0.4464569091796875,0.759674072265625
160731,0.3407135009765625,-0.41876220703125,0.7382049560546875
160732,0.3286895751953125,-0.392608642578125,0.741119384765625
160733,0.105682373046875,-0.4951324462890625,0.7396240234375
160734,0.105682373046875,-0.4951324462890625,0.7396240234375
160735,0.105682373046875,-0.4951324462890625,0.7396240234375
160736,-0.0635223388671875,-0.6428680419921875,0.744415283203125
160737,-0.3226776123046875,-0.9356536865234376,0.69183349609375
160738,-0.395050048828125,-0.9815521240234376,0.66583251953125
160739,-0.465728759765625,-0.9781036376953124,0.6335906982421875
160740,-0.4389495849609375,-0.9688568115234376,0.5535125732421875
160741,-0.3275299072265625,-0.9656829833984376,0.513885498046875
160742,-0.1789093017578125,-0.9630889892578124,0.5508270263671875
160743,-0.1789093017578125,-0.9630889892578124,0.5508270263671875
160744,-0.0428314208984375,-0.9200439453125,0.642333984375
160745,0.123382568359375,-0.71136474609375,0.8479461669921875
160746,0.123382568359375,-0.71136474609375,0.8479461669921875
160747,0.123382568359375,-0.71136474609375,0.8479461669921875
160748,0.1041259765625,-0.6934356689453125,0.8232574462890625
160749,0.002532958984375,-0.755126953125,0.7192535400390625
160750,-0.0202789306640625,-0.793731689453125,0.67095947265625
160751,-0.0506591796875,-0.800750732421875,0.6083831787109375
160752,-0.0618438720703125,-0.7886199951171875,0.564971923828125
160753,0.05535888671875,-0.704498291015625,0.54339599609375
160754,0.05535888671875,-0.704498291015625,0.54339599609375
160755,0.170135498046875,-0.63238525390625,0.585784912109375
160756,0.2650604248046875,-0.547882080078125,0.654876708984375
160757,0.3752593994140625,-0.4293975830078125,0.771209716796875
160758,0.3752593994140625,-0.4293975830078125,0.771209716796875
160759,0.3752593994140625,-0.4293975830078125,0.771209716796875
160760,0.4221649169921875,-0.414276123046875,0.7631072998046875
160761,0.5816192626953125,-0.4225616455078125,0.5187225341796875
160762,0.5816192626953125,-0.4225616455078125,0.5187225341796875
160763,0.6265106201171875,-0.390533447265625,0.4036407470703125
160764,0.6804046630859375,-0.35205078125,0.330047607421875
160765,0.76263427734375,-0.3256072998046875,0.3191680908203125
160766,0.883636474609375,-0.334075927734375,0.37677001953125
160767,1.03094482421875,-0.3735809326171875,0.4948577880859375
160768,1.167953491210938,-0.434112548828125,0.6254730224609375
160769,1.255172729492188,-0.47161865234375,0.7286224365234375
160770,1.28057861328125,-0.4684600830078125,0.7971038818359375
160771,1.28057861328125,-0.4684600830078125,0.7971038818359375
160772,1.247787475585938,-0.4534149169921875,0.832427978515625
160773,0.9540252685546876,-0.5053863525390625,0.7846221923828125
160774,0.7273712158203125,-0.56787109375,0.72308349609375
160775,0.7273712158203125,-0.56787109375,0.72308349609375
160776,0.5108184814453125,-0.642791748046875,0.6798553466796875
160777,-0.3702239990234375,-0.9200592041015624,0.7574920654296875
160778,-0.3702239990234375,-0.9200592041015624,0.7574920654296875
160779,-0.265380859375,-0.96466064453125,0.674713134765625
160780,0.1307525634765625,-0.877960205078125,0.6051177978515625
160781,0.4084930419921875,-0.8072357177734375,0.4324951171875
160782,0.266448974609375,-0.8115081787109375,0.3967742919921875
160783,0.1081085205078125,-0.7973175048828125,0.464935302734375
160784,0.0546875,-0.7632598876953125,0.50555419921875
160785,0.212005615234375,-0.7649993896484375,0.5543060302734375
160786,0.212005615234375,-0.7649993896484375,0.5543060302734375
160787,0.355438232421875,-0.7840423583984375,0.598876953125
160788,0.4716796875,-0.8124542236328125,0.631591796875
160789,0.53521728515625,-0.832672119140625,0.709686279296875
160790,0.5022430419921875,-0.8336944580078125,0.859649658203125
160791,0.386444091796875,-0.8306427001953125,1.023025512695312
160792,0.2388916015625,-0.8138885498046875,1.131072998046875
160793,0.067535400390625,-0.6620635986328125,1.091339111328125
160794,0.067535400390625,-0.6620635986328125,1.091339111328125
160795,0.1510467529296875,-0.59185791015625,0.8749237060546875
160796,0.1904144287109375,-0.6010589599609375,0.6857147216796875
160797,0.0244293212890625,-0.72784423828125,0.5013885498046875
160798,0.0244293212890625,-0.72784423828125,0.5013885498046875
160799,0.01611328125,-0.8197174072265625,0.534423828125
160800,0.0659027099609375,-0.8752593994140625,0.6158447265625
160801,0.082000732421875,-0.8819732666015625,0.681121826171875
160802,0.1002960205078125,-0.8382568359375,0.768157958984375
160803,0.0537567138671875,-0.7929534912109375,0.740203857421875
160804,0.0087432861328125,-0.7642669677734375,0.7804107666015625
160805,0.0002899169921875,-0.715667724609375,0.659881591796875
160806,0.0002899169921875,-0.715667724609375,0.659881591796875
160807,0.0706024169921875,-0.7068634033203125,0.6490325927734375
160808,0.082733154296875,-0.696563720703125,0.5719451904296875
160809,0.13531494140625,-0.74578857421875,0.4897918701171875
160810,0.13531494140625,-0.74578857421875,0.4897918701171875
160811,0.2016448974609375,-0.7234039306640625,0.5320892333984375
160812,0.2807464599609375,-0.680084228515625,0.561614990234375
160813,0.378936767578125,-0.639129638671875,0.578155517578125
160814,0.4973297119140625,-0.6111297607421875,0.593231201171875
160815,0.6156005859375,-0.5847625732421875,0.617279052734375
160816,0.720855712890625,-0.554534912109375,0.6413726806640625
160817,0.797454833984375,-0.5265960693359375,0.6429290771484375
160818,0.847259521484375,-0.485382080078125,0.62237548828125
160819,0.869903564453125,-0.433319091796875,0.5837249755859375
160820,0.8775787353515625,-0.391937255859375,0.5438385009765625
160821,0.8934173583984375,-0.4062652587890625,0.466461181640625
160822,0.8934173583984375,-0.4062652587890625,0.466461181640625
160823,0.92132568359375,-0.4527740478515625,0.503875732421875
160824,0.936767578125,-0.4841766357421875,0.5756988525390625
160825,0.9322662353515624,-0.500457763671875,0.6542205810546875
160826,0.9255828857421876,-0.5139923095703125,0.7345428466796875
160827,0.921600341796875,-0.5346221923828125,0.802581787109375
160828,0.8946075439453125,-0.5597991943359375,0.8621673583984375
160829,0.8231201171875,-0.5793304443359375,0.8822174072265625
160830,0.7064208984375,-0.595733642578125,0.840240478515625
160831,0.5711517333984375,-0.6352081298828125,0.7735443115234375
160832,0.4470367431640625,-0.661224365234375,0.74273681640625
160833,0.274200439453125,-0.682525634765625,0.7300872802734375
160834,0.274200439453125,-0.682525634765625,0.7300872802734375
160835,0.2063140869140625,-0.64874267578125,0.710968017578125
160836,0.161376953125,-0.5935821533203125,0.6981964111328125
160837,0.140289306640625,-0.53961181640625,0.7163543701171875
160838,0.1317901611328125,-0.5085601806640625,0.757354736328125
160839,0.1303558349609375,-0.4932708740234375,0.8082733154296875
160840,0.1403961181640625,-0.4920806884765625,0.853668212890625
160841,0.14349365234375,-0.514434814453125,0.8632659912109375
160842,0.113372802734375,-0.5527801513671875,0.8466949462890625
160843,0.063934326171875,-0.5869598388671875,0.8148193359375
160844,-0.0065460205078125,-0.6226806640625,0.7802734375
160845,-0.1179656982421875,-0.7404632568359375,0.6711273193359375
160846,-0.1179656982421875,-0.7404632568359375,0.6711273193359375
160847,-0.09295654296875,-0.8045501708984375,0.605316162109375
160848,-0.0215911865234375,-0.8264923095703125,0.566009521484375
160849,0.121002197265625,-0.7558441162109375,0.554931640625
160850,0.121002197265625,-0.7558441162109375,0.554931640625
160851,0.1975860595703125,-0.7139129638671875,0.572601318359375
160852,0.276397705078125,-0.684783935546875,0.590423583984375
160853,0.3888092041015625,-0.7006378173828125,0.579254150390625
160854,0.3888092041015625,-0.7006378173828125,0.579254150390625
160855,0.3971710205078125,-0.7371673583984375,0.5829315185546875
160856,0.36114501953125,-0.777191162109375,0.6066436767578125
160857,0.287811279296875,-0.816131591796875,0.657318115234375
160858,0.1921539306640625,-0.8537750244140625,0.722320556640625
160859,0.1921539306640625,-0.8537750244140625,0.722320556640625
160860,0.1101531982421875,-0.8785858154296875,0.78509521484375
160861,0.0472564697265625,-0.8881988525390625,0.8388824462890625
160862,0.0528106689453125,-0.8644561767578125,0.85479736328125
160863,0.0676116943359375,-0.813323974609375,0.8387451171875
160864,0.09368896484375,-0.7433319091796875,0.768310546875
160865,0.130218505859375,-0.6750640869140625,0.70635986328125
160866,0.152252197265625,-0.6248779296875,0.6858978271484375
160867,0.167633056640625,-0.584014892578125,0.6862945556640625
160868,0.2107391357421875,-0.54437255859375,0.706085205078125
160869,0.370941162109375,-0.45501708984375,0.7465972900390625
160870,0.370941162109375,-0.45501708984375,0.7465972900390625
160871,0.47637939453125,-0.4285888671875,0.74560546875
160872,0.5597991943359375,-0.4058837890625,0.70928955078125
160873,0.59881591796875,-0.380340576171875,0.6464385986328125
160874,0.5950775146484375,-0.35150146484375,0.5796051025390625
160875,0.577880859375,-0.325714111328125,0.5091552734375
160876,0.5843658447265625,-0.304046630859375,0.4684906005859375
160877,0.80596923828125,-0.3044891357421875,0.5541229248046875
160878,0.80596923828125,-0.3044891357421875,0.5541229248046875
160879,0.80596923828125,-0.3044891357421875,0.5541229248046875
160880,0.9833984375,-0.322021484375,0.7000274658203125
160881,1.169723510742188,-0.3426513671875,0.89105224609375
160882,1.137069702148438,-0.3252410888671875,0.9145660400390624
160883,1.03424072265625,-0.3260040283203125,0.939849853515625
160884,0.8675079345703125,-0.3492431640625,0.9196319580078124
160885,0.463043212890625,-0.4241790771484375,0.749969482421875
160886,0.463043212890625,-0.4241790771484375,0.749969482421875
160887,0.3031005859375,-0.482147216796875,0.6766510009765625
160888,0.185455322265625,-0.54974365234375,0.60662841796875
160889,0.0997467041015625,-0.63714599609375,0.5364532470703125
160890,0.0335845947265625,-0.715850830078125,0.497222900390625
160891,-0.020965576171875,-0.7748260498046875,0.490203857421875
160892,-0.063446044921875,-0.8170928955078125,0.4904022216796875
160893,-0.0595245361328125,-0.8411712646484375,0.5153045654296875
160894,-0.0595245361328125,-0.8411712646484375,0.5153045654296875
160895,-0.0137939453125,-0.9194793701171876,0.5107421875
160896,0.118560791015625,-0.909271240234375,0.576171875
160897,0.48040771484375,-0.79388427734375,0.44317626953125
160898,0.48040771484375,-0.79388427734375,0.44317626953125
160899,0.5053863525390625,-0.7983856201171875,0.5399017333984375
160900,0.5023193359375,-0.7793731689453125,0.66168212890625
160901,0.52703857421875,-0.780731201171875,0.7482147216796875
160902,0.551849365234375,-0.8040008544921875,0.79840087890625
160903,0.54730224609375,-0.8069000244140625,0.8170623779296875
160904,0.4841766357421875,-0.7804107666015625,0.8563079833984375
160905,0.3694915771484375,-0.73455810546875,0.9084014892578124
160906,0.2410430908203125,-0.7077789306640625,0.9021148681640624
160907,0.2410430908203125,-0.7077789306640625,0.9021148681640624
160908,0.1396942138671875,-0.7241058349609375,0.845916748046875
160909,-0.077545166015625,-0.8101348876953125,0.698577880859375
160910,-0.077545166015625,-0.8101348876953125,0.698577880859375
160911,-0.0384979248046875,-0.8304290771484375,0.74560546875
160912,0.019500732421875,-0.841522216796875,0.789642333984375
160913,0.0515289306640625,-0.82666015625,0.8362884521484375
160914,0.0540771484375,-0.7698516845703125,0.8588104248046875
160915,0.0392608642578125,-0.689544677734375,0.7999420166015625
160916,0.005950927734375,-0.611297607421875,0.6923370361328125
160917,-0.0305328369140625,-0.557708740234375,0.59649658203125
160918,-0.049957275390625,-0.5429534912109375,0.5150146484375
160919,-0.041961669921875,-0.573760986328125,0.467864990234375
160920,-0.008026123046875,-0.632843017578125,0.4715118408203125
160921,0.068145751953125,-0.69390869140625,0.50799560546875
160922,0.1721343994140625,-0.731475830078125,0.558868408203125
160923,0.29022216796875,-0.7382049560546875,0.5926666259765625
160924,0.41668701171875,-0.7294464111328125,0.63006591796875
160925,0.6769561767578125,-0.7178497314453125,0.6650390625
160926,0.6769561767578125,-0.7178497314453125,0.6650390625
160927,0.7635345458984375,-0.6940460205078125,0.656036376953125
160928,0.80914306640625,-0.6529388427734375,0.6361846923828125
160929,0.8234405517578125,-0.601654052734375,0.6040802001953125
160930,0.813690185546875,-0.5372467041015625,0.5627593994140625
160931,0.8011474609375,-0.476654052734375,0.496124267578125
160932,0.8167572021484375,-0.4470367431640625,0.4152374267578125
160933,0.8721466064453125,-0.436492919921875,0.39715576171875
160934,0.9456939697265624,-0.443817138671875,0.465545654296875
160935,1.008834838867188,-0.502685546875,0.5609588623046875
160936,1.0428466796875,-0.58734130859375,0.6248321533203125
160937,1.038345336914062,-0.6385040283203125,0.6595916748046875
160938,1.000747680664062,-0.6561737060546875,0.698638916015625
160939,0.936614990234375,-0.6454925537109375,0.749420166015625
160940,0.8348541259765625,-0.6268463134765625,0.7732391357421875
160941,0.70404052734375,-0.624176025390625,0.742767333984375
160942,0.5718231201171875,-0.634857177734375,0.6936187744140625
160943,0.4573974609375,-0.65362548828125,0.693206787109375
160944,0.3719482421875,-0.6799163818359375,0.718048095703125
160945,0.3192596435546875,-0.702972412109375,0.762359619140625
160946,0.288665771484375,-0.7113037109375,0.8019561767578125
160947,0.260040283203125,-0.706390380859375,0.81707763671875
160948,0.224517822265625,-0.6717376708984375,0.81646728515625
160949,0.1732940673828125,-0.6098480224609375,0.7978973388671875
160950,0.113067626953125,-0.5582427978515625,0.7493743896484375
160951,0.05462646484375,-0.5172119140625,0.703338623046875
160952,0.0023956298828125,-0.484344482421875,0.66485595703125
160953,-0.0370330810546875,-0.4673614501953125,0.6265869140625
160954,-0.0488739013671875,-0.466094970703125,0.60821533203125
160955,-0.033966064453125,-0.480255126953125,0.624359130859375
160956,0.0074005126953125,-0.5109100341796875,0.6675872802734375
160957,0.0694732666015625,-0.5620574951171875,0.7000732421875
160958,0.1050262451171875,-0.62982177734375,0.713470458984375
160959,0.090484619140625,-0.7260284423828125,0.68499755859375
160960,0.0511474609375,-0.7959442138671875,0.6490020751953125
160961,0.068939208984375,-0.8555755615234375,0.6009368896484375
160962,0.068939208984375,-0.8555755615234375,0.6009368896484375
160963,0.082122802734375,-0.89398193359375,0.558868408203125
160964,0.068389892578125,-0.931396484375,0.556884765625
160965,0.0609588623046875,-0.941802978515625,0.581451416015625
160966,0.1002197265625,-0.9033355712890624,0.6590118408203125
160967,0.14501953125,-0.8668670654296875,0.725311279296875
160968,0.181060791015625,-0.84051513671875,0.747314453125
160969,0.1967010498046875,-0.819610595703125,0.775787353515625
160970,0.17791748046875,-0.7991943359375,0.7813720703125
160971,0.1245880126953125,-0.7980804443359375,0.7588043212890625
160972,0.04534912109375,-0.8308868408203125,0.7006378173828125
160973,-0.0355224609375,-0.864990234375,0.6432952880859375
160974,-0.1004638671875,-0.8669891357421875,0.6298828125
160975,-0.1109771728515625,-0.83447265625,0.6332244873046875
160976,-0.0517578125,-0.7678680419921875,0.640106201171875
160977,0.0627593994140625,-0.697601318359375,0.649749755859375
160978,0.191497802734375,-0.6427154541015625,0.6579132080078125
160979,0.29437255859375,-0.59649658203125,0.6907958984375
160980,0.3568572998046875,-0.5675201416015625,0.74334716796875
160981,0.3859710693359375,-0.538421630859375,0.784912109375
160982,0.3977203369140625,-0.49444580078125,0.82220458984375
160983,0.4062652587890625,-0.453155517578125,0.8452911376953125
160984,0.420379638671875,-0.4341888427734375,0.832305908203125
160985,0.443206787109375,-0.4355010986328125,0.758941650390625
160986,0.47052001953125,-0.42425537109375,0.66839599609375
160987,0.48681640625,-0.3597259521484375,0.565704345703125
160988,0.4871673583984375,-0.2787017822265625,0.4691925048828125
160989,0.545989990234375,-0.174407958984375,0.4026031494140625
160990,0.545989990234375,-0.174407958984375,0.4026031494140625
160991,0.65625,-0.1907501220703125,0.47052001953125
160992,0.808319091796875,-0.2587738037109375,0.6052703857421875
160993,0.956817626953125,-0.34271240234375,0.7310333251953125
160994,1.073455810546875,-0.417510986328125,0.8314056396484375
160995,1.128326416015625,-0.46551513671875,0.9139251708984376
160996,1.10040283203125,-0.469024658203125,0.9428863525390624
160997,1.014938354492188,-0.4592742919921875,0.9071807861328124
160998,0.9039764404296876,-0.4843292236328125,0.8519439697265625
160999,0.7698211669921875,-0.5274200439453125,0.81622314453125
161000,0.7698211669921875,-0.5274200439453125,0.81622314453125
161001,0.527557373046875,-0.6125946044921875,0.80535888671875
161002,0.4192047119140625,-0.636444091796875,0.7695159912109375
161003,0.313446044921875,-0.669952392578125,0.6985015869140625
161004,0.211151123046875,-0.7106170654296875,0.618743896484375
161005,0.0993499755859375,-0.7917633056640625,0.47979736328125
161006,0.0993499755859375,-0.7917633056640625,0.47979736328125
161007,0.087646484375,-0.809844970703125,0.4297332763671875
161008,0.0912017822265625,-0.8340911865234375,0.39501953125
161009,0.1634674072265625,-0.8471221923828125,0.4810791015625
161010,0.1634674072265625,-0.8471221923828125,0.4810791015625
161011,0.2037506103515625,-0.8734588623046875,0.5503997802734375
161012,0.2570953369140625,-0.913848876953125,0.63287353515625
161013,0.2936553955078125,-0.9666748046875,0.70947265625
161014,0.290924072265625,-0.9942779541015624,0.852386474609375
161015,0.2700042724609375,-0.9602203369140624,0.943817138671875
161016,0.2396087646484375,-0.8848114013671875,0.8922119140625
161017,0.0648651123046875,-0.7671356201171875,0.8516387939453125
161018,0.0648651123046875,-0.7671356201171875,0.8516387939453125
161019,-0.0322418212890625,-0.7272186279296875,0.841796875
161020,-0.10113525390625,-0.6949310302734375,0.770782470703125
161021,-0.14398193359375,-0.6851959228515625,0.6816864013671875
161022,-0.17474365234375,-0.6828155517578125,0.623382568359375
161023,-0.17474365234375,-0.6828155517578125,0.623382568359375
161024,-0.1859588623046875,-0.675018310546875,0.617340087890625
161025,-0.10321044921875,-0.7490234375,0.662872314453125
161026,-0.0291290283203125,-0.812530517578125,0.7164306640625
161027,0.03314208984375,-0.8452911376953125,0.756988525390625
161028,0.07763671875,-0.8323516845703125,0.7696685791015625
161029,0.1079559326171875,-0.721893310546875,0.651702880859375
161030,0.1079559326171875,-0.721893310546875,0.651702880859375
161031,0.0904083251953125,-0.673370361328125,0.5727386474609375
161032,0.0657196044921875,-0.641632080078125,0.520477294921875
161033,0.0628204345703125,-0.6157379150390625,0.4896392822265625
161034,0.0787353515625,-0.6212921142578125,0.4557647705078125
161035,0.108489990234375,-0.6632080078125,0.430908203125
161036,0.1613922119140625,-0.7327728271484375,0.4315185546875
161037,0.234130859375,-0.7933349609375,0.474456787109375
161038,0.302001953125,-0.8231201171875,0.537567138671875
161039,0.3766021728515625,-0.83642578125,0.5653839111328125
161040,0.467864990234375,-0.8309326171875,0.5821990966796875
161041,0.5813446044921875,-0.79901123046875,0.60638427734375
161042,0.698638916015625,-0.7663421630859375,0.6053466796875
161043,0.814117431640625,-0.7425079345703125,0.5601348876953125
161044,0.9113616943359376,-0.70477294921875,0.49420166015625
161045,0.972930908203125,-0.6511383056640625,0.4366455078125
161046,1.001495361328125,-0.5984039306640625,0.4088897705078125
161047,1.000518798828125,-0.5721282958984375,0.4253692626953125
161048,0.9815521240234376,-0.56805419921875,0.4693145751953125
161049,0.9515380859375,-0.588958740234375,0.50830078125
161050,0.922027587890625,-0.635528564453125,0.5131378173828125
161051,0.9039306640625,-0.67706298828125,0.511077880859375
161052,0.87530517578125,-0.69537353515625,0.526031494140625
161053,0.8284759521484375,-0.699859619140625,0.5940704345703125
161054,0.7586669921875,-0.7277679443359375,0.6645050048828125
161055,0.6816864013671875,-0.7868499755859375,0.7129974365234375
161056,0.5880889892578125,-0.838287353515625,0.7416534423828125
161057,0.474578857421875,-0.8664703369140625,0.7449951171875
161058,0.474578857421875,-0.8664703369140625,0.7449951171875
161059,0.3542633056640625,-0.865447998046875,0.7458648681640625
161060,0.1199798583984375,-0.732025146484375,0.8435516357421875
161061,0.037017822265625,-0.660064697265625,0.850860595703125
161062,0.0180816650390625,-0.6163330078125,0.7626800537109375
161063,0.0450592041015625,-0.57489013671875,0.6906890869140625
161064,0.080780029296875,-0.552642822265625,0.6609039306640625
161065,0.1123809814453125,-0.5489044189453125,0.6436309814453125
161066,0.150665283203125,-0.5331573486328125,0.64544677734375
161067,0.150665283203125,-0.5331573486328125,0.64544677734375
161068,0.1860504150390625,-0.50860595703125,0.653167724609375
161069,0.24359130859375,-0.4927978515625,0.69512939453125
161070,0.260162353515625,-0.501068115234375,0.74615478515625
161071,0.2551727294921875,-0.515655517578125,0.8039398193359375
161072,0.2071533203125,-0.5546722412109375,0.82171630859375
161073,0.1254425048828125,-0.624969482421875,0.7714996337890625
161074,0.0688934326171875,-0.6597137451171875,0.6648101806640625
161075,0.05706787109375,-0.6704254150390625,0.559539794921875
161076,0.0610504150390625,-0.6829986572265625,0.4848480224609375
161077,0.0750274658203125,-0.6981353759765625,0.446075439453125
161078,0.0949554443359375,-0.7272186279296875,0.4508056640625
161079,0.1142578125,-0.7674102783203125,0.487213134765625
161080,0.133880615234375,-0.80133056640625,0.535888671875
161081,0.1565704345703125,-0.8128204345703125,0.60321044921875
161082,0.179168701171875,-0.804840087890625,0.68402099609375
161083,0.1907196044921875,-0.797149658203125,0.7386627197265625
161084,0.165985107421875,-0.8153076171875,0.75177001953125
161085,0.0956878662109375,-0.8585357666015625,0.733245849609375
161086,0.00726318359375,-0.8912811279296875,0.7115936279296875
161087,-0.104095458984375,-0.9492034912109376,0.6861572265625
161088,-0.22747802734375,-1.001876831054688,0.6613006591796875
161089,-0.321075439453125,-1.02490234375,0.6748046875
161090,-0.3603363037109375,-0.983489990234375,0.7328643798828125
161091,-0.3246917724609375,-0.844696044921875,0.76177978515625
161092,-0.222991943359375,-0.674652099609375,0.660430908203125
161093,-0.113250732421875,-0.5834808349609375,0.593414306640625
161094,-0.01519775390625,-0.5352020263671875,0.6099853515625
161095,0.065521240234375,-0.522491455078125,0.640380859375
161096,0.151153564453125,-0.5394744873046875,0.6710968017578125
161097,0.2506103515625,-0.5845184326171875,0.68426513671875
161098,0.3425445556640625,-0.6168975830078125,0.6734771728515625
161099,0.4140167236328125,-0.6168975830078125,0.639190673828125
161100,0.4756622314453125,-0.581390380859375,0.6094818115234375
161101,0.538726806640625,-0.5290985107421875,0.5851593017578125
161102,0.6172943115234375,-0.4830780029296875,0.5744476318359375
161103,0.7039642333984375,-0.44158935546875,0.5720062255859375
161104,0.7977294921875,-0.42767333984375,0.5824737548828125
161105,0.9187774658203124,-0.42987060546875,0.6196136474609375
161106,1.057205200195312,-0.440582275390625,0.684539794921875
161107,1.194259643554688,-0.4531402587890625,0.7699127197265625
161108,1.292205810546875,-0.45855712890625,0.848358154296875
161109,1.305877685546875,-0.435302734375,0.8950958251953125
161110,1.221603393554688,-0.3844757080078125,0.896881103515625
161111,1.0718994140625,-0.3311309814453125,0.8585968017578125
161112,0.884246826171875,-0.3082427978515625,0.7977752685546875
161113,0.6954803466796875,-0.3167724609375,0.7403411865234375
161114,0.5338287353515625,-0.3461761474609375,0.677734375
161115,0.4141693115234375,-0.3970794677734375,0.6125030517578125
161116,0.3289642333984375,-0.461456298828125,0.5648956298828125
161117,0.2447357177734375,-0.59356689453125,0.5101470947265625
161118,0.2447357177734375,-0.59356689453125,0.5101470947265625
161119,0.2371063232421875,-0.6571044921875,0.4801788330078125
161120,0.24749755859375,-0.7075347900390625,0.4554290771484375
161121,0.2742156982421875,-0.745819091796875,0.434295654296875
161122,0.3177490234375,-0.7732086181640625,0.41961669921875
161123,0.359222412109375,-0.798431396484375,0.428680419921875
161124,0.393157958984375,-0.8226318359375,0.4579620361328125
161125,0.448577880859375,-0.8266754150390625,0.5149383544921875
161126,0.4976043701171875,-0.8465118408203125,0.567901611328125
161127,0.5049591064453125,-0.8678436279296875,0.61529541015625
161128,0.489227294921875,-0.898834228515625,0.67584228515625
161129,0.463470458984375,-0.925689697265625,0.7617340087890625
161130,0.408966064453125,-0.9287567138671876,0.86785888671875
161131,0.3402557373046875,-0.8843994140625,0.936126708984375
161132,0.247589111328125,-0.817352294921875,0.8939971923828125
161133,0.136474609375,-0.8248138427734375,0.76495361328125
161134,0.0199432373046875,-0.866241455078125,0.690185546875
161135,-0.0659332275390625,-0.80474853515625,0.7477264404296875
161136,-0.145751953125,-0.7553863525390625,0.7128448486328125
161137,-0.2095184326171875,-0.7685089111328125,0.6192779541015625
161138,-0.2675933837890625,-0.8185577392578125,0.554656982421875
161139,-0.329132080078125,-0.8645782470703125,0.5472869873046875
161140,-0.3934783935546875,-0.9090576171875,0.5471649169921875
161141,-0.424285888671875,-0.930877685546875,0.5672760009765625
161142,-0.4118804931640625,-0.906097412109375,0.5942230224609375
161143,-0.383392333984375,-0.857696533203125,0.615478515625
161144,-0.3527069091796875,-0.8178558349609375,0.627593994140625
161145,-0.319305419921875,-0.79876708984375,0.626129150390625
161146,-0.2794647216796875,-0.7869110107421875,0.6188507080078125
161147,-0.2270050048828125,-0.7768096923828125,0.6119232177734375
161148,-0.1605377197265625,-0.7716522216796875,0.5928955078125
161149,0.02740478515625,-0.761688232421875,0.539703369140625
161150,0.02740478515625,-0.761688232421875,0.539703369140625
161151,0.136962890625,-0.7436981201171875,0.5085296630859375
161152,0.2640380859375,-0.73553466796875,0.4737396240234375
161153,0.4086456298828125,-0.7390899658203125,0.4572906494140625
161154,0.4086456298828125,-0.7390899658203125,0.4572906494140625
161155,0.54962158203125,-0.7338104248046875,0.476837158203125
161156,0.835418701171875,-0.70330810546875,0.5488433837890625
161157,0.97259521484375,-0.6802215576171875,0.5824127197265625
161158,1.09466552734375,-0.63726806640625,0.61444091796875
161159,1.215164184570312,-0.575469970703125,0.6299896240234375
161160,1.324539184570312,-0.5248565673828125,0.6027984619140625
161161,1.404708862304688,-0.51312255859375,0.559600830078125
161162,1.44140625,-0.5694580078125,0.5257720947265625
161163,1.418701171875,-0.6516265869140625,0.480987548828125
161164,1.332550048828125,-0.705963134765625,0.44244384765625
161165,1.217987060546875,-0.729339599609375,0.4484405517578125
161166,1.099884033203125,-0.7289886474609375,0.49053955078125
161167,0.9995574951171876,-0.716064453125,0.5577392578125
161168,0.9132537841796876,-0.706329345703125,0.6162109375
161169,0.8392333984375,-0.6995849609375,0.6609649658203125
161170,0.765289306640625,-0.6710052490234375,0.7028350830078125
161171,0.6820068359375,-0.651397705078125,0.7406005859375
161172,0.590972900390625,-0.6472320556640625,0.7938995361328125
161173,0.5086517333984375,-0.64129638671875,0.8260650634765625
161174,0.4292144775390625,-0.6224822998046875,0.7955474853515625
161175,0.35870361328125,-0.597625732421875,0.731170654296875
161176,0.2966461181640625,-0.56011962890625,0.6856231689453125
161177,0.2429351806640625,-0.5003509521484375,0.649566650390625
161178,0.203582763671875,-0.4204559326171875,0.6319732666015625
161179,0.158905029296875,-0.368743896484375,0.64923095703125
161180,0.0963287353515625,-0.3828277587890625,0.6740875244140625
161181,0.022125244140625,-0.4256744384765625,0.6756134033203125
161182,0.022125244140625,-0.4256744384765625,0.6756134033203125
161183,-0.1004486083984375,-0.4795074462890625,0.661834716796875
161184,-0.43023681640625,-0.5610809326171875,0.89544677734375
161185,-0.4480438232421875,-0.581787109375,0.8544464111328125
161186,-0.3473968505859375,-0.6416473388671875,0.54925537109375
161187,-0.206024169921875,-0.6922607421875,0.3502044677734375
161188,-0.0976104736328125,-0.7259979248046875,0.3017120361328125
161189,-0.0288848876953125,-0.7530364990234375,0.33221435546875
161190,0.00909423828125,-0.7639007568359375,0.4085235595703125
161191,0.0420989990234375,-0.7845916748046875,0.495635986328125
161192,0.080413818359375,-0.814361572265625,0.607177734375
161193,0.1014862060546875,-0.8476409912109375,0.720001220703125
161194,0.0996246337890625,-0.8943328857421875,0.7845306396484375
161195,0.0679931640625,-0.94854736328125,0.8083343505859375
161196,-0.0093994140625,-1.01422119140625,0.8117218017578125
161197,-0.109527587890625,-1.059890747070312,0.8304290771484375
161198,-0.1792755126953125,-1.048233032226562,0.8482818603515625
161199,-0.1865692138671875,-0.9841461181640624,0.806427001953125
161200,-0.1377105712890625,-0.8788604736328125,0.6981964111328125
161201,-0.03338623046875,-0.7515716552734375,0.58135986328125
161202,0.0840301513671875,-0.6517181396484375,0.5317535400390625
161203,0.17138671875,-0.582000732421875,0.611419677734375
161204,0.231201171875,-0.5381622314453125,0.7413177490234375
161205,0.3088836669921875,-0.5037841796875,0.8195648193359375
161206,0.4141387939453125,-0.47802734375,0.827728271484375
161207,0.5297698974609375,-0.4837799072265625,0.8264617919921875
161208,0.6781463623046875,-0.478607177734375,0.7834320068359375
161209,0.6781463623046875,-0.478607177734375,0.7834320068359375
161210,0.6323089599609375,-0.4694061279296875,0.7374114990234375
161211,0.5431365966796875,-0.42584228515625,0.67095947265625
161212,0.4529876708984375,-0.3638153076171875,0.591156005859375
161213,0.4051513671875,-0.2898712158203125,0.531982421875
161214,0.436767578125,-0.21832275390625,0.499847412109375
161215,0.5581512451171875,-0.195770263671875,0.513397216796875
161216,0.735626220703125,-0.2401885986328125,0.5920867919921875
161217,1.044937133789062,-0.4258270263671875,0.7659454345703125
161218,1.044937133789062,-0.4258270263671875,0.7659454345703125
161219,1.112823486328125,-0.496734619140625,0.863067626953125
161220,1.09844970703125,-0.5,0.9515533447265624
161221,1.013870239257812,-0.4594879150390625,1.005172729492188
161222,0.877532958984375,-0.4367828369140625,1.019989013671875
161223,0.705047607421875,-0.44781494140625,0.9710693359375
161224,0.5073089599609375,-0.48919677734375,0.8759002685546875
161225,0.3055572509765625,-0.5609893798828125,0.7608795166015625
161226,0.1498870849609375,-0.6287689208984375,0.6616363525390625
161227,0.0634613037109375,-0.6875152587890625,0.57305908203125
161228,0.042633056640625,-0.7434844970703125,0.4906768798828125
161229,0.0644683837890625,-0.7823638916015625,0.4221954345703125
161230,0.1050262451171875,-0.8048095703125,0.3919525146484375
161231,0.1566925048828125,-0.815216064453125,0.4146881103515625
161232,0.2039947509765625,-0.8162689208984375,0.4578399658203125
161233,0.230712890625,-0.822784423828125,0.5102691650390625
161234,0.2457275390625,-0.8154754638671875,0.5568695068359375
161235,0.2457275390625,-0.8154754638671875,0.5568695068359375
161236,0.2525787353515625,-0.8190765380859375,0.5877532958984375
161237,0.2413787841796875,-0.877532958984375,0.63580322265625
161238,0.2420196533203125,-0.884307861328125,0.6855010986328125
161239,0.265777587890625,-0.8761138916015625,0.7711639404296875
161240,0.3121337890625,-0.851104736328125,0.8106689453125
161241,0.36279296875,-0.8172454833984375,0.7547454833984375
161242,0.358856201171875,-0.77099609375,0.7474212646484375
161243,0.2674560546875,-0.713470458984375,0.826629638671875
161244,0.140289306640625,-0.67730712890625,0.860626220703125
161245,0.0274658203125,-0.6614837646484375,0.8177642822265625
161246,0.0274658203125,-0.6614837646484375,0.8177642822265625
161247,-0.0530242919921875,-0.6786956787109375,0.71063232421875
161248,-0.059844970703125,-0.7519683837890625,0.617218017578125
161249,-0.053375244140625,-0.7758026123046875,0.605865478515625
161250,-0.053375244140625,-0.7758026123046875,0.605865478515625
161251,-0.0690460205078125,-0.78656005859375,0.609588623046875
161252,-0.127960205078125,-0.7523345947265625,0.5988006591796875
161253,-0.146820068359375,-0.73150634765625,0.5803985595703125
161254,-0.15411376953125,-0.72576904296875,0.5607147216796875
161255,-0.133575439453125,-0.749176025390625,0.5391693115234375
161256,-0.0727386474609375,-0.780059814453125,0.54254150390625
161257,0.0311431884765625,-0.803863525390625,0.5737152099609375
161258,0.1604766845703125,-0.81646728515625,0.6137237548828125
161259,0.2989349365234375,-0.835235595703125,0.649658203125
161260,0.4333343505859375,-0.8341522216796875,0.666961669921875
161261,0.5493621826171875,-0.8175811767578125,0.6712799072265625
161262,0.5493621826171875,-0.8175811767578125,0.6712799072265625
161263,0.71527099609375,-0.7157135009765625,0.6304779052734375
161264,0.761444091796875,-0.619598388671875,0.571929931640625
161265,0.78466796875,-0.534942626953125,0.543121337890625
161266,0.78350830078125,-0.50250244140625,0.51336669921875
161267,0.7915191650390625,-0.520172119140625,0.4824981689453125
161268,0.826324462890625,-0.5613555908203125,0.5051727294921875
161269,0.907257080078125,-0.612030029296875,0.5795745849609375
161270,1.021896362304688,-0.6541595458984375,0.6664581298828125
161271,1.13494873046875,-0.6998291015625,0.731231689453125
161272,1.203643798828125,-0.7419586181640625,0.7687225341796875
161273,1.199661254882812,-0.7573089599609375,0.8142852783203125
161274,1.199661254882812,-0.7573089599609375,0.8142852783203125
161275,1.119033813476562,-0.7573699951171875,0.8363494873046875
161276,0.817138671875,-0.7240447998046875,0.752777099609375
161277,0.6794891357421875,-0.683868408203125,0.724609375
161278,0.6794891357421875,-0.683868408203125,0.724609375
161279,0.5857391357421875,-0.6531982421875,0.724761962890625
161280,0.489501953125,-0.6124114990234375,0.7393646240234375
161281,0.44696044921875,-0.6014556884765625,0.7318267822265625
161282,0.3970489501953125,-0.5906524658203125,0.7397308349609375
161283,0.33612060546875,-0.5702972412109375,0.7602081298828125
161284,0.2595062255859375,-0.541351318359375,0.7537841796875
161285,0.17718505859375,-0.5133819580078125,0.7255706787109375
161286,0.102264404296875,-0.4854583740234375,0.6904754638671875
161287,0.0275115966796875,-0.4597930908203125,0.673248291015625
161288,-0.0341949462890625,-0.4261627197265625,0.6601409912109375
161289,-0.0670928955078125,-0.3811187744140625,0.6297454833984375
161290,-0.081451416015625,-0.3419036865234375,0.583038330078125
161291,-0.0871429443359375,-0.3163299560546875,0.55096435546875
161292,-0.1021575927734375,-0.3137969970703125,0.533477783203125
161293,-0.122711181640625,-0.34527587890625,0.5065765380859375
161294,-0.1390380859375,-0.4361572265625,0.457611083984375
161295,-0.125640869140625,-0.5353851318359375,0.4189300537109375
161296,-0.0972900390625,-0.59967041015625,0.3969268798828125
161297,-0.0708770751953125,-0.6497650146484375,0.396331787109375
161298,-0.036224365234375,-0.691497802734375,0.41607666015625
161299,-0.0131988525390625,-0.7407379150390625,0.473663330078125
161300,0.0036773681640625,-0.8087158203125,0.55926513671875
161301,0.033111572265625,-0.8885955810546875,0.658050537109375
161302,0.049224853515625,-0.9624176025390624,0.741302490234375
161303,0.03326416015625,-1.031524658203125,0.779296875
161304,-0.1342010498046875,-1.184906005859375,0.779754638671875
161305,-0.1342010498046875,-1.184906005859375,0.779754638671875
161306,-0.2631072998046875,-1.20880126953125,0.78570556640625
161307,-0.3341827392578125,-1.148300170898438,0.7878265380859375
161308,-0.320068359375,-1.02044677734375,0.7584991455078125
161309,-0.2192840576171875,-0.88946533203125,0.7028656005859375
161310,-0.0803070068359375,-0.80145263671875,0.64031982421875
161311,0.05010986328125,-0.737335205078125,0.6164398193359375
161312,0.138671875,-0.6637115478515625,0.6622772216796875
161313,0.182861328125,-0.5931854248046875,0.7442626953125
161314,0.218719482421875,-0.5597381591796875,0.823883056640625
161315,0.291107177734375,-0.559326171875,0.8590850830078125
161316,0.3787994384765625,-0.5666046142578125,0.8384246826171875
161317,0.463623046875,-0.5681304931640625,0.818572998046875
161318,0.54156494140625,-0.5578155517578125,0.791900634765625
161319,0.587005615234375,-0.5371856689453125,0.72576904296875
161320,0.593505859375,-0.4798126220703125,0.6403656005859375
161321,0.6192169189453125,-0.3476409912109375,0.5765380859375
161322,0.67242431640625,-0.2153472900390625,0.5318756103515625
161323,0.7658538818359375,-0.1480712890625,0.49835205078125
161324,0.914825439453125,-0.1530303955078125,0.5147247314453125
161325,1.08880615234375,-0.2211151123046875,0.641876220703125
161326,1.08880615234375,-0.2211151123046875,0.641876220703125
161327,1.242218017578125,-0.3098602294921875,0.81768798828125
161328,1.375640869140625,-0.392730712890625,0.99859619140625
161329,1.321258544921875,-0.353057861328125,0.986175537109375
161330,1.321258544921875,-0.353057861328125,0.986175537109375
161331,1.19598388671875,-0.3040313720703125,0.92987060546875
161332,0.6054840087890625,-0.3932037353515625,0.7454071044921875
161333,0.6054840087890625,-0.3932037353515625,0.7454071044921875
161334,0.6054840087890625,-0.3932037353515625,0.7454071044921875
161335,0.42877197265625,-0.4980621337890625,0.7121429443359375
161336,0.1679229736328125,-0.6406707763671875,0.6012115478515625
161337,0.0772857666015625,-0.68017578125,0.5362548828125
161338,0.0772857666015625,-0.68017578125,0.5362548828125
161339,0.01043701171875,-0.699951171875,0.4630584716796875
161340,-0.09307861328125,-0.7511749267578125,0.3390350341796875
161341,-0.027984619140625,-0.7921905517578125,0.3265380859375
161342,0.0700531005859375,-0.881683349609375,0.3232421875
161343,0.150543212890625,-0.955291748046875,0.35455322265625
161344,0.1990966796875,-1.007476806640625,0.4534454345703125
161345,0.2324066162109375,-1.0400390625,0.62750244140625
161346,0.265655517578125,-1.024017333984375,0.8420257568359375
161347,0.316375732421875,-0.9498748779296876,0.9600067138671876
161348,0.353302001953125,-0.8580780029296875,0.94134521484375
161349,0.347625732421875,-0.82501220703125,0.918792724609375
161350,0.347625732421875,-0.82501220703125,0.918792724609375
161351,0.2925567626953125,-0.8069000244140625,0.904754638671875
161352,0.0792999267578125,-0.738861083984375,0.830078125
161353,-0.0330810546875,-0.752471923828125,0.771697998046875
161354,-0.0330810546875,-0.752471923828125,0.771697998046875
161355,-0.1265716552734375,-0.793182373046875,0.696746826171875
161356,-0.206695556640625,-0.8111114501953125,0.596710205078125
161357,-0.19586181640625,-0.807830810546875,0.5863494873046875
161358,-0.19586181640625,-0.807830810546875,0.5863494873046875
161359,-0.1787872314453125,-0.7835693359375,0.624786376953125
161360,-0.171966552734375,-0.728515625,0.683441162109375
161361,-0.166107177734375,-0.7252655029296875,0.703460693359375
161362,-0.164337158203125,-0.7526397705078125,0.6559906005859375
161363,-0.191864013671875,-0.7839508056640625,0.579986572265625
161364,-0.1892852783203125,-0.8037261962890625,0.5993804931640625
161365,-0.1541748046875,-0.8183135986328125,0.5843658447265625
161366,-0.1541748046875,-0.8183135986328125,0.5843658447265625
161367,-0.0688629150390625,-0.8217010498046875,0.552642822265625
161368,0.0693511962890625,-0.794677734375,0.58642578125
161369,0.397979736328125,-0.7651824951171875,0.516326904296875
161370,0.397979736328125,-0.7651824951171875,0.516326904296875
161371,0.5493927001953125,-0.7332916259765625,0.498046875
161372,0.807861328125,-0.6400146484375,0.54962158203125
161373,0.897552490234375,-0.577056884765625,0.5620269775390625
161374,0.897552490234375,-0.577056884765625,0.5620269775390625
161375,0.9899749755859376,-0.5005340576171875,0.560516357421875
161376,1.2073974609375,-0.3894805908203125,0.5259857177734375
161377,1.29986572265625,-0.376373291015625,0.5133514404296875
161378,1.29986572265625,-0.376373291015625,0.5133514404296875
161379,1.362258911132812,-0.40966796875,0.5374298095703125
161380,1.339126586914062,-0.49859619140625,0.5679931640625
161381,1.302963256835938,-0.5339813232421875,0.5843963623046875
161382,1.302963256835938,-0.5339813232421875,0.5843963623046875
161383,1.270187377929688,-0.56640625,0.617767333984375
161384,1.144622802734375,-0.5966949462890625,0.6552886962890625
161385,1.030380249023438,-0.597869873046875,0.6536865234375
161386,1.030380249023438,-0.597869873046875,0.6536865234375
161387,0.8970184326171875,-0.5960693359375,0.6636962890625
161388,0.6391754150390625,-0.6124114990234375,0.73681640625
161389,0.5132598876953125,-0.58746337890625,0.761505126953125
161390,0.5132598876953125,-0.58746337890625,0.761505126953125
161391,0.3959808349609375,-0.533599853515625,0.7648162841796875
161392,0.2127532958984375,-0.4718780517578125,0.7553558349609375
161393,0.1417388916015625,-0.4403228759765625,0.7406768798828125
161394,0.1417388916015625,-0.4403228759765625,0.7406768798828125
161395,0.08270263671875,-0.40447998046875,0.7270660400390625
161396,-0.005645751953125,-0.3516387939453125,0.659576416015625
161397,-0.005645751953125,-0.3516387939453125,0.659576416015625
161398,-0.005645751953125,-0.3516387939453125,0.659576416015625
161399,-0.020233154296875,-0.3469390869140625,0.6383056640625
161400,-0.1402740478515625,-0.52490234375,0.6623077392578125
161401,-0.1402740478515625,-0.52490234375,0.6623077392578125
161402,-0.1402740478515625,-0.52490234375,0.6623077392578125
161403,-0.1319732666015625,-0.6145782470703125,0.682891845703125
161404,-0.0354461669921875,-0.7026214599609375,0.6314544677734375
161405,-0.011505126953125,-0.7211761474609375,0.593597412109375
161406,-0.011505126953125,-0.7211761474609375,0.593597412109375
161407,-0.0266265869140625,-0.7482147216796875,0.5472564697265625
161408,-0.1059417724609375,-0.8437042236328125,0.4959564208984375
161409,-0.124542236328125,-0.8798065185546875,0.54638671875
161410,-0.124542236328125,-0.8798065185546875,0.54638671875
161411,-0.114227294921875,-0.880340576171875,0.637237548828125
161412,-0.0904083251953125,-0.8658447265625,0.7722015380859375
161413,-0.1101837158203125,-0.90032958984375,0.770782470703125
161414,-0.1101837158203125,-0.90032958984375,0.770782470703125
161415,-0.1515960693359375,-0.9531402587890624,0.7507171630859375
161416,-0.1978607177734375,-0.946929931640625,0.7368316650390625
161417,-0.174102783203125,-0.8695526123046875,0.7425079345703125
161418,-0.174102783203125,-0.8695526123046875,0.7425079345703125
161419,-0.111572265625,-0.7629241943359375,0.750244140625
161420,0.076446533203125,-0.6766204833984375,0.6640472412109375
161421,0.173919677734375,-0.669464111328125,0.6501312255859375
161422,0.173919677734375,-0.669464111328125,0.6501312255859375
161423,0.2420196533203125,-0.6529998779296875,0.6875457763671875
161424,0.3724365234375,-0.571990966796875,0.8695068359375
161425,0.3724365234375,-0.571990966796875,0.8695068359375
161426,0.3724365234375,-0.571990966796875,0.8695068359375
161427,0.45050048828125,-0.56671142578125,0.8513336181640625
161428,0.655517578125,-0.460205078125,0.5715789794921875
161429,0.655517578125,-0.460205078125,0.5715789794921875
161430,0.655517578125,-0.460205078125,0.5715789794921875
161431,0.6445159912109375,-0.376373291015625,0.4622344970703125
161432,0.707305908203125,-0.2505340576171875,0.37554931640625
161433,0.84796142578125,-0.2547149658203125,0.4373626708984375
161434,0.84796142578125,-0.2547149658203125,0.4373626708984375
161435,1.038543701171875,-0.2882232666015625,0.5756072998046875
161436,1.350799560546875,-0.3596649169921875,0.8815460205078125
161437,1.3670654296875,-0.341949462890625,0.962677001953125
161438,1.3670654296875,-0.341949462890625,0.962677001953125
161439,1.263946533203125,-0.2973175048828125,1.000152587890625
161440,0.8952484130859375,-0.308624267578125,0.93505859375
161441,0.70562744140625,-0.35272216796875,0.847076416015625
161442,0.70562744140625,-0.35272216796875,0.847076416015625
161443,0.547576904296875,-0.42413330078125,0.7690582275390625
161444,0.3062591552734375,-0.5655670166015625,0.6251983642578125
161445,0.2124176025390625,-0.597900390625,0.570068359375
161446,0.1388397216796875,-0.6065826416015625,0.5126800537109375
161447,0.0960845947265625,-0.6218719482421875,0.47088623046875
161448,0.069793701171875,-0.6341705322265625,0.433837890625
161449,0.0793609619140625,-0.6607208251953125,0.4026031494140625
161450,0.0793609619140625,-0.6607208251953125,0.4026031494140625
161451,0.152587890625,-0.71331787109375,0.398712158203125
161452,0.3754119873046875,-0.7986907958984375,0.448577880859375
161453,0.44903564453125,-0.841033935546875,0.5082244873046875
161454,0.44903564453125,-0.841033935546875,0.5082244873046875
161455,0.4654083251953125,-0.8856048583984375,0.622772216796875
161456,0.3534088134765625,-0.967437744140625,0.941009521484375
161457,0.21929931640625,-1.029159545898438,1.095001220703125
161458,0.21929931640625,-1.029159545898438,1.095001220703125
161459,0.0579071044921875,-1.054550170898438,1.171798706054688
161460,-0.3500518798828125,-0.9463958740234376,0.98876953125
161461,-0.514251708984375,-0.8582000732421875,0.8404083251953125
161462,-0.37359619140625,-0.7608795166015625,0.6453857421875
161463,-0.1980438232421875,-0.7507781982421875,0.3232421875
161464,-0.2553558349609375,-0.804351806640625,0.2249298095703125
161465,-0.3025054931640625,-0.8268585205078125,0.387939453125
161466,-0.3025054931640625,-0.8268585205078125,0.387939453125
161467,-0.2698211669921875,-0.7946014404296875,0.5744476318359375
161468,-0.0816802978515625,-0.7798004150390625,0.8104248046875
161469,0.01434326171875,-0.7461090087890625,0.83251953125
161470,0.01434326171875,-0.7461090087890625,0.83251953125
161471,0.06854248046875,-0.721893310546875,0.8049774169921875
161472,0.0758209228515625,-0.7177886962890625,0.725311279296875
161473,0.056365966796875,-0.743804931640625,0.654327392578125
161474,0.056365966796875,-0.743804931640625,0.654327392578125
161475,0.055084228515625,-0.774078369140625,0.5832366943359375
161476,0.2546234130859375,-0.727081298828125,0.484405517578125
161477,0.2546234130859375,-0.727081298828125,0.484405517578125
161478,0.2546234130859375,-0.727081298828125,0.484405517578125
161479,0.3483123779296875,-0.6969757080078125,0.4797210693359375
161480,0.6251678466796875,-0.6802520751953125,0.5178985595703125
161481,0.6251678466796875,-0.6802520751953125,0.5178985595703125
161482,0.6251678466796875,-0.6802520751953125,0.5178985595703125
161483,0.726531982421875,-0.6486358642578125,0.538665771484375
161484,1.015869140625,-0.539947509765625,0.5365447998046875
161485,1.015869140625,-0.539947509765625,0.5365447998046875
161486,1.015869140625,-0.539947509765625,0.5365447998046875
161487,1.05975341796875,-0.5367889404296875,0.5142974853515625
161488,1.090576171875,-0.6385498046875,0.5445556640625
161489,1.090576171875,-0.6385498046875,0.5445556640625
161490,1.090576171875,-0.6385498046875,0.5445556640625
161491,1.092803955078125,-0.660400390625,0.558319091796875
161492,1.079605102539062,-0.6546478271484375,0.6104888916015625
161493,1.064224243164062,-0.6736297607421875,0.6450347900390625
161494,1.064224243164062,-0.6736297607421875,0.6450347900390625
161495,1.0152587890625,-0.69281005859375,0.650726318359375
161496,0.819549560546875,-0.700927734375,0.6220703125
161497,0.7158966064453125,-0.703216552734375,0.6306610107421875
161498,0.7158966064453125,-0.703216552734375,0.6306610107421875
161499,0.637725830078125,-0.70611572265625,0.662872314453125
161500,0.49053955078125,-0.5800018310546875,0.7350006103515625
161501,0.49053955078125,-0.5800018310546875,0.7350006103515625
161502,0.49053955078125,-0.5800018310546875,0.7350006103515625
161503,0.44580078125,-0.50506591796875,0.7153167724609375
161504,0.3333740234375,-0.3895721435546875,0.6900177001953125
161505,0.3333740234375,-0.3895721435546875,0.6900177001953125
161506,0.284271240234375,-0.40179443359375,0.697509765625
161507,0.23663330078125,-0.41326904296875,0.6983795166015625
161508,0.1082611083984375,-0.449737548828125,0.682159423828125
161509,0.1082611083984375,-0.449737548828125,0.682159423828125
161510,-0.0023651123046875,-0.4670562744140625,0.75360107421875
161511,-0.0023651123046875,-0.4670562744140625,0.75360107421875
161512,-0.3260955810546875,-0.5629425048828125,0.7064666748046875
161513,-0.3260955810546875,-0.5629425048828125,0.7064666748046875
161514,-0.3260955810546875,-0.5629425048828125,0.7064666748046875
161515,-0.3418121337890625,-0.60888671875,0.60626220703125
161516,-0.212921142578125,-0.7892303466796875,0.42449951171875
161517,-0.212921142578125,-0.7892303466796875,0.42449951171875
161518,-0.212921142578125,-0.7892303466796875,0.42449951171875
161519,-0.1806640625,-0.84417724609375,0.4605865478515625
161520,-0.0140838623046875,-0.960601806640625,0.746917724609375
161521,-0.0140838623046875,-0.960601806640625,0.746917724609375
161522,-0.0140838623046875,-0.960601806640625,0.746917724609375
161523,-0.0340728759765625,-0.9890899658203124,0.860382080078125
161524,-0.3270721435546875,-1.19378662109375,0.82470703125
161525,-0.3270721435546875,-1.19378662109375,0.82470703125
161526,-0.3270721435546875,-1.19378662109375,0.82470703125
161527,-0.4504241943359375,-1.138809204101562,0.8115081787109375
161528,-0.2832183837890625,-0.6993865966796875,0.61614990234375
161529,-0.2832183837890625,-0.6993865966796875,0.61614990234375
161530,-0.2832183837890625,-0.6993865966796875,0.61614990234375
161531,-0.13177490234375,-0.6399078369140625,0.581817626953125
161532,0.2046051025390625,-0.548675537109375,0.7089996337890625
161533,0.2046051025390625,-0.548675537109375,0.7089996337890625
161534,0.2046051025390625,-0.548675537109375,0.7089996337890625
161535,0.306854248046875,-0.5305938720703125,0.7508697509765625
161536,0.632110595703125,-0.5111236572265625,0.883575439453125
161537,0.632110595703125,-0.5111236572265625,0.883575439453125
161538,0.632110595703125,-0.5111236572265625,0.883575439453125
161539,0.6969757080078125,-0.49554443359375,0.867919921875
161540,0.649383544921875,-0.3870391845703125,0.5293121337890625
161541,0.649383544921875,-0.3870391845703125,0.5293121337890625
161542,0.649383544921875,-0.3870391845703125,0.5293121337890625
161543,0.656982421875,-0.3484649658203125,0.42718505859375
161544,0.95220947265625,-0.3909912109375,0.4564056396484375
161545,0.95220947265625,-0.3909912109375,0.4564056396484375
161546,0.95220947265625,-0.3909912109375,0.4564056396484375
161547,1.094100952148438,-0.442047119140625,0.580963134765625
161548,1.3023681640625,-0.4663238525390625,0.9286346435546876
161549,1.3023681640625,-0.4663238525390625,0.9286346435546876
161550,1.233108520507812,-0.4387359619140625,1.008544921875
161551,1.085098266601562,-0.4295654296875,1.005783081054688
161552,0.6902313232421875,-0.468505859375,0.83203125
161553,0.6902313232421875,-0.468505859375,0.83203125
161554,0.6902313232421875,-0.468505859375,0.83203125
161555,0.50811767578125,-0.4975433349609375,0.758331298828125
161556,0.205780029296875,-0.572235107421875,0.5538482666015625
161557,0.205780029296875,-0.572235107421875,0.5538482666015625
161558,0.205780029296875,-0.572235107421875,0.5538482666015625
161559,0.1667938232421875,-0.5796051025390625,0.5135955810546875
161560,0.040435791015625,-0.650177001953125,0.4171142578125
161561,0.040435791015625,-0.650177001953125,0.4171142578125
161562,0.026123046875,-0.7186737060546875,0.42584228515625
161563,0.0321197509765625,-0.7814178466796875,0.4449005126953125
161564,0.10546875,-0.8808135986328125,0.5243377685546875
161565,0.10546875,-0.8808135986328125,0.5243377685546875
161566,0.17205810546875,-0.9096527099609376,0.6287841796875
161567,0.262237548828125,-0.8931884765625,0.70355224609375
161568,0.378143310546875,-0.8065948486328125,0.6987762451171875
161569,0.378143310546875,-0.8065948486328125,0.6987762451171875
161570,0.378143310546875,-0.8065948486328125,0.6987762451171875
161571,0.3564300537109375,-0.78076171875,0.743743896484375
161572,0.0093841552734375,-0.7331695556640625,0.9196624755859376
161573,0.0093841552734375,-0.7331695556640625,0.9196624755859376
161574,0.0093841552734375,-0.7331695556640625,0.9196624755859376
161575,-0.0953216552734375,-0.6854095458984375,0.9752960205078124
161576,0.06243896484375,-0.7200164794921875,0.700958251953125
161577,0.06243896484375,-0.7200164794921875,0.700958251953125
161578,0.06243896484375,-0.7200164794921875,0.700958251953125
161579,-0.062103271484375,-0.776458740234375,0.5431976318359375
161580,-0.208953857421875,-0.7901458740234375,0.737518310546875
161581,-0.208953857421875,-0.7901458740234375,0.737518310546875
161582,-0.208953857421875,-0.7901458740234375,0.737518310546875
161583,-0.1642913818359375,-0.7534332275390625,0.7830963134765625
161584,-0.0721282958984375,-0.6418914794921875,0.6696624755859375
161585,-0.0721282958984375,-0.6418914794921875,0.6696624755859375
161586,-0.0721282958984375,-0.6418914794921875,0.6696624755859375
161587,-0.0790252685546875,-0.65618896484375,0.6136322021484375
161588,0.0022125244140625,-0.740936279296875,0.5338897705078125
161589,0.0022125244140625,-0.740936279296875,0.5338897705078125
161590,0.0022125244140625,-0.740936279296875,0.5338897705078125
161591,0.0964508056640625,-0.739990234375,0.539276123046875
161592,0.449951171875,-0.6501922607421875,0.5918121337890625
161593,0.449951171875,-0.6501922607421875,0.5918121337890625
161594,0.449951171875,-0.6501922607421875,0.5918121337890625
161595,0.5675506591796875,-0.6378173828125,0.605804443359375
161596,0.7625579833984375,-0.6204681396484375,0.601959228515625
161597,0.8397216796875,-0.5983123779296875,0.597900390625
161598,0.8397216796875,-0.5983123779296875,0.597900390625
161599,0.89337158203125,-0.564208984375,0.5676116943359375
161600,0.9665374755859376,-0.474609375,0.4832916259765625
161601,0.9665374755859376,-0.474609375,0.4832916259765625
161602,1.0003662109375,-0.4979400634765625,0.4963836669921875
161603,1.050018310546875,-0.551544189453125,0.5338134765625
161604,1.168731689453125,-0.6717681884765625,0.6856689453125
161605,1.168731689453125,-0.6717681884765625,0.6856689453125
161606,1.168731689453125,-0.6717681884765625,0.6856689453125
161607,1.194076538085938,-0.6949462890625,0.7524566650390625
161608,1.0360107421875,-0.7261810302734375,0.6848297119140625
161609,1.0360107421875,-0.7261810302734375,0.6848297119140625
161610,0.8950653076171875,-0.716644287109375,0.61346435546875
161611,0.7340240478515625,-0.697021484375,0.5509033203125
161612,0.604766845703125,-0.674713134765625,0.5224151611328125
161613,0.5239715576171875,-0.648101806640625,0.529876708984375
161614,0.5239715576171875,-0.648101806640625,0.529876708984375
161615,0.4801025390625,-0.6357421875,0.5340118408203125
161616,0.4460296630859375,-0.5167694091796875,0.665771484375
161617,0.4460296630859375,-0.5167694091796875,0.665771484375
161618,0.4460296630859375,-0.5167694091796875,0.665771484375
161619,0.4335784912109375,-0.47039794921875,0.7066650390625
161620,0.335693359375,-0.4841461181640625,0.750885009765625
161621,0.335693359375,-0.4841461181640625,0.750885009765625
161622,0.335693359375,-0.4841461181640625,0.750885009765625
161623,0.2615966796875,-0.5116119384765625,0.7132110595703125
161624,-0.055755615234375,-0.5650482177734375,0.688720703125
161625,-0.055755615234375,-0.5650482177734375,0.688720703125
161626,-0.055755615234375,-0.5650482177734375,0.688720703125
161627,-0.1390838623046875,-0.558197021484375,0.6351318359375
161628,-0.180328369140625,-0.670745849609375,0.4754486083984375
161629,-0.180328369140625,-0.670745849609375,0.4754486083984375
161630,-0.1068572998046875,-0.7242889404296875,0.45123291015625
161631,-0.0298309326171875,-0.7601165771484375,0.429901123046875
161632,0.1140289306640625,-0.8117218017578125,0.514739990234375
161633,0.1140289306640625,-0.8117218017578125,0.514739990234375
161634,0.1140289306640625,-0.8117218017578125,0.514739990234375
161635,0.169342041015625,-0.8265533447265625,0.588134765625
161636,0.2456817626953125,-0.8870391845703125,0.7447509765625
161637,0.2456817626953125,-0.8870391845703125,0.7447509765625
161638,0.1943511962890625,-0.937286376953125,0.775146484375
161639,0.104644775390625,-1.007003784179688,0.7863616943359375
161640,-0.1614837646484375,-1.098312377929688,0.7584075927734375
161641,-0.1614837646484375,-1.098312377929688,0.7584075927734375
161642,-0.1614837646484375,-1.098312377929688,0.7584075927734375
161643,-0.2516021728515625,-1.082504272460938,0.7206878662109375
161644,-0.139495849609375,-0.777801513671875,0.6753692626953125
161645,-0.139495849609375,-0.777801513671875,0.6753692626953125
161646,-0.139495849609375,-0.777801513671875,0.6753692626953125
161647,-0.024200439453125,-0.6984405517578125,0.6403045654296875
161648,0.2322235107421875,-0.58245849609375,0.7101593017578125
161649,0.2322235107421875,-0.58245849609375,0.7101593017578125
161650,0.31195068359375,-0.5673370361328125,0.745819091796875
161651,0.402618408203125,-0.5641937255859375,0.7469482421875
161652,0.5821380615234375,-0.53448486328125,0.7567596435546875
161653,0.5821380615234375,-0.53448486328125,0.7567596435546875
161654,0.5821380615234375,-0.53448486328125,0.7567596435546875
161655,0.6269378662109375,-0.49066162109375,0.73291015625
161656,0.548309326171875,-0.30303955078125,0.4531707763671875
161657,0.548309326171875,-0.30303955078125,0.4531707763671875
161658,0.548309326171875,-0.30303955078125,0.4531707763671875
161659,0.590850830078125,-0.2678985595703125,0.3939056396484375
161660,1.009185791015625,-0.3584747314453125,0.5526580810546875
161661,1.009185791015625,-0.3584747314453125,0.5526580810546875
161662,1.185760498046875,-0.4159088134765625,0.6919097900390625
161663,1.308883666992188,-0.4481353759765625,0.8541107177734375
161664,1.234024047851562,-0.375732421875,0.9829559326171876
161665,1.234024047851562,-0.375732421875,0.9829559326171876
161666,1.234024047851562,-0.375732421875,0.9829559326171876
161667,1.081893920898438,-0.360870361328125,0.9235687255859376
161668,0.53533935546875,-0.5789337158203125,0.7225341796875
161669,0.53533935546875,-0.5789337158203125,0.7225341796875
161670,0.53533935546875,-0.5789337158203125,0.7225341796875
161671,0.4088134765625,-0.65496826171875,0.671295166015625
161672,0.165802001953125,-0.739227294921875,0.539276123046875
161673,0.165802001953125,-0.739227294921875,0.539276123046875
161674,0.165802001953125,-0.739227294921875,0.539276123046875
161675,0.1373443603515625,-0.739227294921875,0.482177734375
161676,0.098541259765625,-0.783935546875,0.3374786376953125
161677,0.098541259765625,-0.783935546875,0.3374786376953125
161678,0.098541259765625,-0.783935546875,0.3374786376953125
161679,0.10601806640625,-0.8444976806640625,0.2786865234375
161680,0.2989501953125,-0.943695068359375,0.53265380859375
161681,0.2989501953125,-0.943695068359375,0.53265380859375
161682,0.2989501953125,-0.943695068359375,0.53265380859375
161683,0.374725341796875,-0.9701690673828124,0.6418304443359375
161684,0.4432373046875,-0.9023284912109376,0.923675537109375
161685,0.4432373046875,-0.9023284912109376,0.923675537109375
161686,0.4432373046875,-0.9023284912109376,0.923675537109375
161687,0.40728759765625,-0.845458984375,0.9527435302734376
161688,0.159759521484375,-0.691986083984375,0.8083343505859375
161689,0.159759521484375,-0.691986083984375,0.8083343505859375
161690,0.159759521484375,-0.691986083984375,0.8083343505859375
161691,0.0695037841796875,-0.6751556396484375,0.679718017578125
161692,-0.01617431640625,-0.7707061767578125,0.5238494873046875
161693,-0.01617431640625,-0.7707061767578125,0.5238494873046875
161694,-0.01617431640625,-0.7707061767578125,0.5238494873046875
161695,0.0231475830078125,-0.8256988525390625,0.6387939453125
161696,0.1195068359375,-0.8178253173828125,0.8425140380859375
161697,0.1195068359375,-0.8178253173828125,0.8425140380859375
161698,0.1223602294921875,-0.763153076171875,0.7782745361328125
161699,0.11480712890625,-0.696441650390625,0.689666748046875
161700,0.09521484375,-0.650390625,0.59710693359375
161701,0.073760986328125,-0.637939453125,0.5276947021484375
161702,0.073760986328125,-0.637939453125,0.5276947021484375
161703,0.064422607421875,-0.6485137939453125,0.4945220947265625
161704,0.2100982666015625,-0.6893157958984375,0.4916839599609375
161705,0.2100982666015625,-0.6893157958984375,0.4916839599609375
161706,0.2100982666015625,-0.6893157958984375,0.4916839599609375
161707,0.2986602783203125,-0.6880950927734375,0.5065460205078125
161708,0.510833740234375,-0.594329833984375,0.655120849609375
161709,0.510833740234375,-0.594329833984375,0.655120849609375
161710,0.5207977294921875,-0.59326171875,0.662078857421875
161711,0.5367431640625,-0.5919342041015625,0.6504364013671875
161712,0.56414794921875,-0.5630035400390625,0.63702392578125
161713,0.59747314453125,-0.5166168212890625,0.6174468994140625
161714,0.59747314453125,-0.5166168212890625,0.6174468994140625
161715,0.622161865234375,-0.46307373046875,0.5821533203125
161716,0.691802978515625,-0.41497802734375,0.5514678955078125
161717,0.716400146484375,-0.44537353515625,0.5675811767578125
161718,0.716400146484375,-0.44537353515625,0.5675811767578125
161719,0.7406005859375,-0.5020904541015625,0.60369873046875
161720,0.9630279541015624,-0.660247802734375,0.75506591796875
161721,0.9630279541015624,-0.660247802734375,0.75506591796875
161722,0.9630279541015624,-0.660247802734375,0.75506591796875
161723,1.066055297851562,-0.686004638671875,0.8123321533203125
161724,0.963653564453125,-0.7689666748046875,0.7769927978515625
161725,0.963653564453125,-0.7689666748046875,0.7769927978515625
161726,0.847381591796875,-0.7535858154296875,0.6781463623046875
161727,0.7134552001953125,-0.72052001953125,0.59918212890625
161728,0.4805450439453125,-0.662567138671875,0.5381011962890625
161729,0.4805450439453125,-0.662567138671875,0.5381011962890625
161730,0.40228271484375,-0.6215667724609375,0.5053863525390625
161731,0.333648681640625,-0.58154296875,0.4910430908203125
161732,0.2253570556640625,-0.5254058837890625,0.5587921142578125
161733,0.2253570556640625,-0.5254058837890625,0.5587921142578125
161734,0.2407684326171875,-0.492828369140625,0.6170806884765625
161735,0.2813873291015625,-0.47467041015625,0.68353271484375
161736,0.3501739501953125,-0.530853271484375,0.7446441650390625
161737,0.3501739501953125,-0.530853271484375,0.7446441650390625
161738,0.3406219482421875,-0.5900726318359375,0.71636962890625
161739,0.2747650146484375,-0.6429290771484375,0.6671142578125
161740,0.0668487548828125,-0.6849212646484375,0.5569305419921875
161741,0.0668487548828125,-0.6849212646484375,0.5569305419921875
161742,0.0083465576171875,-0.7021331787109375,0.4935455322265625
161743,-0.0186920166015625,-0.7344818115234375,0.4276275634765625
161744,-0.00146484375,-0.7555389404296875,0.3917999267578125
161745,-0.00146484375,-0.7555389404296875,0.3917999267578125
161746,-0.00146484375,-0.7555389404296875,0.3917999267578125
161747,0.029266357421875,-0.7649993896484375,0.397674560546875
161748,0.1726531982421875,-0.873291015625,0.5814361572265625
161749,0.1726531982421875,-0.873291015625,0.5814361572265625
161750,0.1726531982421875,-0.873291015625,0.5814361572265625
161751,0.200469970703125,-0.8921661376953125,0.700714111328125
161752,0.1290740966796875,-0.9524688720703124,0.8140411376953125
161753,0.1290740966796875,-0.9524688720703124,0.8140411376953125
161754,0.0560150146484375,-0.9964599609375,0.7641143798828125
161755,-0.03790283203125,-1.038299560546875,0.7005462646484375
161756,-0.1351470947265625,-0.998992919921875,0.6038818359375
161757,-0.1351470947265625,-0.998992919921875,0.6038818359375
161758,-0.1351470947265625,-0.998992919921875,0.6038818359375
161759,-0.1026153564453125,-0.92205810546875,0.5745849609375
161760,0.1650390625,-0.7084197998046875,0.6302337646484375
161761,0.1650390625,-0.7084197998046875,0.6302337646484375
161762,0.2581787109375,-0.65582275390625,0.6526947021484375
161763,0.3458404541015625,-0.615753173828125,0.6919403076171875
161764,0.465728759765625,-0.5734405517578125,0.7635955810546875
161765,0.465728759765625,-0.5734405517578125,0.7635955810546875
161766,0.465728759765625,-0.5734405517578125,0.7635955810546875
161767,0.5146636962890625,-0.57977294921875,0.7734527587890625
161768,0.5517120361328125,-0.5077667236328125,0.712738037109375
161769,0.5517120361328125,-0.5077667236328125,0.712738037109375
161770,0.5236358642578125,-0.466278076171875,0.631744384765625
161771,0.4953155517578125,-0.4350128173828125,0.52728271484375
161772,0.5880126953125,-0.3648223876953125,0.4322357177734375
161773,0.5880126953125,-0.3648223876953125,0.4322357177734375
161774,0.5880126953125,-0.3648223876953125,0.4322357177734375
161775,0.7138671875,-0.3502960205078125,0.4587554931640625
161776,1.146728515625,-0.3985748291015625,0.7550506591796875
161777,1.146728515625,-0.3985748291015625,0.7550506591796875
161778,1.146728515625,-0.3985748291015625,0.7550506591796875
161779,1.228546142578125,-0.3920440673828125,0.90045166015625
161780,1.068634033203125,-0.2987823486328125,0.9894561767578124
161781,0.8856353759765625,-0.3013458251953125,0.8981170654296875
161782,0.8856353759765625,-0.3013458251953125,0.8981170654296875
161783,0.687286376953125,-0.361907958984375,0.8279876708984375
161784,0.1992645263671875,-0.6087646484375,0.7125244140625
161785,0.1992645263671875,-0.6087646484375,0.7125244140625
161786,0.1992645263671875,-0.6087646484375,0.7125244140625
161787,0.127532958984375,-0.6680450439453125,0.6303558349609375
161788,0.12261962890625,-0.6998138427734375,0.497772216796875
161789,0.151519775390625,-0.6855010986328125,0.4625091552734375
161790,0.151519775390625,-0.6855010986328125,0.4625091552734375
161791,0.16375732421875,-0.683074951171875,0.4304046630859375
161792,0.147705078125,-0.752166748046875,0.423431396484375
161793,0.147705078125,-0.752166748046875,0.423431396484375
161794,0.147705078125,-0.752166748046875,0.423431396484375
161795,0.1739501953125,-0.7935943603515625,0.45001220703125
161796,0.43804931640625,-0.8682098388671875,0.5641326904296875
161797,0.43804931640625,-0.8682098388671875,0.5641326904296875
161798,0.43804931640625,-0.8682098388671875,0.5641326904296875
161799,0.4873199462890625,-0.86383056640625,0.63909912109375
161800,0.4859771728515625,-0.8500213623046875,0.7484893798828125
161801,0.4610748291015625,-0.83148193359375,0.8072357177734375
161802,0.4610748291015625,-0.83148193359375,0.8072357177734375
161803,0.3428192138671875,-0.773773193359375,0.943206787109375
161804,0.1765899658203125,-0.766571044921875,0.9459381103515624
161805,0.1765899658203125,-0.766571044921875,0.9459381103515624
161806,0.1765899658203125,-0.766571044921875,0.9459381103515624
161807,0.10406494140625,-0.7631378173828125,0.84759521484375
161808,-0.018798828125,-0.800201416015625,0.597259521484375
161809,-0.018798828125,-0.800201416015625,0.597259521484375
161810,-0.0554962158203125,-0.8586273193359375,0.5500946044921875
161811,-0.0908355712890625,-0.898345947265625,0.5264434814453125
161812,-0.1122283935546875,-0.8836212158203125,0.55517578125
161813,-0.1195068359375,-0.8424224853515625,0.6098480224609375
161814,-0.119537353515625,-0.8151092529296875,0.6538543701171875
161815,-0.1102294921875,-0.7945556640625,0.6869354248046875
161816,-0.010955810546875,-0.8003387451171875,0.6799163818359375
161817,-0.010955810546875,-0.8003387451171875,0.6799163818359375
161818,-0.010955810546875,-0.8003387451171875,0.6799163818359375
161819,0.1146087646484375,-0.80010986328125,0.6126861572265625
161820,0.1699676513671875,-0.6994781494140625,0.623291015625
161821,0.1699676513671875,-0.6994781494140625,0.623291015625
161822,0.1699676513671875,-0.6994781494140625,0.623291015625
161823,0.191864013671875,-0.6316986083984375,0.6202850341796875
161824,0.357391357421875,-0.490966796875,0.679046630859375
161825,0.357391357421875,-0.490966796875,0.679046630859375
161826,0.4754791259765625,-0.4464874267578125,0.7083740234375
161827,0.6047821044921875,-0.396026611328125,0.7119598388671875
161828,0.724365234375,-0.3984222412109375,0.6257781982421875
161829,0.724365234375,-0.3984222412109375,0.6257781982421875
161830,0.7537078857421875,-0.3959503173828125,0.60906982421875
161831,0.798828125,-0.4005584716796875,0.6023101806640625
161832,0.898651123046875,-0.4736785888671875,0.6216888427734375
161833,0.898651123046875,-0.4736785888671875,0.6216888427734375
161834,0.898651123046875,-0.4736785888671875,0.6216888427734375
161835,0.901641845703125,-0.5560760498046875,0.6722412109375
161836,0.791259765625,-0.723876953125,0.8248291015625
161837,0.791259765625,-0.723876953125,0.8248291015625
161838,0.7563323974609375,-0.7916717529296875,0.8145751953125
161839,0.701873779296875,-0.8354034423828125,0.7766876220703125
161840,0.5520782470703125,-0.8276519775390625,0.71368408203125
161841,0.5520782470703125,-0.8276519775390625,0.71368408203125
161842,0.5520782470703125,-0.8276519775390625,0.71368408203125
161843,0.4854583740234375,-0.7938690185546875,0.723175048828125
161844,0.3686370849609375,-0.6199188232421875,0.7987823486328125
161845,0.3686370849609375,-0.6199188232421875,0.7987823486328125
161846,0.3565521240234375,-0.594818115234375,0.7657470703125
161847,0.3445587158203125,-0.5718841552734375,0.6931304931640625
161848,0.323028564453125,-0.5046539306640625,0.6607513427734375
161849,0.2924652099609375,-0.449432373046875,0.6691436767578125
161850,0.249420166015625,-0.41656494140625,0.678497314453125
161851,0.1995391845703125,-0.39495849609375,0.6939849853515625
161852,0.0910491943359375,-0.4202728271484375,0.7452850341796875
161853,0.0910491943359375,-0.4202728271484375,0.7452850341796875
161854,0.0910491943359375,-0.4202728271484375,0.7452850341796875
161855,0.0328826904296875,-0.48419189453125,0.8040008544921875
161856,-0.150177001953125,-0.7332763671875,0.6398468017578125
161857,-0.150177001953125,-0.7332763671875,0.6398468017578125
161858,-0.150177001953125,-0.7332763671875,0.6398468017578125
161859,-0.187896728515625,-0.7916259765625,0.64013671875
161860,-0.143341064453125,-0.887542724609375,0.5810394287109375
161861,-0.07696533203125,-0.9278411865234376,0.5514984130859375
161862,-0.0038604736328125,-0.9548187255859376,0.56170654296875
161863,0.069122314453125,-0.9639434814453124,0.598541259765625
161864,0.2030181884765625,-0.926849365234375,0.6812744140625
161865,0.2030181884765625,-0.926849365234375,0.6812744140625
161866,0.250579833984375,-0.8904266357421875,0.72467041015625
161867,0.2680511474609375,-0.86419677734375,0.7541046142578125
161868,0.1961517333984375,-0.850250244140625,0.71826171875
161869,0.1961517333984375,-0.850250244140625,0.71826171875
161870,0.1961517333984375,-0.850250244140625,0.71826171875
161871,0.11065673828125,-0.8488616943359375,0.6738128662109375
161872,-0.1153564453125,-0.83074951171875,0.6900482177734375
161873,-0.1153564453125,-0.83074951171875,0.6900482177734375
161874,-0.1153564453125,-0.83074951171875,0.6900482177734375
161875,-0.113037109375,-0.7940216064453125,0.7359161376953125
161876,0.041229248046875,-0.6446380615234375,0.7069244384765625
161877,0.041229248046875,-0.6446380615234375,0.7069244384765625
161878,0.099365234375,-0.60699462890625,0.697357177734375
161879,0.13311767578125,-0.5698394775390625,0.709442138671875
161880,0.156280517578125,-0.540008544921875,0.721923828125
161881,0.1873779296875,-0.51776123046875,0.724822998046875
161882,0.2366180419921875,-0.495513916015625,0.725860595703125
161883,0.299957275390625,-0.47454833984375,0.7197418212890625
161884,0.3655853271484375,-0.4726409912109375,0.7004547119140625
161885,0.4384307861328125,-0.4640960693359375,0.6697845458984375
161886,0.4384307861328125,-0.4640960693359375,0.6697845458984375
161887,0.5141754150390625,-0.43548583984375,0.6154022216796875
161888,0.67083740234375,-0.326568603515625,0.489837646484375
161889,0.67083740234375,-0.326568603515625,0.489837646484375
161890,0.7413482666015625,-0.3379669189453125,0.5317840576171875
161891,0.83551025390625,-0.3696746826171875,0.60577392578125
161892,1.004837036132812,-0.414459228515625,0.8260040283203125
161893,1.004837036132812,-0.414459228515625,0.8260040283203125
161894,1.027313232421875,-0.39154052734375,0.889495849609375
161895,1.000686645507812,-0.3408966064453125,0.9170989990234376
161896,0.7838287353515625,-0.2576141357421875,0.9419708251953124
161897,0.7838287353515625,-0.2576141357421875,0.9419708251953124
161898,0.7838287353515625,-0.2576141357421875,0.9419708251953124
161899,0.643829345703125,-0.2566680908203125,0.9142913818359376
161900,0.367919921875,-0.471466064453125,0.786376953125
161901,0.367919921875,-0.471466064453125,0.786376953125
161902,0.3131256103515625,-0.5460052490234375,0.7522125244140625
161903,0.3131256103515625,-0.5460052490234375,0.7522125244140625
161904,0.2181396484375,-0.60601806640625,0.6108245849609375
161905,0.2181396484375,-0.60601806640625,0.6108245849609375
161906,0.2181396484375,-0.60601806640625,0.6108245849609375
161907,0.2032928466796875,-0.6104583740234375,0.5389404296875
161908,0.236968994140625,-0.753753662109375,0.472442626953125
161909,0.236968994140625,-0.753753662109375,0.472442626953125
161910,0.2686614990234375,-0.854156494140625,0.4794464111328125
161911,0.2686614990234375,-0.854156494140625,0.4794464111328125
161912,0.3247833251953125,-1.0294189453125,0.6439666748046875
161913,0.352142333984375,-0.982879638671875,0.810272216796875
161914,0.3907012939453125,-0.8798980712890625,0.840545654296875
161915,0.3087921142578125,-0.8084259033203125,0.7731475830078125
161916,-0.2906951904296875,-0.764678955078125,0.963134765625
161917,-0.2906951904296875,-0.764678955078125,0.963134765625
161918,-0.3881683349609375,-0.691192626953125,0.9638671875
161919,-0.3881683349609375,-0.691192626953125,0.9638671875
161920,0.3652496337890625,-0.98919677734375,0.6526947021484375
161921,0.3652496337890625,-0.98919677734375,0.6526947021484375
161922,0.3652496337890625,-0.98919677734375,0.6526947021484375
161923,0.2631072998046875,-0.9853668212890624,0.5246124267578125
161924,-0.00347900390625,-0.7575225830078125,0.8082427978515625
