time_idx,accelerometerAccelerationX(G),accelerometerAccelerationY(G),accelerometerAccelerationZ(G)
80000,0.034698486328125,1.624191284179688,-0.627593994140625
80001,0.1278228759765625,2.0885009765625,-1.159088134765625
80002,0.327484130859375,2.541412353515625,-1.89447021484375
80003,0.6125030517578125,2.78662109375,-2.58477783203125
80004,0.8685302734375,2.743026733398438,-2.570968627929688
80005,0.831634521484375,2.1619873046875,-1.67803955078125
80006,0.5213775634765625,1.493667602539062,-1.007522583007812
80007,0.2825469970703125,1.130096435546875,-0.6929168701171875
80008,0.1419219970703125,0.9616546630859376,-0.5040435791015625
80009,0.0532989501953125,0.8756256103515625,-0.399261474609375
80010,0.0034942626953125,0.821868896484375,-0.354888916015625
80011,-0.0330352783203125,0.768096923828125,-0.338470458984375
80012,-0.0616455078125,0.6928253173828125,-0.3052215576171875
80013,-0.0800018310546875,0.6063690185546875,-0.2362518310546875
80014,-0.0920867919921875,0.52142333984375,-0.1560821533203125
80015,-0.1051025390625,0.4503021240234375,-0.0696868896484375
80016,-0.121551513671875,0.401092529296875,0.0238189697265625
80017,-0.1405181884765625,0.3777313232421875,0.13824462890625
80018,-0.1860809326171875,0.387298583984375,0.3305816650390625
80019,-0.2155303955078125,0.3711700439453125,0.655059814453125
80020,-0.188812255859375,0.2850494384765625,1.035537719726562
80021,-0.17950439453125,0.1758270263671875,1.5003662109375
80022,-0.201507568359375,0.1533355712890625,1.605804443359375
80023,-0.221466064453125,0.2596893310546875,0.82427978515625
80024,-0.2821044921875,0.3364410400390625,0.2042694091796875
80025,-0.261962890625,0.332427978515625,-0.1529083251953125
80026,-0.1962890625,0.291656494140625,-0.2419586181640625
80027,-0.13232421875,0.243988037109375,-0.14593505859375
80028,-0.086456298828125,0.2033538818359375,-0.0258941650390625
80029,-0.0578460693359375,0.1699981689453125,0.047515869140625
80030,-0.0431060791015625,0.187225341796875,0.0706939697265625
80031,-0.027313232421875,0.2913055419921875,0.0652008056640625
80032,-0.0064239501953125,0.453948974609375,0.062225341796875
80033,0.0001983642578125,0.6562042236328125,-0.0091094970703125
80034,0.0146026611328125,0.9714202880859376,-0.1492156982421875
80035,0.0506744384765625,1.500259399414062,-0.2598876953125
80036,0.1934814453125,2.326629638671875,-0.6121368408203125
80037,0.663726806640625,3.96343994140625,-1.555191040039062
80038,1.165298461914062,5.212051391601562,-1.81146240234375
80039,0.567840576171875,3.27032470703125,0.3363189697265625
80040,0.5504150390625,2.946121215820312,0.407196044921875
80041,0.4285888671875,2.96136474609375,-0.8602447509765625
80042,0.1368865966796875,2.3533935546875,-1.53363037109375
80043,-0.0540313720703125,1.848556518554688,-0.8862762451171875
80044,-0.1542510986328125,1.667312622070312,-0.120880126953125
80045,-0.23944091796875,1.661239624023438,0.21697998046875
80046,-0.2998504638671875,1.660476684570312,0.478424072265625
80047,-0.319793701171875,1.573455810546875,0.604766845703125
80048,-0.308837890625,1.372451782226562,0.711151123046875
80049,-0.3175201416015625,1.159912109375,0.9055023193359376
80050,-0.4246063232421875,0.9736328125,1.515716552734375
80051,-0.4462738037109375,0.8752899169921875,1.21759033203125
80052,-0.35064697265625,0.8835906982421875,0.6709136962890625
80053,-0.2284088134765625,0.8438262939453125,0.4615936279296875
80054,-0.127044677734375,0.7155914306640625,0.24560546875
80055,-0.076812744140625,0.5952301025390625,0.088653564453125
80056,-0.0589447021484375,0.4771270751953125,0.00787353515625
80057,-0.0486602783203125,0.3726348876953125,-0.05908203125
80058,-0.0426025390625,0.2906036376953125,-0.106658935546875
80059,-0.0285186767578125,0.214874267578125,-0.109039306640625
80060,0.0058441162109375,0.1435089111328125,-0.08001708984375
80061,0.0402374267578125,0.100799560546875,-0.0352935791015625
80062,0.0378875732421875,0.08111572265625,0.027587890625
80063,0.019744873046875,0.0633087158203125,0.06622314453125
80064,0.0132598876953125,0.0352935791015625,0.0407867431640625
80065,-0.0105438232421875,0.0200042724609375,0.0611724853515625
80066,-0.0400848388671875,-0.0194244384765625,0.2427825927734375
80067,-0.0579986572265625,-0.094390869140625,0.52777099609375
80068,-0.0548858642578125,-0.0841064453125,0.4569854736328125
80069,-0.0230560302734375,0.0294647216796875,0.264739990234375
80070,0.02685546875,0.126861572265625,0.098663330078125
80071,0.0511322021484375,0.216552734375,0.026336669921875
80072,0.08087158203125,0.4179229736328125,0.034912109375
80073,0.1021575927734375,0.7185516357421875,-0.0186767578125
80074,0.07861328125,1.069107055664062,-0.2006378173828125
80075,0.04156494140625,1.45623779296875,-0.5449676513671875
80076,0.0597991943359375,1.910171508789062,-1.13916015625
80077,0.1675262451171875,2.36419677734375,-1.8616943359375
80078,0.33935546875,2.765762329101562,-2.316497802734375
80079,0.4393157958984375,2.9195556640625,-2.288681030273438
80080,0.3193206787109375,2.370941162109375,-1.686294555664062
80081,0.0487823486328125,1.600845336914062,-1.214813232421875
80082,-0.0468597412109375,1.174072265625,-0.7809295654296875
80083,-0.087249755859375,0.9847259521484376,-0.4708404541015625
80084,-0.12481689453125,0.925048828125,-0.3030853271484375
80085,-0.1446990966796875,0.8911285400390625,-0.227264404296875
80086,-0.143310546875,0.8455963134765625,-0.1899566650390625
80087,-0.1422882080078125,0.7957763671875,-0.1528167724609375
80088,-0.1492156982421875,0.7344970703125,-0.0905914306640625
80089,-0.1440582275390625,0.6487884521484375,-0.016143798828125
80090,-0.1364898681640625,0.5536956787109375,0.0666046142578125
80091,-0.1366424560546875,0.4741973876953125,0.15301513671875
80092,-0.146728515625,0.4090728759765625,0.2301483154296875
80093,-0.1651763916015625,0.35711669921875,0.353912353515625
80094,-0.1461639404296875,0.2584991455078125,0.6481170654296875
80095,-0.1561737060546875,0.1330413818359375,1.153091430664062
80096,-0.1830596923828125,0.07073974609375,1.209609985351562
80097,-0.195526123046875,0.079376220703125,0.7903900146484375
80098,-0.20599365234375,0.08624267578125,0.4212493896484375
80099,-0.197418212890625,0.0592193603515625,0.2093353271484375
80100,-0.1620635986328125,0.0211944580078125,0.09600830078125
80101,-0.12469482421875,-0.0044708251953125,0.05389404296875
80102,-0.0894927978515625,-0.02227783203125,0.074798583984375
80103,-0.0303955078125,-0.0377044677734375,0.1385650634765625
80104,0.0528717041015625,-0.029022216796875,0.2128143310546875
80105,0.1162109375,0.08489990234375,0.2500762939453125
80106,0.1434173583984375,0.244110107421875,0.2469024658203125
80107,0.1327362060546875,0.4090423583984375,0.1702117919921875
80108,0.1090545654296875,0.6715240478515625,0.020111083984375
80109,0.118408203125,1.363800048828125,-0.768218994140625
80110,0.319976806640625,2.176895141601562,-1.5037841796875
80111,0.3067626953125,3.180419921875,-0.8235015869140625
80112,-0.4163055419921875,4.678955078125,0.260009765625
80113,-0.23785400390625,4.900375366210938,0.25604248046875
80114,0.406097412109375,3.781570434570312,-1.130584716796875
80115,0.509796142578125,3.152236938476562,-2.042266845703125
80116,0.26959228515625,2.40765380859375,-1.72491455078125
80117,-0.0082550048828125,1.80255126953125,-0.68609619140625
80118,-0.179229736328125,1.656387329101562,0.11309814453125
80119,-0.296295166015625,1.648330688476562,0.5424346923828125
80120,-0.400421142578125,1.6910400390625,0.6932373046875
80121,-0.4518585205078125,1.682159423828125,0.7447509765625
80122,-0.4820098876953125,1.584060668945312,0.864593505859375
80123,-0.5692291259765625,1.343154907226562,1.278518676757812
80124,-0.591888427734375,1.121475219726562,1.270751953125
80125,-0.4996185302734375,1.060653686523438,0.98779296875
80126,-0.3791046142578125,1.025299072265625,0.694549560546875
80127,-0.2579498291015625,0.838958740234375,0.4125213623046875
80128,-0.1694183349609375,0.6653900146484375,0.164794921875
80129,-0.106964111328125,0.532073974609375,0.006439208984375
80130,-0.0507965087890625,0.417083740234375,-0.05548095703125
80131,-0.00341796875,0.327911376953125,-0.054931640625
80132,0.0335845947265625,0.24163818359375,-0.0174560546875
80133,0.0710906982421875,0.1578521728515625,0.051910400390625
80134,0.1109161376953125,0.08074951171875,0.1480712890625
80135,0.13720703125,0.0382843017578125,0.2338714599609375
80136,0.1404266357421875,0.0168914794921875,0.2718658447265625
80137,0.1364288330078125,-0.0259246826171875,0.277801513671875
80138,0.123077392578125,-0.091400146484375,0.2735748291015625
80139,0.0855865478515625,-0.135345458984375,0.2887420654296875
80140,0.0422515869140625,-0.1409759521484375,0.304779052734375
80141,0.0282135009765625,-0.1060333251953125,0.2894287109375
80142,0.0267181396484375,-0.0387725830078125,0.246490478515625
80143,0.0389862060546875,0.0339202880859375,0.2107086181640625
80144,0.0798797607421875,0.0821075439453125,0.1599884033203125
80145,0.1298980712890625,0.1294097900390625,0.1003875732421875
80146,0.1698760986328125,0.262786865234375,0.0453643798828125
80147,0.18682861328125,0.554840087890625,-0.0641632080078125
80148,0.1900177001953125,0.945892333984375,-0.2823486328125
80149,0.1567230224609375,1.344451904296875,-0.6093292236328125
80150,0.1304931640625,1.756454467773438,-0.96826171875
80151,0.15484619140625,2.176132202148438,-1.2451171875
80152,0.2862396240234375,2.6082763671875,-1.36883544921875
80153,0.55511474609375,2.976287841796875,-1.21917724609375
80154,0.506439208984375,3.371978759765625,-1.223800659179688
80155,0.10736083984375,2.783477783203125,-1.622177124023438
80156,-0.0546722412109375,1.573699951171875,-1.473678588867188
80157,-0.0684814453125,1.15313720703125,-1.021728515625
80158,-0.0990753173828125,0.9961090087890624,-0.707916259765625
80159,-0.14984130859375,0.8692474365234375,-0.6023712158203125
80160,-0.19000244140625,0.7562408447265625,-0.55828857421875
80161,-0.2226409912109375,0.686614990234375,-0.4832916259765625
80162,-0.2494049072265625,0.6652984619140625,-0.3748931884765625
80163,-0.2551116943359375,0.667388916015625,-0.230377197265625
80164,-0.2452392578125,0.6596221923828125,-0.0561065673828125
80165,-0.229339599609375,0.6307830810546875,0.149383544921875
80166,-0.2048492431640625,0.600067138671875,0.4178009033203125
80167,-0.16259765625,0.5738525390625,0.764373779296875
80168,-0.1287994384765625,0.441009521484375,1.396774291992188
80169,-0.154144287109375,0.2798919677734375,1.915420532226562
80170,-0.1945953369140625,0.2720947265625,1.17938232421875
80171,-0.2381744384765625,0.27581787109375,0.3752288818359375
80172,-0.1841888427734375,0.1694488525390625,0.0153656005859375
80173,-0.1162261962890625,0.052642822265625,-0.0422821044921875
80174,-0.07525634765625,-0.02130126953125,-0.0224609375
80175,-0.061126708984375,-0.062103271484375,0.0207672119140625
80176,-0.0577239990234375,-0.072021484375,0.0680694580078125
80177,-0.026397705078125,-0.0874481201171875,0.1417694091796875
80178,0.027923583984375,-0.112091064453125,0.182373046875
80179,0.0821075439453125,-0.1145172119140625,0.1445770263671875
80180,0.127532958984375,-0.0786590576171875,0.064910888671875
80181,0.148345947265625,0.010406494140625,0.0062408447265625
80182,0.1257476806640625,0.111602783203125,-0.0498046875
80183,0.07025146484375,0.2296905517578125,-0.104888916015625
80184,0.001678466796875,0.3555755615234375,-0.1077423095703125
80185,-0.055511474609375,0.5605926513671875,-0.0725555419921875
80186,-0.1291961669921875,0.9920501708984376,-0.04962158203125
80187,-0.231536865234375,1.8907470703125,-0.264404296875
80188,-0.3028564453125,3.283737182617188,-0.8611602783203125
80189,-0.5255584716796875,4.574951171875,-0.217254638671875
80190,-1.063568115234375,5.429763793945312,0.975677490234375
80191,-0.5348358154296875,4.639144897460938,1.0106201171875
80192,0.2269744873046875,3.87188720703125,-0.53961181640625
80193,0.4953765869140625,3.249755859375,-1.195953369140625
80194,0.3333282470703125,2.098464965820312,-0.4951171875
80195,0.0407257080078125,1.53411865234375,0.0307159423828125
80196,-0.124542236328125,1.3052978515625,0.2810211181640625
80197,-0.2166595458984375,1.182373046875,0.5280914306640625
80198,-0.310760498046875,1.133895874023438,0.8812408447265625
80199,-0.5129241943359375,1.052520751953125,1.369644165039062
80200,-0.6158447265625,0.95123291015625,1.2718505859375
80201,-0.5537872314453125,0.9315185546875,0.813751220703125
80202,-0.43280029296875,0.9583740234375,0.5890960693359375
80203,-0.3191986083984375,0.84075927734375,0.4575042724609375
80204,-0.2183074951171875,0.6724395751953125,0.3042449951171875
80205,-0.150177001953125,0.55072021484375,0.1581268310546875
80206,-0.0900421142578125,0.4691619873046875,0.0725860595703125
80207,-0.033233642578125,0.393035888671875,0.0564117431640625
80208,0.0086669921875,0.3109283447265625,0.058685302734375
80209,0.049957275390625,0.22308349609375,0.0703277587890625
80210,0.0812835693359375,0.1501617431640625,0.094451904296875
80211,0.0883331298828125,0.0907135009765625,0.135101318359375
80212,0.0837249755859375,0.036468505859375,0.1916656494140625
80213,0.0789642333984375,-0.0175628662109375,0.2416839599609375
80214,0.045501708984375,-0.068359375,0.2853546142578125
80215,-0.0077056884765625,-0.11614990234375,0.3081512451171875
80216,-0.0570831298828125,-0.1215057373046875,0.304412841796875
80217,-0.0847930908203125,-0.0697174072265625,0.252349853515625
80218,-0.0839996337890625,0.0351715087890625,0.13433837890625
80219,-0.0410308837890625,0.1472930908203125,0.0277252197265625
80220,-0.004180908203125,0.2695770263671875,-0.0321807861328125
80221,0.031646728515625,0.5349884033203125,-0.0733642578125
80222,0.074676513671875,0.9405059814453124,-0.174560546875
80223,0.1059112548828125,1.391143798828125,-0.3624114990234375
80224,0.174102783203125,1.881240844726562,-0.6172637939453125
80225,0.3283538818359375,2.4637451171875,-0.9196624755859376
80226,0.5294952392578125,2.863723754882812,-1.14111328125
80227,0.7395477294921875,2.887313842773438,-1.216720581054688
80228,0.87786865234375,2.616119384765625,-1.127227783203125
80229,0.7375030517578125,1.898300170898438,-1.006134033203125
80230,0.4259185791015625,1.32147216796875,-0.8746490478515625
80231,0.2561492919921875,1.0631103515625,-0.7736968994140625
80232,0.1559600830078125,0.9186859130859376,-0.6788482666015625
80233,0.0687255859375,0.8589630126953125,-0.58978271484375
80234,-0.0004425048828125,0.83209228515625,-0.5305633544921875
80235,-0.0552978515625,0.794525146484375,-0.4755401611328125
80236,-0.08160400390625,0.71966552734375,-0.41729736328125
80237,-0.0792694091796875,0.6281585693359375,-0.3202972412109375
80238,-0.0577392578125,0.5418243408203125,-0.2138824462890625
80239,-0.0290069580078125,0.4741363525390625,-0.1218719482421875
80240,-0.007110595703125,0.429534912109375,-0.0468597412109375
80241,0.007080078125,0.4041290283203125,0.0184326171875
80242,0.0090179443359375,0.410400390625,0.1040191650390625
80243,-0.0052642822265625,0.4390716552734375,0.1958160400390625
80244,-0.030181884765625,0.484222412109375,0.30792236328125
80245,-0.0392608642578125,0.47900390625,0.4412078857421875
80246,-0.0645294189453125,0.437408447265625,0.648681640625
80247,-0.1345977783203125,0.2758026123046875,1.2728271484375
80248,-0.1845550537109375,0.0712127685546875,1.394088745117188
80249,-0.163421630859375,-0.037933349609375,0.866485595703125
80250,-0.11627197265625,-0.052032470703125,0.4062652587890625
80251,-0.07659912109375,-0.044281005859375,0.106048583984375
80252,-0.0564422607421875,-0.0385589599609375,-0.02520751953125
80253,-0.065338134765625,-0.0040283203125,-0.044647216796875
80254,-0.1051788330078125,0.0887908935546875,-0.048553466796875
80255,-0.144622802734375,0.23992919921875,-0.0641632080078125
80256,-0.1591949462890625,0.4152679443359375,-0.045806884765625
80257,-0.152801513671875,0.617095947265625,-0.0298004150390625
80258,-0.1421966552734375,0.9348907470703124,-0.02386474609375
80259,-0.097381591796875,1.447189331054688,-0.1715240478515625
80260,-0.039093017578125,2.309036254882812,-0.30364990234375
80261,0.043701171875,3.487503051757812,-0.5422515869140625
80262,0.0589141845703125,4.554031372070312,-0.72076416015625
80263,0.313140869140625,5.007354736328125,-0.5770721435546875
80264,0.9839324951171876,4.439956665039062,-0.2240753173828125
80265,0.97357177734375,3.25323486328125,-0.3189239501953125
80266,0.309295654296875,2.312576293945312,-0.7265777587890625
80267,0.020233154296875,1.749343872070312,-0.6059722900390625
80268,-0.105865478515625,1.439865112304688,-0.2547454833984375
80269,-0.184173583984375,1.299407958984375,0.0315399169921875
80270,-0.2725372314453125,1.273391723632812,0.2240142822265625
80271,-0.336639404296875,1.259963989257812,0.4232025146484375
80272,-0.4087371826171875,1.1595458984375,1.038803100585938
80273,-0.5150146484375,1.064804077148438,1.5599365234375
80274,-0.4852447509765625,1.053436279296875,0.879730224609375
80275,-0.368743896484375,1.06536865234375,0.3622283935546875
80276,-0.20843505859375,0.9578399658203124,0.1661529541015625
80277,-0.0833892822265625,0.83306884765625,0.017578125
80278,-0.010498046875,0.7044525146484375,-0.0535125732421875
80279,0.0368194580078125,0.582763671875,-0.08203125
80280,0.0666656494140625,0.473297119140625,-0.082855224609375
80281,0.0754852294921875,0.3719635009765625,-0.054046630859375
80282,0.0732269287109375,0.285430908203125,0.0380401611328125
80283,0.0784454345703125,0.196075439453125,0.2177581787109375
80284,0.089691162109375,0.10675048828125,0.4538726806640625
80285,0.086761474609375,0.029296875,0.6088409423828125
80286,0.0597076416015625,-0.0252685546875,0.625762939453125
80287,0.020721435546875,-0.0607757568359375,0.5458526611328125
80288,-0.02069091796875,-0.072967529296875,0.352081298828125
80289,-0.065887451171875,-0.03619384765625,0.1666259765625
80290,-0.0751495361328125,0.05621337890625,0.042816162109375
80291,-0.031402587890625,0.14910888671875,-0.0259246826171875
80292,-0.001190185546875,0.22998046875,-0.064727783203125
80293,0.005035400390625,0.3968658447265625,-0.0840911865234375
80294,-0.0030517578125,0.6573638916015625,-0.135498046875
80295,-0.028167724609375,0.9707489013671876,-0.2778778076171875
80296,-0.040802001953125,1.276107788085938,-0.5387115478515625
80297,0.004852294921875,1.604476928710938,-0.875579833984375
80298,0.1335906982421875,1.974807739257812,-1.25830078125
80299,0.332611083984375,2.31878662109375,-1.69580078125
80300,0.5627288818359375,2.538253784179688,-2.010940551757812
80301,0.7703399658203125,2.403961181640625,-1.80108642578125
80302,0.7649993896484375,1.9803466796875,-1.3740234375
80303,0.5815277099609375,1.507980346679688,-1.099349975585938
80304,0.38397216796875,1.1654052734375,-0.8750457763671875
80305,0.2362823486328125,0.990692138671875,-0.6931304931640625
80306,0.140869140625,0.9120941162109376,-0.565765380859375
80307,0.08111572265625,0.8906097412109375,-0.472381591796875
80308,0.01422119140625,0.8944244384765625,-0.359130859375
80309,-0.0323638916015625,0.865081787109375,-0.2843475341796875
80310,-0.086822509765625,0.83544921875,-0.2144775390625
80311,-0.135040283203125,0.7885894775390625,-0.14324951171875
80312,-0.167938232421875,0.7294464111328125,-0.0333404541015625
80313,-0.193206787109375,0.6990509033203125,0.170013427734375
80314,-0.2360382080078125,0.69189453125,0.4261474609375
80315,-0.22430419921875,0.5909423828125,0.74676513671875
80316,-0.10723876953125,0.3583221435546875,1.128555297851562
80317,-0.041107177734375,0.095611572265625,1.638015747070312
80318,-0.037689208984375,0.01446533203125,1.33056640625
80319,-0.135650634765625,0.0660552978515625,0.6321868896484375
80320,-0.2426910400390625,0.114166259765625,0.211517333984375
80321,-0.266998291015625,0.106903076171875,0.0338287353515625
80322,-0.23321533203125,0.0551910400390625,0.01947021484375
80323,-0.1722869873046875,-0.0169219970703125,0.0882568359375
80324,-0.1139678955078125,-0.0830841064453125,0.19622802734375
80325,-0.0601959228515625,-0.1334686279296875,0.301361083984375
80326,-0.0004119873046875,-0.15679931640625,0.3507080078125
80327,0.0267181396484375,-0.0986175537109375,0.3170166015625
80328,0.0008087158203125,0.0834503173828125,0.202392578125
80329,-0.0377044677734375,0.250244140625,0.0825653076171875
80330,-0.0586090087890625,0.406524658203125,-0.0128631591796875
80331,-0.0730743408203125,0.6974334716796875,-0.0950469970703125
80332,-0.099761962890625,1.385330200195312,-0.639801025390625
80333,-0.006317138671875,2.19805908203125,-1.285446166992188
80334,-0.045257568359375,3.280105590820312,-0.546722412109375
80335,-0.48089599609375,5.070816040039062,-0.2085113525390625
80336,-0.0893707275390625,5.501632690429688,-0.4508819580078125
80337,0.938446044921875,4.837966918945312,-0.8828125
80338,1.067596435546875,3.616851806640625,-0.8670654296875
80339,0.4379119873046875,2.390945434570312,-1.001785278320312
80340,0.0614776611328125,1.861572265625,-0.5537109375
80341,-0.09588623046875,1.606109619140625,0.04144287109375
80342,-0.1616668701171875,1.468002319335938,0.3726806640625
80343,-0.2068328857421875,1.410842895507812,0.55657958984375
80344,-0.2312469482421875,1.340408325195312,0.5322723388671875
80345,-0.235931396484375,1.20965576171875,0.6089630126953125
80346,-0.3184051513671875,0.9994049072265624,1.38629150390625
80347,-0.3308868408203125,0.80267333984375,1.467575073242188
80348,-0.1988372802734375,0.7734527587890625,0.7658843994140625
80349,-0.0468597412109375,0.7838287353515625,0.435638427734375
80350,0.0309600830078125,0.6462249755859375,0.31719970703125
80351,0.052978515625,0.5099029541015625,0.1953582763671875
80352,0.058685302734375,0.411895751953125,0.080352783203125
80353,0.073272705078125,0.321533203125,0.0359344482421875
80354,0.098297119140625,0.2144622802734375,0.02362060546875
80355,0.13067626953125,0.121673583984375,0.0433197021484375
80356,0.1537017822265625,0.0496063232421875,0.091461181640625
80357,0.1609649658203125,-0.01043701171875,0.122406005859375
80358,0.1703338623046875,-0.05914306640625,0.1625213623046875
80359,0.1701202392578125,-0.1065673828125,0.2573394775390625
80360,0.130859375,-0.164794921875,0.4200439453125
80361,0.050872802734375,-0.196685791015625,0.5047760009765625
80362,-0.0328216552734375,-0.18353271484375,0.4839019775390625
80363,-0.0773773193359375,-0.1216278076171875,0.405792236328125
80364,-0.081085205078125,-0.027587890625,0.203887939453125
80365,-0.025634765625,0.0632781982421875,0.015350341796875
80366,0.0160369873046875,0.1105194091796875,-0.0803985595703125
80367,0.0284576416015625,0.18121337890625,-0.12548828125
80368,0.0425567626953125,0.474212646484375,-0.1560821533203125
80369,0.050262451171875,0.9935760498046876,-0.2499542236328125
80370,0.047515869140625,1.411544799804688,-0.519134521484375
80371,0.09326171875,1.81036376953125,-0.843017578125
80372,0.29595947265625,2.384185791015625,-1.288589477539062
80373,0.540802001953125,2.990081787109375,-1.915313720703125
80374,0.672698974609375,3.429855346679688,-2.616226196289062
80375,0.700439453125,2.870040893554688,-2.261703491210938
80376,0.4761199951171875,1.763381958007812,-1.353836059570312
80377,0.215850830078125,1.212936401367188,-0.956573486328125
80378,0.0966796875,0.9048614501953124,-0.6660003662109375
80379,0.028961181640625,0.7740020751953125,-0.4138031005859375
80380,0.0039825439453125,0.7181396484375,-0.26702880859375
80381,0.0177154541015625,0.68109130859375,-0.21478271484375
80382,0.0273590087890625,0.6712188720703125,-0.1925048828125
80383,0.02545166015625,0.6700439453125,-0.15631103515625
80384,0.021820068359375,0.6619873046875,-0.1048583984375
80385,0.0180206298828125,0.6523590087890625,-0.0263519287109375
80386,0.0231170654296875,0.651519775390625,0.08941650390625
80387,-0.026947021484375,0.7015228271484375,0.30377197265625
80388,-0.07476806640625,0.761962890625,0.5501556396484375
80389,-0.0726165771484375,0.711761474609375,0.760467529296875
80390,-0.05810546875,0.566864013671875,0.962646484375
80391,-0.0897674560546875,0.4060211181640625,1.164291381835938
80392,-0.16748046875,0.222808837890625,1.334793090820312
80393,-0.205474853515625,0.09649658203125,0.8235931396484375
80394,-0.1927032470703125,0.0167388916015625,0.3607025146484375
80395,-0.146728515625,-0.0395965576171875,0.125396728515625
80396,-0.1038970947265625,-0.07513427734375,0.0280609130859375
80397,-0.080078125,-0.1074676513671875,0.0273284912109375
80398,-0.0803985595703125,-0.1364898681640625,0.0894927978515625
80399,-0.1021881103515625,-0.15252685546875,0.1984405517578125
80400,-0.156005859375,-0.097198486328125,0.294219970703125
80401,-0.2025604248046875,0.04827880859375,0.2934417724609375
80402,-0.1833953857421875,0.2137298583984375,0.217681884765625
80403,-0.1727142333984375,0.38525390625,0.1155242919921875
80404,-0.2120819091796875,0.7061614990234375,-0.046875
80405,-0.3168487548828125,1.47027587890625,-0.7364044189453125
80406,-0.2421112060546875,2.1396484375,-1.381866455078125
80407,-0.2093963623046875,2.907669067382812,-0.442230224609375
80408,-0.58160400390625,4.55242919921875,-0.037628173828125
80409,-0.3368377685546875,5.210906982421875,-0.8541412353515625
80410,0.478179931640625,4.557830810546875,-1.597915649414062
80411,1.239959716796875,3.778289794921875,-1.125885009765625
80412,1.341506958007812,2.825958251953125,-1.101715087890625
80413,0.756072998046875,1.896194458007812,-0.89361572265625
80414,0.234039306640625,1.668777465820312,-0.1959686279296875
80415,-0.0094757080078125,1.589569091796875,0.192108154296875
80416,-0.1350860595703125,1.552978515625,0.3139190673828125
80417,-0.24847412109375,1.5428466796875,0.420806884765625
80418,-0.3125,1.498336791992188,0.5836029052734375
80419,-0.318328857421875,1.298583984375,0.726318359375
80420,-0.3990936279296875,0.930908203125,1.5938720703125
80421,-0.4149932861328125,0.60638427734375,1.593215942382812
80422,-0.2758636474609375,0.509918212890625,0.7891693115234375
80423,-0.1072540283203125,0.53656005859375,0.393341064453125
80424,-0.0181121826171875,0.4376220703125,0.2371978759765625
80425,0.0200347900390625,0.307647705078125,0.15460205078125
80426,0.0444488525390625,0.1972503662109375,0.1104278564453125
80427,0.063934326171875,0.1038665771484375,0.1124114990234375
80428,0.084381103515625,0.0213775634765625,0.1552276611328125
80429,0.1106414794921875,-0.032073974609375,0.191131591796875
80430,0.1028594970703125,-0.0417022705078125,0.1862640380859375
80431,0.0833740234375,-0.0440826416015625,0.1931610107421875
80432,0.0671234130859375,-0.0688323974609375,0.271148681640625
80433,0.02459716796875,-0.112030029296875,0.4059906005859375
80434,-0.0366363525390625,-0.137725830078125,0.4658966064453125
80435,-0.0702362060546875,-0.13543701171875,0.4377593994140625
80436,-0.0628509521484375,-0.10699462890625,0.343963623046875
80437,-0.030792236328125,-0.0568389892578125,0.1792449951171875
80438,0.0272064208984375,0.007049560546875,0.0393218994140625
80439,0.0755615234375,0.0570068359375,-0.0294342041015625
80440,0.1075439453125,0.0938873291015625,-0.0616607666015625
80441,0.15032958984375,0.2022857666015625,-0.0977020263671875
80442,0.1723480224609375,0.4899749755859375,-0.1395721435546875
80443,0.1291046142578125,0.9211578369140624,-0.296356201171875
80444,0.069183349609375,1.310073852539062,-0.6522674560546875
80445,0.0740509033203125,1.59735107421875,-1.061752319335938
80446,0.2129974365234375,1.893798828125,-1.491378784179688
80447,0.4914398193359375,2.3795166015625,-1.94964599609375
80448,0.6522674560546875,3.182083129882812,-2.704574584960938
80449,0.7106475830078125,3.392822265625,-2.743209838867188
80450,0.465484619140625,2.386962890625,-1.682357788085938
80451,0.1463775634765625,1.640472412109375,-1.0072021484375
80452,0.134735107421875,1.29888916015625,-0.53424072265625
80453,0.108154296875,1.079605102539062,-0.228271484375
80454,0.082794189453125,0.891998291015625,-0.137420654296875
80455,0.065521240234375,0.7436065673828125,-0.1189422607421875
80456,0.0416412353515625,0.6352386474609375,-0.090545654296875
80457,0.02142333984375,0.5627288818359375,-0.0451202392578125
80458,0.0030059814453125,0.52880859375,-0.004241943359375
80459,-0.042724609375,0.5421295166015625,0.0835418701171875
80460,-0.0727691650390625,0.5377044677734375,0.149932861328125
80461,-0.133636474609375,0.554718017578125,0.2564697265625
80462,-0.19049072265625,0.52862548828125,0.41571044921875
80463,-0.20281982421875,0.4423828125,0.6526947021484375
80464,-0.198974609375,0.22723388671875,1.342880249023438
80465,-0.1865081787109375,0.003387451171875,1.735565185546875
80466,-0.158538818359375,-0.060028076171875,1.163345336914062
80467,-0.167388916015625,0.0096282958984375,0.509735107421875
80468,-0.1730499267578125,0.0613861083984375,0.135406494140625
80469,-0.155853271484375,0.0673370361328125,-0.0691986083984375
80470,-0.1155548095703125,0.027435302734375,-0.1124725341796875
80471,-0.0739288330078125,-0.018951416015625,-0.062286376953125
80472,-0.0498504638671875,-0.0346221923828125,0.018524169921875
80473,-0.0519561767578125,0.02081298828125,0.0576324462890625
80474,-0.078216552734375,0.1513824462890625,0.032318115234375
80475,-0.090545654296875,0.288818359375,0.0314178466796875
80476,-0.08258056640625,0.439361572265625,0.075714111328125
80477,-0.08746337890625,0.6243438720703125,0.0863189697265625
80478,-0.12017822265625,0.8899078369140625,0.03326416015625
80479,-0.1214752197265625,1.340164184570312,-0.3133544921875
80480,-0.081207275390625,2.024581909179688,-1.001953125
80481,0.05523681640625,2.622283935546875,-0.7189178466796875
80482,-0.283905029296875,3.703964233398438,0.0294342041015625
80483,-0.4726409912109375,4.497238159179688,0.20123291015625
80484,0.11395263671875,4.2103271484375,-0.8487701416015625
80485,0.6517486572265625,3.816238403320312,-1.430618286132812
80486,0.668670654296875,2.999771118164062,-1.123336791992188
80487,0.2250518798828125,2.152618408203125,-0.6832275390625
80488,-0.1183013916015625,1.81689453125,-0.1673431396484375
80489,-0.2489166259765625,1.620941162109375,0.1559600830078125
80490,-0.3267974853515625,1.490631103515625,0.344390869140625
80491,-0.3718414306640625,1.4193115234375,0.430419921875
80492,-0.3816070556640625,1.366668701171875,0.4856719970703125
80493,-0.389373779296875,1.27294921875,0.66778564453125
80494,-0.48095703125,1.025390625,1.675140380859375
80495,-0.4639129638671875,0.8587493896484375,1.470291137695312
80496,-0.32122802734375,0.859222412109375,0.85626220703125
80497,-0.139892578125,0.8127288818359375,0.5092620849609375
80498,-0.055877685546875,0.674346923828125,0.258453369140625
80499,-0.025970458984375,0.519195556640625,0.070709228515625
80500,-0.017547607421875,0.3971099853515625,-0.008026123046875
80501,-0.0031280517578125,0.304931640625,-0.0371246337890625
80502,0.013153076171875,0.233673095703125,-0.0428009033203125
80503,0.0286102294921875,0.1553955078125,-0.017120361328125
80504,0.05377197265625,0.06927490234375,0.0463714599609375
80505,0.0615234375,0.0296630859375,0.0931549072265625
80506,0.035980224609375,0.014862060546875,0.109344482421875
80507,0.016876220703125,-0.0082244873046875,0.122772216796875
80508,0.010223388671875,-0.0306243896484375,0.1237335205078125
80509,0.0020751953125,-0.061187744140625,0.1815948486328125
80510,-0.01080322265625,-0.1062774658203125,0.3370208740234375
80511,-0.0301971435546875,-0.1461639404296875,0.4227294921875
80512,-0.044921875,-0.1507415771484375,0.3562164306640625
80513,-0.0402984619140625,-0.097198486328125,0.2252044677734375
80514,0.017059326171875,0.0386810302734375,0.0972137451171875
80515,0.031646728515625,0.107269287109375,-0.0129547119140625
80516,0.011932373046875,0.15704345703125,-0.114532470703125
80517,-0.008636474609375,0.4454345703125,-0.203582763671875
80518,-0.080780029296875,1.013137817382812,-0.287384033203125
80519,-0.1823883056640625,1.62554931640625,-0.3460845947265625
80520,-0.099456787109375,2.172286987304688,-0.50836181640625
80521,0.1520843505859375,2.63848876953125,-1.023178100585938
80522,0.3471832275390625,3.094482421875,-1.8577880859375
80523,0.452484130859375,3.177749633789062,-2.692626953125
80524,0.5034332275390625,2.514083862304688,-2.497802734375
80525,0.3946380615234375,1.644821166992188,-1.459671020507812
80526,0.1484832763671875,1.19818115234375,-0.996612548828125
80527,-0.022125244140625,0.9376678466796876,-0.75567626953125
80528,-0.097320556640625,0.727783203125,-0.531402587890625
80529,-0.075836181640625,0.5764007568359375,-0.3986358642578125
80530,-0.0183563232421875,0.5105133056640625,-0.2997589111328125
80531,0.0577545166015625,0.5112762451171875,-0.2174072265625
80532,0.1234283447265625,0.5786895751953125,-0.160552978515625
80533,0.1600189208984375,0.662139892578125,-0.11102294921875
80534,0.180694580078125,0.705413818359375,-0.0226593017578125
80535,0.174072265625,0.74920654296875,0.1015777587890625
80536,0.1234283447265625,0.8132781982421875,0.25494384765625
80537,0.066558837890625,0.811798095703125,0.391326904296875
80538,0.0498199462890625,0.748870849609375,0.457000732421875
80539,0.071624755859375,0.647308349609375,0.47943115234375
80540,0.0742034912109375,0.535675048828125,0.4226531982421875
80541,0.0527801513671875,0.4230804443359375,0.2960968017578125
80542,0.03607177734375,0.281219482421875,0.1882476806640625
80543,0.0201568603515625,0.133880615234375,0.1560821533203125
80544,0.0286712646484375,0.0152587890625,0.230224609375
80545,0.0465545654296875,-0.060211181640625,0.275848388671875
80546,0.0426025390625,-0.182098388671875,0.695281982421875
80547,0.034820556640625,-0.338165283203125,0.8927154541015625
80548,-0.023284912109375,-0.3119049072265625,0.4171295166015625
80549,-0.1336822509765625,-0.133758544921875,0.041107177734375
80550,-0.150177001953125,0.0938262939453125,-0.1212005615234375
80551,-0.0879974365234375,0.2159271240234375,-0.1677093505859375
80552,-0.071319580078125,0.3540496826171875,-0.131561279296875
80553,-0.0939788818359375,0.6390228271484375,-0.123291015625
80554,-0.15960693359375,1.277969360351562,-0.332794189453125
80555,-0.246002197265625,2.242111206054688,-0.541046142578125
80556,-0.3216705322265625,3.35748291015625,-0.5066986083984375
80557,-0.4388885498046875,4.342254638671875,-0.5218353271484375
80558,-0.34259033203125,4.4959716796875,-0.5908966064453125
80559,0.3677825927734375,4.178802490234375,-0.5350189208984375
80560,1.190216064453125,3.852462768554688,-0.3898468017578125
80561,1.200347900390625,2.843429565429688,-0.456695556640625
80562,0.594757080078125,1.95758056640625,-0.4632568359375
80563,0.184814453125,1.6881103515625,-0.11700439453125
80564,-0.0192108154296875,1.52557373046875,0.12127685546875
80565,-0.1415252685546875,1.353607177734375,0.303924560546875
80566,-0.205841064453125,1.205764770507812,0.50091552734375
80567,-0.2279052734375,1.071945190429688,0.570587158203125
80568,-0.2489166259765625,0.9134521484375,0.74163818359375
80569,-0.3766937255859375,0.5770111083984375,1.767593383789062
80570,-0.4678802490234375,0.3870697021484375,1.467315673828125
80571,-0.462493896484375,0.49609375,0.6393280029296875
80572,-0.28594970703125,0.601593017578125,0.392364501953125
80573,-0.1109466552734375,0.5617218017578125,0.21826171875
80574,-0.02459716796875,0.4912109375,0.079833984375
80575,0.007965087890625,0.4185333251953125,0.026397705078125
80576,0.0317840576171875,0.35308837890625,-0.0015716552734375
80577,0.054168701171875,0.30841064453125,-0.053802490234375
80578,0.0690155029296875,0.27679443359375,-0.08660888671875
80579,0.085968017578125,0.2202606201171875,-0.0990142822265625
80580,0.1020660400390625,0.1479339599609375,-0.0837860107421875
80581,0.092803955078125,0.083038330078125,-0.05364990234375
80582,0.062774658203125,0.03582763671875,-0.0499114990234375
80583,0.0183258056640625,0.025970458984375,-0.0342559814453125
80584,-0.0203704833984375,0.021240234375,0.0054779052734375
80585,-0.0449981689453125,0.012298583984375,0.050933837890625
80586,-0.055816650390625,0.020355224609375,0.1407928466796875
80587,-0.0691070556640625,0.03759765625,0.35345458984375
80588,-0.06268310546875,0.128143310546875,0.52850341796875
80589,-0.0019683837890625,0.256378173828125,0.2761688232421875
80590,0.0208587646484375,0.4263763427734375,0.0308380126953125
80591,0.020751953125,0.7765350341796875,-0.07025146484375
80592,-0.016357421875,1.161880493164062,-0.231201171875
80593,-0.0567169189453125,1.506332397460938,-0.52410888671875
80594,-0.0086669921875,1.879180908203125,-0.9545745849609376
80595,0.1300811767578125,2.2652587890625,-1.495651245117188
80596,0.301025390625,2.602828979492188,-2.115478515625
80597,0.4721527099609375,2.718490600585938,-2.53717041015625
80598,0.550048828125,2.222335815429688,-1.900497436523438
80599,0.3364715576171875,1.466217041015625,-1.036712646484375
80600,0.0886688232421875,1.09417724609375,-0.7167816162109375
80601,-0.0589599609375,0.9304351806640624,-0.5447998046875
80602,-0.1415252685546875,0.821929931640625,-0.4270782470703125
80603,-0.1775054931640625,0.7482452392578125,-0.367279052734375
80604,-0.19342041015625,0.69921875,-0.3440704345703125
80605,-0.200958251953125,0.6625213623046875,-0.291473388671875
80606,-0.1789093017578125,0.6048736572265625,-0.235687255859375
80607,-0.16571044921875,0.558990478515625,-0.1600341796875
80608,-0.1609344482421875,0.521881103515625,-0.0653533935546875
80609,-0.16455078125,0.509185791015625,0.0368194580078125
80610,-0.1838531494140625,0.5537567138671875,0.1440277099609375
80611,-0.1981964111328125,0.64215087890625,0.30316162109375
80612,-0.164337158203125,0.7277374267578125,0.47161865234375
80613,-0.135986328125,0.7908782958984375,0.607818603515625
80614,-0.1749420166015625,0.8184814453125,0.7625885009765625
80615,-0.2538604736328125,0.6865234375,1.163803100585938
80616,-0.2958221435546875,0.521636962890625,0.9317474365234376
80617,-0.2516021728515625,0.4778289794921875,0.2766571044921875
80618,-0.22943115234375,0.4550018310546875,-0.0181884765625
80619,-0.22589111328125,0.400146484375,-0.0889129638671875
80620,-0.2060699462890625,0.2888031005859375,-0.023345947265625
80621,-0.1328277587890625,0.1300506591796875,0.1361083984375
80622,-0.0447235107421875,-0.0118560791015625,0.325714111328125
80623,0.019012451171875,-0.092529296875,0.4027557373046875
80624,0.0479888916015625,-0.0975189208984375,0.2598419189453125
80625,0.044097900390625,0.0067901611328125,-0.00018310546875
80626,0.010589599609375,0.2294769287109375,-0.181488037109375
80627,-0.027587890625,0.470306396484375,-0.22674560546875
80628,-0.0614166259765625,0.8614959716796875,-0.28143310546875
80629,-0.108917236328125,1.653121948242188,-0.451568603515625
80630,-0.2156524658203125,2.835418701171875,-0.371063232421875
80631,-0.26348876953125,3.927658081054688,-0.32757568359375
80632,-0.234466552734375,4.40362548828125,-0.314422607421875
80633,0.1617584228515625,4.257003784179688,-0.491485595703125
80634,0.7397613525390625,3.817230224609375,-0.3899078369140625
80635,0.7520599365234375,3.091796875,-0.48114013671875
80636,0.289459228515625,2.065475463867188,-0.6556243896484375
80637,-0.0317230224609375,1.577728271484375,-0.4049224853515625
80638,-0.186614990234375,1.408523559570312,-0.0570068359375
80639,-0.2606658935546875,1.34173583984375,0.195556640625
80640,-0.347076416015625,1.355422973632812,0.426483154296875
80641,-0.3972625732421875,1.318588256835938,0.566864013671875
80642,-0.409698486328125,1.16802978515625,0.70001220703125
80643,-0.522247314453125,0.8240509033203125,1.735763549804688
80644,-0.5603485107421875,0.489532470703125,1.790573120117188
80645,-0.5084686279296875,0.364593505859375,0.9582061767578124
80646,-0.348724365234375,0.43267822265625,0.571807861328125
80647,-0.17181396484375,0.4503021240234375,0.3278350830078125
80648,-0.0824432373046875,0.3961944580078125,0.1220703125
80649,-0.0405731201171875,0.3332061767578125,0.01031494140625
80650,-0.0150299072265625,0.282012939453125,-0.042572021484375
80651,0.0180816650390625,0.2300262451171875,-0.054962158203125
80652,0.049041748046875,0.2034759521484375,-0.071685791015625
80653,0.0618896484375,0.18914794921875,-0.0739898681640625
80654,0.0594482421875,0.1699371337890625,-0.0440216064453125
80655,0.0420379638671875,0.1427001953125,0.012176513671875
80656,0.0172576904296875,0.11175537109375,0.0764617919921875
80657,-0.0191497802734375,0.098358154296875,0.1437835693359375
80658,-0.0706634521484375,0.050567626953125,0.4701080322265625
80659,-0.1209564208984375,-0.0384521484375,0.827850341796875
80660,-0.131927490234375,-0.02349853515625,0.6835784912109375
80661,-0.097900390625,0.0833587646484375,0.3394622802734375
80662,-0.021820068359375,0.184234619140625,0.0674285888671875
80663,0.0214080810546875,0.262542724609375,-0.0418701171875
80664,0.0416717529296875,0.441162109375,-0.0440826416015625
80665,0.040618896484375,0.73858642578125,-0.0929412841796875
80666,-0.00482177734375,1.106033325195312,-0.2836761474609375
80667,-0.053253173828125,1.495803833007812,-0.655914306640625
80668,-0.020843505859375,1.913116455078125,-1.182449340820312
80669,0.1092376708984375,2.39453125,-1.812408447265625
80670,0.3035888671875,2.753585815429688,-2.633163452148438
80671,0.4609375,2.762176513671875,-3.018707275390625
80672,0.41632080078125,2.089080810546875,-2.135696411132812
80673,0.1281280517578125,1.435211181640625,-1.49542236328125
80674,-0.06927490234375,1.05828857421875,-1.14385986328125
80675,-0.1332550048828125,0.831634521484375,-0.7913360595703125
80676,-0.1705780029296875,0.74737548828125,-0.5498199462890625
80677,-0.1991729736328125,0.72607421875,-0.4057159423828125
80678,-0.20831298828125,0.7182159423828125,-0.3074188232421875
80679,-0.203521728515625,0.712554931640625,-0.2325592041015625
80680,-0.19244384765625,0.7026824951171875,-0.16412353515625
80681,-0.1761474609375,0.679046630859375,-0.0911407470703125
80682,-0.169097900390625,0.6546783447265625,0.004486083984375
80683,-0.177154541015625,0.6421356201171875,0.1236419677734375
80684,-0.2044219970703125,0.671844482421875,0.293548583984375
80685,-0.1844024658203125,0.66082763671875,0.429901123046875
80686,-0.152984619140625,0.641082763671875,0.6374053955078125
80687,-0.0896759033203125,0.52581787109375,0.9556121826171876
80688,-0.0798187255859375,0.446746826171875,1.132369995117188
80689,-0.120025634765625,0.3760986328125,1.366058349609375
80690,-0.2052001953125,0.3084259033203125,0.87908935546875
80691,-0.2238006591796875,0.2577056884765625,0.1932220458984375
80692,-0.1434783935546875,0.167266845703125,-0.02362060546875
80693,-0.0786285400390625,0.1150360107421875,-0.017669677734375
80694,-0.0391998291015625,0.080780029296875,0.02117919921875
80695,0.014862060546875,0.0345458984375,0.0947113037109375
80696,0.0816192626953125,-0.0107421875,0.19134521484375
80697,0.118499755859375,0.032073974609375,0.259368896484375
80698,0.1103363037109375,0.1497650146484375,0.220245361328125
80699,0.0589141845703125,0.296630859375,0.1419219970703125
80700,-0.0024261474609375,0.5043487548828125,0.0612030029296875
80701,-0.0247955322265625,0.806915283203125,-0.105560302734375
80702,0.0070953369140625,1.265106201171875,-0.66448974609375
80703,0.0161895751953125,1.887710571289062,-0.5367889404296875
80704,-0.0173492431640625,2.820693969726562,-0.504913330078125
80705,-0.0563812255859375,3.646133422851562,-0.6129302978515625
80706,0.1501007080078125,4.052932739257812,-0.9206085205078124
80707,0.5248565673828125,3.98828125,-0.9708251953125
80708,0.7925262451171875,3.57049560546875,-0.8523101806640625
80709,0.643798828125,2.651687622070312,-1.233047485351562
80710,0.339080810546875,1.905517578125,-1.35699462890625
80711,0.1077117919921875,1.672073364257812,-0.5724639892578125
80712,-0.0022735595703125,1.594039916992188,-0.0194244384765625
80713,-0.0973052978515625,1.581008911132812,0.173492431640625
80714,-0.20648193359375,1.60113525390625,0.2928314208984375
80715,-0.2710113525390625,1.526824951171875,0.3787841796875
80716,-0.295989990234375,1.353790283203125,0.4472503662109375
80717,-0.2781524658203125,1.1224365234375,0.476470947265625
80718,-0.2549285888671875,0.8846588134765625,0.4762725830078125
80719,-0.2986297607421875,0.5822906494140625,1.067657470703125
80720,-0.3744354248046875,0.257965087890625,1.646148681640625
80721,-0.370330810546875,0.129486083984375,0.9792938232421876
80722,-0.2917022705078125,0.2381744384765625,0.51751708984375
80723,-0.1552886962890625,0.33148193359375,0.3237152099609375
80724,-0.056976318359375,0.32427978515625,0.1869659423828125
80725,-0.0060577392578125,0.2821807861328125,0.10418701171875
80726,0.0199127197265625,0.248291015625,0.07464599609375
80727,0.0315093994140625,0.239410400390625,0.095794677734375
80728,0.03802490234375,0.22027587890625,0.1245269775390625
80729,0.0429534912109375,0.1907806396484375,0.15228271484375
80730,0.0342559814453125,0.1514892578125,0.207305908203125
80731,0.0003814697265625,0.0882720947265625,0.4552764892578125
80732,-0.07427978515625,-0.0208587646484375,1.008499145507812
80733,-0.1381378173828125,-0.100067138671875,1.263442993164062
80734,-0.133758544921875,-0.0048980712890625,0.737091064453125
80735,-0.1065673828125,0.14715576171875,0.2295074462890625
80736,-0.073028564453125,0.240478515625,-0.0144195556640625
80737,-0.0473785400390625,0.3092041015625,-0.112884521484375
80738,-0.0299530029296875,0.436798095703125,-0.174224853515625
80739,-0.032196044921875,0.6439971923828125,-0.255279541015625
80740,-0.0731048583984375,0.920806884765625,-0.40838623046875
80741,-0.1140594482421875,1.2421875,-0.70367431640625
80742,-0.089080810546875,1.576583862304688,-1.193008422851562
80743,0.054046630859375,1.930099487304688,-2.081253051757812
80744,0.279693603515625,2.36578369140625,-3.059066772460938
80745,0.6207427978515625,2.618621826171875,-3.543350219726562
80746,0.78045654296875,2.42803955078125,-2.80670166015625
80747,0.61529541015625,1.853912353515625,-1.752777099609375
80748,0.3970489501953125,1.365310668945312,-1.189834594726562
80749,0.2547760009765625,1.081832885742188,-0.8805694580078125
80750,0.1620635986328125,0.959197998046875,-0.5884246826171875
80751,0.088226318359375,0.8858489990234375,-0.3836517333984375
80752,0.022705078125,0.834197998046875,-0.2576141357421875
80753,-0.02215576171875,0.8076171875,-0.1479034423828125
80754,-0.036102294921875,0.7979278564453125,-0.0390167236328125
80755,-0.050018310546875,0.8036041259765625,0.0619049072265625
80756,-0.0812530517578125,0.812774658203125,0.1597747802734375
80757,-0.14215087890625,0.8637847900390625,0.3351287841796875
80758,-0.2457427978515625,0.9444580078125,0.6604156494140625
80759,-0.292327880859375,0.848297119140625,1.217697143554688
80760,-0.3072357177734375,0.6387939453125,1.790069580078125
80761,-0.258941650390625,0.559814453125,1.381790161132812
80762,-0.233428955078125,0.6153717041015625,0.7768096923828125
80763,-0.2565155029296875,0.6087646484375,0.42974853515625
80764,-0.2521514892578125,0.4546661376953125,0.26385498046875
80765,-0.22686767578125,0.27911376953125,0.21563720703125
80766,-0.1741180419921875,0.1277923583984375,0.178955078125
80767,-0.12750244140625,0.025360107421875,0.16558837890625
80768,-0.1038818359375,-0.0291290283203125,0.1908721923828125
80769,-0.082611083984375,-0.0734710693359375,0.2392578125
80770,-0.0285491943359375,-0.1338958740234375,0.311981201171875
80771,0.057037353515625,-0.183502197265625,0.3663177490234375
80772,0.1502532958984375,-0.154998779296875,0.32891845703125
80773,0.1864166259765625,0.0050201416015625,0.225341796875
80774,0.149505615234375,0.1405792236328125,0.0785064697265625
80775,0.1051483154296875,0.2592010498046875,-0.0696563720703125
80776,0.0964813232421875,0.502471923828125,-0.205841064453125
80777,0.11492919921875,1.041030883789062,-0.585174560546875
80778,0.1036224365234375,1.967239379882812,-0.69671630859375
80779,0.136077880859375,3.13372802734375,-1.008834838867188
80780,0.2323760986328125,4.142440795898438,-1.4036865234375
80781,0.3570404052734375,4.43975830078125,-1.285980224609375
80782,0.5515289306640625,4.16326904296875,-0.8250732421875
80783,0.471710205078125,3.93505859375,-1.215286254882812
80784,0.304290771484375,2.905624389648438,-1.9193115234375
80785,0.2609405517578125,2.028472900390625,-1.133270263671875
80786,0.164459228515625,1.760040283203125,-0.3167266845703125
80787,0.0233001708984375,1.59442138671875,0.039093017578125
80788,-0.1131134033203125,1.537109375,0.2654876708984375
80789,-0.210845947265625,1.472320556640625,0.3842315673828125
80790,-0.266571044921875,1.311386108398438,0.4600372314453125
80791,-0.2946014404296875,1.059890747070312,0.5804901123046875
80792,-0.4238739013671875,0.75616455078125,1.34429931640625
80793,-0.603912353515625,0.5841064453125,1.814361572265625
80794,-0.55010986328125,0.594573974609375,1.022811889648438
80795,-0.4019775390625,0.6597137451171875,0.59136962890625
80796,-0.2832183837890625,0.602142333984375,0.326416015625
80797,-0.19073486328125,0.4664154052734375,0.0981292724609375
80798,-0.122528076171875,0.3364410400390625,-0.0193939208984375
80799,-0.0821533203125,0.2459259033203125,-0.0641021728515625
80800,-0.046875,0.1785888671875,-0.09002685546875
80801,-0.0075531005859375,0.11627197265625,-0.0783843994140625
80802,0.0313568115234375,0.0780181884765625,-0.03680419921875
80803,0.046783447265625,0.0545196533203125,0.015106201171875
80804,0.045806884765625,0.0251312255859375,0.076080322265625
80805,0.0402679443359375,0.0050048828125,0.105316162109375
80806,0.0280914306640625,-0.003204345703125,0.1236114501953125
80807,0.010101318359375,-0.0135345458984375,0.2569580078125
80808,0.016448974609375,-0.0493621826171875,0.4942169189453125
80809,0.0238800048828125,-0.0497894287109375,0.4891510009765625
80810,0.0357818603515625,0.0360565185546875,0.31732177734375
80811,0.0630950927734375,0.1178741455078125,0.1330413818359375
80812,0.067596435546875,0.1772613525390625,-0.0090484619140625
80813,0.0591583251953125,0.36224365234375,-0.081695556640625
80814,0.02001953125,0.7067718505859375,-0.1623687744140625
80815,-0.0507354736328125,1.076431274414062,-0.350555419921875
80816,-0.100738525390625,1.37060546875,-0.617279052734375
80817,-0.0505523681640625,1.669342041015625,-0.9261322021484376
80818,0.1084442138671875,2.014877319335938,-1.336517333984375
80819,0.25347900390625,2.4215087890625,-2.134521484375
80820,0.39886474609375,2.775421142578125,-3.2176513671875
80821,0.567626953125,2.465835571289062,-2.812179565429688
80822,0.412567138671875,1.7708740234375,-1.723434448242188
80823,0.1324615478515625,1.295242309570312,-1.41180419921875
80824,-0.0051727294921875,1.0174560546875,-0.9918365478515624
80825,-0.0885162353515625,0.881256103515625,-0.61639404296875
80826,-0.129241943359375,0.8028106689453125,-0.4110107421875
80827,-0.1286468505859375,0.754852294921875,-0.297027587890625
80828,-0.1061859130859375,0.7378387451171875,-0.2194976806640625
80829,-0.082916259765625,0.7450408935546875,-0.145263671875
80830,-0.0525970458984375,0.754119873046875,-0.0597381591796875
80831,-0.0264434814453125,0.75640869140625,0.0330657958984375
80832,-0.003326416015625,0.736175537109375,0.146270751953125
80833,0.049072265625,0.68212890625,0.2753448486328125
80834,0.1069488525390625,0.5910186767578125,0.38458251953125
80835,0.1436767578125,0.48944091796875,0.4515838623046875
80836,0.1619415283203125,0.3816986083984375,0.4329833984375
80837,0.141143798828125,0.3345794677734375,0.4195404052734375
80838,0.118988037109375,0.2815093994140625,0.35443115234375
80839,0.0697784423828125,0.229583740234375,0.2939910888671875
80840,0.0280303955078125,0.1596221923828125,0.31402587890625
80841,-0.008148193359375,0.0696868896484375,0.3690185546875
80842,-0.052886962890625,-0.0788421630859375,0.655059814453125
80843,-0.0810699462890625,-0.223175048828125,0.8174591064453125
80844,-0.0769500732421875,-0.2493133544921875,0.5161895751953125
80845,-0.0339508056640625,-0.2130584716796875,0.230255126953125
80846,0.0151214599609375,-0.0872955322265625,0.110076904296875
80847,0.03387451171875,0.0838775634765625,0.1024932861328125
80848,0.0362548828125,0.205841064453125,0.1233673095703125
80849,0.0294342041015625,0.373931884765625,0.1417694091796875
80850,0.02093505859375,0.7355499267578125,0.10107421875
80851,0.0389251708984375,1.402023315429688,-0.057525634765625
80852,0.130706787109375,2.364242553710938,-0.4215850830078125
80853,0.48468017578125,4.519882202148438,-2.418441772460938
80854,0.7098846435546875,4.534133911132812,-0.9633636474609376
80855,0.3090972900390625,2.534744262695312,0.718048095703125
80856,0.3545074462890625,3.184768676757812,-1.672348022460938
80857,0.674041748046875,3.29656982421875,-2.7882080078125
80858,0.9553070068359376,2.480545043945312,-1.581832885742188
80859,0.5712432861328125,2.096664428710938,-0.6616973876953125
80860,0.2208709716796875,1.925613403320312,-0.1339569091796875
80861,0.0643157958984375,1.896408081054688,0.2824249267578125
80862,-0.0589599609375,1.938766479492188,0.55670166015625
80863,-0.118011474609375,1.864456176757812,0.643524169921875
80864,-0.1174774169921875,1.66058349609375,0.58642578125
80865,-0.1162567138671875,1.398818969726562,0.564849853515625
80866,-0.0962066650390625,1.133407592773438,0.6251678466796875
80867,-0.0931854248046875,0.8090362548828125,1.236068725585938
80868,-0.0657958984375,0.500732421875,1.566543579101562
80869,0.0077362060546875,0.4699554443359375,0.53778076171875
80870,0.0710906982421875,0.5318145751953125,0.1283416748046875
80871,0.09674072265625,0.4725494384765625,0.0578460693359375
80872,0.107177734375,0.4039459228515625,0.0300750732421875
80873,0.1145782470703125,0.3561248779296875,0.0207061767578125
80874,0.1240081787109375,0.3100433349609375,0.005157470703125
80875,0.1328277587890625,0.264617919921875,-0.0036773681640625
80876,0.12640380859375,0.225128173828125,-0.00146484375
80877,0.1045989990234375,0.181671142578125,0.0036773681640625
80878,0.072540283203125,0.139068603515625,0.022247314453125
80879,0.0332183837890625,0.1023101806640625,0.054931640625
80880,-4.57763671875e-05,0.0785064697265625,0.0999603271484375
80881,-0.026092529296875,0.06988525390625,0.184722900390625
80882,-0.0364227294921875,0.055755615234375,0.286468505859375
80883,-0.04217529296875,0.055206298828125,0.41412353515625
80884,-0.0450897216796875,0.0604248046875,0.551239013671875
80885,-0.055023193359375,0.0870819091796875,0.5292510986328125
80886,-0.0326690673828125,0.154083251953125,0.30975341796875
80887,0.000823974609375,0.2927093505859375,0.03271484375
80888,0.024566650390625,0.4667205810546875,-0.1416778564453125
80889,0.000823974609375,0.733673095703125,-0.2326812744140625
80890,-0.08770751953125,1.043701171875,-0.356292724609375
80891,-0.2244720458984375,1.30035400390625,-0.564910888671875
80892,-0.33160400390625,1.442901611328125,-0.8402862548828125
80893,-0.377197265625,1.512100219726562,-1.097900390625
80894,-0.45208740234375,1.714859008789062,-1.362945556640625
80895,-0.5511932373046875,1.966064453125,-1.874526977539062
80896,-0.5434112548828125,2.050506591796875,-2.426254272460938
80897,-0.2927703857421875,1.977935791015625,-2.298797607421875
80898,0.0327606201171875,1.769393920898438,-1.5771484375
80899,0.1279754638671875,1.428802490234375,-1.133651733398438
80900,0.117034912109375,1.154052734375,-0.8267669677734375
80901,0.0898284912109375,0.947967529296875,-0.5520172119140625
80902,0.0569610595703125,0.76116943359375,-0.360382080078125
80903,0.0385589599609375,0.6017913818359375,-0.249420166015625
80904,0.0280609130859375,0.4866790771484375,-0.1843414306640625
80905,0.0282745361328125,0.40240478515625,-0.1417388916015625
80906,0.024566650390625,0.3498382568359375,-0.099578857421875
80907,0.01727294921875,0.3277435302734375,-0.0406646728515625
80908,0.0121917724609375,0.3249359130859375,0.0166778564453125
80909,-0.00274658203125,0.338531494140625,0.0811767578125
80910,-0.053863525390625,0.3880157470703125,0.183807373046875
80911,-0.1154937744140625,0.4780120849609375,0.384124755859375
80912,-0.0980072021484375,0.465789794921875,0.652801513671875
80913,-0.0661163330078125,0.3988494873046875,0.98162841796875
80914,-0.0893402099609375,0.3089599609375,1.467987060546875
80915,-0.1597137451171875,0.2249298095703125,1.654083251953125
80916,-0.236785888671875,0.2230682373046875,0.8997344970703125
80917,-0.2544097900390625,0.2458038330078125,0.2953948974609375
80918,-0.1635894775390625,0.20233154296875,-0.007171630859375
80919,-0.0685272216796875,0.1597442626953125,-0.0482940673828125
80920,-0.0243682861328125,0.1706085205078125,0.0055694580078125
80921,-0.009674072265625,0.2364501953125,0.0532379150390625
80922,-0.0258026123046875,0.37030029296875,0.066162109375
80923,-0.0625152587890625,0.5610809326171875,0.0490264892578125
80924,-0.1177520751953125,0.897552490234375,-0.0178070068359375
80925,-0.175018310546875,1.60589599609375,-0.695159912109375
80926,-0.0637664794921875,2.18194580078125,-1.2381591796875
80927,-0.0881805419921875,2.954055786132812,-0.2772979736328125
80928,-0.2549896240234375,4.04595947265625,-0.1394805908203125
80929,0.0038299560546875,4.289169311523438,-0.669921875
80930,0.4897613525390625,3.885498046875,-1.237945556640625
80931,0.70489501953125,3.224105834960938,-1.330459594726562
80932,0.553497314453125,2.505691528320312,-1.777175903320312
80933,0.2845306396484375,1.947860717773438,-1.646835327148438
80934,0.0981903076171875,1.848846435546875,-0.5407562255859375
80935,-0.005859375,1.7967529296875,0.059814453125
80936,-0.1172332763671875,1.7972412109375,0.3020782470703125
80937,-0.1745758056640625,1.692184448242188,0.418060302734375
80938,-0.1971435546875,1.480545043945312,0.4693450927734375
80939,-0.191986083984375,1.216964721679688,0.47833251953125
80940,-0.21527099609375,0.9346160888671876,0.479583740234375
80941,-0.27349853515625,0.6150054931640625,0.9141845703125
80942,-0.424468994140625,0.28173828125,2.108795166015625
80943,-0.391082763671875,0.1640167236328125,1.3016357421875
80944,-0.2579193115234375,0.2389068603515625,0.4731903076171875
80945,-0.137420654296875,0.261810302734375,0.2607269287109375
80946,-0.050201416015625,0.232940673828125,0.142974853515625
80947,0.00146484375,0.1972503662109375,0.0471649169921875
80948,0.0419464111328125,0.162017822265625,0.04852294921875
80949,0.074493408203125,0.1405792236328125,0.0743255615234375
80950,0.094879150390625,0.13739013671875,0.077423095703125
80951,0.10321044921875,0.129669189453125,0.060272216796875
80952,0.10211181640625,0.1168670654296875,0.057220458984375
80953,0.0900115966796875,0.0863800048828125,0.090545654296875
80954,0.05126953125,0.03533935546875,0.2166290283203125
80955,-0.0020904541015625,-0.0066070556640625,0.6224212646484375
80956,-0.068878173828125,-0.0605010986328125,0.9659881591796876
80957,-0.10357666015625,-0.0167236328125,0.7336578369140625
80958,-0.095550537109375,0.115447998046875,0.2759552001953125
80959,-0.042083740234375,0.2171630859375,-0.0146636962890625
80960,-0.0050201416015625,0.289306640625,-0.1474761962890625
80961,0.0133209228515625,0.4734039306640625,-0.1752777099609375
80962,0.01312255859375,0.7711334228515625,-0.2561187744140625
80963,-0.0416412353515625,1.109725952148438,-0.4660186767578125
80964,-0.12420654296875,1.410415649414062,-0.8008575439453125
80965,-0.131591796875,1.7080078125,-1.280914306640625
80966,-0.0472869873046875,2.034591674804688,-2.01934814453125
80967,0.016571044921875,2.501861572265625,-3.2432861328125
80968,0.2199859619140625,2.71990966796875,-3.512496948242188
80969,0.4193878173828125,2.274154663085938,-2.444793701171875
80970,0.2919921875,1.593704223632812,-1.826934814453125
80971,0.2219696044921875,1.1231689453125,-1.222061157226562
80972,0.1884002685546875,0.9174041748046876,-0.7350311279296875
80973,0.1435089111328125,0.8095703125,-0.4825897216796875
80974,0.09490966796875,0.7682342529296875,-0.3474273681640625
80975,0.0570220947265625,0.7449798583984375,-0.2516632080078125
80976,0.0529937744140625,0.715850830078125,-0.142974853515625
80977,0.0725860595703125,0.696563720703125,-0.0188140869140625
80978,0.0788421630859375,0.6959381103515625,0.0916290283203125
80979,0.0467376708984375,0.7092132568359375,0.171844482421875
80980,-0.03790283203125,0.78631591796875,0.27862548828125
80981,-0.171539306640625,0.869415283203125,0.468353271484375
80982,-0.24371337890625,0.7581787109375,0.884033203125
80983,-0.2476806640625,0.4739227294921875,1.714813232421875
80984,-0.2255401611328125,0.2476654052734375,1.652755737304688
80985,-0.2098846435546875,0.231109619140625,0.8469085693359375
80986,-0.203033447265625,0.2576904296875,0.3597412109375
80987,-0.1801300048828125,0.2172088623046875,0.1605224609375
80988,-0.1605987548828125,0.157684326171875,0.1093902587890625
80989,-0.1298065185546875,0.098907470703125,0.103973388671875
80990,-0.0965423583984375,0.04583740234375,0.1182403564453125
80991,-0.08062744140625,0.0210418701171875,0.152313232421875
80992,-0.07781982421875,0.0252227783203125,0.1942596435546875
80993,-0.0635833740234375,0.0565032958984375,0.2217559814453125
80994,-0.04095458984375,0.1745452880859375,0.2014007568359375
80995,-0.0316009521484375,0.2905731201171875,0.150360107421875
80996,-0.0347442626953125,0.4440765380859375,0.0590362548828125
80997,-0.06085205078125,0.845947265625,-0.6392364501953125
80998,0.0679779052734375,1.17547607421875,-1.4371337890625
80999,0.3099365234375,1.343521118164062,-0.9333648681640624
81000,0.117950439453125,2.114578247070312,-0.18438720703125
81001,-0.2360992431640625,3.399566650390625,-0.392547607421875
81002,0.048919677734375,4.435684204101562,-2.633392333984375
81003,0.5559234619140625,4.038177490234375,-2.900527954101562
81004,0.509002685546875,2.7374267578125,-1.1148681640625
81005,0.5962371826171875,2.534591674804688,-1.850906372070312
81006,0.5052642822265625,1.978530883789062,-1.58551025390625
81007,0.1690826416015625,1.783584594726562,-0.7155303955078125
81008,-0.0549774169921875,1.830780029296875,-0.0625762939453125
81009,-0.189849853515625,1.9117431640625,0.3822479248046875
81010,-0.2742156982421875,1.9549560546875,0.5135345458984375
81011,-0.2970733642578125,1.862503051757812,0.44134521484375
81012,-0.2802276611328125,1.630645751953125,0.34564208984375
81013,-0.2521209716796875,1.333999633789062,0.31915283203125
81014,-0.201019287109375,1.024322509765625,0.3326416015625
81015,-0.1494903564453125,0.71630859375,0.3916473388671875
81016,-0.11932373046875,0.439971923828125,0.663116455078125
81017,-0.1199798583984375,0.195587158203125,1.16363525390625
81018,-0.0992584228515625,0.039703369140625,0.859466552734375
81019,-0.0789337158203125,0.0315704345703125,0.3723602294921875
81020,-0.0513763427734375,0.0765838623046875,0.1457672119140625
81021,-0.022613525390625,0.1053924560546875,0.0595855712890625
81022,0.0088043212890625,0.107025146484375,0.0398406982421875
81023,0.0364837646484375,0.1074066162109375,0.10693359375
81024,0.0518035888671875,0.1331787109375,0.20611572265625
81025,0.0502166748046875,0.1280670166015625,0.28314208984375
81026,0.0189666748046875,0.0988006591796875,0.3624114990234375
81027,-0.0296783447265625,0.0710906982421875,0.5082244873046875
81028,-0.0841827392578125,0.0499420166015625,0.6238861083984375
81029,-0.1069183349609375,0.0479736328125,0.5482330322265625
81030,-0.0958099365234375,0.0903472900390625,0.347137451171875
81031,-0.057830810546875,0.1477508544921875,0.145050048828125
81032,-0.01300048828125,0.1969146728515625,0.0071258544921875
81033,0.012908935546875,0.2802581787109375,-0.048614501953125
81034,0.0360260009765625,0.42889404296875,-0.07940673828125
81035,0.04498291015625,0.6576690673828125,-0.1329345703125
81036,0.02069091796875,0.939300537109375,-0.24896240234375
81037,-0.033538818359375,1.234542846679688,-0.465576171875
81038,-0.086578369140625,1.51324462890625,-0.761932373046875
81039,-0.0743865966796875,1.732345581054688,-1.11444091796875
81040,0.0075531005859375,1.967666625976562,-1.519256591796875
81041,0.044921875,2.2994384765625,-2.179244995117188
81042,0.1189422607421875,2.495407104492188,-2.757080078125
81043,0.2453460693359375,2.118988037109375,-2.1895751953125
81044,0.1638336181640625,1.522613525390625,-1.408370971679688
81045,0.0313720703125,1.14263916015625,-1.072265625
81046,-0.0252227783203125,0.930999755859375,-0.7891693115234375
81047,-0.05621337890625,0.8091583251953125,-0.5703277587890625
81048,-0.0640869140625,0.73712158203125,-0.4263916015625
81049,-0.07098388671875,0.691375732421875,-0.3362884521484375
81050,-0.086456298828125,0.6549224853515625,-0.2506561279296875
81051,-0.0956268310546875,0.6153564453125,-0.1582489013671875
81052,-0.086761474609375,0.580047607421875,-0.0607147216796875
81053,-0.0778350830078125,0.5582122802734375,0.0394439697265625
81054,-0.0845184326171875,0.5448760986328125,0.13800048828125
81055,-0.12506103515625,0.56475830078125,0.2666015625
81056,-0.155914306640625,0.5707855224609375,0.42236328125
81057,-0.1503753662109375,0.4923095703125,0.6594390869140625
81058,-0.144622802734375,0.3531646728515625,1.149368286132812
81059,-0.1448211669921875,0.1822967529296875,1.733627319335938
81060,-0.1526947021484375,0.1258392333984375,1.611892700195312
81061,-0.18255615234375,0.166717529296875,0.6172332763671875
81062,-0.212982177734375,0.16064453125,0.036834716796875
81063,-0.1450347900390625,0.09521484375,-0.084869384765625
81064,-0.0811920166015625,0.080078125,-0.012237548828125
81065,-0.0615081787109375,0.10430908203125,0.0854644775390625
81066,-0.0366363525390625,0.13885498046875,0.19580078125
81067,0.0084381103515625,0.215972900390625,0.2940521240234375
81068,0.010101318359375,0.351806640625,0.3063201904296875
81069,-0.0204010009765625,0.5416412353515625,0.218353271484375
81070,-0.0487060546875,0.8785552978515625,-0.02777099609375
81071,-0.06927490234375,1.477584838867188,-0.9712677001953124
81072,0.156646728515625,1.807708740234375,-1.426040649414062
81073,0.136138916015625,2.436355590820312,-0.5251922607421875
81074,-0.2778778076171875,3.604248046875,-0.0209197998046875
81075,-0.2076568603515625,3.939346313476562,-0.56903076171875
81076,0.27117919921875,3.719924926757812,-1.87982177734375
81077,0.6204681396484375,3.276107788085938,-2.030929565429688
81078,0.6992645263671875,2.461334228515625,-1.809555053710938
81079,0.5286712646484375,1.849472045898438,-1.47674560546875
81080,0.292236328125,1.7359619140625,-0.6644134521484375
81081,0.113494873046875,1.672683715820312,-0.02093505859375
81082,-0.0073394775390625,1.692672729492188,0.312164306640625
81083,-0.1040496826171875,1.725173950195312,0.39129638671875
81084,-0.177764892578125,1.680587768554688,0.33447265625
81085,-0.2232818603515625,1.527694702148438,0.299285888671875
81086,-0.2402496337890625,1.299209594726562,0.3367767333984375
81087,-0.22906494140625,1.048904418945312,0.380096435546875
81088,-0.21624755859375,0.776611328125,0.4411468505859375
81089,-0.2117919921875,0.4739837646484375,0.86614990234375
81090,-0.2559814453125,0.1883544921875,1.450714111328125
81091,-0.2184906005859375,0.0567169189453125,0.941131591796875
81092,-0.1569061279296875,0.0706329345703125,0.4149017333984375
81093,-0.088775634765625,0.0933380126953125,0.2176666259765625
81094,-0.0315399169921875,0.0888824462890625,0.115203857421875
81095,0.0059814453125,0.074554443359375,0.09063720703125
81096,0.033477783203125,0.0779571533203125,0.1490325927734375
81097,0.059112548828125,0.0963287353515625,0.227294921875
81098,0.052459716796875,0.0909576416015625,0.29132080078125
81099,0.024200439453125,0.0879058837890625,0.44781494140625
81100,-0.0367584228515625,0.0588531494140625,0.71270751953125
81101,-0.0962982177734375,0.0138397216796875,0.8071136474609375
81102,-0.1125946044921875,0.03240966796875,0.5797119140625
81103,-0.084320068359375,0.1084136962890625,0.2621917724609375
81104,-0.0504913330078125,0.1753692626953125,0.0376434326171875
81105,-0.0074920654296875,0.2150115966796875,-0.0677490234375
81106,0.0151824951171875,0.30413818359375,-0.094879150390625
81107,0.0120849609375,0.4863128662109375,-0.12109375
81108,-0.0187225341796875,0.766326904296875,-0.200592041015625
81109,-0.0875091552734375,1.100753784179688,-0.367584228515625
81110,-0.1801605224609375,1.45404052734375,-0.628173828125
81111,-0.2008056640625,1.776031494140625,-0.927032470703125
81112,-0.1389923095703125,2.091064453125,-1.24981689453125
81113,-0.112945556640625,2.541412353515625,-1.910003662109375
81114,-0.028778076171875,2.799957275390625,-2.877639770507812
81115,0.2494964599609375,2.39385986328125,-2.678970336914062
81116,0.37066650390625,1.78912353515625,-1.529998779296875
81117,0.2570953369140625,1.343978881835938,-1.076141357421875
81118,0.169525146484375,1.049346923828125,-0.8214111328125
81119,0.107696533203125,0.8702545166015625,-0.5947418212890625
81120,0.06103515625,0.7384796142578125,-0.436553955078125
81121,0.03607177734375,0.63800048828125,-0.345184326171875
81122,0.02435302734375,0.56341552734375,-0.2733154296875
81123,0.0093841552734375,0.5198516845703125,-0.2059783935546875
81124,-0.0024566650390625,0.486358642578125,-0.1325531005859375
81125,-0.0046539306640625,0.4542388916015625,-0.0540008544921875
81126,0.00262451171875,0.430938720703125,0.03466796875
81127,-0.0096588134765625,0.4696044921875,0.1515045166015625
81128,-0.0733184814453125,0.593597412109375,0.342742919921875
81129,-0.1034698486328125,0.7244873046875,0.6585845947265625
81130,-0.0986175537109375,0.7330474853515625,1.158065795898438
81131,-0.0830230712890625,0.541015625,1.8148193359375
81132,-0.1023101806640625,0.34954833984375,1.731338500976562
81133,-0.1694183349609375,0.31671142578125,0.55035400390625
81134,-0.17828369140625,0.241485595703125,-0.0377044677734375
81135,-0.0902252197265625,0.1177520751953125,-0.1602783203125
81136,-0.042327880859375,0.0552215576171875,-0.1430816650390625
81137,-0.040679931640625,0.024566650390625,-0.0799407958984375
81138,-0.042144775390625,0.00048828125,-0.000885009765625
81139,-0.037994384765625,-0.02593994140625,0.09234619140625
81140,-0.03070068359375,-0.04931640625,0.1818389892578125
81141,-0.0308990478515625,-0.032379150390625,0.2243194580078125
81142,-0.036376953125,0.1285247802734375,0.1773681640625
81143,-0.048095703125,0.3335418701171875,0.091644287109375
81144,-0.0552978515625,0.605865478515625,-0.0224761962890625
81145,-0.0747222900390625,1.218124389648438,-0.4242095947265625
81146,-0.0291290283203125,2.1551513671875,-1.093658447265625
81147,-0.0027618408203125,3.07855224609375,-0.4673614501953125
81148,-0.293365478515625,4.399810791015625,-0.1116943359375
81149,-0.0858612060546875,4.7529296875,-0.3917236328125
81150,0.6419830322265625,4.33074951171875,-0.8967132568359375
81151,0.9664154052734376,3.669723510742188,-1.07061767578125
81152,0.722900390625,2.5135498046875,-1.515243530273438
81153,0.3357391357421875,1.829803466796875,-1.310195922851562
81154,0.1098175048828125,1.704681396484375,-0.4329833984375
81155,0.0310211181640625,1.629165649414062,0.086700439453125
81156,-0.0426025390625,1.64874267578125,0.307281494140625
81157,-0.0985870361328125,1.651535034179688,0.367462158203125
81158,-0.12603759765625,1.57696533203125,0.407684326171875
81159,-0.1202239990234375,1.40093994140625,0.4513397216796875
81160,-0.1027679443359375,1.141998291015625,0.4600830078125
81161,-0.127716064453125,0.8172454833984375,1.038986206054688
81162,-0.1775360107421875,0.5226287841796875,1.543563842773438
81163,-0.1710357666015625,0.3535308837890625,0.894134521484375
81164,-0.12091064453125,0.309295654296875,0.4294281005859375
81165,-0.0530242919921875,0.2591552734375,0.2299957275390625
81166,-0.015533447265625,0.1956329345703125,0.0971832275390625
81167,0.015594482421875,0.1262054443359375,0.045562744140625
81168,0.0446929931640625,0.052337646484375,0.088531494140625
81169,0.06597900390625,-0.0062103271484375,0.1436309814453125
81170,0.0696868896484375,-0.0288848876953125,0.1694793701171875
81171,0.046539306640625,-0.023040771484375,0.17816162109375
81172,0.0103607177734375,-0.015960693359375,0.2113494873046875
81173,-0.0347137451171875,-0.036346435546875,0.3780364990234375
81174,-0.0940704345703125,-0.07269287109375,0.6864471435546875
81175,-0.1423187255859375,-0.083221435546875,0.776947021484375
81176,-0.1555328369140625,-0.0525665283203125,0.60003662109375
81177,-0.1290740966796875,0.033111572265625,0.332794189453125
81178,-0.061798095703125,0.127105712890625,0.1100616455078125
81179,-0.005523681640625,0.17401123046875,-0.0276031494140625
81180,0.019195556640625,0.2552032470703125,-0.0863800048828125
81181,0.028594970703125,0.46148681640625,-0.0827178955078125
81182,0.0101470947265625,0.778472900390625,-0.09423828125
81183,-0.0511322021484375,1.099212646484375,-0.2273406982421875
81184,-0.120208740234375,1.376235961914062,-0.4602508544921875
81185,-0.1498565673828125,1.668777465820312,-0.7781829833984375
81186,-0.11767578125,1.991180419921875,-1.156478881835938
81187,-0.0757904052734375,2.403167724609375,-1.761795043945312
81188,-0.0240478515625,2.758346557617188,-2.660842895507812
81189,0.1044464111328125,2.608306884765625,-2.741104125976562
81190,0.1533966064453125,2.046829223632812,-1.7540283203125
81191,0.0380401611328125,1.496109008789062,-1.244796752929688
81192,-0.030364990234375,1.11474609375,-0.9736328125
81193,-0.0321502685546875,0.8948822021484375,-0.7171173095703125
81194,-0.01434326171875,0.77593994140625,-0.5250244140625
81195,0.0072174072265625,0.6787261962890625,-0.3992156982421875
81196,0.0188446044921875,0.590301513671875,-0.3090667724609375
81197,0.0255126953125,0.5153350830078125,-0.2275543212890625
81198,0.027252197265625,0.466949462890625,-0.1445159912109375
81199,0.0387420654296875,0.44244384765625,-0.0534820556640625
81200,0.0548095703125,0.4493865966796875,0.0391845703125
81201,0.053192138671875,0.478302001953125,0.1268310546875
81202,0.00384521484375,0.5471954345703125,0.225738525390625
81203,-0.0979766845703125,0.658172607421875,0.4393310546875
81204,-0.1999664306640625,0.705413818359375,0.811248779296875
81205,-0.2060546875,0.558380126953125,1.259780883789062
81206,-0.1759796142578125,0.372650146484375,1.29669189453125
81207,-0.15826416015625,0.26153564453125,0.9034271240234376
81208,-0.1319427490234375,0.1842498779296875,0.3713531494140625
81209,-0.1122894287109375,0.1084747314453125,0.090362548828125
81210,-0.07440185546875,0.0269927978515625,0.0395660400390625
81211,-0.014068603515625,-0.035614013671875,0.108673095703125
81212,0.0442047119140625,-0.0557708740234375,0.191070556640625
81213,0.0892333984375,0.000701904296875,0.2470245361328125
81214,0.1043853759765625,0.1255950927734375,0.2300262451171875
81215,0.0585174560546875,0.2821044921875,0.15570068359375
81216,0.0022430419921875,0.5313873291015625,0.0461883544921875
81217,-0.0746612548828125,1.1322021484375,-0.6214447021484375
81218,0.0188140869140625,1.527145385742188,-1.358993530273438
81219,0.2170257568359375,1.775283813476562,-0.9107208251953124
81220,-0.0335235595703125,2.488418579101562,0.1032867431640625
81221,-0.449188232421875,3.435989379882812,0.5901947021484375
81222,-0.210845947265625,3.625778198242188,-0.980865478515625
81223,0.3853759765625,3.53411865234375,-3.098724365234375
81224,0.744049072265625,3.175872802734375,-2.167236328125
81225,0.7414093017578125,2.684661865234375,-1.145278930664062
81226,0.4069671630859375,2.380691528320312,-0.7453155517578125
81227,0.0469970703125,2.286361694335938,-0.194488525390625
81228,-0.1280670166015625,2.194015502929688,0.2130584716796875
81229,-0.2521209716796875,2.084609985351562,0.2787017822265625
81230,-0.3260498046875,1.914443969726562,0.2526702880859375
81231,-0.3656158447265625,1.691146850585938,0.2799530029296875
81232,-0.3648681640625,1.414413452148438,0.3484954833984375
81233,-0.361663818359375,1.1199951171875,0.4141693115234375
81234,-0.354278564453125,0.8380279541015625,0.5322265625
81235,-0.34246826171875,0.5887451171875,0.8331298828125
81236,-0.392486572265625,0.3587646484375,1.366592407226562
81237,-0.3863372802734375,0.271728515625,0.869140625
81238,-0.3011322021484375,0.3095245361328125,0.226837158203125
81239,-0.1880950927734375,0.34869384765625,0.0305633544921875
81240,-0.1069488525390625,0.33184814453125,-0.0199737548828125
81241,-0.066314697265625,0.26409912109375,-0.0064849853515625
81242,-0.0205078125,0.1874847412109375,0.0546722412109375
81243,0.036895751953125,0.1125946044921875,0.1111602783203125
81244,0.07159423828125,0.079376220703125,0.1596221923828125
81245,0.0669708251953125,0.0572967529296875,0.1711273193359375
81246,0.0496826171875,0.0162506103515625,0.1445465087890625
81247,0.025299072265625,-0.0066680908203125,0.1514129638671875
81248,-0.0027008056640625,-0.01971435546875,0.193878173828125
81249,-0.022369384765625,-0.03985595703125,0.3201446533203125
81250,-0.038116455078125,-0.0568084716796875,0.482452392578125
81251,-0.0499267578125,-0.046173095703125,0.4331817626953125
81252,-0.0428619384765625,0.0144195556640625,0.2352752685546875
81253,-0.012359619140625,0.1019287109375,0.0582733154296875
81254,0.00665283203125,0.1516265869140625,-0.0421600341796875
81255,0.0069427490234375,0.2582550048828125,-0.116912841796875
81256,-0.0064239501953125,0.5352020263671875,-0.1648406982421875
81257,-0.0890655517578125,0.9737091064453124,-0.2968902587890625
81258,-0.2244110107421875,1.452117919921875,-0.6454010009765625
81259,-0.256103515625,1.915557861328125,-1.204376220703125
81260,-0.0929107666015625,2.414520263671875,-1.7232666015625
81261,0.000274658203125,2.82672119140625,-2.681976318359375
81262,-0.08184814453125,2.728927612304688,-3.0374755859375
81263,-0.0384979248046875,2.259613037109375,-1.74688720703125
81264,-0.0797271728515625,1.703903198242188,-0.8495025634765625
81265,-0.081878662109375,1.28082275390625,-0.588623046875
81266,-0.107635498046875,1.124069213867188,-0.48187255859375
81267,-0.155914306640625,1.060073852539062,-0.43450927734375
81268,-0.17822265625,0.97314453125,-0.4133453369140625
81269,-0.1824951171875,0.8782501220703125,-0.3734130859375
81270,-0.18792724609375,0.8018951416015625,-0.2924041748046875
81271,-0.17742919921875,0.7208709716796875,-0.1925506591796875
81272,-0.1639251708984375,0.6564788818359375,-0.08575439453125
81273,-0.1565399169921875,0.6164093017578125,0.035064697265625
81274,-0.1552581787109375,0.5931243896484375,0.1941070556640625
81275,-0.147369384765625,0.568634033203125,0.3597564697265625
81276,-0.13525390625,0.542694091796875,0.4656524658203125
81277,-0.1064910888671875,0.5153045654296875,0.62835693359375
81278,-0.04168701171875,0.3978271484375,1.125381469726562
81279,0.00091552734375,0.2254791259765625,1.798995971679688
81280,-0.0558929443359375,0.1775970458984375,1.511627197265625
81281,-0.2051849365234375,0.1903839111328125,0.76580810546875
81282,-0.2218017578125,0.2144012451171875,0.205169677734375
81283,-0.1419677734375,0.2025604248046875,-0.016082763671875
81284,-0.080352783203125,0.2009124755859375,-0.0590667724609375
81285,-0.0366668701171875,0.1875762939453125,-0.01806640625
81286,0.0140380859375,0.168975830078125,0.036895751953125
81287,0.0884552001953125,0.167022705078125,0.0638275146484375
81288,0.1534576416015625,0.173614501953125,0.0536956787109375
81289,0.173980712890625,0.2267303466796875,0.0067138671875
81290,0.151611328125,0.3358917236328125,-0.08660888671875
81291,0.080535888671875,0.51715087890625,-0.1839141845703125
81292,0.0020751953125,0.737396240234375,-0.312835693359375
81293,0.0192413330078125,0.9965972900390624,-0.722015380859375
81294,0.02923583984375,1.431365966796875,-0.8244781494140625
81295,-0.0852203369140625,2.267654418945312,-0.4297027587890625
81296,-0.29046630859375,3.424728393554688,-0.3000946044921875
81297,-0.3156890869140625,4.157455444335938,-0.368682861328125
81298,-0.01861572265625,4.240219116210938,-0.742950439453125
81299,0.4160308837890625,3.931243896484375,-0.65472412109375
81300,0.6763763427734375,3.245712280273438,-0.4568939208984375
81301,0.4970855712890625,2.263504028320312,-0.641571044921875
81302,0.18890380859375,1.797454833984375,-0.4442291259765625
81303,-0.005950927734375,1.614990234375,-0.0055084228515625
81304,-0.1343841552734375,1.529296875,0.2785797119140625
81305,-0.2329559326171875,1.529449462890625,0.4555816650390625
81306,-0.285675048828125,1.514694213867188,0.5521240234375
81307,-0.3034210205078125,1.39312744140625,0.7177276611328125
81308,-0.382720947265625,1.112106323242188,1.456954956054688
81309,-0.4149322509765625,0.8352508544921875,1.501541137695312
81310,-0.32257080078125,0.69879150390625,0.9072265625
81311,-0.1958465576171875,0.702850341796875,0.495361328125
81312,-0.101776123046875,0.6002655029296875,0.369293212890625
81313,-0.049774169921875,0.451446533203125,0.259368896484375
81314,-0.017303466796875,0.3369598388671875,0.127410888671875
81315,0.0011749267578125,0.2505645751953125,0.0147705078125
81316,0.0193939208984375,0.1792144775390625,-0.0305633544921875
81317,0.053863525390625,0.1328887939453125,-0.0391082763671875
81318,0.0720672607421875,0.1202239990234375,-0.019378662109375
81319,0.0687103271484375,0.099334716796875,0.033721923828125
81320,0.0598602294921875,0.0679931640625,0.072784423828125
81321,0.0435333251953125,0.0420074462890625,0.1321563720703125
81322,0.019866943359375,0.0012664794921875,0.230560302734375
81323,-0.0306854248046875,-0.0619964599609375,0.3473663330078125
81324,-0.078369140625,-0.1099700927734375,0.405609130859375
81325,-0.10882568359375,-0.098876953125,0.3690948486328125
81326,-0.1057281494140625,-0.038665771484375,0.2347259521484375
81327,-0.08184814453125,0.0677032470703125,0.0666351318359375
81328,-0.03875732421875,0.16680908203125,-0.0522918701171875
81329,-0.018280029296875,0.31719970703125,-0.1067047119140625
81330,0.008270263671875,0.634674072265625,-0.1328582763671875
81331,0.032562255859375,1.075820922851562,-0.2429046630859375
81332,0.0517730712890625,1.585723876953125,-0.5127410888671875
81333,0.12432861328125,2.148162841796875,-0.9883880615234376
81334,0.30419921875,2.594863891601562,-1.50860595703125
81335,0.536651611328125,2.857437133789062,-1.884872436523438
81336,0.6856231689453125,2.878707885742188,-2.068984985351562
81337,0.6275634765625,2.359176635742188,-1.779403686523438
81338,0.3477630615234375,1.636138916015625,-1.245330810546875
81339,0.1348419189453125,1.198150634765625,-0.9749298095703124
81340,-0.0027008056640625,0.94329833984375,-0.7445526123046875
81341,-0.0859222412109375,0.8099365234375,-0.5911865234375
81342,-0.1314849853515625,0.7400360107421875,-0.4964752197265625
81343,-0.1616058349609375,0.6942596435546875,-0.4388275146484375
81344,-0.1885833740234375,0.668670654296875,-0.3889312744140625
81345,-0.197784423828125,0.650848388671875,-0.321563720703125
81346,-0.190155029296875,0.6312255859375,-0.2283477783203125
81347,-0.165435791015625,0.60205078125,-0.1305084228515625
81348,-0.135833740234375,0.58099365234375,-0.0254669189453125
81349,-0.1070098876953125,0.5816192626953125,0.120025634765625
81350,-0.08685302734375,0.629364013671875,0.3263397216796875
81351,-0.0516204833984375,0.7108001708984375,0.5744171142578125
81352,0.0086517333984375,0.7347564697265625,0.855010986328125
81353,0.052337646484375,0.639923095703125,0.992919921875
81354,0.0928497314453125,0.454193115234375,1.270294189453125
81355,0.124267578125,0.26287841796875,1.261566162109375
81356,0.0464935302734375,0.1307830810546875,0.7453765869140625
81357,-0.0606536865234375,0.063262939453125,0.252166748046875
81358,-0.1006622314453125,0.042755126953125,-0.0443878173828125
81359,-0.0998382568359375,0.0428924560546875,-0.1387939453125
81360,-0.082977294921875,0.02960205078125,-0.1089019775390625
81361,-0.055999755859375,-0.0091552734375,-0.0136566162109375
81362,-0.0288543701171875,-0.0469970703125,0.071441650390625
81363,-0.0015869140625,-0.0714111328125,0.0828094482421875
81364,0.020172119140625,-0.0499114990234375,0.017059326171875
81365,0.0124969482421875,0.0869598388671875,-0.0872650146484375
81366,-0.039642333984375,0.3123779296875,-0.150726318359375
81367,-0.11065673828125,0.575286865234375,-0.159881591796875
81368,-0.2013702392578125,1.01116943359375,-0.1825103759765625
81369,-0.359832763671875,1.791580200195312,-0.2485809326171875
81370,-0.5246734619140625,2.96630859375,-0.3564605712890625
81371,-0.619903564453125,4.106765747070312,-0.1884002685546875
81372,-0.755859375,4.830612182617188,0.476165771484375
81373,-0.465728759765625,4.579071044921875,0.63299560546875
81374,0.269439697265625,3.838653564453125,-0.09405517578125
81375,0.501922607421875,2.993133544921875,-0.3415679931640625
81376,0.2234649658203125,2.003433227539062,-0.0584869384765625
81377,-0.00732421875,1.594024658203125,0.09912109375
81378,-0.123931884765625,1.384857177734375,0.2606201171875
81379,-0.215667724609375,1.311737060546875,0.4565887451171875
81380,-0.395843505859375,1.234130859375,1.04681396484375
81381,-0.5684967041015625,1.063125610351562,1.44873046875
81382,-0.554962158203125,0.9590911865234376,1.075424194335938
81383,-0.422271728515625,0.9898529052734376,0.6553802490234375
81384,-0.290924072265625,0.9723663330078124,0.432647705078125
81385,-0.1674957275390625,0.858123779296875,0.2145538330078125
81386,-0.0845947265625,0.7388916015625,0.0225830078125
81387,-0.0403594970703125,0.628448486328125,-0.068878173828125
81388,0.002227783203125,0.519927978515625,-0.096710205078125
81389,0.039703369140625,0.4119720458984375,-0.1025390625
81390,0.07171630859375,0.3133697509765625,-0.0868072509765625
81391,0.10101318359375,0.2417144775390625,-0.047027587890625
81392,0.10882568359375,0.1894073486328125,1.52587890625e-05
81393,0.107574462890625,0.1313323974609375,0.0601959228515625
81394,0.1079559326171875,0.0738525390625,0.1275482177734375
81395,0.1024017333984375,0.0211029052734375,0.193817138671875
81396,0.0945892333984375,-0.0324859619140625,0.303253173828125
81397,0.0658111572265625,-0.104461669921875,0.4894256591796875
81398,0.0022430419921875,-0.1631317138671875,0.6730194091796875
81399,-0.0699462890625,-0.165008544921875,0.7104949951171875
81400,-0.0993499755859375,-0.091827392578125,0.537933349609375
81401,-0.068023681640625,0.0273284912109375,0.2313232421875
81402,-0.003021240234375,0.11468505859375,0.004913330078125
81403,0.033355712890625,0.1852569580078125,-0.097076416015625
81404,0.0643463134765625,0.4155731201171875,-0.1409912109375
81405,0.0792694091796875,0.830657958984375,-0.2075347900390625
81406,0.0641937255859375,1.280517578125,-0.3783721923828125
81407,0.0835723876953125,1.724395751953125,-0.6357421875
81408,0.1924591064453125,2.220932006835938,-0.9978485107421876
81409,0.3629302978515625,2.698410034179688,-1.511123657226562
81410,0.5557861328125,3.101318359375,-2.185943603515625
81411,0.7249755859375,3.210861206054688,-2.681106567382812
81412,0.6888427734375,2.3514404296875,-2.037353515625
81413,0.3907470703125,1.51800537109375,-1.207321166992188
81414,0.180694580078125,1.091934204101562,-0.86480712890625
81415,0.0679931640625,0.868927001953125,-0.602508544921875
81416,-0.0106048583984375,0.79046630859375,-0.4449615478515625
81417,-0.068267822265625,0.7536773681640625,-0.3752288818359375
81418,-0.10040283203125,0.7230072021484375,-0.321044921875
81419,-0.11590576171875,0.690704345703125,-0.2469024658203125
81420,-0.1251678466796875,0.6649017333984375,-0.165496826171875
81421,-0.1327056884765625,0.64990234375,-0.07623291015625
81422,-0.1385650634765625,0.6510772705078125,0.0260009765625
81423,-0.16204833984375,0.682586669921875,0.1728668212890625
81424,-0.1920013427734375,0.7122039794921875,0.3697662353515625
81425,-0.16949462890625,0.6839752197265625,0.5792694091796875
81426,-0.13311767578125,0.609832763671875,0.7406463623046875
81427,-0.115753173828125,0.4786376953125,0.823272705078125
81428,-0.1133270263671875,0.2873687744140625,1.157974243164062
81429,-0.1685028076171875,0.0754852294921875,1.47406005859375
81430,-0.2133026123046875,-0.0271759033203125,0.8754119873046875
81431,-0.2021026611328125,-0.02471923828125,0.1536407470703125
81432,-0.1612548828125,-0.0160675048828125,-0.1920166015625
81433,-0.1309356689453125,-0.01373291015625,-0.2996826171875
81434,-0.10809326171875,-0.0242767333984375,-0.247314453125
81435,-0.069091796875,-0.049041748046875,-0.0931854248046875
81436,-0.0021820068359375,-0.06201171875,0.06597900390625
81437,0.07501220703125,-0.0392913818359375,0.1653289794921875
81438,0.135894775390625,0.0375823974609375,0.1756744384765625
81439,0.1382293701171875,0.128143310546875,0.1132049560546875
81440,0.0705108642578125,0.262481689453125,-0.0070343017578125
81441,0.0027313232421875,0.4319610595703125,-0.115386962890625
81442,-0.052978515625,0.68890380859375,-0.197418212890625
81443,-0.075927734375,1.262741088867188,-0.6002197265625
81444,-0.0780487060546875,2.117477416992188,-1.029403686523438
81445,-0.1416015625,2.980361938476562,-0.40924072265625
81446,-0.6653900146484375,4.2320556640625,0.60467529296875
81447,-0.7335052490234375,4.72186279296875,0.9171600341796876
81448,-0.179046630859375,4.167465209960938,-0.362030029296875
81449,0.2957305908203125,3.731369018554688,-1.07611083984375
81450,0.44537353515625,2.898757934570312,-0.6471405029296875
81451,0.2601318359375,2.052108764648438,-0.263458251953125
81452,0.060943603515625,1.724365234375,0.0756072998046875
81453,-0.086212158203125,1.570816040039062,0.3636322021484375
81454,-0.1904296875,1.478668212890625,0.491119384765625
81455,-0.2560577392578125,1.408828735351562,0.5171661376953125
81456,-0.32720947265625,1.309432983398438,0.678741455078125
81457,-0.4720916748046875,1.0687255859375,1.430160522460938
81458,-0.554473876953125,0.834503173828125,1.4822998046875
81459,-0.4589385986328125,0.7729034423828125,0.9798126220703124
81460,-0.2848663330078125,0.8157501220703125,0.5670623779296875
81461,-0.11810302734375,0.68487548828125,0.3565673828125
81462,-0.0279998779296875,0.51123046875,0.220367431640625
81463,0.0322113037109375,0.386077880859375,0.123138427734375
81464,0.077545166015625,0.281951904296875,0.0527191162109375
81465,0.1237030029296875,0.1966552734375,0.0410919189453125
81466,0.1823577880859375,0.132720947265625,0.0685882568359375
81467,0.21502685546875,0.1080322265625,0.093780517578125
81468,0.202880859375,0.0841827392578125,0.13214111328125
81469,0.175201416015625,0.0434417724609375,0.163818359375
81470,0.15106201171875,-0.0076446533203125,0.1946258544921875
81471,0.1123809814453125,-0.0522308349609375,0.2286529541015625
81472,0.043365478515625,-0.094451904296875,0.3390960693359375
81473,-0.0249481201171875,-0.11712646484375,0.4210968017578125
81474,-0.06494140625,-0.087432861328125,0.4311981201171875
81475,-0.0629119873046875,-0.0060272216796875,0.3314666748046875
81476,-0.0152587890625,0.0955047607421875,0.1626434326171875
81477,0.0321197509765625,0.1827545166015625,0.021728515625
81478,0.050048828125,0.3466796875,-0.0575408935546875
81479,0.0596160888671875,0.659637451171875,-0.153656005859375
81480,0.0453643798828125,1.042953491210938,-0.3591156005859375
81481,0.0269775390625,1.458053588867188,-0.669921875
81482,0.062225341796875,1.913986206054688,-1.0050048828125
81483,0.2103271484375,2.366409301757812,-1.2587890625
81484,0.333343505859375,2.883529663085938,-1.58209228515625
81485,0.3436737060546875,3.243927001953125,-2.173233032226562
81486,0.3278961181640625,2.54052734375,-2.265274047851562
81487,0.1749420166015625,1.49090576171875,-1.4635009765625
81488,0.025726318359375,1.107589721679688,-0.860198974609375
81489,-0.0401763916015625,0.8890533447265625,-0.6518707275390625
81490,-0.0811920166015625,0.7670135498046875,-0.5183563232421875
81491,-0.1086578369140625,0.718170166015625,-0.4127349853515625
81492,-0.12542724609375,0.6951446533203125,-0.3306427001953125
81493,-0.1324462890625,0.6721954345703125,-0.2601165771484375
81494,-0.123687744140625,0.646331787109375,-0.1874542236328125
81495,-0.1045684814453125,0.619415283203125,-0.106781005859375
81496,-0.073486328125,0.59283447265625,-0.0152435302734375
81497,-0.038055419921875,0.5715789794921875,0.091461181640625
81498,-0.0021209716796875,0.5657501220703125,0.215667724609375
81499,0.0137786865234375,0.6071319580078125,0.388031005859375
81500,-0.011016845703125,0.67864990234375,0.6154937744140625
81501,-0.0190277099609375,0.674591064453125,0.7707672119140625
81502,-0.0399627685546875,0.6362457275390625,0.8916778564453125
81503,-0.0581817626953125,0.4806365966796875,1.348876953125
81504,-0.1370849609375,0.3389434814453125,1.226318359375
81505,-0.225677490234375,0.274658203125,0.50750732421875
81506,-0.189788818359375,0.233001708984375,0.021484375
81507,-0.1533660888671875,0.187530517578125,-0.0640106201171875
81508,-0.1384735107421875,0.1492156982421875,-0.04583740234375
81509,-0.0903472900390625,0.0772552490234375,0.0139007568359375
81510,-0.02386474609375,-0.0025177001953125,0.08563232421875
81511,0.0375518798828125,-0.062225341796875,0.1339263916015625
81512,0.09442138671875,-0.0641021728515625,0.12451171875
81513,0.10699462890625,0.0827789306640625,0.0426025390625
81514,0.0688323974609375,0.2748260498046875,-0.0640106201171875
81515,0.0188446044921875,0.513824462890625,-0.1226806640625
81516,-0.0286102294921875,0.888519287109375,-0.1801300048828125
81517,-0.0502777099609375,1.577163696289062,-0.4252166748046875
81518,-0.0066070556640625,2.574722290039062,-0.886810302734375
81519,-0.0014190673828125,3.431732177734375,-0.349456787109375
81520,-0.3659820556640625,4.374420166015625,0.6432342529296875
81521,-0.2321014404296875,4.476181030273438,0.8115997314453125
81522,0.229095458984375,3.7491455078125,-0.1884918212890625
81523,0.2683868408203125,3.044235229492188,-0.7931671142578125
81524,0.03302001953125,2.239974975585938,-0.3667144775390625
81525,-0.1295623779296875,1.732421875,0.064117431640625
81526,-0.202239990234375,1.4527587890625,0.2606048583984375
81527,-0.2672882080078125,1.28863525390625,0.55706787109375
81528,-0.3660125732421875,1.163665771484375,1.147048950195312
81529,-0.4973602294921875,1.048019409179688,1.3994140625
81530,-0.48663330078125,1.014984130859375,0.9239501953125
81531,-0.3675537109375,1.09674072265625,0.527069091796875
81532,-0.2448883056640625,1.062484741210938,0.4102783203125
81533,-0.1528167724609375,0.926727294921875,0.2562103271484375
81534,-0.1021881103515625,0.8156585693359375,0.1114044189453125
81535,-0.0667877197265625,0.7063751220703125,0.0318450927734375
81536,-0.0298004150390625,0.5981903076171875,0.0235443115234375
81537,0.00689697265625,0.509918212890625,0.04638671875
81538,0.043975830078125,0.420562744140625,0.064117431640625
81539,0.087554931640625,0.3337554931640625,0.0812530517578125
81540,0.1219024658203125,0.266571044921875,0.1082763671875
81541,0.1357879638671875,0.211822509765625,0.1283111572265625
81542,0.14306640625,0.1533355712890625,0.1634063720703125
81543,0.1353607177734375,0.0968017578125,0.2246246337890625
81544,0.123931884765625,0.039794921875,0.3020782470703125
81545,0.1141204833984375,-0.0250396728515625,0.37255859375
81546,0.0641937255859375,-0.0748748779296875,0.4615631103515625
81547,-0.004486083984375,-0.0864410400390625,0.438995361328125
81548,-0.058502197265625,-0.0480499267578125,0.3099822998046875
81549,-0.06256103515625,0.0380859375,0.137725830078125
81550,0.00457763671875,0.154296875,0.0187835693359375
81551,0.05133056640625,0.286895751953125,-0.033203125
81552,0.077301025390625,0.5498199462890625,-0.0573272705078125
81553,0.0898590087890625,0.9253387451171876,-0.129302978515625
81554,0.073822021484375,1.3238525390625,-0.2846527099609375
81555,0.0645904541015625,1.771484375,-0.54669189453125
81556,0.091217041015625,2.258209228515625,-0.8865203857421875
81557,0.1738739013671875,2.604782104492188,-1.192123413085938
81558,0.2470703125,2.852096557617188,-1.61285400390625
81559,0.2608795166015625,2.794769287109375,-2.016754150390625
81560,0.189544677734375,2.063446044921875,-1.758941650390625
81561,0.0880584716796875,1.46051025390625,-1.105377197265625
81562,0.0235443115234375,1.189559936523438,-0.7834625244140625
81563,-0.0088653564453125,1.009109497070312,-0.6154632568359375
81564,-0.027374267578125,0.9402313232421876,-0.4824981689453125
81565,-0.0319976806640625,0.91619873046875,-0.3927154541015625
81566,-0.03106689453125,0.8814697265625,-0.33319091796875
81567,-0.03253173828125,0.81982421875,-0.2723388671875
81568,-0.023284912109375,0.7283935546875,-0.1921234130859375
81569,-0.015869140625,0.6389007568359375,-0.10858154296875
81570,-0.0100250244140625,0.5616302490234375,-0.0361328125
81571,-0.0051727294921875,0.497833251953125,0.0240020751953125
81572,-0.0065765380859375,0.4521026611328125,0.0889434814453125
81573,-0.0183563232421875,0.4252471923828125,0.15380859375
81574,-0.071929931640625,0.4564056396484375,0.286041259765625
81575,-0.0638885498046875,0.437408447265625,0.4574737548828125
81576,-0.0483551025390625,0.39434814453125,0.6502838134765625
81577,-0.07171630859375,0.3083648681640625,0.8417816162109375
81578,-0.1296844482421875,0.1185455322265625,1.506332397460938
81579,-0.1859588623046875,-0.0433502197265625,1.4970703125
81580,-0.189178466796875,-0.083251953125,0.6832275390625
81581,-0.15252685546875,-0.07684326171875,0.175201416015625
81582,-0.10955810546875,-0.05609130859375,-0.061676025390625
81583,-0.0704803466796875,-0.0379791259765625,-0.1636199951171875
81584,-0.027557373046875,-0.015167236328125,-0.142578125
81585,0.0035400390625,0.03302001953125,-0.0478973388671875
81586,0.024139404296875,0.1032562255859375,0.01556396484375
81587,0.03765869140625,0.171875,0.00128173828125
81588,0.0247039794921875,0.267974853515625,-0.0400238037109375
81589,-0.0100250244140625,0.4395904541015625,-0.06060791015625
81590,-0.0341949462890625,0.7631683349609375,-0.108154296875
81591,-0.0565948486328125,1.382492065429688,-0.2163543701171875
81592,-0.0761566162109375,2.508148193359375,-0.4417724609375
81593,-0.10064697265625,4.01031494140625,-0.200347900390625
81594,-0.0543975830078125,5.40069580078125,0.0719146728515625
81595,0.3791656494140625,5.463668823242188,0.09234619140625
81596,0.8912506103515625,4.1553955078125,0.1306610107421875
81597,0.520477294921875,3.157791137695312,-0.2251434326171875
81598,0.1124267578125,2.30908203125,-0.37445068359375
81599,-0.0387420654296875,1.668991088867188,-0.1515655517578125
81600,-0.149993896484375,1.31549072265625,0.0639495849609375
81601,-0.2278289794921875,1.158737182617188,0.2261505126953125
81602,-0.313201904296875,1.131576538085938,0.37176513671875
81603,-0.388641357421875,1.102981567382812,0.60382080078125
81604,-0.5145721435546875,0.9565582275390624,1.379364013671875
81605,-0.6227874755859375,0.804046630859375,1.66729736328125
81606,-0.5450592041015625,0.839080810546875,0.94451904296875
81607,-0.386688232421875,0.91827392578125,0.5283660888671875
81608,-0.2333831787109375,0.82415771484375,0.398162841796875
81609,-0.1171722412109375,0.6828460693359375,0.228057861328125
81610,-0.0524749755859375,0.5753936767578125,0.0631103515625
81611,-0.0114593505859375,0.4874725341796875,-0.0182037353515625
81612,0.0313568115234375,0.4051055908203125,-0.0416717529296875
81613,0.0872039794921875,0.317291259765625,-0.0296783447265625
81614,0.143280029296875,0.2525482177734375,0.008331298828125
81615,0.1669158935546875,0.2132110595703125,0.0436859130859375
81616,0.1644439697265625,0.1581878662109375,0.10369873046875
81617,0.1441650390625,0.0972747802734375,0.1812591552734375
81618,0.1214447021484375,0.0400848388671875,0.284027099609375
81619,0.0909423828125,-0.0422821044921875,0.4461212158203125
81620,0.024169921875,-0.1341400146484375,0.6026611328125
81621,-0.0560150146484375,-0.1581268310546875,0.69927978515625
81622,-0.0966339111328125,-0.0877685546875,0.5851898193359375
81623,-0.0749053955078125,0.047149658203125,0.303619384765625
81624,-0.011962890625,0.15765380859375,0.061920166015625
81625,0.0297698974609375,0.2484893798828125,-0.04736328125
81626,0.07830810546875,0.4814910888671875,-0.0758819580078125
81627,0.1297454833984375,0.8523406982421875,-0.15069580078125
81628,0.1499481201171875,1.268585205078125,-0.3362579345703125
81629,0.1676025390625,1.697830200195312,-0.657623291015625
81630,0.2529449462890625,2.164306640625,-1.156097412109375
81631,0.4497528076171875,2.541351318359375,-1.70233154296875
81632,0.688568115234375,2.716094970703125,-1.999603271484375
81633,0.7769927978515625,2.620574951171875,-2.023422241210938
81634,0.5749053955078125,1.997528076171875,-1.698776245117188
81635,0.296112060546875,1.42669677734375,-1.265472412109375
81636,0.11572265625,1.099517822265625,-0.9398956298828124
81637,0.0060577392578125,0.92938232421875,-0.7464141845703125
81638,-0.058807373046875,0.8695526123046875,-0.6706390380859375
81639,-0.0931549072265625,0.845245361328125,-0.6488189697265625
81640,-0.0999603271484375,0.8172149658203125,-0.6127777099609375
81641,-0.1097869873046875,0.7874908447265625,-0.498687744140625
81642,-0.1126556396484375,0.7265167236328125,-0.394775390625
81643,-0.115631103515625,0.6612701416015625,-0.2915191650390625
81644,-0.1257171630859375,0.602203369140625,-0.1919097900390625
81645,-0.1437530517578125,0.5567626953125,-0.102630615234375
81646,-0.1591796875,0.5372314453125,0.0162506103515625
81647,-0.1963958740234375,0.5872650146484375,0.24285888671875
81648,-0.226593017578125,0.6260986328125,0.503814697265625
81649,-0.18096923828125,0.555908203125,0.7506256103515625
81650,-0.0959320068359375,0.38134765625,0.9357452392578124
81651,-0.06353759765625,0.2109832763671875,1.249069213867188
81652,-0.0291290283203125,0.1203155517578125,1.20953369140625
81653,-0.077911376953125,0.1483001708984375,0.6564788818359375
81654,-0.19842529296875,0.1597900390625,0.20721435546875
81655,-0.230224609375,0.1070709228515625,-0.0458526611328125
81656,-0.187835693359375,0.054840087890625,-0.11334228515625
81657,-0.1422119140625,0.0186767578125,-0.0894317626953125
81658,-0.0948486328125,-0.0119171142578125,-0.0094146728515625
81659,-0.05059814453125,-0.035186767578125,0.07623291015625
81660,-0.005859375,-0.045440673828125,0.136810302734375
81661,0.0386505126953125,0.0142364501953125,0.1409454345703125
81662,0.033905029296875,0.2010650634765625,0.082977294921875
81663,-0.01708984375,0.42498779296875,0.0211334228515625
81664,-0.0927276611328125,0.7691497802734375,0.014190673828125
81665,-0.183502197265625,1.351470947265625,0.0432586669921875
81666,-0.2294921875,2.193710327148438,-0.184600830078125
81667,-0.2799072265625,3.282302856445312,-0.2529296875
81668,-0.421966552734375,4.443099975585938,0.03564453125
81669,-0.3910980224609375,5.0152587890625,0.13037109375
81670,0.2220001220703125,4.536285400390625,-0.242523193359375
81671,0.6249847412109375,3.669692993164062,-0.2613525390625
81672,0.359130859375,2.63330078125,-0.212799072265625
81673,0.0760040283203125,1.986801147460938,-0.2050628662109375
81674,-0.0748748779296875,1.589462280273438,0.01123046875
81675,-0.1935577392578125,1.332672119140625,0.2439117431640625
81676,-0.289825439453125,1.19940185546875,0.3896026611328125
81677,-0.4091949462890625,1.1119384765625,0.7743377685546875
81678,-0.5986175537109375,0.90142822265625,1.523681640625
81679,-0.6605377197265625,0.7734832763671875,1.3251953125
81680,-0.569488525390625,0.8433837890625,0.765869140625
81681,-0.4239044189453125,0.920928955078125,0.4553070068359375
81682,-0.2740325927734375,0.849700927734375,0.2870025634765625
81683,-0.1568145751953125,0.7147064208984375,0.1313018798828125
81684,-0.078460693359375,0.58782958984375,0.0155181884765625
81685,-0.0277099609375,0.4755096435546875,-0.04876708984375
81686,0.0160369873046875,0.3699493408203125,-0.0597076416015625
81687,0.05950927734375,0.26751708984375,-0.0402984619140625
81688,0.1063690185546875,0.181304931640625,-0.005645751953125
81689,0.13665771484375,0.1258087158203125,0.0350494384765625
81690,0.15338134765625,0.0840606689453125,0.1098175048828125
81691,0.1599884033203125,0.05291748046875,0.1827850341796875
81692,0.1676025390625,0.0229644775390625,0.2586822509765625
81693,0.1626434326171875,-0.0170745849609375,0.3585052490234375
81694,0.0768890380859375,-0.07733154296875,0.501739501953125
81695,-0.038482666015625,-0.09075927734375,0.6387176513671875
81696,-0.079498291015625,0.00750732421875,0.5771026611328125
81697,-0.029052734375,0.13897705078125,0.2745513916015625
81698,0.0352325439453125,0.2146759033203125,0.0599212646484375
81699,0.0775146484375,0.3285064697265625,-0.0032501220703125
81700,0.126556396484375,0.58160400390625,-0.0381927490234375
81701,0.157318115234375,0.937957763671875,-0.139923095703125
81702,0.144805908203125,1.350341796875,-0.362884521484375
81703,0.121063232421875,1.79486083984375,-0.730926513671875
81704,0.1586761474609375,2.218841552734375,-1.151596069335938
81705,0.3212432861328125,2.47332763671875,-1.402313232421875
81706,0.4694366455078125,2.619781494140625,-1.562423706054688
81707,0.4290008544921875,2.4737548828125,-1.887741088867188
81708,0.2725830078125,1.733978271484375,-1.654876708984375
81709,0.1046905517578125,1.2392578125,-1.1014404296875
81710,0.0073089599609375,1.0177001953125,-0.8593292236328125
81711,-0.051513671875,0.892791748046875,-0.729400634765625
81712,-0.0853424072265625,0.859039306640625,-0.586181640625
81713,-0.08135986328125,0.8492431640625,-0.465484619140625
81714,-0.065826416015625,0.835693359375,-0.393798828125
81715,-0.0587005615234375,0.804534912109375,-0.343994140625
81716,-0.058349609375,0.7482757568359375,-0.2853851318359375
81717,-0.0670166015625,0.686187744140625,-0.211639404296875
81718,-0.071197509765625,0.617523193359375,-0.11993408203125
81719,-0.0660858154296875,0.5574951171875,-0.00823974609375
81720,-0.0574493408203125,0.5135650634765625,0.126739501953125
81721,-0.083831787109375,0.5255279541015625,0.2851409912109375
81722,-0.124969482421875,0.5744171142578125,0.48284912109375
81723,-0.113677978515625,0.56982421875,0.6760711669921875
81724,-0.0731201171875,0.4837493896484375,0.890625
81725,-0.0882415771484375,0.3885498046875,1.364593505859375
81726,-0.1218414306640625,0.2852020263671875,1.534225463867188
81727,-0.2193756103515625,0.282623291015625,0.5670013427734375
81728,-0.2206268310546875,0.249267578125,-0.138031005859375
81729,-0.1522064208984375,0.18121337890625,-0.2872161865234375
81730,-0.114105224609375,0.1583404541015625,-0.2025604248046875
81731,-0.09051513671875,0.13702392578125,-0.0597991943359375
81732,-0.0667572021484375,0.0986328125,0.0709991455078125
81733,-0.0164642333984375,0.0712738037109375,0.1604461669921875
81734,0.0474395751953125,0.1231536865234375,0.1839599609375
81735,0.078094482421875,0.19976806640625,0.1302947998046875
81736,0.0490570068359375,0.326324462890625,0.03778076171875
81737,0.006591796875,0.5152435302734375,-0.0386505126953125
81738,-0.0172882080078125,0.79669189453125,-0.0809783935546875
81739,-0.0060577392578125,1.301773071289062,-0.3546600341796875
81740,0.059814453125,2.027328491210938,-0.783966064453125
81741,0.1363983154296875,2.803955078125,-0.318603515625
81742,-0.1206817626953125,4.009002685546875,0.437286376953125
81743,-0.0816192626953125,4.684829711914062,0.4114227294921875
81744,0.3341827392578125,4.11077880859375,-0.3026275634765625
81745,0.3617401123046875,3.286209106445312,-0.47772216796875
81746,0.062286376953125,2.61968994140625,-0.3240203857421875
81747,-0.1203460693359375,2.062469482421875,-0.08612060546875
81748,-0.2028045654296875,1.708160400390625,0.1706695556640625
81749,-0.26165771484375,1.50830078125,0.3475189208984375
81750,-0.3204345703125,1.374130249023438,0.506103515625
81751,-0.3624420166015625,1.218414306640625,0.76910400390625
81752,-0.488128662109375,0.9527130126953124,1.604339599609375
81753,-0.557037353515625,0.7900390625,1.387283325195312
81754,-0.48095703125,0.831268310546875,0.567901611328125
81755,-0.3371429443359375,0.8827056884765625,0.3333587646484375
81756,-0.1789093017578125,0.8354034423828125,0.279541015625
81757,-0.0666656494140625,0.7690582275390625,0.1395416259765625
81758,-0.014007568359375,0.6903839111328125,0.0466156005859375
81759,0.019012451171875,0.593963623046875,0.00048828125
81760,0.0421295166015625,0.4803924560546875,-0.025054931640625
81761,0.069366455078125,0.3619384765625,-0.022308349609375
81762,0.0958251953125,0.2689971923828125,0.0219573974609375
81763,0.106292724609375,0.201995849609375,0.0784759521484375
81764,0.096649169921875,0.1388702392578125,0.1319580078125
81765,0.0823974609375,0.0831298828125,0.197509765625
81766,0.071197509765625,0.028045654296875,0.2752532958984375
81767,0.060272216796875,-0.0366363525390625,0.3438568115234375
81768,0.017486572265625,-0.0910186767578125,0.4278106689453125
81769,-0.045623779296875,-0.1198272705078125,0.4449310302734375
81770,-0.086639404296875,-0.0619659423828125,0.295806884765625
81771,-0.05230712890625,0.095428466796875,0.05712890625
81772,-0.0062255859375,0.216644287109375,-0.110809326171875
81773,0.0114898681640625,0.42633056640625,-0.1285552978515625
81774,0.03704833984375,0.8125,-0.145599365234375
81775,0.051422119140625,1.311843872070312,-0.2374420166015625
81776,0.079071044921875,1.830902099609375,-0.4249114990234375
81777,0.1819305419921875,2.286087036132812,-0.7539215087890625
81778,0.343017578125,2.560760498046875,-1.274444580078125
81779,0.478118896484375,2.614044189453125,-1.981796264648438
81780,0.555389404296875,2.338088989257812,-2.233123779296875
81781,0.4792633056640625,1.752090454101562,-1.625762939453125
81782,0.239837646484375,1.34771728515625,-1.216598510742188
81783,0.0542755126953125,1.044937133789062,-1.037155151367188
81784,-0.0499114990234375,0.8708343505859375,-0.8292236328125
81785,-0.11297607421875,0.8210906982421875,-0.6458892822265625
81786,-0.1440582275390625,0.81072998046875,-0.49603271484375
81787,-0.156585693359375,0.791259765625,-0.38775634765625
81788,-0.1486358642578125,0.7504119873046875,-0.323333740234375
81789,-0.137969970703125,0.7093505859375,-0.2631378173828125
81790,-0.1258544921875,0.6677398681640625,-0.190948486328125
81791,-0.1084442138671875,0.6288604736328125,-0.10693359375
81792,-0.099365234375,0.5970611572265625,-0.013397216796875
81793,-0.120391845703125,0.6153564453125,0.15069580078125
81794,-0.1571044921875,0.6574554443359375,0.4080963134765625
81795,-0.1449737548828125,0.6436004638671875,0.6513519287109375
81796,-0.086456298828125,0.5544586181640625,0.77862548828125
81797,-0.036956787109375,0.464202880859375,0.89208984375
81798,0.029205322265625,0.3465423583984375,1.223480224609375
81799,0.086456298828125,0.25189208984375,1.515548706054688
81800,0.0413055419921875,0.2559051513671875,0.7031402587890625
81801,-0.0451812744140625,0.217742919921875,0.030731201171875
81802,-0.05267333984375,0.143157958984375,-0.1256866455078125
81803,-0.047027587890625,0.1170196533203125,-0.026611328125
81804,-0.0560150146484375,0.1257781982421875,0.077606201171875
81805,-0.038330078125,0.1101837158203125,0.1441497802734375
81806,0.0050201416015625,0.0630950927734375,0.1882781982421875
81807,0.0408172607421875,0.0466156005859375,0.167694091796875
81808,0.0501251220703125,0.1350860595703125,0.089691162109375
81809,0.0591888427734375,0.283447265625,0.018768310546875
81810,0.0612945556640625,0.46527099609375,-0.032470703125
81811,0.0666351318359375,0.7764739990234375,-0.097076416015625
81812,0.0941314697265625,1.335983276367188,-0.2285614013671875
81813,0.1852874755859375,2.185470581054688,-0.3364715576171875
81814,0.320709228515625,3.31719970703125,-0.2964935302734375
81815,0.471649169921875,4.477813720703125,-0.1455078125
81816,0.733154296875,4.875213623046875,0.0042266845703125
81817,0.997283935546875,4.253494262695312,0.0885009765625
81818,0.685699462890625,3.295272827148438,-0.1476287841796875
81819,0.2011871337890625,2.602264404296875,-0.3971710205078125
81820,-0.026763916015625,1.961349487304688,-0.334197998046875
81821,-0.169830322265625,1.579391479492188,-0.172760009765625
81822,-0.249267578125,1.377685546875,-0.0089111328125
81823,-0.3196868896484375,1.295379638671875,0.17645263671875
81824,-0.3526153564453125,1.220626831054688,0.3775482177734375
81825,-0.3453826904296875,1.089553833007812,0.553497314453125
81826,-0.4228515625,0.8830413818359375,1.474197387695312
81827,-0.4626922607421875,0.7210845947265625,1.755722045898438
81828,-0.43463134765625,0.7186737060546875,0.9702911376953124
81829,-0.2996368408203125,0.744110107421875,0.387664794921875
81830,-0.104248046875,0.67242431640625,0.1810302734375
81831,-0.0056915283203125,0.582305908203125,0.057464599609375
81832,0.03875732421875,0.4832305908203125,0.00335693359375
81833,0.070648193359375,0.381988525390625,0.0150299072265625
81834,0.10040283203125,0.294189453125,0.0472412109375
81835,0.121490478515625,0.226318359375,0.06768798828125
81836,0.133392333984375,0.1596832275390625,0.0648345947265625
81837,0.1388092041015625,0.093536376953125,0.0579071044921875
81838,0.132659912109375,0.045928955078125,0.06634521484375
81839,0.1135406494140625,0.01690673828125,0.1182098388671875
81840,0.0902099609375,-0.0057830810546875,0.1905364990234375
81841,0.0526275634765625,-0.02105712890625,0.4004058837890625
81842,-0.0019378662109375,-0.0283203125,0.674224853515625
81843,-0.053955078125,0.036865234375,0.5246124267578125
81844,-0.0430145263671875,0.20294189453125,0.1423187255859375
81845,0.0081939697265625,0.285888671875,-0.091522216796875
81846,0.0473175048828125,0.4839324951171875,-0.1377716064453125
81847,0.1218719482421875,0.871185302734375,-0.1304779052734375
81848,0.17987060546875,1.289703369140625,-0.183380126953125
81849,0.1779632568359375,1.67401123046875,-0.3617401123046875
81850,0.21087646484375,2.079055786132812,-0.673431396484375
81851,0.31329345703125,2.407989501953125,-1.045257568359375
81852,0.450592041015625,2.561569213867188,-1.52276611328125
81853,0.5201873779296875,2.462921142578125,-1.90594482421875
81854,0.5182037353515625,2.022842407226562,-1.600921630859375
81855,0.3493804931640625,1.474029541015625,-1.056549072265625
81856,0.1416015625,1.140090942382812,-0.89764404296875
81857,0.020355224609375,0.9530487060546876,-0.72802734375
81858,-0.05584716796875,0.85772705078125,-0.566131591796875
81859,-0.1002197265625,0.7862396240234375,-0.4880218505859375
81860,-0.1367645263671875,0.7239837646484375,-0.4496002197265625
81861,-0.1573638916015625,0.65679931640625,-0.421783447265625
81862,-0.16961669921875,0.594512939453125,-0.353240966796875
81863,-0.170745849609375,0.53424072265625,-0.257659912109375
81864,-0.1630401611328125,0.4694976806640625,-0.155242919921875
81865,-0.142608642578125,0.412506103515625,-0.0548553466796875
81866,-0.12408447265625,0.3735504150390625,0.0706329345703125
81867,-0.12249755859375,0.3665313720703125,0.24090576171875
81868,-0.1350250244140625,0.37091064453125,0.411376953125
81869,-0.117889404296875,0.34173583984375,0.608551025390625
81870,-0.0596771240234375,0.2236175537109375,0.8179473876953125
81871,-0.013580322265625,0.1504058837890625,0.92913818359375
81872,0.0101470947265625,0.164154052734375,1.081375122070312
81873,0.0219879150390625,0.2107086181640625,1.199554443359375
81874,-0.0609283447265625,0.2608489990234375,0.6275177001953125
81875,-0.180999755859375,0.2312774658203125,0.0596923828125
81876,-0.1348876953125,0.1604461669921875,-0.1858978271484375
81877,-0.0694580078125,0.1579742431640625,-0.121734619140625
81878,-0.0379180908203125,0.2171478271484375,0.036407470703125
81879,0.0079345703125,0.3083648681640625,0.203857421875
81880,0.0606842041015625,0.423126220703125,0.3174896240234375
81881,0.1043243408203125,0.566619873046875,0.3365325927734375
81882,0.1259613037109375,0.7889404296875,0.2442169189453125
81883,0.14642333984375,1.184097290039062,0.1061859130859375
81884,0.2232666015625,1.860519409179688,-0.220001220703125
81885,0.3796539306640625,2.832778930664062,-0.6488494873046875
81886,0.5710906982421875,3.688095092773438,-0.8231964111328125
81887,0.7336883544921875,4.142822265625,-0.6374053955078125
81888,0.7005767822265625,3.999969482421875,-0.37213134765625
81889,0.395477294921875,3.26141357421875,-0.422027587890625
81890,0.0659637451171875,2.59002685546875,-0.7010650634765625
81891,-0.101104736328125,1.962890625,-0.7759857177734375
81892,-0.1962890625,1.62628173828125,-0.512603759765625
81893,-0.239044189453125,1.517532348632812,-0.1853485107421875
81894,-0.2692108154296875,1.522186279296875,0.071685791015625
81895,-0.3162689208984375,1.57501220703125,0.264129638671875
81896,-0.3455810546875,1.5755615234375,0.4014434814453125
81897,-0.333526611328125,1.455902099609375,0.5550537109375
81898,-0.2781219482421875,1.228363037109375,0.7934112548828125
81899,-0.2642822265625,0.9675750732421876,1.43988037109375
81900,-0.234710693359375,0.73291015625,1.551605224609375
81901,-0.14190673828125,0.6543426513671875,0.659515380859375
81902,-0.062591552734375,0.6217803955078125,0.2590179443359375
81903,-0.011138916015625,0.5164642333984375,0.11932373046875
81904,0.0169830322265625,0.4063873291015625,0.049468994140625
81905,0.04193115234375,0.296844482421875,0.061126708984375
81906,0.0722808837890625,0.187835693359375,0.0972442626953125
81907,0.10162353515625,0.0871124267578125,0.155181884765625
81908,0.1124267578125,0.0230255126953125,0.2259674072265625
81909,0.1117706298828125,-0.0120391845703125,0.282257080078125
81910,0.096099853515625,-0.038421630859375,0.368621826171875
81911,0.0723419189453125,-0.0986175537109375,0.6105499267578125
81912,0.0174713134765625,-0.1466522216796875,0.7924041748046875
81913,-0.0573272705078125,-0.143798828125,0.6910552978515625
81914,-0.0959014892578125,-0.0252227783203125,0.312103271484375
81915,-0.0361175537109375,0.1291046142578125,-0.044342041015625
81916,0.0175323486328125,0.197174072265625,-0.1997222900390625
81917,0.067108154296875,0.3793182373046875,-0.20086669921875
81918,0.1489105224609375,0.764404296875,-0.1766357421875
81919,0.2310791015625,1.215469360351562,-0.238555908203125
81920,0.278564453125,1.674591064453125,-0.449737548828125
81921,0.3375701904296875,2.203369140625,-0.9036407470703124
81922,0.507598876953125,2.640655517578125,-1.639205932617188
81923,0.811279296875,2.783004760742188,-2.058151245117188
81924,0.95123291015625,2.622207641601562,-1.993499755859375
81925,0.645599365234375,2.021652221679688,-1.7349853515625
81926,0.271881103515625,1.384246826171875,-1.378387451171875
81927,0.083404541015625,1.001724243164062,-0.9766387939453124
81928,-0.0248870849609375,0.8072967529296875,-0.755584716796875
81929,-0.0838165283203125,0.7012786865234375,-0.6843719482421875
81930,-0.1200714111328125,0.642608642578125,-0.6894073486328125
81931,-0.151458740234375,0.62957763671875,-0.6831817626953125
81932,-0.1684417724609375,0.6406097412109375,-0.597808837890625
81933,-0.1630096435546875,0.65618896484375,-0.440826416015625
81934,-0.154510498046875,0.66961669921875,-0.28857421875
81935,-0.1480560302734375,0.66705322265625,-0.1469879150390625
81936,-0.135284423828125,0.646820068359375,0.004302978515625
81937,-0.103668212890625,0.6373291015625,0.254791259765625
81938,-0.0683441162109375,0.6011199951171875,0.5494384765625
81939,-0.0304718017578125,0.4864501953125,0.851715087890625
81940,0.0098419189453125,0.361968994140625,1.2154541015625
81941,0.031768798828125,0.2486114501953125,1.580841064453125
81942,0.068695068359375,0.2373199462890625,1.086654663085938
81943,0.0053558349609375,0.3261566162109375,0.38519287109375
81944,-0.080169677734375,0.3074798583984375,0.04144287109375
81945,-0.0989837646484375,0.2077178955078125,-0.02484130859375
81946,-0.0867919921875,0.134552001953125,-0.0018310546875
81947,-0.0478363037109375,0.0622711181640625,0.0322113037109375
81948,-0.0117340087890625,-0.0067596435546875,0.0865936279296875
81949,0.0125885009765625,-0.0507659912109375,0.118896484375
81950,0.0216217041015625,-0.0660552978515625,0.118377685546875
81951,0.02703857421875,-0.053375244140625,0.0701446533203125
81952,0.04290771484375,0.0505218505859375,0.0111541748046875
81953,0.0579376220703125,0.20855712890625,-0.02691650390625
81954,0.07073974609375,0.385528564453125,-0.08697509765625
81955,0.0862579345703125,0.7400054931640625,-0.4282989501953125
81956,0.140289306640625,1.370574951171875,-0.9499969482421876
81957,0.1463165283203125,2.350570678710938,-0.6769561767578125
81958,0.02703857421875,3.8592529296875,-0.7392425537109375
81959,0.07110595703125,4.947830200195312,-0.868072509765625
81960,0.373077392578125,4.7310791015625,-0.704742431640625
81961,0.5570831298828125,3.824066162109375,-0.5248870849609375
81962,0.3402252197265625,2.774261474609375,-1.102325439453125
81963,0.11639404296875,1.892471313476562,-1.411239624023438
81964,-0.009307861328125,1.5655517578125,-0.8352508544921875
81965,-0.077972412109375,1.508193969726562,-0.2521209716796875
81966,-0.147369384765625,1.543594360351562,0.048126220703125
81967,-0.24761962890625,1.65185546875,0.2532806396484375
81968,-0.328643798828125,1.712448120117188,0.367401123046875
81969,-0.3773345947265625,1.639266967773438,0.4618988037109375
