time_idx,accelerometerAccelerationX(G),accelerometerAccelerationY(G),accelerometerAccelerationZ(G)
260000,0.618682861328125,0.543487548828125,-0.3500823974609375
260001,0.6526641845703125,0.547271728515625,-0.4026336669921875
260002,0.69549560546875,0.5651702880859375,-0.460601806640625
260003,0.74493408203125,0.601837158203125,-0.5151214599609375
260004,0.78826904296875,0.6605072021484375,-0.560455322265625
260005,0.8118133544921875,0.7363739013671875,-0.5857391357421875
260006,0.8060302734375,0.8145599365234375,-0.585357666015625
260007,0.771942138671875,0.866119384765625,-0.553741455078125
260008,0.717071533203125,0.8612518310546875,-0.5164337158203125
260009,0.657501220703125,0.8102264404296875,-0.4943695068359375
260010,0.60064697265625,0.7501373291015625,-0.4725494384765625
260011,0.556976318359375,0.6928253173828125,-0.4505615234375
260012,0.5272216796875,0.6588134765625,-0.4332733154296875
260013,0.500030517578125,0.6518402099609375,-0.413543701171875
260014,0.47821044921875,0.665283203125,-0.3898162841796875
260015,0.4754486083984375,0.683502197265625,-0.367950439453125
260016,0.4772186279296875,0.6941680908203125,-0.344085693359375
260017,0.4841461181640625,0.686737060546875,-0.3287506103515625
260018,0.500030517578125,0.6651763916015625,-0.324066162109375
260019,0.5310211181640625,0.6431732177734375,-0.334136962890625
260020,0.56787109375,0.6360626220703125,-0.35748291015625
260021,0.6027374267578125,0.6591033935546875,-0.3923187255859375
260022,0.626495361328125,0.7092742919921875,-0.433135986328125
260023,0.6314544677734375,0.7646026611328125,-0.47845458984375
260024,0.615234375,0.81072998046875,-0.5136871337890625
260025,0.5786895751953125,0.8510894775390625,-0.519287109375
260026,0.5262451171875,0.8820343017578125,-0.5002899169921875
260027,0.4641876220703125,0.897613525390625,-0.4668731689453125
260028,0.4076080322265625,0.883636474609375,-0.429229736328125
260029,0.3674774169921875,0.85638427734375,-0.3904571533203125
260030,0.3517303466796875,0.8312835693359375,-0.3521575927734375
260031,0.3510894775390625,0.8154144287109375,-0.3158416748046875
260032,0.3601837158203125,0.80474853515625,-0.2974700927734375
260033,0.3820343017578125,0.7938232421875,-0.3061370849609375
260034,0.4152679443359375,0.779571533203125,-0.3277130126953125
260035,0.456085205078125,0.759674072265625,-0.333251953125
260036,0.502593994140625,0.7348175048828125,-0.308380126953125
260037,0.5568084716796875,0.706298828125,-0.26666259765625
260038,0.6187896728515625,0.6775665283203125,-0.229278564453125
260039,0.6790008544921875,0.6502838134765625,-0.2022857666015625
260040,0.7263031005859375,0.6229400634765625,-0.1887969970703125
260041,0.7652130126953125,0.5937652587890625,-0.1849517822265625
260042,0.8013916015625,0.5625457763671875,-0.1896820068359375
260043,0.836700439453125,0.531158447265625,-0.204315185546875
260044,0.8683013916015625,0.496185302734375,-0.2001190185546875
260045,0.8946990966796875,0.4499969482421875,-0.159759521484375
260046,0.9181060791015624,0.3975677490234375,-0.1014862060546875
260047,0.9326019287109376,0.3380279541015625,-0.05352783203125
260048,0.938629150390625,0.28271484375,-0.0334930419921875
260049,0.940887451171875,0.250885009765625,-0.0509490966796875
260050,0.9398651123046876,0.25604248046875,-0.0990753173828125
260051,0.9420166015625,0.2992095947265625,-0.164947509765625
260052,0.9529266357421876,0.377044677734375,-0.229827880859375
260053,0.9686126708984376,0.4659881591796875,-0.2706298828125
260054,0.982330322265625,0.548980712890625,-0.2915802001953125
260055,0.989501953125,0.625762939453125,-0.2960205078125
260056,0.9867401123046876,0.696136474609375,-0.2947540283203125
260057,0.9776153564453124,0.7634735107421875,-0.2918853759765625
260058,0.96282958984375,0.823944091796875,-0.2835845947265625
260059,0.9378814697265624,0.873199462890625,-0.2687530517578125
260060,0.8916168212890625,0.9098663330078124,-0.269775390625
260061,0.8188629150390625,0.9327850341796876,-0.2970733642578125
260062,0.7307586669921875,0.9370574951171876,-0.3397216796875
260063,0.643218994140625,0.9171600341796876,-0.3780670166015625
260064,0.5774078369140625,0.872711181640625,-0.40679931640625
260065,0.5495758056640625,0.797393798828125,-0.4327850341796875
260066,0.5426788330078125,0.7227325439453125,-0.4425506591796875
260067,0.5409393310546875,0.677001953125,-0.43731689453125
260068,0.55047607421875,0.6533966064453125,-0.42938232421875
260069,0.5688629150390625,0.650909423828125,-0.4134063720703125
260070,0.5925445556640625,0.66864013671875,-0.394683837890625
260071,0.6135406494140625,0.6941986083984375,-0.3808135986328125
260072,0.6367645263671875,0.721649169921875,-0.3817901611328125
260073,0.6608123779296875,0.7494659423828125,-0.3903350830078125
260074,0.6734466552734375,0.7770233154296875,-0.39752197265625
260075,0.6617431640625,0.8122711181640625,-0.3984832763671875
260076,0.6310882568359375,0.8538360595703125,-0.3983612060546875
260077,0.5972442626953125,0.885467529296875,-0.3846588134765625
260078,0.561920166015625,0.9004974365234375,-0.3518524169921875
260079,0.52471923828125,0.9002685546875,-0.3046875
260080,0.4736175537109375,0.88720703125,-0.2425079345703125
260081,0.4180908203125,0.8539276123046875,-0.1972198486328125
260082,0.4344024658203125,0.7914886474609375,-0.19482421875
260083,0.47430419921875,0.7347869873046875,-0.18133544921875
260084,0.4824981689453125,0.702362060546875,-0.1415557861328125
260085,0.464752197265625,0.684112548828125,-0.1157684326171875
260086,0.4348602294921875,0.67083740234375,-0.128082275390625
260087,0.40264892578125,0.6602020263671875,-0.1570281982421875
260088,0.384674072265625,0.6598663330078125,-0.184173583984375
260089,0.367950439453125,0.6751556396484375,-0.1856536865234375
260090,0.3217926025390625,0.7054290771484375,-0.1776885986328125
260091,0.3606719970703125,0.7352142333984375,-0.2165679931640625
260092,0.4506683349609375,0.76318359375,-0.246063232421875
260093,0.5548248291015625,0.778045654296875,-0.2730865478515625
260094,0.6473388671875,0.782623291015625,-0.286712646484375
260095,0.691864013671875,0.7935943603515625,-0.3518829345703125
260096,0.705108642578125,0.825286865234375,-0.4200592041015625
260097,0.6880035400390625,0.8817138671875,-0.4964752197265625
260098,0.6371307373046875,0.95086669921875,-0.550689697265625
260099,0.567230224609375,1.001937866210938,-0.5245819091796875
260100,0.500579833984375,1.008804321289062,-0.4621734619140625
260101,0.4314727783203125,0.94720458984375,-0.4076995849609375
260102,0.357574462890625,0.8316802978515625,-0.3591766357421875
260103,0.29815673828125,0.7533111572265625,-0.313385009765625
260104,0.2934112548828125,0.717803955078125,-0.2876129150390625
260105,0.32952880859375,0.6998443603515625,-0.2837982177734375
260106,0.388641357421875,0.6785430908203125,-0.302978515625
260107,0.474884033203125,0.658966064453125,-0.3207550048828125
260108,0.58538818359375,0.642669677734375,-0.3052520751953125
260109,0.7073822021484375,0.618072509765625,-0.26763916015625
260110,0.822479248046875,0.58843994140625,-0.2169647216796875
260111,0.919586181640625,0.5595550537109375,-0.16259765625
260112,0.9922943115234376,0.526885986328125,-0.10809326171875
260113,1.037994384765625,0.4779510498046875,-0.064453125
260114,1.04815673828125,0.4038543701171875,-0.0470428466796875
260115,1.022933959960938,0.3209991455078125,-0.061614990234375
260116,0.97589111328125,0.2655029296875,-0.0798797607421875
260117,0.93170166015625,0.25604248046875,-0.0888519287109375
260118,0.9062347412109376,0.287567138671875,-0.088409423828125
260119,0.89703369140625,0.332427978515625,-0.0796051025390625
260120,0.8996734619140625,0.374725341796875,-0.07861328125
260121,0.9123992919921876,0.4145050048828125,-0.084228515625
260122,0.93475341796875,0.4447784423828125,-0.1068878173828125
260123,0.9716339111328124,0.4615631103515625,-0.15240478515625
260124,1.0152587890625,0.47271728515625,-0.217681884765625
260125,1.058761596679688,0.496795654296875,-0.28680419921875
260126,1.089553833007812,0.54058837890625,-0.3352203369140625
260127,1.09283447265625,0.5991973876953125,-0.3571014404296875
260128,1.050216674804688,0.658233642578125,-0.354705810546875
260129,0.9592437744140624,0.7106170654296875,-0.358612060546875
260130,0.83416748046875,0.761566162109375,-0.379058837890625
260131,0.690032958984375,0.813262939453125,-0.405303955078125
260132,0.5443572998046875,0.86566162109375,-0.425140380859375
260133,0.4127655029296875,0.906585693359375,-0.4388885498046875
260134,0.308349609375,0.922882080078125,-0.4533538818359375
260135,0.244049072265625,0.9106903076171876,-0.4517669677734375
260136,0.2159271240234375,0.8752593994140625,-0.4230194091796875
260137,0.217529296875,0.8253021240234375,-0.37152099609375
260138,0.261993408203125,0.7803955078125,-0.3242340087890625
260139,0.3366851806640625,0.759979248046875,-0.2887725830078125
260140,0.42266845703125,0.763671875,-0.270416259765625
260141,0.5189971923828125,0.78759765625,-0.282257080078125
260142,0.633880615234375,0.826385498046875,-0.3242645263671875
260143,0.7694854736328125,0.868927001953125,-0.38482666015625
260144,0.914794921875,0.907012939453125,-0.4431304931640625
260145,1.035751342773438,0.929779052734375,-0.47210693359375
260146,1.0799560546875,0.90423583984375,-0.464752197265625
260147,1.013046264648438,0.8235931396484375,-0.4440155029296875
260148,0.8868560791015625,0.740142822265625,-0.4359588623046875
260149,0.772552490234375,0.69219970703125,-0.427276611328125
260150,0.6722412109375,0.655029296875,-0.4033050537109375
260151,0.582366943359375,0.6179046630859375,-0.3675537109375
260152,0.49810791015625,0.582794189453125,-0.3267822265625
260153,0.4226837158203125,0.552093505859375,-0.288970947265625
260154,0.3669586181640625,0.5294952392578125,-0.2639007568359375
260155,0.3354339599609375,0.514617919921875,-0.255279541015625
260156,0.3235015869140625,0.504730224609375,-0.2565460205078125
260157,0.3277587890625,0.50433349609375,-0.266845703125
260158,0.354736328125,0.5158233642578125,-0.286041259765625
260159,0.413360595703125,0.5436859130859375,-0.319122314453125
260160,0.486663818359375,0.5977325439453125,-0.3613739013671875
260161,0.554168701171875,0.675872802734375,-0.4040374755859375
260162,0.6228179931640625,0.7586212158203125,-0.4387359619140625
260163,0.6875152587890625,0.828857421875,-0.4486541748046875
260164,0.7225799560546875,0.88580322265625,-0.4223175048828125
260165,0.70721435546875,0.9232025146484376,-0.3820953369140625
260166,0.6483917236328125,0.9448394775390624,-0.35113525390625
260167,0.56951904296875,0.964111328125,-0.33721923828125
260168,0.4835052490234375,0.971221923828125,-0.33740234375
260169,0.4070587158203125,0.951385498046875,-0.3438873291015625
260170,0.35577392578125,0.912139892578125,-0.3371734619140625
260171,0.32684326171875,0.8659210205078125,-0.3130340576171875
260172,0.3209381103515625,0.824493408203125,-0.2845916748046875
260173,0.3397674560546875,0.7941741943359375,-0.2613067626953125
260174,0.378509521484375,0.7733306884765625,-0.2395477294921875
260175,0.437103271484375,0.7526092529296875,-0.219970703125
260176,0.5122528076171875,0.7242889404296875,-0.205047607421875
260177,0.598876953125,0.6851043701171875,-0.19635009765625
260178,0.6942901611328125,0.6379547119140625,-0.205169677734375
260179,0.7958526611328125,0.5885162353515625,-0.2281036376953125
260180,0.8985137939453125,0.5385589599609375,-0.2499847412109375
260181,0.990570068359375,0.491424560546875,-0.245086669921875
260182,1.060195922851562,0.4481353759765625,-0.2080535888671875
260183,1.107070922851562,0.40545654296875,-0.15350341796875
260184,1.130416870117188,0.364990234375,-0.0992279052734375
260185,1.132247924804688,0.3344268798828125,-0.0550079345703125
260186,1.116973876953125,0.31719970703125,-0.0151214599609375
260187,1.07989501953125,0.32269287109375,0.0149383544921875
260188,1.035354614257812,0.3590850830078125,0.015045166015625
260189,1.008163452148438,0.410980224609375,-0.0242462158203125
260190,0.9965972900390624,0.462677001953125,-0.0812530517578125
260191,0.997894287109375,0.517242431640625,-0.134185791015625
260192,1.009078979492188,0.5803985595703125,-0.174774169921875
260193,1.018692016601562,0.6427459716796875,-0.1918487548828125
260194,1.016448974609375,0.695556640625,-0.19073486328125
260195,0.9936370849609376,0.7416839599609375,-0.1864471435546875
260196,0.9388427734375,0.77581787109375,-0.1859283447265625
260197,0.8503875732421875,0.7933502197265625,-0.1995086669921875
260198,0.7413787841796875,0.794403076171875,-0.2230377197265625
260199,0.6405029296875,0.7851104736328125,-0.2570953369140625
260200,0.5723419189453125,0.77716064453125,-0.3070526123046875
260201,0.53692626953125,0.7777252197265625,-0.3619384765625
260202,0.5189971923828125,0.7806243896484375,-0.4125518798828125
260203,0.504425048828125,0.7788848876953125,-0.459686279296875
260204,0.4931488037109375,0.775604248046875,-0.49615478515625
260205,0.4779510498046875,0.7701568603515625,-0.5168304443359375
260206,0.45806884765625,0.759765625,-0.5087890625
260207,0.4360198974609375,0.7456207275390625,-0.470916748046875
260208,0.417633056640625,0.73065185546875,-0.42193603515625
260209,0.40771484375,0.720733642578125,-0.39373779296875
260210,0.4012451171875,0.7223052978515625,-0.38275146484375
260211,0.39837646484375,0.7355499267578125,-0.3720703125
260212,0.4017181396484375,0.7570648193359375,-0.351409912109375
260213,0.41192626953125,0.790130615234375,-0.32208251953125
260214,0.4264068603515625,0.8281707763671875,-0.2861480712890625
260215,0.4508056640625,0.8678131103515625,-0.24920654296875
260216,0.48590087890625,0.8943023681640625,-0.220977783203125
260217,0.5245208740234375,0.8974151611328125,-0.1985931396484375
260218,0.550872802734375,0.87158203125,-0.18389892578125
260219,0.5596466064453125,0.827423095703125,-0.182952880859375
260220,0.5506134033203125,0.7825469970703125,-0.1923980712890625
260221,0.5283050537109375,0.7472991943359375,-0.20233154296875
260222,0.5026397705078125,0.712371826171875,-0.2093048095703125
260223,0.48260498046875,0.6849822998046875,-0.21337890625
260224,0.4737091064453125,0.6757965087890625,-0.21197509765625
260225,0.475494384765625,0.6837615966796875,-0.20306396484375
260226,0.4876861572265625,0.7068939208984375,-0.1960296630859375
260227,0.5081939697265625,0.7506561279296875,-0.2123565673828125
260228,0.5308837890625,0.81146240234375,-0.2544097900390625
260229,0.5570831298828125,0.87884521484375,-0.3131866455078125
260230,0.5879974365234375,0.9378814697265624,-0.3724365234375
260231,0.6099090576171875,0.97607421875,-0.411376953125
260232,0.6110382080078125,0.98931884765625,-0.4346160888671875
260233,0.5834808349609375,0.975616455078125,-0.4492645263671875
260234,0.5385589599609375,0.9465484619140624,-0.4579315185546875
260235,0.4864959716796875,0.9138946533203124,-0.4516754150390625
260236,0.4313812255859375,0.8906402587890625,-0.4336395263671875
260237,0.3729248046875,0.8685302734375,-0.40533447265625
260238,0.33154296875,0.8361358642578125,-0.3731536865234375
260239,0.315032958984375,0.7996368408203125,-0.3361663818359375
260240,0.3237152099609375,0.763641357421875,-0.3155059814453125
260241,0.3526763916015625,0.718231201171875,-0.3206634521484375
260242,0.4055633544921875,0.669403076171875,-0.352447509765625
260243,0.49578857421875,0.6250457763671875,-0.3984375
260244,0.621307373046875,0.584930419921875,-0.426055908203125
260245,0.7672271728515625,0.553070068359375,-0.4163665771484375
260246,0.9130401611328124,0.533660888671875,-0.349761962890625
260247,1.041015625,0.514434814453125,-0.228515625
260248,1.129547119140625,0.4740447998046875,-0.0830078125
260249,1.162521362304688,0.3907470703125,0.036590576171875
260250,1.137893676757812,0.2583770751953125,0.0804290771484375
260251,1.076522827148438,0.1223602294921875,0.0543365478515625
260252,1.005035400390625,0.0457611083984375,-0.0039520263671875
260253,0.9439697265625,0.0506134033203125,-0.0745697021484375
260254,0.907562255859375,0.108489990234375,-0.1400604248046875
260255,0.900909423828125,0.1898040771484375,-0.185943603515625
260256,0.9147491455078124,0.2794036865234375,-0.194305419921875
260257,0.93707275390625,0.3541717529296875,-0.16998291015625
260258,0.9743499755859376,0.3896942138671875,-0.146759033203125
260259,1.0289306640625,0.4017791748046875,-0.1498870849609375
260260,1.088226318359375,0.41925048828125,-0.1906585693359375
260261,1.139205932617188,0.4509429931640625,-0.2631988525390625
260262,1.168701171875,0.494110107421875,-0.33282470703125
260263,1.15643310546875,0.5516815185546875,-0.3770599365234375
260264,1.084075927734375,0.615753173828125,-0.3917236328125
260265,0.948638916015625,0.685211181640625,-0.4061737060546875
260266,0.774383544921875,0.765380859375,-0.4300994873046875
260267,0.584136962890625,0.8506622314453125,-0.448699951171875
260268,0.3989715576171875,0.929473876953125,-0.4647674560546875
260269,0.2332916259765625,0.99078369140625,-0.46917724609375
260270,0.0992279052734375,1.03509521484375,-0.475433349609375
260271,0.016571044921875,1.049911499023438,-0.49578857421875
260272,-0.0002288818359375,1.007339477539062,-0.48480224609375
260273,0.039764404296875,0.923919677734375,-0.4040985107421875
260274,0.11419677734375,0.860748291015625,-0.295440673828125
260275,0.2039794921875,0.829620361328125,-0.212615966796875
260276,0.302947998046875,0.8078765869140625,-0.1663970947265625
260277,0.4149017333984375,0.799224853515625,-0.1575469970703125
260278,0.5396728515625,0.812744140625,-0.1908111572265625
260279,0.680999755859375,0.852203369140625,-0.2737579345703125
260280,0.848846435546875,0.8932037353515625,-0.3924713134765625
260281,1.0350341796875,0.9204559326171876,-0.5039215087890625
260282,1.194381713867188,0.921661376953125,-0.5656280517578125
260283,1.26385498046875,0.88641357421875,-0.5690765380859375
260284,1.187057495117188,0.8215484619140625,-0.5298309326171875
260285,1.011581420898438,0.756805419921875,-0.4835052490234375
260286,0.84661865234375,0.7181854248046875,-0.4411468505859375
260287,0.7025299072265625,0.682037353515625,-0.377899169921875
260288,0.5724945068359375,0.642730712890625,-0.3070526123046875
260289,0.451629638671875,0.5968475341796875,-0.248046875
260290,0.344940185546875,0.556121826171875,-0.2093505859375
260291,0.2713165283203125,0.521575927734375,-0.1868743896484375
260292,0.2401885986328125,0.499420166015625,-0.17718505859375
260293,0.2489776611328125,0.4967498779296875,-0.1819610595703125
260294,0.29852294921875,0.5117340087890625,-0.21014404296875
260295,0.3836517333984375,0.5544586181640625,-0.2658843994140625
260296,0.4768524169921875,0.627960205078125,-0.3345794677734375
260297,0.5753326416015625,0.7046966552734375,-0.41015625
260298,0.68218994140625,0.7692413330078125,-0.4627838134765625
260299,0.77325439453125,0.8286285400390625,-0.4683990478515625
260300,0.8209991455078125,0.8879547119140625,-0.4391326904296875
260301,0.814056396484375,0.935516357421875,-0.393585205078125
260302,0.7550811767578125,0.9588623046875,-0.353240966796875
260303,0.663360595703125,0.959503173828125,-0.3304595947265625
260304,0.5612335205078125,0.9349365234375,-0.311309814453125
260305,0.4705352783203125,0.890838623046875,-0.282989501953125
260306,0.3990631103515625,0.837677001953125,-0.25238037109375
260307,0.348846435546875,0.785064697265625,-0.2265167236328125
260308,0.3187713623046875,0.7418975830078125,-0.201904296875
260309,0.3151397705078125,0.7147979736328125,-0.18743896484375
260310,0.338043212890625,0.702423095703125,-0.1905059814453125
260311,0.3845977783203125,0.698150634765625,-0.210723876953125
260312,0.4415130615234375,0.6921234130859375,-0.2388153076171875
260313,0.5059051513671875,0.67431640625,-0.2742767333984375
260314,0.5851898193359375,0.64080810546875,-0.307769775390625
260315,0.684814453125,0.59710693359375,-0.334991455078125
260316,0.796905517578125,0.551239013671875,-0.3390655517578125
260317,0.9013824462890624,0.5029296875,-0.2993011474609375
260318,0.983642578125,0.449310302734375,-0.2143096923828125
260319,1.034149169921875,0.394744873046875,-0.1179962158203125
260320,1.056259155273438,0.34295654296875,-0.0458526611328125
260321,1.067398071289062,0.3060760498046875,-0.00421142578125
260322,1.076705932617188,0.2969512939453125,0.016937255859375
260323,1.079498291015625,0.31072998046875,0.0223541259765625
260324,1.069992065429688,0.341033935546875,0.02862548828125
260325,1.0501708984375,0.39373779296875,0.022216796875
260326,1.038848876953125,0.4562225341796875,-0.0125732421875
260327,1.045989990234375,0.5186309814453125,-0.0686492919921875
260328,1.0701904296875,0.58416748046875,-0.123291015625
260329,1.098861694335938,0.6487884521484375,-0.1612396240234375
260330,1.113388061523438,0.70684814453125,-0.17645263671875
260331,1.09210205078125,0.75360107421875,-0.1797943115234375
260332,1.022842407226562,0.78594970703125,-0.1868133544921875
260333,0.917083740234375,0.804168701171875,-0.20147705078125
260334,0.800567626953125,0.8045654296875,-0.2124481201171875
260335,0.7059478759765625,0.78521728515625,-0.2178192138671875
260336,0.6449127197265625,0.75445556640625,-0.216949462890625
260337,0.6077880859375,0.730255126953125,-0.2196807861328125
260338,0.586395263671875,0.7232818603515625,-0.233367919921875
260339,0.56842041015625,0.727935791015625,-0.2557373046875
260340,0.5477752685546875,0.735687255859375,-0.2927093505859375
260341,0.5342864990234375,0.750946044921875,-0.346343994140625
260342,0.529693603515625,0.7845611572265625,-0.3998565673828125
260343,0.5376434326171875,0.835205078125,-0.449005126953125
260344,0.5560760498046875,0.8873138427734375,-0.4704437255859375
260345,0.5689697265625,0.9280853271484376,-0.4509429931640625
260346,0.560546875,0.944244384765625,-0.43310546875
260347,0.5257110595703125,0.93701171875,-0.423187255859375
260348,0.4701080322265625,0.9233245849609376,-0.3853759765625
260349,0.41552734375,0.911041259765625,-0.3225860595703125
260350,0.367767333984375,0.8954010009765625,-0.253875732421875
260351,0.3270721435546875,0.8757476806640625,-0.197357177734375
260352,0.2937164306640625,0.84423828125,-0.160430908203125
260353,0.2717132568359375,0.7972412109375,-0.140869140625
260354,0.26824951171875,0.7388763427734375,-0.1329803466796875
260355,0.286865234375,0.6827239990234375,-0.1312103271484375
260356,0.32354736328125,0.64471435546875,-0.1311187744140625
260357,0.368896484375,0.6340179443359375,-0.1320648193359375
260358,0.418853759765625,0.635284423828125,-0.136993408203125
260359,0.47308349609375,0.6448974609375,-0.157196044921875
260360,0.5264892578125,0.6671142578125,-0.185302734375
260361,0.5843048095703125,0.7100830078125,-0.225341796875
260362,0.6462860107421875,0.7685089111328125,-0.2815399169921875
260363,0.70550537109375,0.83905029296875,-0.338348388671875
260364,0.7496795654296875,0.9137115478515624,-0.3848114013671875
260365,0.761474609375,0.980377197265625,-0.402679443359375
260366,0.731536865234375,1.021011352539062,-0.4015045166015625
260367,0.667144775390625,1.02301025390625,-0.4089508056640625
260368,0.5826568603515625,0.991302490234375,-0.4215850830078125
260369,0.4875030517578125,0.9575653076171876,-0.4232177734375
260370,0.389801025390625,0.9285125732421876,-0.4147186279296875
260371,0.3061370849609375,0.9052581787109376,-0.401397705078125
260372,0.2525482177734375,0.8757781982421875,-0.3833770751953125
260373,0.238800048828125,0.8399505615234375,-0.372344970703125
260374,0.2514190673828125,0.8026580810546875,-0.37982177734375
260375,0.275634765625,0.7573089599609375,-0.4029998779296875
260376,0.322021484375,0.7108001708984375,-0.4376068115234375
260377,0.403564453125,0.6702117919921875,-0.4749298095703125
260378,0.5127716064453125,0.642791748046875,-0.4931182861328125
260379,0.63970947265625,0.632659912109375,-0.46673583984375
260380,0.7607574462890625,0.6329498291015625,-0.3873138427734375
260381,0.8569488525390625,0.6251068115234375,-0.2659912109375
260382,0.9214019775390624,0.59332275390625,-0.137847900390625
260383,0.9542694091796876,0.5223236083984375,-0.0418701171875
260384,0.962127685546875,0.40924072265625,0.0031585693359375
260385,0.9556427001953124,0.27947998046875,0.0012969970703125
260386,0.94427490234375,0.1637420654296875,-0.025634765625
260387,0.9369354248046876,0.0833740234375,-0.0684051513671875
260388,0.9381103515625,0.0472259521484375,-0.116058349609375
260389,0.9515380859375,0.0558624267578125,-0.1553497314453125
260390,0.980133056640625,0.1015472412109375,-0.167388916015625
260391,1.015045166015625,0.175537109375,-0.1487884521484375
260392,1.04132080078125,0.2584228515625,-0.10400390625
260393,1.062271118164062,0.3299407958984375,-0.0707550048828125
260394,1.080368041992188,0.375732421875,-0.0836944580078125
260395,1.0859375,0.4222259521484375,-0.134002685546875
260396,1.083236694335938,0.4779205322265625,-0.2025604248046875
260397,1.072845458984375,0.5361480712890625,-0.26226806640625
260398,1.048004150390625,0.5927581787109375,-0.2929840087890625
260399,1.001693725585938,0.64239501953125,-0.3071746826171875
260400,0.924163818359375,0.68603515625,-0.3233489990234375
260401,0.8197174072265625,0.7298126220703125,-0.34979248046875
260402,0.70745849609375,0.77545166015625,-0.3812408447265625
260403,0.603729248046875,0.822509765625,-0.4049072265625
260404,0.51422119140625,0.86907958984375,-0.4224090576171875
260405,0.4395751953125,0.915557861328125,-0.4384307861328125
260406,0.3858184814453125,0.9570465087890624,-0.4430694580078125
260407,0.3502044677734375,0.9862823486328124,-0.456207275390625
260408,0.339813232421875,0.9840850830078124,-0.49530029296875
260409,0.355438232421875,0.957275390625,-0.53070068359375
260410,0.392333984375,0.933837890625,-0.530548095703125
260411,0.4433135986328125,0.9361724853515624,-0.500091552734375
260412,0.491302490234375,0.9636688232421876,-0.4617156982421875
260413,0.5291748046875,0.982269287109375,-0.426116943359375
260414,0.5547332763671875,0.966522216796875,-0.39862060546875
260415,0.550262451171875,0.91949462890625,-0.379150390625
260416,0.5245513916015625,0.86407470703125,-0.38427734375
260417,0.49481201171875,0.8119049072265625,-0.40447998046875
260418,0.4815673828125,0.7634429931640625,-0.437408447265625
260419,0.48095703125,0.7373809814453125,-0.4669342041015625
260420,0.47119140625,0.7416229248046875,-0.4667510986328125
260421,0.4530487060546875,0.7605438232421875,-0.4391326904296875
260422,0.424957275390625,0.7681427001953125,-0.3875579833984375
260423,0.3960418701171875,0.74755859375,-0.334442138671875
260424,0.3839111328125,0.7079925537109375,-0.29327392578125
260425,0.392303466796875,0.6671142578125,-0.265625
260426,0.424560546875,0.64044189453125,-0.25579833984375
260427,0.474884033203125,0.6340789794921875,-0.269134521484375
260428,0.523895263671875,0.6576690673828125,-0.309356689453125
260429,0.5632781982421875,0.7133636474609375,-0.362945556640625
260430,0.607696533203125,0.7861480712890625,-0.404937744140625
260431,0.655853271484375,0.8531341552734375,-0.4037628173828125
260432,0.691436767578125,0.8975372314453125,-0.3632354736328125
260433,0.69757080078125,0.9105987548828124,-0.3077239990234375
260434,0.669219970703125,0.8928985595703125,-0.2645416259765625
260435,0.62078857421875,0.8585662841796875,-0.2509002685546875
260436,0.5778350830078125,0.81756591796875,-0.25701904296875
260437,0.5458526611328125,0.77423095703125,-0.2623291015625
260438,0.5228424072265625,0.7352447509765625,-0.2591552734375
260439,0.505584716796875,0.7010650634765625,-0.2501373291015625
260440,0.49176025390625,0.6680755615234375,-0.2344207763671875
260441,0.486968994140625,0.6377716064453125,-0.2228851318359375
260442,0.500823974609375,0.6106414794921875,-0.21533203125
260443,0.5329132080078125,0.5915374755859375,-0.2089385986328125
260444,0.5801239013671875,0.5809783935546875,-0.2096405029296875
260445,0.637115478515625,0.5702667236328125,-0.21356201171875
260446,0.6980133056640625,0.5582275390625,-0.2199249267578125
260447,0.7649993896484375,0.5444488525390625,-0.222747802734375
260448,0.835784912109375,0.52362060546875,-0.2126617431640625
260449,0.9014434814453124,0.5010223388671875,-0.1846923828125
260450,0.950286865234375,0.4677581787109375,-0.133514404296875
260451,0.9803009033203124,0.4268035888671875,-0.0708465576171875
260452,0.9885101318359376,0.384490966796875,-0.0122222900390625
260453,0.986602783203125,0.3527374267578125,0.027099609375
260454,0.9796295166015624,0.3376312255859375,0.0447845458984375
260455,0.960845947265625,0.3430023193359375,0.05010986328125
260456,0.9387054443359376,0.3685302734375,0.0373687744140625
260457,0.9257049560546876,0.4093475341796875,0.0093536376953125
260458,0.93109130859375,0.46636962890625,-0.0212554931640625
260459,0.9613189697265624,0.5414886474609375,-0.058685302734375
260460,1.019027709960938,0.629180908203125,-0.101165771484375
260461,1.092575073242188,0.72161865234375,-0.1406402587890625
260462,1.165069580078125,0.8130950927734375,-0.170166015625
260463,1.21044921875,0.8932647705078125,-0.1966094970703125
260464,1.20281982421875,0.9510650634765624,-0.21783447265625
260465,1.123870849609375,0.98468017578125,-0.23114013671875
260466,0.9754486083984376,0.987060546875,-0.24755859375
260467,0.7999420166015625,0.947723388671875,-0.2652130126953125
260468,0.643280029296875,0.8799591064453125,-0.2860565185546875
260469,0.5246734619140625,0.825103759765625,-0.3055267333984375
260470,0.434356689453125,0.797882080078125,-0.3262481689453125
260471,0.3640899658203125,0.7858428955078125,-0.3548126220703125
260472,0.3119354248046875,0.7796478271484375,-0.4091033935546875
260473,0.2876434326171875,0.7666015625,-0.4641876220703125
260474,0.286956787109375,0.7564849853515625,-0.481964111328125
260475,0.3129730224609375,0.7546539306640625,-0.4541015625
260476,0.3593597412109375,0.758087158203125,-0.4065399169921875
260477,0.4259185791015625,0.7724761962890625,-0.3623809814453125
260478,0.5026702880859375,0.79071044921875,-0.317840576171875
260479,0.5715789794921875,0.8026885986328125,-0.2755126953125
260480,0.6200408935546875,0.80865478515625,-0.24249267578125
260481,0.6473388671875,0.8109130859375,-0.21942138671875
260482,0.6568145751953125,0.81231689453125,-0.2014923095703125
260483,0.6447906494140625,0.8092498779296875,-0.1915283203125
260484,0.6125335693359375,0.7962799072265625,-0.1887664794921875
260485,0.563079833984375,0.7737274169921875,-0.186279296875
260486,0.507354736328125,0.747344970703125,-0.1786956787109375
260487,0.4582672119140625,0.7180938720703125,-0.159027099609375
260488,0.41973876953125,0.6915740966796875,-0.135101318359375
260489,0.4042816162109375,0.669708251953125,-0.1175537109375
260490,0.4091644287109375,0.6593170166015625,-0.1068267822265625
260491,0.418853759765625,0.6697998046875,-0.1067657470703125
260492,0.437164306640625,0.703369140625,-0.119964599609375
260493,0.4682464599609375,0.7597198486328125,-0.1544647216796875
260494,0.509918212890625,0.8346099853515625,-0.2292633056640625
260495,0.563079833984375,0.919158935546875,-0.3356781005859375
260496,0.61962890625,1.00250244140625,-0.4299774169921875
260497,0.6597442626953125,1.073410034179688,-0.4780426025390625
260498,0.6568450927734375,1.111404418945312,-0.481048583984375
260499,0.6073760986328125,1.097213745117188,-0.487945556640625
260500,0.517974853515625,1.047012329101562,-0.50787353515625
260501,0.40673828125,0.995086669921875,-0.509735107421875
260502,0.31414794921875,0.94622802734375,-0.4812164306640625
260503,0.2546844482421875,0.9033050537109376,-0.4309844970703125
260504,0.213287353515625,0.8700714111328125,-0.3733367919921875
260505,0.195098876953125,0.8409881591796875,-0.3175201416015625
260506,0.2069244384765625,0.801849365234375,-0.28546142578125
260507,0.2357330322265625,0.7434539794921875,-0.2791748046875
260508,0.284881591796875,0.67962646484375,-0.3060455322265625
260509,0.360626220703125,0.617095947265625,-0.34796142578125
260510,0.4742584228515625,0.5614471435546875,-0.4000244140625
260511,0.6291961669921875,0.522857666015625,-0.4716796875
260512,0.8022003173828125,0.5074310302734375,-0.5270538330078125
260513,0.96630859375,0.50335693359375,-0.51593017578125
260514,1.098831176757812,0.4885101318359375,-0.4090576171875
260515,1.166229248046875,0.437957763671875,-0.2285919189453125
260516,1.167526245117188,0.3434295654296875,-0.05694580078125
260517,1.129745483398438,0.23284912109375,0.0419921875
260518,1.07513427734375,0.140411376953125,0.0714263916015625
260519,1.00482177734375,0.07763671875,0.0552215576171875
260520,0.92645263671875,0.0518341064453125,0.0084075927734375
260521,0.8613739013671875,0.0652313232421875,-0.0598907470703125
260522,0.823516845703125,0.1082000732421875,-0.1179656982421875
260523,0.8217926025390625,0.16693115234375,-0.1477508544921875
260524,0.8441925048828125,0.2348480224609375,-0.1511383056640625
260525,0.881683349609375,0.3082122802734375,-0.140899658203125
260526,0.9272613525390624,0.374053955078125,-0.132965087890625
260527,0.97210693359375,0.41668701171875,-0.128570556640625
260528,1.004974365234375,0.4441680908203125,-0.1427459716796875
260529,1.022720336914062,0.47015380859375,-0.1829833984375
260530,1.025772094726562,0.503753662109375,-0.2252349853515625
260531,1.008956909179688,0.54376220703125,-0.2537841796875
260532,0.9657440185546876,0.58660888671875,-0.2794647216796875
260533,0.894500732421875,0.6446990966796875,-0.3194427490234375
260534,0.79425048828125,0.7218017578125,-0.358245849609375
260535,0.681640625,0.809661865234375,-0.400390625
260536,0.5730438232421875,0.89288330078125,-0.42657470703125
260537,0.4781646728515625,0.9647674560546876,-0.441619873046875
260538,0.399261474609375,1.014328002929688,-0.4415435791015625
260539,0.3410797119140625,1.0428466796875,-0.4240875244140625
260540,0.3123016357421875,1.047134399414062,-0.4395599365234375
260541,0.3239898681640625,1.0177001953125,-0.482574462890625
260542,0.370361328125,0.9737701416015624,-0.4866180419921875
260543,0.445648193359375,0.950164794921875,-0.445159912109375
260544,0.5340423583984375,0.9579925537109376,-0.399017333984375
260545,0.6155853271484375,0.9793853759765624,-0.3586578369140625
260546,0.6809844970703125,0.9993743896484376,-0.3345489501953125
260547,0.7339630126953125,0.9913482666015624,-0.3292083740234375
260548,0.7641754150390625,0.949615478515625,-0.33575439453125
260549,0.758453369140625,0.8943939208984375,-0.3577423095703125
260550,0.72900390625,0.834716796875,-0.4046478271484375
260551,0.691436767578125,0.7899017333984375,-0.47149658203125
260552,0.6378021240234375,0.7909698486328125,-0.515106201171875
260553,0.563934326171875,0.8204803466796875,-0.5036163330078125
260554,0.4765472412109375,0.82830810546875,-0.4493865966796875
260555,0.395660400390625,0.8040008544921875,-0.37847900390625
260556,0.3315582275390625,0.7574310302734375,-0.3147430419921875
260557,0.289398193359375,0.70709228515625,-0.26226806640625
260558,0.2715301513671875,0.6743316650390625,-0.22491455078125
260559,0.277130126953125,0.6658172607421875,-0.20855712890625
260560,0.3108062744140625,0.6809234619140625,-0.221435546875
260561,0.3473663330078125,0.7239227294921875,-0.2609405517578125
260562,0.3846588134765625,0.79046630859375,-0.324127197265625
260563,0.447296142578125,0.857757568359375,-0.384979248046875
260564,0.522796630859375,0.91143798828125,-0.4150848388671875
260565,0.583282470703125,0.946319580078125,-0.406219482421875
260566,0.608551025390625,0.96051025390625,-0.3750457763671875
260567,0.59722900390625,0.9532012939453124,-0.34808349609375
260568,0.5697784423828125,0.9263763427734376,-0.3356170654296875
260569,0.5478363037109375,0.8865814208984375,-0.318084716796875
260570,0.53070068359375,0.83953857421875,-0.2907562255859375
260571,0.5274200439453125,0.781951904296875,-0.2587432861328125
260572,0.5354156494140625,0.722015380859375,-0.217987060546875
260573,0.5499267578125,0.6635894775390625,-0.1806182861328125
260574,0.5734405517578125,0.6084442138671875,-0.1547393798828125
260575,0.603668212890625,0.5548858642578125,-0.1371917724609375
260576,0.64697265625,0.5091400146484375,-0.12939453125
260577,0.710205078125,0.4804534912109375,-0.1354827880859375
260578,0.784454345703125,0.4686431884765625,-0.1538543701171875
260579,0.8553009033203125,0.4720611572265625,-0.1779022216796875
260580,0.917877197265625,0.477783203125,-0.1922607421875
260581,0.9624481201171876,0.474761962890625,-0.175048828125
260582,0.99090576171875,0.4602508544921875,-0.13079833984375
260583,1.01495361328125,0.436248779296875,-0.0777435302734375
260584,1.026214599609375,0.403564453125,-0.0232391357421875
260585,1.011703491210938,0.3665618896484375,0.01861572265625
260586,0.9777679443359376,0.3337860107421875,0.0417938232421875
260587,0.93243408203125,0.3197174072265625,0.0440216064453125
260588,0.896240234375,0.329833984375,0.016510009765625
260589,0.884063720703125,0.364471435546875,-0.017181396484375
260590,0.881927490234375,0.423095703125,-0.04486083984375
260591,0.8920135498046875,0.49591064453125,-0.0674285888671875
260592,0.9226837158203124,0.5798187255859375,-0.0760650634765625
260593,0.96649169921875,0.673492431640625,-0.0745849609375
260594,1.015335083007812,0.77459716796875,-0.0804443359375
260595,1.056137084960938,0.8831787109375,-0.1064910888671875
260596,1.057952880859375,0.9888153076171876,-0.142974853515625
260597,0.993408203125,1.067367553710938,-0.1913909912109375
260598,0.870819091796875,1.092819213867188,-0.238037109375
260599,0.727874755859375,1.06298828125,-0.2755584716796875
260600,0.602935791015625,0.99481201171875,-0.295562744140625
260601,0.51507568359375,0.9177398681640624,-0.3000640869140625
260602,0.4548797607421875,0.85406494140625,-0.3170318603515625
260603,0.40338134765625,0.804168701171875,-0.3489227294921875
260604,0.358734130859375,0.7734222412109375,-0.376129150390625
260605,0.3248443603515625,0.7589874267578125,-0.3958587646484375
260606,0.309234619140625,0.751007080078125,-0.412017822265625
260607,0.3145751953125,0.74566650390625,-0.4246978759765625
260608,0.3352508544921875,0.7416839599609375,-0.4290313720703125
260609,0.3743438720703125,0.7435455322265625,-0.43011474609375
260610,0.434051513671875,0.755401611328125,-0.4126129150390625
260611,0.495391845703125,0.7832489013671875,-0.3678436279296875
260612,0.535400390625,0.8240203857421875,-0.3060302734375
260613,0.556121826171875,0.872833251953125,-0.2373504638671875
260614,0.565338134765625,0.916290283203125,-0.178131103515625
260615,0.575775146484375,0.939971923828125,-0.1428680419921875
260616,0.5716400146484375,0.9313812255859376,-0.1257781982421875
260617,0.547119140625,0.893646240234375,-0.115447998046875
260618,0.5167999267578125,0.851959228515625,-0.114837646484375
260619,0.4923248291015625,0.807769775390625,-0.115081787109375
260620,0.46087646484375,0.7553558349609375,-0.1064300537109375
260621,0.43597412109375,0.72216796875,-0.1024169921875
260622,0.434417724609375,0.7132720947265625,-0.10345458984375
260623,0.4482269287109375,0.7277679443359375,-0.0991058349609375
260624,0.4682159423828125,0.7587127685546875,-0.0926971435546875
260625,0.496185302734375,0.8006439208984375,-0.1005706787109375
260626,0.527984619140625,0.8412933349609375,-0.133697509765625
260627,0.5614166259765625,0.8732757568359375,-0.1873931884765625
260628,0.5949249267578125,0.8992767333984375,-0.242034912109375
260629,0.625885009765625,0.9223175048828124,-0.29052734375
260630,0.6451263427734375,0.9469146728515624,-0.3325347900390625
260631,0.6466522216796875,0.9760284423828124,-0.3673858642578125
260632,0.6216583251953125,1.00439453125,-0.3963623046875
260633,0.5661163330078125,1.028305053710938,-0.4194793701171875
260634,0.47674560546875,1.040695190429688,-0.4199676513671875
260635,0.365386962890625,1.029373168945312,-0.3963623046875
260636,0.27679443359375,0.97991943359375,-0.3548126220703125
260637,0.247772216796875,0.9036102294921876,-0.3143157958984375
260638,0.258270263671875,0.8468475341796875,-0.2873687744140625
260639,0.279571533203125,0.8022613525390625,-0.287750244140625
260640,0.3073883056640625,0.75665283203125,-0.3191070556640625
260641,0.357025146484375,0.6990203857421875,-0.359130859375
260642,0.4356231689453125,0.6384735107421875,-0.38726806640625
260643,0.5361328125,0.595489501953125,-0.3954315185546875
260644,0.6509246826171875,0.5734710693359375,-0.377471923828125
260645,0.7677154541015625,0.567047119140625,-0.3285675048828125
260646,0.8735504150390625,0.5641937255859375,-0.2519989013671875
260647,0.9557342529296876,0.5443115234375,-0.1606597900390625
260648,1.0010986328125,0.49530029296875,-0.0777587890625
260649,1.0050048828125,0.412506103515625,-0.0355072021484375
260650,0.9711761474609376,0.3195343017578125,-0.0422210693359375
260651,0.9136810302734376,0.252227783203125,-0.081298828125
260652,0.850921630859375,0.216522216796875,-0.1245269775390625
260653,0.795135498046875,0.20489501953125,-0.14447021484375
260654,0.75958251953125,0.21063232421875,-0.143768310546875
260655,0.7522125244140625,0.236480712890625,-0.132965087890625
260656,0.7722320556640625,0.278778076171875,-0.115478515625
260657,0.805877685546875,0.33343505859375,-0.1011505126953125
260658,0.843353271484375,0.3975677490234375,-0.103485107421875
260659,0.8837738037109375,0.46771240234375,-0.1241302490234375
260660,0.9224853515625,0.5382843017578125,-0.159332275390625
260661,0.9570770263671876,0.612030029296875,-0.20416259765625
260662,0.9734649658203124,0.6906890869140625,-0.2416839599609375
260663,0.9564361572265624,0.7649688720703125,-0.268218994140625
260664,0.895965576171875,0.824432373046875,-0.300262451171875
260665,0.800689697265625,0.8642120361328125,-0.341461181640625
260666,0.6881256103515625,0.8886260986328125,-0.375946044921875
260667,0.583251953125,0.9032440185546876,-0.3944854736328125
260668,0.504180908203125,0.9095001220703124,-0.3974761962890625
260669,0.4553985595703125,0.9044036865234376,-0.3907623291015625
260670,0.4269256591796875,0.8900909423828125,-0.37103271484375
260671,0.413238525390625,0.872711181640625,-0.356536865234375
260672,0.419464111328125,0.8499908447265625,-0.3493194580078125
260673,0.452239990234375,0.8281402587890625,-0.344329833984375
260674,0.5042877197265625,0.8192291259765625,-0.34246826171875
260675,0.5738067626953125,0.8224639892578125,-0.3499908447265625
260676,0.6505126953125,0.8356781005859375,-0.3631134033203125
260677,0.723663330078125,0.8520355224609375,-0.3676605224609375
260678,0.7884063720703125,0.8576812744140625,-0.3618927001953125
260679,0.8331756591796875,0.8357391357421875,-0.3390350341796875
260680,0.844818115234375,0.7889556884765625,-0.30853271484375
260681,0.82562255859375,0.73236083984375,-0.29376220703125
260682,0.7861480712890625,0.68695068359375,-0.3057861328125
260683,0.738525390625,0.66162109375,-0.3433685302734375
260684,0.6826019287109375,0.6575469970703125,-0.37493896484375
260685,0.62579345703125,0.6586761474609375,-0.386505126953125
260686,0.5676422119140625,0.6552886962890625,-0.3760986328125
260687,0.5083160400390625,0.6479034423828125,-0.3555755615234375
260688,0.4537200927734375,0.63360595703125,-0.3361968994140625
260689,0.4056396484375,0.6162261962890625,-0.321533203125
260690,0.3693389892578125,0.6035003662109375,-0.32244873046875
260691,0.3507537841796875,0.603057861328125,-0.339263916015625
260692,0.3580169677734375,0.6204071044921875,-0.3698883056640625
260693,0.38201904296875,0.6642913818359375,-0.4033660888671875
260694,0.4059600830078125,0.7329559326171875,-0.4317474365234375
260695,0.4290924072265625,0.8097076416015625,-0.458709716796875
260696,0.4550018310546875,0.879302978515625,-0.460113525390625
260697,0.479217529296875,0.936981201171875,-0.433685302734375
260698,0.4842987060546875,0.980560302734375,-0.3954010009765625
260699,0.462890625,1.00750732421875,-0.3702392578125
260700,0.41851806640625,1.02532958984375,-0.3638916015625
260701,0.3755340576171875,1.02337646484375,-0.3520965576171875
260702,0.3522796630859375,0.9902496337890624,-0.31976318359375
260703,0.3459625244140625,0.9361572265625,-0.271759033203125
260704,0.3454437255859375,0.8838958740234375,-0.216033935546875
260705,0.3546295166015625,0.843414306640625,-0.1712493896484375
260706,0.3813934326171875,0.8073883056640625,-0.154510498046875
260707,0.434295654296875,0.7699127197265625,-0.163543701171875
260708,0.517364501953125,0.73175048828125,-0.1897430419921875
260709,0.6265106201171875,0.7029266357421875,-0.2208709716796875
260710,0.7449188232421875,0.69091796875,-0.239288330078125
260711,0.8602142333984375,0.68133544921875,-0.2249755859375
260712,0.9597320556640624,0.6552734375,-0.183990478515625
260713,1.03753662109375,0.6037445068359375,-0.1245880126953125
260714,1.096389770507812,0.531890869140625,-0.064178466796875
260715,1.129241943359375,0.4470367431640625,-0.015777587890625
260716,1.132400512695312,0.3525390625,0.01824951171875
260717,1.101974487304688,0.2695159912109375,0.042083740234375
260718,1.051132202148438,0.2126922607421875,0.06072998046875
260719,0.991851806640625,0.174560546875,0.069976806640625
260720,0.934844970703125,0.155792236328125,0.072662353515625
260721,0.8941192626953125,0.15472412109375,0.0720367431640625
260722,0.881805419921875,0.1802978515625,0.0665435791015625
260723,0.8985443115234375,0.2399444580078125,0.0418701171875
260724,0.9330902099609376,0.3129730224609375,-0.001953125
260725,0.9922332763671876,0.3962554931640625,-0.0553741455078125
260726,1.075973510742188,0.4889984130859375,-0.1060791015625
260727,1.16900634765625,0.590301513671875,-0.1414947509765625
260728,1.250198364257812,0.6967315673828125,-0.155120849609375
260729,1.281600952148438,0.79010009765625,-0.1337738037109375
260730,1.22607421875,0.8497161865234375,-0.087646484375
260731,1.093109130859375,0.866241455078125,-0.0651702880859375
260732,0.923492431640625,0.85162353515625,-0.067779541015625
260733,0.7647247314453125,0.85260009765625,-0.0899658203125
260734,0.6367645263671875,0.885589599609375,-0.114013671875
260735,0.5460357666015625,0.923614501953125,-0.1401519775390625
260736,0.48480224609375,0.9508209228515624,-0.1744232177734375
260737,0.433380126953125,0.96826171875,-0.2222900390625
260738,0.3906707763671875,0.970947265625,-0.2891845703125
260739,0.367584228515625,0.95697021484375,-0.3338775634765625
260740,0.3670654296875,0.94793701171875,-0.35601806640625
260741,0.3866119384765625,0.95672607421875,-0.36358642578125
260742,0.42474365234375,0.970306396484375,-0.3670501708984375
260743,0.4755706787109375,0.983245849609375,-0.3712310791015625
260744,0.4987335205078125,0.9841766357421876,-0.360321044921875
260745,0.4697265625,0.977630615234375,-0.328704833984375
260746,0.4204254150390625,0.9602203369140624,-0.2936859130859375
260747,0.380401611328125,0.922088623046875,-0.2624969482421875
260748,0.348663330078125,0.8767852783203125,-0.223663330078125
260749,0.32177734375,0.837127685546875,-0.1831207275390625
260750,0.2952880859375,0.803497314453125,-0.151702880859375
260751,0.2688446044921875,0.7724761962890625,-0.1399078369140625
260752,0.2517547607421875,0.7523345947265625,-0.1458892822265625
260753,0.254302978515625,0.7537689208984375,-0.1501312255859375
260754,0.2730255126953125,0.7712860107421875,-0.149993896484375
260755,0.2909393310546875,0.8042755126953125,-0.16082763671875
260756,0.3077545166015625,0.8570404052734375,-0.199798583984375
260757,0.3391265869140625,0.91650390625,-0.2791900634765625
260758,0.3931732177734375,0.972076416015625,-0.360595703125
260759,0.46661376953125,1.010238647460938,-0.3941497802734375
260760,0.539031982421875,1.023391723632812,-0.3814239501953125
260761,0.59381103515625,1.00408935546875,-0.37530517578125
260762,0.6134796142578125,0.9687652587890624,-0.39874267578125
260763,0.6007080078125,0.9393463134765624,-0.429168701171875
260764,0.5770721435546875,0.916839599609375,-0.4345245361328125
260765,0.558807373046875,0.8964691162109375,-0.4026947021484375
260766,0.5451812744140625,0.8758697509765625,-0.348907470703125
260767,0.537811279296875,0.8541717529296875,-0.2924957275390625
260768,0.540985107421875,0.82110595703125,-0.240478515625
260769,0.550567626953125,0.7778778076171875,-0.199920654296875
260770,0.573577880859375,0.7317657470703125,-0.185791015625
260771,0.6068572998046875,0.685394287109375,-0.1978302001953125
260772,0.6459503173828125,0.639129638671875,-0.22454833984375
260773,0.6951751708984375,0.5931396484375,-0.255950927734375
260774,0.755218505859375,0.5511474609375,-0.28466796875
260775,0.8272552490234375,0.5134429931640625,-0.294708251953125
260776,0.899749755859375,0.4803009033203125,-0.282073974609375
260777,0.958770751953125,0.44866943359375,-0.248504638671875
260778,0.9922332763671876,0.408203125,-0.1915740966796875
260779,0.996917724609375,0.35516357421875,-0.1194000244140625
260780,0.97198486328125,0.2967681884765625,-0.0593109130859375
260781,0.9279632568359376,0.240570068359375,-0.0364227294921875
260782,0.8802642822265625,0.19158935546875,-0.036865234375
260783,0.8348846435546875,0.1546173095703125,-0.0428924560546875
260784,0.7986297607421875,0.1353302001953125,-0.0579376220703125
260785,0.7754669189453125,0.13409423828125,-0.079833984375
260786,0.771514892578125,0.1571807861328125,-0.1007080078125
260787,0.783172607421875,0.20587158203125,-0.1131439208984375
260788,0.8017578125,0.28167724609375,-0.1199188232421875
260789,0.829498291015625,0.3641204833984375,-0.1197662353515625
260790,0.86175537109375,0.436248779296875,-0.1177978515625
260791,0.8882904052734375,0.50213623046875,-0.1265106201171875
260792,0.911041259765625,0.5712127685546875,-0.1548309326171875
260793,0.921783447265625,0.64501953125,-0.1916961669921875
260794,0.9137420654296876,0.71441650390625,-0.23370361328125
260795,0.87884521484375,0.7781982421875,-0.2752685546875
260796,0.8070831298828125,0.84490966796875,-0.3092803955078125
260797,0.7043304443359375,0.915191650390625,-0.3399505615234375
260798,0.5844573974609375,0.982696533203125,-0.372650146484375
260799,0.4724578857421875,1.040908813476562,-0.3932952880859375
260800,0.3917083740234375,1.0748291015625,-0.3874359130859375
260801,0.3403778076171875,1.077590942382812,-0.365570068359375
260802,0.301727294921875,1.046295166015625,-0.3469696044921875
260803,0.287445068359375,0.9857177734375,-0.33721923828125
260804,0.3154754638671875,0.921234130859375,-0.32373046875
260805,0.3827362060546875,0.8786773681640625,-0.307464599609375
260806,0.4686279296875,0.8593292236328125,-0.294525146484375
260807,0.5570831298828125,0.8624725341796875,-0.295623779296875
260808,0.65399169921875,0.8836669921875,-0.3045806884765625
260809,0.7679290771484375,0.903411865234375,-0.3147125244140625
260810,0.8839569091796875,0.9066925048828124,-0.3208160400390625
260811,0.967559814453125,0.882720947265625,-0.3136444091796875
260812,0.9931182861328124,0.8275299072265625,-0.31365966796875
260813,0.940765380859375,0.75054931640625,-0.33868408203125
260814,0.8405609130859375,0.688507080078125,-0.3887786865234375
260815,0.745391845703125,0.6607666015625,-0.433502197265625
260816,0.6589508056640625,0.6309051513671875,-0.44500732421875
260817,0.5839080810546875,0.60321044921875,-0.4244384765625
260818,0.514068603515625,0.58221435546875,-0.3770751953125
260819,0.4465484619140625,0.5626983642578125,-0.3308868408203125
260820,0.39447021484375,0.542266845703125,-0.3010711669921875
260821,0.3596954345703125,0.528717041015625,-0.2879486083984375
260822,0.3496551513671875,0.527801513671875,-0.2978973388671875
260823,0.3740997314453125,0.5433349609375,-0.332000732421875
260824,0.4253387451171875,0.5847320556640625,-0.3791351318359375
260825,0.4807586669921875,0.6631317138671875,-0.430694580078125
260826,0.5388031005859375,0.7662353515625,-0.467315673828125
260827,0.61181640625,0.85516357421875,-0.465057373046875
260828,0.678131103515625,0.9219818115234376,-0.4195098876953125
260829,0.708892822265625,0.9543609619140624,-0.3443450927734375
260830,0.6917572021484375,0.95281982421875,-0.2801361083984375
260831,0.6411285400390625,0.938201904296875,-0.253021240234375
260832,0.5793914794921875,0.92230224609375,-0.2510223388671875
260833,0.521728515625,0.8979644775390625,-0.2511749267578125
260834,0.474700927734375,0.866668701171875,-0.2456512451171875
260835,0.4433746337890625,0.8278045654296875,-0.2276611328125
260836,0.4311981201171875,0.7895050048828125,-0.1995086669921875
260837,0.43377685546875,0.7684478759765625,-0.1675567626953125
260838,0.4512176513671875,0.7598724365234375,-0.1414337158203125
260839,0.4909515380859375,0.7463226318359375,-0.1331634521484375
260840,0.5605316162109375,0.7278900146484375,-0.1372222900390625
260841,0.656829833984375,0.71875,-0.155303955078125
260842,0.7646026611328125,0.7169036865234375,-0.173004150390625
260843,0.8673858642578125,0.7046356201171875,-0.16558837890625
260844,0.9509429931640624,0.6696319580078125,-0.1245269775390625
260845,0.9973602294921876,0.612213134765625,-0.0620880126953125
260846,1.004547119140625,0.53875732421875,-0.004730224609375
260847,0.985992431640625,0.470794677734375,0.03106689453125
260848,0.954742431640625,0.41552734375,0.0516510009765625
260849,0.917572021484375,0.3651275634765625,0.05322265625
260850,0.8857879638671875,0.3138427734375,0.0430908203125
260851,0.871307373046875,0.2796783447265625,0.029754638671875
260852,0.88116455078125,0.2708740234375,0.0194091796875
260853,0.91302490234375,0.2891845703125,0.02508544921875
260854,0.947601318359375,0.3485260009765625,0.0478057861328125
260855,0.9954986572265624,0.43426513671875,0.062469482421875
260856,1.066268920898438,0.5100860595703125,0.05926513671875
260857,1.140182495117188,0.5730133056640625,0.0326080322265625
260858,1.198806762695312,0.6287841796875,-0.0192413330078125
260859,1.225936889648438,0.68902587890625,-0.0843048095703125
260860,1.201446533203125,0.7453460693359375,-0.1433258056640625
260861,1.115493774414062,0.78204345703125,-0.1895904541015625
260862,0.98681640625,0.7957611083984375,-0.2088623046875
260863,0.8531646728515625,0.7876739501953125,-0.206207275390625
260864,0.7419586181640625,0.7721099853515625,-0.194366455078125
260865,0.6605072021484375,0.779266357421875,-0.18719482421875
260866,0.606201171875,0.8078460693359375,-0.19268798828125
260867,0.557891845703125,0.831207275390625,-0.219635009765625
260868,0.51434326171875,0.85302734375,-0.2698211669921875
260869,0.477325439453125,0.87945556640625,-0.3278045654296875
260870,0.43951416015625,0.897674560546875,-0.390533447265625
260871,0.4017181396484375,0.9010772705078124,-0.423919677734375
260872,0.36614990234375,0.8936004638671875,-0.438018798828125
260873,0.3408355712890625,0.8680419921875,-0.4575347900390625
260874,0.339141845703125,0.8355255126953125,-0.4546051025390625
260875,0.3533935546875,0.8191070556640625,-0.4109649658203125
260876,0.364410400390625,0.8116607666015625,-0.325103759765625
260877,0.3590545654296875,0.8152618408203125,-0.2322998046875
260878,0.3494873046875,0.8122406005859375,-0.1597137451171875
260879,0.35443115234375,0.7926025390625,-0.1021270751953125
260880,0.3737030029296875,0.7599945068359375,-0.051910400390625
260881,0.3977813720703125,0.724029541015625,-0.0195465087890625
260882,0.4190673828125,0.687957763671875,-0.017303466796875
260883,0.4368438720703125,0.6554718017578125,-0.0484466552734375
260884,0.4548187255859375,0.638275146484375,-0.0963134765625
260885,0.4734954833984375,0.639923095703125,-0.1293182373046875
260886,0.4931182861328125,0.6560516357421875,-0.1430206298828125
260887,0.5196990966796875,0.68902587890625,-0.1490325927734375
260888,0.550994873046875,0.7386932373046875,-0.1651458740234375
260889,0.5851593017578125,0.7996826171875,-0.2061614990234375
260890,0.6254425048828125,0.8693695068359375,-0.2640380859375
260891,0.66754150390625,0.9457244873046876,-0.311187744140625
260892,0.7013092041015625,1.025436401367188,-0.3309783935546875
260893,0.7155303955078125,1.091339111328125,-0.338409423828125
260894,0.6948699951171875,1.124221801757812,-0.35980224609375
260895,0.638641357421875,1.118133544921875,-0.39459228515625
260896,0.55535888671875,1.099960327148438,-0.429290771484375
260897,0.4600067138671875,1.080276489257812,-0.4486236572265625
260898,0.3741912841796875,1.047637939453125,-0.4385528564453125
260899,0.34521484375,0.9818115234375,-0.4090423583984375
260900,0.3592376708984375,0.9181365966796876,-0.37823486328125
260901,0.36993408203125,0.8675079345703125,-0.36517333984375
260902,0.402313232421875,0.8023681640625,-0.37896728515625
260903,0.470855712890625,0.7413787841796875,-0.409149169921875
260904,0.5622711181640625,0.6969451904296875,-0.43206787109375
260905,0.6680145263671875,0.671173095703125,-0.4273834228515625
260906,0.773468017578125,0.6588592529296875,-0.393280029296875
260907,0.8564453125,0.651611328125,-0.3302459716796875
260908,0.90155029296875,0.62957763671875,-0.247467041015625
260909,0.9055938720703124,0.576568603515625,-0.172698974609375
260910,0.87725830078125,0.4899749755859375,-0.129180908203125
260911,0.8310394287109375,0.3789520263671875,-0.1168060302734375
260912,0.77972412109375,0.2728271484375,-0.116790771484375
260913,0.7370758056640625,0.2046661376953125,-0.1247406005859375
260914,0.7121734619140625,0.1685333251953125,-0.129364013671875
260915,0.707733154296875,0.147430419921875,-0.1243438720703125
260916,0.72747802734375,0.14105224609375,-0.1117401123046875
260917,0.77264404296875,0.154083251953125,-0.0936737060546875
260918,0.8370208740234375,0.1926727294921875,-0.079498291015625
260919,0.9151763916015624,0.2503662109375,-0.069183349609375
260920,0.9967498779296876,0.3233795166015625,-0.0623779296875
260921,1.069259643554688,0.40045166015625,-0.0572509765625
260922,1.11370849609375,0.4632720947265625,-0.066802978515625
260923,1.122467041015625,0.5121307373046875,-0.114654541015625
260924,1.109893798828125,0.5667266845703125,-0.186737060546875
260925,1.08074951171875,0.6209259033203125,-0.2416229248046875
260926,1.018508911132812,0.6658477783203125,-0.26800537109375
260927,0.9167022705078124,0.7097625732421875,-0.2845611572265625
260928,0.79376220703125,0.7541961669921875,-0.3035125732421875
260929,0.664581298828125,0.800048828125,-0.3311004638671875
260930,0.5513153076171875,0.8415985107421875,-0.3603057861328125
260931,0.470001220703125,0.8677520751953125,-0.3770599365234375
260932,0.420440673828125,0.87237548828125,-0.3836517333984375
260933,0.39239501953125,0.8601531982421875,-0.37445068359375
260934,0.373077392578125,0.83721923828125,-0.366851806640625
260935,0.366302490234375,0.807525634765625,-0.371124267578125
260936,0.3821258544921875,0.7785186767578125,-0.3725433349609375
260937,0.41827392578125,0.7657623291015625,-0.3685760498046875
260938,0.4735107421875,0.7667236328125,-0.3662261962890625
260939,0.5359039306640625,0.7772674560546875,-0.3691558837890625
260940,0.6009368896484375,0.8046417236328125,-0.3776702880859375
260941,0.6640167236328125,0.8424072265625,-0.3891448974609375
260942,0.7218017578125,0.8682098388671875,-0.395111083984375
260943,0.7570037841796875,0.867828369140625,-0.3914337158203125
260944,0.75567626953125,0.836944580078125,-0.3846893310546875
260945,0.7123870849609375,0.7803192138671875,-0.3861083984375
260946,0.65283203125,0.7290191650390625,-0.4063873291015625
260947,0.5957794189453125,0.7030487060546875,-0.4243927001953125
260948,0.546875,0.6768951416015625,-0.4346771240234375
260949,0.4989471435546875,0.65283203125,-0.435821533203125
260950,0.4539794921875,0.6410064697265625,-0.4248504638671875
260951,0.41351318359375,0.628509521484375,-0.403564453125
260952,0.376739501953125,0.6093902587890625,-0.3827056884765625
260953,0.351593017578125,0.5876922607421875,-0.3658905029296875
260954,0.3542022705078125,0.5732879638671875,-0.360015869140625
260955,0.394927978515625,0.5770416259765625,-0.3763885498046875
260956,0.4528656005859375,0.613250732421875,-0.4030609130859375
260957,0.4969024658203125,0.70025634765625,-0.438140869140625
260958,0.533203125,0.818756103515625,-0.468963623046875
260959,0.5788421630859375,0.9300994873046876,-0.47015380859375
260960,0.61090087890625,1.021926879882812,-0.4386444091796875
260961,0.6075897216796875,1.082260131835938,-0.393707275390625
260962,0.5673675537109375,1.097991943359375,-0.3609619140625
260963,0.5042877197265625,1.076736450195312,-0.3536224365234375
260964,0.449615478515625,1.037384033203125,-0.3566131591796875
260965,0.422821044921875,0.9891815185546876,-0.3446502685546875
260966,0.4134674072265625,0.93682861328125,-0.3150482177734375
260967,0.4121856689453125,0.889007568359375,-0.27960205078125
260968,0.4188690185546875,0.848358154296875,-0.24993896484375
260969,0.442901611328125,0.812957763671875,-0.2364501953125
260970,0.4929351806640625,0.780059814453125,-0.23931884765625
260971,0.5676727294921875,0.7509307861328125,-0.247100830078125
260972,0.654205322265625,0.724853515625,-0.2522735595703125
260973,0.7397308349609375,0.695648193359375,-0.257781982421875
260974,0.8209075927734375,0.65557861328125,-0.265167236328125
260975,0.9007110595703125,0.601593017578125,-0.267578125
260976,0.97711181640625,0.54132080078125,-0.2573089599609375
260977,1.039291381835938,0.479583740234375,-0.2155303955078125
260978,1.07843017578125,0.4132537841796875,-0.1483917236328125
260979,1.089630126953125,0.340179443359375,-0.070098876953125
260980,1.074920654296875,0.271881103515625,-0.010986328125
260981,1.05035400390625,0.2264556884765625,0.0072021484375
260982,1.025390625,0.2139434814453125,-0.0025177001953125
260983,0.9946746826171876,0.2338409423828125,-0.0190887451171875
260984,0.962646484375,0.27838134765625,-0.02569580078125
260985,0.9329986572265624,0.3331451416015625,-0.0333709716796875
260986,0.91680908203125,0.3913726806640625,-0.053070068359375
260987,0.9222259521484376,0.4509124755859375,-0.0761566162109375
260988,0.948028564453125,0.51556396484375,-0.0925750732421875
260989,0.989959716796875,0.5860443115234375,-0.0977935791015625
260990,1.029891967773438,0.655914306640625,-0.0975341796875
260991,1.049453735351562,0.72039794921875,-0.1045379638671875
260992,1.032745361328125,0.7755889892578125,-0.120574951171875
260993,0.962738037109375,0.8260650634765625,-0.1402740478515625
260994,0.84783935546875,0.8734130859375,-0.16912841796875
260995,0.719818115234375,0.904327392578125,-0.2039642333984375
260996,0.6182098388671875,0.9056549072265624,-0.2355804443359375
260997,0.5362091064453125,0.889495849609375,-0.253936767578125
260998,0.47467041015625,0.8760223388671875,-0.292083740234375
260999,0.478302001953125,0.85955810546875,-0.359954833984375
261000,0.5125579833984375,0.839599609375,-0.4027862548828125
261001,0.52642822265625,0.818511962890625,-0.422393798828125
261002,0.503204345703125,0.8110198974609375,-0.45880126953125
261003,0.458404541015625,0.827667236328125,-0.510955810546875
261004,0.3915863037109375,0.8653106689453125,-0.534942626953125
261005,0.31268310546875,0.90350341796875,-0.5624237060546875
261006,0.241607666015625,0.9071807861328124,-0.57177734375
261007,0.1619873046875,0.8773040771484375,-0.536651611328125
261008,0.18316650390625,0.832122802734375,-0.516845703125
261009,0.2317047119140625,0.8111724853515625,-0.435699462890625
261010,0.21026611328125,0.8014678955078125,-0.325164794921875
261011,0.190093994140625,0.7945556640625,-0.247894287109375
261012,0.205169677734375,0.7924346923828125,-0.222198486328125
261013,0.2346343994140625,0.802337646484375,-0.20928955078125
261014,0.269744873046875,0.8160400390625,-0.1921539306640625
261015,0.31317138671875,0.800018310546875,-0.1776275634765625
261016,0.3537139892578125,0.7452392578125,-0.1592559814453125
261017,0.3704376220703125,0.6812744140625,-0.12091064453125
261018,0.368499755859375,0.6437530517578125,-0.09063720703125
261019,0.4427337646484375,0.6382293701171875,-0.0928955078125
261020,0.5335693359375,0.649078369140625,-0.0903778076171875
261021,0.599090576171875,0.6605987548828125,-0.1034393310546875
261022,0.654815673828125,0.6790313720703125,-0.1138458251953125
261023,0.7097625732421875,0.7064361572265625,-0.162445068359375
261024,0.774444580078125,0.7476348876953125,-0.2716827392578125
261025,0.8439178466796875,0.8063201904296875,-0.3608245849609375
261026,0.9060211181640624,0.8656463623046875,-0.3761444091796875
261027,0.9307861328125,0.9150238037109376,-0.3195037841796875
261028,0.877777099609375,0.939483642578125,-0.2518157958984375
261029,0.805755615234375,0.9367218017578124,-0.2542877197265625
261030,0.7964324951171875,0.9020843505859376,-0.296142578125
261031,0.7891998291015625,0.8644561767578125,-0.3133392333984375
261032,0.72235107421875,0.8476715087890625,-0.3172607421875
261033,0.61700439453125,0.8602142333984375,-0.3482208251953125
261034,0.5280303955078125,0.890472412109375,-0.3978424072265625
261035,0.4932098388671875,0.8974456787109375,-0.4175872802734375
261036,0.499176025390625,0.8648834228515625,-0.39892578125
261037,0.4742431640625,0.8238067626953125,-0.3387603759765625
261038,0.4571533203125,0.7724151611328125,-0.3540496826171875
261039,0.5487213134765625,0.714385986328125,-0.418914794921875
261040,0.6461029052734375,0.6586456298828125,-0.42291259765625
261041,0.731964111328125,0.591033935546875,-0.3877105712890625
261042,0.8005523681640625,0.52252197265625,-0.3536224365234375
261043,0.84796142578125,0.455596923828125,-0.2967529296875
261044,0.8642578125,0.4033966064453125,-0.2042388916015625
261045,0.8458251953125,0.3518218994140625,-0.1661834716796875
261046,0.8009185791015625,0.29754638671875,-0.1438140869140625
261047,0.7185211181640625,0.2588958740234375,-0.0904998779296875
261048,0.6589508056640625,0.2415618896484375,-0.1213226318359375
261049,0.6786956787109375,0.2347412109375,-0.16314697265625
261050,0.7240142822265625,0.22955322265625,-0.1718597412109375
261051,0.770477294921875,0.2398223876953125,-0.166229248046875
261052,0.834228515625,0.2786102294921875,-0.2080230712890625
261053,0.8912353515625,0.3304595947265625,-0.2445220947265625
261054,0.9383087158203124,0.391571044921875,-0.220672607421875
261055,0.9792022705078124,0.472503662109375,-0.2400360107421875
261056,1.005203247070312,0.545867919921875,-0.2736053466796875
261057,0.974609375,0.5993194580078125,-0.219696044921875
261058,0.9287567138671876,0.65203857421875,-0.2331085205078125
261059,0.9226837158203124,0.7019805908203125,-0.288665771484375
261060,0.876922607421875,0.735137939453125,-0.3040924072265625
261061,0.7971343994140625,0.7510223388671875,-0.332305908203125
261062,0.70855712890625,0.7549285888671875,-0.406402587890625
261063,0.619842529296875,0.7508392333984375,-0.4508514404296875
261064,0.539825439453125,0.76385498046875,-0.416717529296875
261065,0.4703826904296875,0.7938385009765625,-0.4114227294921875
261066,0.420440673828125,0.8253631591796875,-0.3809051513671875
261067,0.3923187255859375,0.8468475341796875,-0.322998046875
261068,0.3839263916015625,0.848236083984375,-0.2852325439453125
261069,0.3991546630859375,0.821197509765625,-0.2587127685546875
261070,0.4300537109375,0.7794342041015625,-0.2380828857421875
261071,0.4689483642578125,0.744842529296875,-0.2294464111328125
261072,0.5359649658203125,0.7304840087890625,-0.23480224609375
261073,0.638641357421875,0.741943359375,-0.2696685791015625
261074,0.7478179931640625,0.77496337890625,-0.322906494140625
261075,0.8454132080078125,0.81109619140625,-0.371002197265625
261076,0.91961669921875,0.8300628662109375,-0.382904052734375
261077,0.958770751953125,0.8273773193359375,-0.3642578125
261078,0.94622802734375,0.815216064453125,-0.3388214111328125
261079,0.882904052734375,0.7965850830078125,-0.327056884765625
261080,0.8042144775390625,0.768341064453125,-0.3442840576171875
261081,0.73687744140625,0.733978271484375,-0.37139892578125
261082,0.6740264892578125,0.702789306640625,-0.3912506103515625
261083,0.60784912109375,0.6664886474609375,-0.394683837890625
261084,0.5379486083984375,0.6266632080078125,-0.394195556640625
261085,0.4701690673828125,0.59600830078125,-0.390533447265625
261086,0.4180755615234375,0.5734405517578125,-0.3838348388671875
261087,0.385223388671875,0.563140869140625,-0.36285400390625
261088,0.3637542724609375,0.567657470703125,-0.339202880859375
261089,0.3553466796875,0.58367919921875,-0.3302154541015625
261090,0.370086669921875,0.61114501953125,-0.339630126953125
261091,0.4072418212890625,0.656036376953125,-0.35357666015625
261092,0.4470062255859375,0.7209625244140625,-0.36676025390625
261093,0.480224609375,0.79071044921875,-0.3812255859375
261094,0.5130157470703125,0.8540802001953125,-0.3884429931640625
261095,0.538848876953125,0.9090423583984376,-0.3876190185546875
261096,0.550811767578125,0.9454498291015624,-0.38848876953125
261097,0.54022216796875,0.95703125,-0.392791748046875
261098,0.5127716064453125,0.9505615234375,-0.3952484130859375
261099,0.480865478515625,0.9305419921875,-0.3868560791015625
261100,0.461517333984375,0.89202880859375,-0.35870361328125
261101,0.45556640625,0.842803955078125,-0.3137359619140625
261102,0.46380615234375,0.8011016845703125,-0.2608642578125
261103,0.4854583740234375,0.7670745849609375,-0.211669921875
261104,0.524932861328125,0.7401123046875,-0.17352294921875
261105,0.583282470703125,0.720916748046875,-0.14453125
261106,0.65252685546875,0.7037506103515625,-0.128173828125
261107,0.72540283203125,0.6866607666015625,-0.1281890869140625
261108,0.7952117919921875,0.6617584228515625,-0.139404296875
261109,0.8621063232421875,0.6220855712890625,-0.162689208984375
261110,0.92022705078125,0.573516845703125,-0.1904296875
261111,0.9593353271484376,0.52325439453125,-0.1960906982421875
261112,0.97869873046875,0.474456787109375,-0.1671905517578125
261113,0.97705078125,0.42523193359375,-0.1047515869140625
261114,0.9589996337890624,0.379913330078125,-0.029571533203125
261115,0.9498443603515624,0.337738037109375,0.02972412109375
261116,0.9654083251953124,0.3081512451171875,0.071502685546875
261117,0.9993438720703124,0.2992401123046875,0.0968170166015625
261118,1.037826538085938,0.304473876953125,0.11492919921875
261119,1.07733154296875,0.3284149169921875,0.1282806396484375
261120,1.109405517578125,0.3685150146484375,0.1244964599609375
261121,1.13775634765625,0.4135589599609375,0.0893707275390625
261122,1.1697998046875,0.466827392578125,0.0350341796875
261123,1.208160400390625,0.5253143310546875,-0.0273284912109375
261124,1.2508544921875,0.59051513671875,-0.0922698974609375
261125,1.279464721679688,0.664031982421875,-0.143829345703125
261126,1.267349243164062,0.7312774658203125,-0.169921875
261127,1.201644897460938,0.7756195068359375,-0.1781005859375
261128,1.090606689453125,0.792816162109375,-0.172393798828125
261129,0.953948974609375,0.785736083984375,-0.1624298095703125
261130,0.8112640380859375,0.78216552734375,-0.1585235595703125
261131,0.6827239990234375,0.79534912109375,-0.1602783203125
261132,0.5713043212890625,0.8034820556640625,-0.1669464111328125
261133,0.4684906005859375,0.7975921630859375,-0.191131591796875
261134,0.37255859375,0.7896881103515625,-0.2393341064453125
261135,0.2915496826171875,0.7815399169921875,-0.301483154296875
261136,0.2337646484375,0.7788543701171875,-0.35595703125
261137,0.197998046875,0.7847442626953125,-0.413238525390625
261138,0.1884765625,0.77703857421875,-0.477630615234375
261139,0.2024383544921875,0.758880615234375,-0.4900665283203125
261140,0.23565673828125,0.752410888671875,-0.451171875
261141,0.288543701171875,0.7622222900390625,-0.38702392578125
261142,0.3560791015625,0.785369873046875,-0.318328857421875
261143,0.4239349365234375,0.8096466064453125,-0.237884521484375
261144,0.475830078125,0.82861328125,-0.1555938720703125
261145,0.510467529296875,0.842498779296875,-0.0883636474609375
261146,0.546966552734375,0.8474273681640625,-0.0656890869140625
261147,0.5772705078125,0.8475494384765625,-0.0756683349609375
261148,0.5876007080078125,0.839569091796875,-0.100067138671875
261149,0.588958740234375,0.8192596435546875,-0.1363983154296875
261150,0.5854339599609375,0.803009033203125,-0.1735076904296875
261151,0.5694122314453125,0.79931640625,-0.20751953125
261152,0.54144287109375,0.804046630859375,-0.227691650390625
261153,0.521240234375,0.8072052001953125,-0.213714599609375
261154,0.5142669677734375,0.810455322265625,-0.1756134033203125
261155,0.5178680419921875,0.82073974609375,-0.141357421875
261156,0.5285797119140625,0.8432769775390625,-0.143798828125
261157,0.541839599609375,0.8772430419921875,-0.20172119140625
261158,0.55596923828125,0.922515869140625,-0.2921295166015625
261159,0.570953369140625,0.9686279296875,-0.3737030029296875
261160,0.5776214599609375,1.00445556640625,-0.4215087890625
261161,0.5637664794921875,1.024368286132812,-0.4471282958984375
261162,0.518280029296875,1.032821655273438,-0.476226806640625
261163,0.4451141357421875,1.031875610351562,-0.507080078125
261164,0.36279296875,1.019577026367188,-0.51416015625
261165,0.2974700927734375,0.9909820556640624,-0.482666015625
261166,0.2722930908203125,0.93548583984375,-0.4288787841796875
261167,0.2796630859375,0.8690338134765625,-0.375732421875
261168,0.3080902099609375,0.811981201171875,-0.3299560546875
261169,0.364166259765625,0.7459869384765625,-0.303863525390625
261170,0.44049072265625,0.67974853515625,-0.3012542724609375
261171,0.53173828125,0.6238555908203125,-0.3176727294921875
261172,0.6346435546875,0.5863800048828125,-0.3367919921875
261173,0.7384033203125,0.572021484375,-0.3336181640625
261174,0.833465576171875,0.572357177734375,-0.296630859375
261175,0.9038848876953124,0.57598876953125,-0.2238311767578125
261176,0.9393463134765624,0.565338134765625,-0.1338653564453125
261177,0.933441162109375,0.5130767822265625,-0.051361083984375
261178,0.8981170654296875,0.4214935302734375,-0.0048370361328125
261179,0.8487091064453125,0.3251190185546875,0.007781982421875
261180,0.8037109375,0.2525177001953125,0.0011138916015625
261181,0.7698822021484375,0.1981964111328125,-0.019256591796875
261182,0.753997802734375,0.1600494384765625,-0.0450286865234375
261183,0.768524169921875,0.1421356201171875,-0.0644073486328125
261184,0.818939208984375,0.1569671630859375,-0.0729522705078125
261185,0.8940887451171875,0.2149810791015625,-0.075347900390625
261186,0.965179443359375,0.3072052001953125,-0.0599822998046875
261187,1.02459716796875,0.41094970703125,-0.042327880859375
261188,1.088821411132812,0.5067596435546875,-0.039764404296875
261189,1.138778686523438,0.589599609375,-0.058685302734375
261190,1.157684326171875,0.6586151123046875,-0.101043701171875
261191,1.148040771484375,0.73052978515625,-0.1603240966796875
261192,1.105712890625,0.79937744140625,-0.2230072021484375
261193,1.016769409179688,0.8594818115234375,-0.2770538330078125
261194,0.88623046875,0.9079742431640624,-0.305389404296875
261195,0.734710693359375,0.9322052001953124,-0.306488037109375
261196,0.5909576416015625,0.9307861328125,-0.298126220703125
261197,0.482818603515625,0.910675048828125,-0.284912109375
261198,0.407318115234375,0.890106201171875,-0.2634735107421875
261199,0.3496246337890625,0.8793182373046875,-0.2428741455078125
261200,0.3070526123046875,0.86602783203125,-0.2397918701171875
261201,0.2900848388671875,0.844085693359375,-0.249359130859375
261202,0.3062286376953125,0.816802978515625,-0.25799560546875
261203,0.348846435546875,0.7956390380859375,-0.254119873046875
261204,0.414398193359375,0.7878570556640625,-0.23602294921875
261205,0.4873504638671875,0.797119140625,-0.2203369140625
261206,0.5641632080078125,0.8207855224609375,-0.2247314453125
261207,0.6569366455078125,0.8558349609375,-0.2439117431640625
261208,0.7631072998046875,0.887664794921875,-0.2726593017578125
261209,0.8564453125,0.9077911376953124,-0.31304931640625
261210,0.9087371826171876,0.9025726318359376,-0.3628692626953125
261211,0.9051055908203124,0.858489990234375,-0.4121551513671875
261212,0.843048095703125,0.7649688720703125,-0.4541015625
261213,0.761993408203125,0.6876983642578125,-0.471282958984375
261214,0.6937103271484375,0.649749755859375,-0.451690673828125
261215,0.627410888671875,0.616729736328125,-0.4179534912109375
261216,0.555145263671875,0.5925750732421875,-0.3875579833984375
261217,0.4888916015625,0.5784149169921875,-0.357940673828125
261218,0.433929443359375,0.5702667236328125,-0.333831787109375
261219,0.38726806640625,0.5647125244140625,-0.3268280029296875
261220,0.3539581298828125,0.5597686767578125,-0.3396759033203125
261221,0.34613037109375,0.56341552734375,-0.3683013916015625
261222,0.3606414794921875,0.578369140625,-0.4080963134765625
261223,0.3934478759765625,0.6138458251953125,-0.453125
261224,0.43353271484375,0.6752777099609375,-0.485260009765625
261225,0.4711151123046875,0.7561798095703125,-0.49566650390625
261226,0.5103302001953125,0.8369903564453125,-0.4795379638671875
261227,0.54632568359375,0.9004974365234375,-0.43316650390625
261228,0.5688934326171875,0.93682861328125,-0.36883544921875
261229,0.5803680419921875,0.9469757080078124,-0.30865478515625
261230,0.586639404296875,0.938262939453125,-0.261688232421875
261231,0.5826873779296875,0.9134063720703124,-0.2329254150390625
261232,0.567413330078125,0.8802490234375,-0.2198638916015625
261233,0.5507659912109375,0.85113525390625,-0.21588134765625
261234,0.5410003662109375,0.824462890625,-0.2140960693359375
261235,0.543212890625,0.8028106689453125,-0.214874267578125
261236,0.55804443359375,0.791168212890625,-0.21807861328125
261237,0.589202880859375,0.777130126953125,-0.219573974609375
261238,0.6340789794921875,0.7567291259765625,-0.2146148681640625
261239,0.690948486328125,0.728973388671875,-0.1965484619140625
261240,0.760650634765625,0.70086669921875,-0.1730499267578125
261241,0.8382568359375,0.67724609375,-0.149688720703125
261242,0.9121856689453124,0.657501220703125,-0.1272125244140625
261243,0.9675445556640624,0.62750244140625,-0.1006927490234375
261244,1.000289916992188,0.577178955078125,-0.0726470947265625
261245,1.014404296875,0.507537841796875,-0.057525634765625
261246,1.019195556640625,0.4320526123046875,-0.0636444091796875
261247,1.02239990234375,0.369293212890625,-0.0841217041015625
261248,1.026840209960938,0.32379150390625,-0.10382080078125
261249,1.032730102539062,0.305023193359375,-0.122314453125
261250,1.03973388671875,0.3128814697265625,-0.1341705322265625
261251,1.0396728515625,0.33892822265625,-0.1326751708984375
261252,1.022598266601562,0.373626708984375,-0.1176605224609375
261253,0.9933013916015624,0.4062652587890625,-0.0911407470703125
261254,0.9661407470703124,0.427276611328125,-0.0746612548828125
261255,0.9437713623046876,0.451202392578125,-0.0755157470703125
261256,0.924163818359375,0.4839019775390625,-0.092376708984375
261257,0.908966064453125,0.521087646484375,-0.1205291748046875
261258,0.8947906494140625,0.5587310791015625,-0.148956298828125
261259,0.8750152587890625,0.5949554443359375,-0.1739044189453125
261260,0.8360443115234375,0.6358184814453125,-0.1953277587890625
261261,0.7746124267578125,0.6788787841796875,-0.2075958251953125
261262,0.695953369140625,0.7203521728515625,-0.220703125
261263,0.6204376220703125,0.756256103515625,-0.2453155517578125
261264,0.5655517578125,0.789947509765625,-0.281402587890625
261265,0.5355224609375,0.8271636962890625,-0.3203887939453125
261266,0.52154541015625,0.8686981201171875,-0.3547515869140625
261267,0.5125885009765625,0.8879241943359375,-0.3821258544921875
261268,0.5101165771484375,0.882537841796875,-0.3990325927734375
261269,0.5252838134765625,0.8713226318359375,-0.3944091796875
261270,0.5659027099609375,0.87530517578125,-0.373382568359375
261271,0.6197967529296875,0.893829345703125,-0.357696533203125
261272,0.6636810302734375,0.9134674072265624,-0.36480712890625
261273,0.6768341064453125,0.930908203125,-0.38958740234375
261274,0.653778076171875,0.9468536376953124,-0.4225311279296875
261275,0.6022186279296875,0.9599151611328124,-0.44000244140625
261276,0.5291290283203125,0.9475250244140624,-0.4287872314453125
261277,0.45361328125,0.903594970703125,-0.392364501953125
261278,0.3833465576171875,0.842864990234375,-0.34271240234375
261279,0.3298797607421875,0.7816619873046875,-0.301055908203125
261280,0.3008880615234375,0.73248291015625,-0.264068603515625
261281,0.289703369140625,0.6978607177734375,-0.224578857421875
261282,0.2910308837890625,0.680908203125,-0.1795196533203125
261283,0.305267333984375,0.681182861328125,-0.1429901123046875
261284,0.3397216796875,0.6847991943359375,-0.1289825439453125
261285,0.3841400146484375,0.691558837890625,-0.130340576171875
261286,0.424163818359375,0.7046051025390625,-0.1403961181640625
261287,0.46533203125,0.7288818359375,-0.1599273681640625
261288,0.5085601806640625,0.7594451904296875,-0.201324462890625
261289,0.5519866943359375,0.795166015625,-0.2656402587890625
261290,0.600128173828125,0.830108642578125,-0.33599853515625
261291,0.642364501953125,0.8546142578125,-0.379852294921875
261292,0.66497802734375,0.875640869140625,-0.3984832763671875
261293,0.6705169677734375,0.895843505859375,-0.40264892578125
261294,0.6646270751953125,0.9168701171875,-0.4083099365234375
261295,0.648712158203125,0.945892333984375,-0.418701171875
261296,0.6166534423828125,0.9718780517578124,-0.4324493408203125
261297,0.566314697265625,0.9818878173828124,-0.4395599365234375
261298,0.50775146484375,0.96319580078125,-0.4332427978515625
261299,0.4633331298828125,0.9058990478515624,-0.4198455810546875
261300,0.439117431640625,0.83056640625,-0.4043731689453125
261301,0.42578125,0.771514892578125,-0.3961639404296875
261302,0.4183502197265625,0.723480224609375,-0.405426025390625
261303,0.4274749755859375,0.66845703125,-0.4308929443359375
261304,0.4605865478515625,0.6105499267578125,-0.4676055908203125
261305,0.5187225341796875,0.5570526123046875,-0.501251220703125
261306,0.593109130859375,0.5192108154296875,-0.517120361328125
261307,0.6694793701171875,0.494140625,-0.486968994140625
261308,0.73614501953125,0.4725341796875,-0.4032745361328125
261309,0.7807769775390625,0.4423675537109375,-0.2855072021484375
261310,0.8007049560546875,0.3950347900390625,-0.1713409423828125
261311,0.7988128662109375,0.3282623291015625,-0.09576416015625
261312,0.78125,0.25823974609375,-0.0777130126953125
261313,0.7643585205078125,0.199737548828125,-0.10662841796875
261314,0.7579345703125,0.1649169921875,-0.1554718017578125
261315,0.7629852294921875,0.1549835205078125,-0.20257568359375
261316,0.7816162109375,0.166839599609375,-0.2331695556640625
261317,0.81524658203125,0.1944732666015625,-0.248748779296875
261318,0.8630523681640625,0.2357177734375,-0.2397613525390625
261319,0.9188995361328124,0.2843170166015625,-0.2103424072265625
261320,0.9771575927734376,0.344146728515625,-0.1698760986328125
261321,1.028427124023438,0.412139892578125,-0.1378631591796875
261322,1.064865112304688,0.473541259765625,-0.1350555419921875
261323,1.083663940429688,0.5312347412109375,-0.171905517578125
261324,1.07537841796875,0.5921478271484375,-0.2175445556640625
261325,1.03509521484375,0.64129638671875,-0.2516021728515625
261326,0.963043212890625,0.677001953125,-0.2763671875
261327,0.8640289306640625,0.706024169921875,-0.29241943359375
261328,0.7587738037109375,0.7336883544921875,-0.3135833740234375
261329,0.6645355224609375,0.758087158203125,-0.334716796875
261330,0.5843963623046875,0.7822113037109375,-0.3489990234375
261331,0.521484375,0.8093719482421875,-0.3616180419921875
261332,0.4828948974609375,0.8394317626953125,-0.3708038330078125
261333,0.46258544921875,0.869537353515625,-0.374542236328125
261334,0.4595184326171875,0.8936920166015625,-0.3767242431640625
261335,0.47015380859375,0.908050537109375,-0.3838958740234375
261336,0.49578857421875,0.91375732421875,-0.3950958251953125
261337,0.5301666259765625,0.9155120849609376,-0.404571533203125
261338,0.565643310546875,0.9228363037109376,-0.4082489013671875
261339,0.602783203125,0.9387054443359376,-0.40863037109375
261340,0.64447021484375,0.9571533203125,-0.402069091796875
261341,0.688140869140625,0.9579925537109376,-0.390838623046875
261342,0.7152252197265625,0.932373046875,-0.38177490234375
261343,0.708709716796875,0.8922119140625,-0.3818206787109375
261344,0.6609954833984375,0.84881591796875,-0.398468017578125
261345,0.6041717529296875,0.7998809814453125,-0.4401397705078125
261346,0.57318115234375,0.7583770751953125,-0.48150634765625
261347,0.556640625,0.746734619140625,-0.4916839599609375
261348,0.5373382568359375,0.735870361328125,-0.4650421142578125
261349,0.5026702880859375,0.709381103515625,-0.412384033203125
261350,0.457763671875,0.67608642578125,-0.3582305908203125
261351,0.4184112548828125,0.6410980224609375,-0.32281494140625
261352,0.3934173583984375,0.6103363037109375,-0.311248779296875
261353,0.39227294921875,0.5993499755859375,-0.317169189453125
261354,0.4123687744140625,0.6092987060546875,-0.3287353515625
261355,0.4457550048828125,0.63958740234375,-0.3456573486328125
261356,0.470703125,0.69927978515625,-0.3667755126953125
261357,0.4940948486328125,0.7752227783203125,-0.390716552734375
261358,0.5312347412109375,0.8449249267578125,-0.3995208740234375
261359,0.5697174072265625,0.895599365234375,-0.375640869140625
261360,0.5955657958984375,0.9263458251953124,-0.3402557373046875
261361,0.5914459228515625,0.931640625,-0.3076629638671875
261362,0.5637359619140625,0.9103546142578124,-0.2899169921875
261363,0.5347747802734375,0.8755950927734375,-0.2867889404296875
261364,0.52093505859375,0.8405914306640625,-0.282257080078125
261365,0.5212860107421875,0.809814453125,-0.2652740478515625
261366,0.5343780517578125,0.78631591796875,-0.235748291015625
261367,0.559234619140625,0.7625579833984375,-0.207672119140625
261368,0.5936279296875,0.72607421875,-0.186065673828125
261369,0.6407928466796875,0.682830810546875,-0.174774169921875
261370,0.6997528076171875,0.6417388916015625,-0.165008544921875
261371,0.7668609619140625,0.61126708984375,-0.1589508056640625
261372,0.8407440185546875,0.5862274169921875,-0.1571044921875
261373,0.9143218994140624,0.5600738525390625,-0.163970947265625
261374,0.979217529296875,0.5228729248046875,-0.1635284423828125
261375,1.026718139648438,0.47357177734375,-0.15472412109375
261376,1.049057006835938,0.4251708984375,-0.1363067626953125
261377,1.047760009765625,0.3804779052734375,-0.1147613525390625
261378,1.023651123046875,0.340667724609375,-0.09136962890625
261379,0.9910888671875,0.3041839599609375,-0.066192626953125
261380,0.9671478271484376,0.286285400390625,-0.0493011474609375
261381,0.957916259765625,0.297027587890625,-0.037200927734375
261382,0.9546661376953124,0.3335418701171875,-0.0300140380859375
261383,0.95806884765625,0.387542724609375,-0.036956787109375
261384,0.96563720703125,0.4388580322265625,-0.0514373779296875
261385,0.979156494140625,0.48553466796875,-0.0803070068359375
261386,1.002395629882812,0.5369415283203125,-0.125396728515625
261387,1.033370971679688,0.589385986328125,-0.1678619384765625
261388,1.063735961914062,0.6351318359375,-0.19366455078125
261389,1.075790405273438,0.6710357666015625,-0.2024688720703125
261390,1.05194091796875,0.698822021484375,-0.209381103515625
261391,0.9927215576171876,0.717376708984375,-0.22540283203125
261392,0.908599853515625,0.7313385009765625,-0.244781494140625
261393,0.8169097900390625,0.73687744140625,-0.25396728515625
261394,0.7269134521484375,0.7421875,-0.258270263671875
261395,0.6416473388671875,0.759033203125,-0.2760009765625
261396,0.5669708251953125,0.7801055908203125,-0.3106536865234375
261397,0.5078887939453125,0.800933837890625,-0.35076904296875
261398,0.463134765625,0.8215789794921875,-0.39349365234375
261399,0.42669677734375,0.83538818359375,-0.4425506591796875
261400,0.3949737548828125,0.8367919921875,-0.490386962890625
261401,0.3609161376953125,0.8378448486328125,-0.52288818359375
261402,0.3381500244140625,0.8350067138671875,-0.54241943359375
261403,0.3340911865234375,0.8321990966796875,-0.5377349853515625
261404,0.3515472412109375,0.827362060546875,-0.5111541748046875
261405,0.3821258544921875,0.8262176513671875,-0.473052978515625
261406,0.407379150390625,0.8331451416015625,-0.427337646484375
261407,0.413330078125,0.847503662109375,-0.37408447265625
261408,0.4125213623046875,0.8647003173828125,-0.3249969482421875
261409,0.4141845703125,0.87164306640625,-0.278167724609375
261410,0.420013427734375,0.864593505859375,-0.2374267578125
261411,0.430755615234375,0.8448028564453125,-0.212554931640625
261412,0.4418792724609375,0.809783935546875,-0.1982269287109375
261413,0.453155517578125,0.7608184814453125,-0.1894989013671875
261414,0.4738616943359375,0.7089080810546875,-0.188507080078125
261415,0.5053253173828125,0.667327880859375,-0.1935272216796875
261416,0.5376739501953125,0.646453857421875,-0.1935577392578125
261417,0.55926513671875,0.6380615234375,-0.178192138671875
261418,0.57177734375,0.633056640625,-0.1590728759765625
261419,0.5795440673828125,0.63616943359375,-0.151580810546875
261420,0.5889892578125,0.6523284912109375,-0.1609039306640625
261421,0.60540771484375,0.6872711181640625,-0.1903076171875
261422,0.6337738037109375,0.7314910888671875,-0.23223876953125
261423,0.6674041748046875,0.777496337890625,-0.27685546875
261424,0.6941070556640625,0.8164215087890625,-0.3313140869140625
261425,0.7038726806640625,0.851104736328125,-0.389984130859375
261426,0.69940185546875,0.8817901611328125,-0.4415435791015625
261427,0.6822967529296875,0.9005126953125,-0.472930908203125
261428,0.6496429443359375,0.9059906005859376,-0.472137451171875
261429,0.5921478271484375,0.907989501953125,-0.452880859375
261430,0.510986328125,0.905181884765625,-0.4284210205078125
261431,0.4248504638671875,0.892791748046875,-0.4050445556640625
261432,0.3579559326171875,0.86553955078125,-0.3860015869140625
261433,0.3210296630859375,0.8270111083984375,-0.3767852783203125
261434,0.3159332275390625,0.783843994140625,-0.380157470703125
261435,0.3321075439453125,0.7425537109375,-0.3994598388671875
261436,0.3724517822265625,0.6970672607421875,-0.4372100830078125
261437,0.4396514892578125,0.6445770263671875,-0.4783172607421875
261438,0.5322265625,0.593536376953125,-0.49822998046875
261439,0.635986328125,0.5494537353515625,-0.475372314453125
261440,0.7349395751953125,0.5080108642578125,-0.40283203125
261441,0.8187713623046875,0.4578704833984375,-0.292724609375
261442,0.8800201416015625,0.3934783935546875,-0.177215576171875
261443,0.91094970703125,0.3257293701171875,-0.1050262451171875
261444,0.910552978515625,0.261444091796875,-0.0957183837890625
261445,0.8856201171875,0.21856689453125,-0.13623046875
261446,0.8552398681640625,0.20947265625,-0.195953369140625
261447,0.8368682861328125,0.2302398681640625,-0.241363525390625
261448,0.8355560302734375,0.266571044921875,-0.26287841796875
261449,0.85211181640625,0.309326171875,-0.257110595703125
261450,0.88140869140625,0.3522186279296875,-0.2296142578125
261451,0.918212890625,0.3962554931640625,-0.1971435546875
261452,0.954071044921875,0.4370880126953125,-0.1803436279296875
261453,0.9803466796875,0.47210693359375,-0.198394775390625
261454,0.986663818359375,0.51483154296875,-0.24981689453125
261455,0.96868896484375,0.5769805908203125,-0.3058929443359375
261456,0.926055908203125,0.647552490234375,-0.3368682861328125
261457,0.8556671142578125,0.7123870849609375,-0.3464202880859375
261458,0.7547149658203125,0.767425537109375,-0.35223388671875
261459,0.6341400146484375,0.8131561279296875,-0.365264892578125
261460,0.5172576904296875,0.8502655029296875,-0.3783111572265625
261461,0.4266357421875,0.8724517822265625,-0.384307861328125
261462,0.371978759765625,0.882965087890625,-0.379913330078125
261463,0.3613739013671875,0.890838623046875,-0.3697357177734375
261464,0.38177490234375,0.8953399658203125,-0.3482818603515625
261465,0.4253387451171875,0.8877716064453125,-0.3129119873046875
261466,0.48370361328125,0.8663787841796875,-0.276336669921875
261467,0.552581787109375,0.8358001708984375,-0.245849609375
261468,0.63739013671875,0.80322265625,-0.224822998046875
261469,0.7357330322265625,0.77227783203125,-0.2208404541015625
261470,0.842132568359375,0.7521514892578125,-0.238128662109375
261471,0.9425506591796876,0.7518768310546875,-0.2803497314453125
261472,1.0198974609375,0.768585205078125,-0.3408660888671875
261473,1.056564331054688,0.7861785888671875,-0.396270751953125
261474,1.038436889648438,0.7899627685546875,-0.425201416015625
261475,0.974945068359375,0.7821807861328125,-0.4272918701171875
261476,0.87908935546875,0.7566680908203125,-0.4174346923828125
261477,0.7821807861328125,0.7176513671875,-0.4043426513671875
261478,0.6968994140625,0.686767578125,-0.39459228515625
261479,0.6093902587890625,0.6654510498046875,-0.383880615234375
261480,0.5194549560546875,0.6495208740234375,-0.3757781982421875
261481,0.4322357177734375,0.63592529296875,-0.3647918701171875
261482,0.34906005859375,0.6179962158203125,-0.3530120849609375
261483,0.27142333984375,0.5935211181640625,-0.352508544921875
261484,0.2093353271484375,0.5792694091796875,-0.3548126220703125
261485,0.17425537109375,0.582733154296875,-0.3604888916015625
261486,0.1759490966796875,0.60247802734375,-0.376007080078125
261487,0.2180633544921875,0.6412200927734375,-0.4036407470703125
261488,0.277984619140625,0.70318603515625,-0.4445953369140625
261489,0.3316192626953125,0.7956695556640625,-0.48193359375
261490,0.3967437744140625,0.8955841064453125,-0.5039825439453125
261491,0.4749908447265625,0.990081787109375,-0.492095947265625
261492,0.5419921875,1.06982421875,-0.446380615234375
261493,0.563995361328125,1.1153564453125,-0.3975677490234375
261494,0.531005859375,1.116836547851562,-0.3710784912109375
261495,0.4676971435546875,1.083572387695312,-0.3629150390625
261496,0.41619873046875,1.01824951171875,-0.35284423828125
261497,0.3805084228515625,0.9459075927734376,-0.330718994140625
261498,0.356353759765625,0.8811492919921875,-0.302825927734375
261499,0.3580474853515625,0.8283538818359375,-0.279266357421875
261500,0.3902740478515625,0.787933349609375,-0.2660064697265625
261501,0.44293212890625,0.758575439453125,-0.2558441162109375
261502,0.51513671875,0.729736328125,-0.2501678466796875
261503,0.6060333251953125,0.689666748046875,-0.2432098388671875
261504,0.7116241455078125,0.63739013671875,-0.233123779296875
261505,0.824615478515625,0.581573486328125,-0.2357940673828125
261506,0.9371795654296876,0.528228759765625,-0.254180908203125
261507,1.039505004882812,0.46881103515625,-0.27001953125
261508,1.115615844726562,0.4019775390625,-0.2541656494140625
261509,1.1527099609375,0.3285369873046875,-0.197052001953125
261510,1.137985229492188,0.2546844482421875,-0.1134796142578125
261511,1.086669921875,0.1992034912109375,-0.04437255859375
261512,1.023239135742188,0.173492431640625,-0.005218505859375
261513,0.9665374755859376,0.1719818115234375,0.015045166015625
261514,0.927642822265625,0.1826629638671875,0.0257568359375
261515,0.9122161865234376,0.2097015380859375,0.0225982666015625
261516,0.92138671875,0.2602386474609375,0.0041046142578125
261517,0.9462432861328124,0.326080322265625,-0.0306243896484375
261518,0.989715576171875,0.40130615234375,-0.0760040283203125
261519,1.056976318359375,0.4927825927734375,-0.1285552978515625
261520,1.138916015625,0.58990478515625,-0.1685791015625
261521,1.208023071289062,0.68310546875,-0.1807708740234375
261522,1.2294921875,0.7694091796875,-0.1881866455078125
261523,1.17291259765625,0.824493408203125,-0.2014923095703125
261524,1.044158935546875,0.84185791015625,-0.2269287109375
261525,0.8860931396484375,0.8353729248046875,-0.2558746337890625
261526,0.749298095703125,0.82391357421875,-0.275634765625
261527,0.6558380126953125,0.826416015625,-0.2822265625
261528,0.5951995849609375,0.8493499755859375,-0.2889404296875
261529,0.55474853515625,0.877777099609375,-0.3057861328125
261530,0.52593994140625,0.89154052734375,-0.32330322265625
261531,0.5026702880859375,0.8839111328125,-0.35101318359375
261532,0.4861907958984375,0.8648834228515625,-0.3859710693359375
261533,0.4740447998046875,0.8510589599609375,-0.424072265625
261534,0.4523162841796875,0.8463592529296875,-0.4442138671875
261535,0.41241455078125,0.8499298095703125,-0.4627227783203125
261536,0.367340087890625,0.84027099609375,-0.4915924072265625
261537,0.334136962890625,0.8129730224609375,-0.500823974609375
261538,0.3085479736328125,0.782501220703125,-0.477996826171875
261539,0.2902679443359375,0.766815185546875,-0.419952392578125
261540,0.2732696533203125,0.7830810546875,-0.33209228515625
261541,0.254241943359375,0.8201141357421875,-0.24603271484375
261542,0.2415924072265625,0.8467254638671875,-0.1799468994140625
261543,0.2432403564453125,0.8494110107421875,-0.1360626220703125
261544,0.25494384765625,0.8318023681640625,-0.108001708984375
261545,0.2693023681640625,0.800506591796875,-0.0843658447265625
261546,0.287261962890625,0.7573394775390625,-0.0767059326171875
261547,0.3114166259765625,0.714202880859375,-0.0881195068359375
261548,0.340118408203125,0.6899566650390625,-0.1136016845703125
261549,0.371795654296875,0.6923370361328125,-0.1458587646484375
261550,0.4068145751953125,0.7181549072265625,-0.1745147705078125
261551,0.4424285888671875,0.77069091796875,-0.201446533203125
261552,0.485137939453125,0.848388671875,-0.2453155517578125
261553,0.5373687744140625,0.9428253173828124,-0.312255859375
261554,0.6015167236328125,1.029220581054688,-0.3792724609375
261555,0.660675048828125,1.095947265625,-0.403167724609375
261556,0.6904754638671875,1.133407592773438,-0.3867950439453125
261557,0.6813507080078125,1.1265869140625,-0.384674072265625
261558,0.6472015380859375,1.07733154296875,-0.4251861572265625
261559,0.595306396484375,1.01275634765625,-0.4817657470703125
261560,0.5222320556640625,0.9661102294921876,-0.50994873046875
261561,0.450408935546875,0.9310760498046876,-0.491180419921875
261562,0.39990234375,0.8943023681640625,-0.4339599609375
261563,0.3696136474609375,0.853668212890625,-0.35791015625
261564,0.3534088134765625,0.8040771484375,-0.2909088134765625
261565,0.3555908203125,0.74005126953125,-0.2645416259765625
261566,0.3904876708984375,0.6701202392578125,-0.2843780517578125
261567,0.4692230224609375,0.60479736328125,-0.3448028564453125
261568,0.5840301513671875,0.555145263671875,-0.41790771484375
261569,0.71893310546875,0.528076171875,-0.442626953125
261570,0.853668212890625,0.5224609375,-0.3891448974609375
261571,0.9710235595703124,0.526885986328125,-0.2736663818359375
261572,1.051193237304688,0.5168304443359375,-0.1337432861328125
261573,1.080520629882812,0.462860107421875,-0.0240631103515625
261574,1.0635986328125,0.3592071533203125,0.0221099853515625
261575,1.023635864257812,0.243682861328125,0.005828857421875
261576,0.9871063232421876,0.1555633544921875,-0.0415802001953125
261577,0.960540771484375,0.10333251953125,-0.0911102294921875
261578,0.9384002685546876,0.0790557861328125,-0.13275146484375
261579,0.9129791259765624,0.092041015625,-0.1556549072265625
261580,0.8878326416015625,0.14373779296875,-0.1561279296875
261581,0.8626556396484375,0.2274169921875,-0.1370849609375
261582,0.85528564453125,0.32025146484375,-0.1195220947265625
261583,0.867584228515625,0.40655517578125,-0.120697021484375
261584,0.8871917724609375,0.4907684326171875,-0.1389617919921875
261585,0.9078216552734376,0.577362060546875,-0.1737060546875
261586,0.921417236328125,0.6702880859375,-0.2198333740234375
261587,0.9176483154296876,0.764190673828125,-0.2628326416015625
261588,0.8888397216796875,0.8456878662109375,-0.2993927001953125
261589,0.8226776123046875,0.9039764404296876,-0.333099365234375
261590,0.7241973876953125,0.9444732666015624,-0.36175537109375
261591,0.6149749755859375,0.972198486328125,-0.3894500732421875
261592,0.5145416259765625,0.9896697998046876,-0.4183502197265625
261593,0.4331512451171875,0.9961700439453124,-0.4326019287109375
261594,0.3746337890625,0.9929351806640624,-0.4312591552734375
261595,0.339874267578125,0.979736328125,-0.4254608154296875
261596,0.330047607421875,0.952880859375,-0.412139892578125
261597,0.3464813232421875,0.916046142578125,-0.394989013671875
261598,0.385498046875,0.880096435546875,-0.3686370849609375
261599,0.4442596435546875,0.858184814453125,-0.3331146240234375
261600,0.5152435302734375,0.8528594970703125,-0.299560546875
261601,0.5921783447265625,0.8579559326171875,-0.27752685546875
261602,0.674468994140625,0.86590576171875,-0.2710723876953125
261603,0.74786376953125,0.862884521484375,-0.27642822265625
261604,0.788604736328125,0.837432861328125,-0.2969207763671875
261605,0.7819061279296875,0.789337158203125,-0.3313140869140625
261606,0.7253875732421875,0.73651123046875,-0.374176025390625
261607,0.656707763671875,0.699615478515625,-0.42230224609375
261608,0.6002655029296875,0.6957855224609375,-0.451629638671875
261609,0.5581817626953125,0.7010650634765625,-0.4467010498046875
261610,0.522674560546875,0.6993408203125,-0.410003662109375
261611,0.4839324951171875,0.685302734375,-0.3513336181640625
261612,0.4503631591796875,0.6619110107421875,-0.300048828125
261613,0.4243011474609375,0.633819580078125,-0.26629638671875
261614,0.4051666259765625,0.6083221435546875,-0.2650299072265625
261615,0.395782470703125,0.5913543701171875,-0.29852294921875
261616,0.405792236328125,0.5858306884765625,-0.351104736328125
261617,0.433868408203125,0.5985260009765625,-0.411224365234375
261618,0.471405029296875,0.641998291015625,-0.462127685546875
261619,0.50738525390625,0.7120361328125,-0.4888916015625
261620,0.54229736328125,0.7892913818359375,-0.488555908203125
261621,0.57940673828125,0.8628387451171875,-0.4534454345703125
261622,0.6100006103515625,0.9232025146484376,-0.3849639892578125
261623,0.6234283447265625,0.9647674560546876,-0.3147125244140625
261624,0.6151580810546875,0.975494384765625,-0.2680816650390625
261625,0.59344482421875,0.9494476318359376,-0.262054443359375
261626,0.5731048583984375,0.90338134765625,-0.28125
261627,0.5579071044921875,0.859832763671875,-0.302703857421875
261628,0.5483245849609375,0.82562255859375,-0.3032989501953125
261629,0.5476226806640625,0.79412841796875,-0.2818756103515625
261630,0.55877685546875,0.7608184814453125,-0.2486572265625
261631,0.5837249755859375,0.7264251708984375,-0.2092437744140625
261632,0.6245269775390625,0.6873626708984375,-0.1645355224609375
261633,0.6769256591796875,0.647796630859375,-0.122344970703125
261634,0.74114990234375,0.6091461181640625,-0.0970306396484375
261635,0.81329345703125,0.57086181640625,-0.0894317626953125
261636,0.8881378173828125,0.53216552734375,-0.094482421875
261637,0.958038330078125,0.4900054931640625,-0.1043853759765625
261638,1.006927490234375,0.4421234130859375,-0.111236572265625
261639,1.023025512695312,0.3944091796875,-0.1052398681640625
261640,1.008956909179688,0.3509368896484375,-0.089752197265625
261641,0.9752349853515624,0.315643310546875,-0.072967529296875
261642,0.937530517578125,0.2971038818359375,-0.0623321533203125
261643,0.9079132080078124,0.2911834716796875,-0.0576171875
261644,0.89703369140625,0.305755615234375,-0.060546875
261645,0.9104461669921876,0.34930419921875,-0.072662353515625
261646,0.9326324462890624,0.4175567626953125,-0.0877838134765625
261647,0.9585418701171876,0.487060546875,-0.110870361328125
261648,0.9930877685546876,0.55487060546875,-0.1316070556640625
261649,1.030441284179688,0.6293487548828125,-0.1520233154296875
261650,1.055801391601562,0.70263671875,-0.1735687255859375
261651,1.0574951171875,0.7657470703125,-0.201202392578125
261652,1.016830444335938,0.8149261474609375,-0.2283782958984375
261653,0.926544189453125,0.846923828125,-0.25445556640625
261654,0.7985382080078125,0.8558197021484375,-0.2788543701171875
261655,0.6673736572265625,0.8499755859375,-0.3036346435546875
261656,0.565765380859375,0.8406982421875,-0.322479248046875
261657,0.5015716552734375,0.83837890625,-0.3336944580078125
261658,0.4593963623046875,0.8423614501953125,-0.341217041015625
261659,0.42669677734375,0.8480072021484375,-0.3614501953125
261660,0.4070281982421875,0.8452911376953125,-0.400146484375
261661,0.40283203125,0.83575439453125,-0.4371337890625
261662,0.4158782958984375,0.8211517333984375,-0.465789794921875
261663,0.4383087158203125,0.8059539794921875,-0.4770050048828125
261664,0.462646484375,0.791717529296875,-0.479461669921875
261665,0.489013671875,0.784332275390625,-0.478424072265625
261666,0.5151214599609375,0.7847900390625,-0.4644775390625
261667,0.5328369140625,0.7787628173828125,-0.4305267333984375
261668,0.53802490234375,0.76953125,-0.379180908203125
261669,0.5358428955078125,0.7696685791015625,-0.3240509033203125
261670,0.5285186767578125,0.77947998046875,-0.271331787109375
261671,0.520782470703125,0.789154052734375,-0.2335662841796875
261672,0.5207672119140625,0.794891357421875,-0.211883544921875
261673,0.52130126953125,0.7929840087890625,-0.2011871337890625
261674,0.517608642578125,0.7793731689453125,-0.195770263671875
261675,0.5064697265625,0.7545166015625,-0.1817626953125
261676,0.493011474609375,0.714447021484375,-0.1684417724609375
261677,0.481689453125,0.6718597412109375,-0.1669464111328125
261678,0.475372314453125,0.6416168212890625,-0.166717529296875
261679,0.4832305908203125,0.6253204345703125,-0.166015625
261680,0.507568359375,0.6212158203125,-0.1661376953125
261681,0.5365142822265625,0.626190185546875,-0.1660919189453125
261682,0.5611419677734375,0.6440277099609375,-0.170684814453125
261683,0.5804290771484375,0.6832122802734375,-0.188507080078125
261684,0.5948028564453125,0.74493408203125,-0.219207763671875
261685,0.6091461181640625,0.8106842041015625,-0.256256103515625
261686,0.6236724853515625,0.8691864013671875,-0.2852935791015625
261687,0.634124755859375,0.9202728271484376,-0.31304931640625
261688,0.639495849609375,0.9594573974609376,-0.353179931640625
261689,0.6388702392578125,0.981658935546875,-0.3922882080078125
261690,0.631072998046875,0.9943084716796876,-0.4252777099609375
261691,0.599700927734375,0.9997100830078124,-0.4531097412109375
261692,0.5417327880859375,0.989593505859375,-0.4722900390625
261693,0.4701995849609375,0.9490814208984376,-0.4745635986328125
261694,0.4135894775390625,0.879791259765625,-0.4651031494140625
261695,0.3946685791015625,0.8235321044921875,-0.4596405029296875
261696,0.4029541015625,0.7957763671875,-0.464202880859375
261697,0.427337646484375,0.7665863037109375,-0.4804840087890625
261698,0.4664459228515625,0.72137451171875,-0.4894256591796875
261699,0.5286712646484375,0.6725311279296875,-0.4742889404296875
261700,0.6049957275390625,0.6226806640625,-0.4240875244140625
261701,0.6777801513671875,0.57720947265625,-0.3385772705078125
261702,0.74041748046875,0.5420989990234375,-0.23187255859375
261703,0.79339599609375,0.5071868896484375,-0.1377716064453125
261704,0.834808349609375,0.45513916015625,-0.078521728515625
261705,0.860107421875,0.37744140625,-0.05084228515625
261706,0.868011474609375,0.290618896484375,-0.05657958984375
261707,0.8674468994140625,0.2245941162109375,-0.0878448486328125
261708,0.8683319091796875,0.18426513671875,-0.1300506591796875
261709,0.8740997314453125,0.1663055419921875,-0.1696624755859375
261710,0.889007568359375,0.1792449951171875,-0.192840576171875
261711,0.9163055419921876,0.2240753173828125,-0.1844635009765625
261712,0.952239990234375,0.2917022705078125,-0.1496429443359375
261713,0.989593505859375,0.3622589111328125,-0.1034698486328125
261714,1.017684936523438,0.4175262451171875,-0.0701446533203125
261715,1.032058715820312,0.445159912109375,-0.073486328125
261716,1.025787353515625,0.45660400390625,-0.1153106689453125
261717,1.006942749023438,0.477691650390625,-0.18682861328125
261718,0.988433837890625,0.518463134765625,-0.266632080078125
261719,0.9659271240234376,0.5724639892578125,-0.3291015625
261720,0.93133544921875,0.6346893310546875,-0.3585052490234375
261721,0.874725341796875,0.6965179443359375,-0.364288330078125
261722,0.7921600341796875,0.75079345703125,-0.3646697998046875
261723,0.6977996826171875,0.7884063720703125,-0.3744964599609375
261724,0.61376953125,0.807037353515625,-0.38531494140625
261725,0.5497589111328125,0.8095855712890625,-0.389434814453125
261726,0.500213623046875,0.8076324462890625,-0.382598876953125
261727,0.46429443359375,0.79730224609375,-0.3707733154296875
261728,0.4515380859375,0.7806243896484375,-0.35333251953125
261729,0.455718994140625,0.7630462646484375,-0.3303375244140625
261730,0.4709320068359375,0.746429443359375,-0.304229736328125
261731,0.4988861083984375,0.732666015625,-0.27764892578125
261732,0.544464111328125,0.720306396484375,-0.252899169921875
261733,0.6121978759765625,0.7119140625,-0.2413482666015625
261734,0.69415283203125,0.7103424072265625,-0.2512359619140625
261735,0.78033447265625,0.719207763671875,-0.2782135009765625
261736,0.8625030517578125,0.73590087890625,-0.32135009765625
261737,0.9279632568359376,0.7561492919921875,-0.3769683837890625
261738,0.9553680419921876,0.769927978515625,-0.42474365234375
261739,0.927703857421875,0.7728271484375,-0.448028564453125
261740,0.849578857421875,0.76318359375,-0.442352294921875
261741,0.7520599365234375,0.7487945556640625,-0.425323486328125
261742,0.656890869140625,0.7394256591796875,-0.408966064453125
261743,0.56439208984375,0.7391357421875,-0.382659912109375
261744,0.4805145263671875,0.7368621826171875,-0.3582000732421875
261745,0.4024810791015625,0.7230377197265625,-0.3281097412109375
261746,0.3338775634765625,0.701080322265625,-0.3025970458984375
261747,0.2832489013671875,0.6782684326171875,-0.27850341796875
261748,0.2606658935546875,0.6619415283203125,-0.2662200927734375
261749,0.27117919921875,0.656707763671875,-0.269256591796875
261750,0.318359375,0.661651611328125,-0.287567138671875
261751,0.3830108642578125,0.692352294921875,-0.320556640625
261752,0.438629150390625,0.7529144287109375,-0.3589935302734375
261753,0.498565673828125,0.81768798828125,-0.3997039794921875
261754,0.5664215087890625,0.883148193359375,-0.428314208984375
261755,0.622833251953125,0.9416656494140624,-0.429840087890625
261756,0.6472930908203125,0.9879302978515624,-0.4034271240234375
261757,0.6253204345703125,1.010635375976562,-0.3643951416015625
261758,0.56732177734375,1.004364013671875,-0.3429718017578125
261759,0.5118255615234375,0.97637939453125,-0.336669921875
261760,0.477783203125,0.9350738525390624,-0.31182861328125
261761,0.4576416015625,0.8951568603515625,-0.265045166015625
261762,0.447265625,0.856353759765625,-0.2074127197265625
261763,0.449859619140625,0.8120269775390625,-0.1590576171875
261764,0.47503662109375,0.7650299072265625,-0.1175689697265625
261765,0.5281829833984375,0.720306396484375,-0.08734130859375
261766,0.6013031005859375,0.67889404296875,-0.076416015625
261767,0.686492919921875,0.6406707763671875,-0.0816802978515625
261768,0.784210205078125,0.6063079833984375,-0.10394287109375
261769,0.897308349609375,0.5667266845703125,-0.128448486328125
261770,1.014190673828125,0.51641845703125,-0.137847900390625
261771,1.11083984375,0.4545440673828125,-0.1171875
261772,1.16864013671875,0.37933349609375,-0.0697174072265625
261773,1.175140380859375,0.3094024658203125,-0.02435302734375
261774,1.143875122070312,0.2625579833984375,0.00103759765625
261775,1.1004638671875,0.23358154296875,0.01470947265625
261776,1.061370849609375,0.2180023193359375,0.0260772705078125
261777,1.031982421875,0.2120208740234375,0.0423736572265625
261778,1.011016845703125,0.224578857421875,0.0571441650390625
261779,1.014236450195312,0.2641448974609375,0.0599517822265625
261780,1.038055419921875,0.3218841552734375,0.0381011962890625
261781,1.075531005859375,0.3746337890625,0.0113525390625
261782,1.133270263671875,0.4263458251953125,-0.0167083740234375
261783,1.198394775390625,0.4919586181640625,-0.0503997802734375
261784,1.248260498046875,0.5731353759765625,-0.07891845703125
261785,1.257736206054688,0.65509033203125,-0.102203369140625
261786,1.2073974609375,0.7216033935546875,-0.1276702880859375
261787,1.103546142578125,0.7564544677734375,-0.161407470703125
261788,0.9921722412109376,0.76287841796875,-0.203155517578125
261789,0.904541015625,0.75909423828125,-0.2450714111328125
261790,0.8402557373046875,0.770843505859375,-0.2797393798828125
261791,0.7913818359375,0.808013916015625,-0.323333740234375
261792,0.738250732421875,0.842803955078125,-0.3620147705078125
261793,0.6735076904296875,0.8521728515625,-0.389739990234375
261794,0.6021881103515625,0.844970703125,-0.4095306396484375
261795,0.5211334228515625,0.8369293212890625,-0.4207611083984375
261796,0.436737060546875,0.83782958984375,-0.427703857421875
261797,0.3476104736328125,0.8491668701171875,-0.44879150390625
261798,0.26556396484375,0.8562469482421875,-0.509765625
261799,0.2117919921875,0.8544464111328125,-0.5645294189453125
261800,0.1866455078125,0.8509979248046875,-0.55645751953125
261801,0.1767730712890625,0.87237548828125,-0.48541259765625
261802,0.172515869140625,0.9197845458984376,-0.388641357421875
261803,0.174835205078125,0.956146240234375,-0.30340576171875
261804,0.1764678955078125,0.9507598876953124,-0.2291259765625
261805,0.184539794921875,0.90594482421875,-0.1739959716796875
261806,0.208984375,0.8357391357421875,-0.146087646484375
261807,0.245147705078125,0.7553558349609375,-0.141876220703125
261808,0.287139892578125,0.68597412109375,-0.157257080078125
261809,0.3288421630859375,0.649871826171875,-0.181976318359375
261810,0.364532470703125,0.6499176025390625,-0.201934814453125
261811,0.4041900634765625,0.66204833984375,-0.22174072265625
261812,0.448699951171875,0.686614990234375,-0.235015869140625
261813,0.488800048828125,0.72552490234375,-0.2364349365234375
261814,0.5242767333984375,0.775238037109375,-0.238983154296875
261815,0.5655670166015625,0.829864501953125,-0.26336669921875
261816,0.6099395751953125,0.8846435546875,-0.3072662353515625
261817,0.65313720703125,0.9331207275390624,-0.3575897216796875
261818,0.6886138916015625,0.9700775146484376,-0.4039459228515625
261819,0.705810546875,0.9872894287109376,-0.4445343017578125
261820,0.699798583984375,0.972198486328125,-0.478240966796875
261821,0.6731719970703125,0.9307861328125,-0.484344482421875
261822,0.6239471435546875,0.885772705078125,-0.4615478515625
261823,0.5702972412109375,0.84930419921875,-0.4254608154296875
261824,0.5133819580078125,0.8135986328125,-0.381134033203125
261825,0.4545135498046875,0.7779693603515625,-0.337158203125
261826,0.404083251953125,0.7442474365234375,-0.305419921875
261827,0.3795013427734375,0.7113494873046875,-0.2976226806640625
261828,0.3919830322265625,0.678070068359375,-0.3214111328125
261829,0.43408203125,0.64263916015625,-0.3620147705078125
261830,0.5073394775390625,0.6064453125,-0.4014129638671875
261831,0.6059112548828125,0.5682220458984375,-0.42010498046875
261832,0.7227325439453125,0.5357513427734375,-0.4050140380859375
261833,0.8485565185546875,0.510223388671875,-0.357330322265625
261834,0.969573974609375,0.4922637939453125,-0.27947998046875
261835,1.06298828125,0.4753570556640625,-0.1763153076171875
261836,1.10699462890625,0.4344482421875,-0.0575103759765625
261837,1.090789794921875,0.3505859375,0.028076171875
261838,1.020462036132812,0.2398681640625,0.0379486083984375
261839,0.93096923828125,0.152069091796875,-0.0083160400390625
261840,0.8624725341796875,0.1180267333984375,-0.073760986328125
261841,0.82757568359375,0.118499755859375,-0.1395263671875
261842,0.8220062255859375,0.144439697265625,-0.1985626220703125
261843,0.8424530029296875,0.1938323974609375,-0.23419189453125
261844,0.876007080078125,0.2669830322265625,-0.2323760986328125
261845,0.9067840576171876,0.340057373046875,-0.1988067626953125
261846,0.9444580078125,0.394805908203125,-0.163360595703125
261847,0.98040771484375,0.4369659423828125,-0.157501220703125
261848,1.0059814453125,0.4898529052734375,-0.19091796875
261849,1.017578125,0.5562744140625,-0.258544921875
261850,1.007888793945312,0.62384033203125,-0.323699951171875
261851,0.965484619140625,0.68402099609375,-0.3722076416015625
261852,0.88671875,0.734619140625,-0.4110870361328125
261853,0.7796783447265625,0.7905120849609375,-0.4404754638671875
261854,0.6537628173828125,0.8588409423828125,-0.4642333984375
261855,0.5226898193359375,0.9245758056640624,-0.488555908203125
261856,0.399749755859375,0.9727020263671876,-0.514495849609375
261857,0.29339599609375,0.99359130859375,-0.5286407470703125
261858,0.2124176025390625,0.98138427734375,-0.5181884765625
261859,0.170013427734375,0.94317626953125,-0.48114013671875
261860,0.1760101318359375,0.8961029052734375,-0.4239959716796875
261861,0.2244873046875,0.854400634765625,-0.36480712890625
261862,0.296844482421875,0.8296661376953125,-0.313232421875
261863,0.37713623046875,0.8167724609375,-0.2764739990234375
261864,0.4727020263671875,0.8057708740234375,-0.260498046875
261865,0.5868377685546875,0.8001861572265625,-0.2724151611328125
261866,0.7233734130859375,0.807037353515625,-0.3143768310546875
261867,0.8742218017578125,0.8278045654296875,-0.381072998046875
261868,1.006607055664062,0.851165771484375,-0.4528961181640625
261869,1.082427978515625,0.861785888671875,-0.496368408203125
261870,1.05133056640625,0.843170166015625,-0.503631591796875
261871,0.91839599609375,0.803955078125,-0.4903564453125
261872,0.78656005859375,0.7640380859375,-0.4750823974609375
261873,0.6791229248046875,0.7318572998046875,-0.4483642578125
261874,0.5888519287109375,0.7052154541015625,-0.4001922607421875
261875,0.509613037109375,0.67041015625,-0.343994140625
261876,0.44036865234375,0.626983642578125,-0.2924957275390625
261877,0.3849029541015625,0.5872344970703125,-0.2516937255859375
261878,0.3524017333984375,0.5593109130859375,-0.2257843017578125
261879,0.3418121337890625,0.5372314453125,-0.217620849609375
261880,0.3499298095703125,0.5214996337890625,-0.2308502197265625
261881,0.384613037109375,0.5207366943359375,-0.269195556640625
261882,0.4486846923828125,0.5469207763671875,-0.3263397216796875
261883,0.524566650390625,0.605377197265625,-0.3878631591796875
261884,0.5948638916015625,0.6798095703125,-0.4377899169921875
261885,0.6590423583984375,0.748046875,-0.461212158203125
261886,0.7136993408203125,0.8089447021484375,-0.44415283203125
261887,0.7433319091796875,0.8601226806640625,-0.39532470703125
261888,0.7352447509765625,0.8977508544921875,-0.345184326171875
261889,0.688140869140625,0.9219818115234376,-0.3169403076171875
261890,0.6173248291015625,0.92816162109375,-0.31500244140625
261891,0.5427093505859375,0.908721923828125,-0.3263702392578125
261892,0.4866485595703125,0.8651275634765625,-0.3269500732421875
261893,0.454132080078125,0.8152923583984375,-0.3067169189453125
261894,0.4327545166015625,0.773529052734375,-0.274200439453125
261895,0.423492431640625,0.740234375,-0.2346954345703125
261896,0.4301605224609375,0.7127838134765625,-0.1981048583984375
261897,0.4559478759765625,0.69232177734375,-0.1736602783203125
261898,0.4976806640625,0.6681365966796875,-0.1612701416015625
261899,0.556182861328125,0.6368560791015625,-0.1617889404296875
261900,0.6296844482421875,0.59893798828125,-0.1702117919921875
261901,0.7117156982421875,0.554779052734375,-0.1847991943359375
261902,0.7974853515625,0.505645751953125,-0.1986083984375
261903,0.8804931640625,0.4641876220703125,-0.20416259765625
261904,0.9611358642578124,0.4238739013671875,-0.2054901123046875
261905,1.023422241210938,0.38427734375,-0.185516357421875
261906,1.06048583984375,0.3468170166015625,-0.145294189453125
261907,1.066543579101562,0.3165740966796875,-0.1032562255859375
261908,1.049118041992188,0.302032470703125,-0.063232421875
261909,1.02459716796875,0.3127593994140625,-0.038970947265625
261910,1.00640869140625,0.3482513427734375,-0.0284271240234375
261911,1.004196166992188,0.4025115966796875,-0.0381317138671875
261912,1.022018432617188,0.461883544921875,-0.0720672607421875
261913,1.053924560546875,0.5265960693359375,-0.1230010986328125
261914,1.093521118164062,0.5998992919921875,-0.186981201171875
261915,1.12274169921875,0.6731414794921875,-0.230316162109375
261916,1.118759155273438,0.738037109375,-0.2514190673828125
261917,1.06243896484375,0.7866973876953125,-0.2618560791015625
261918,0.953887939453125,0.8135223388671875,-0.26715087890625
261919,0.82232666015625,0.8112640380859375,-0.2774810791015625
261920,0.71282958984375,0.7884521484375,-0.2881622314453125
261921,0.6407470703125,0.7718353271484375,-0.299102783203125
261922,0.5869903564453125,0.7693023681640625,-0.319671630859375
261923,0.540802001953125,0.7711334228515625,-0.3492889404296875
261924,0.5010528564453125,0.7779541015625,-0.383880615234375
261925,0.47747802734375,0.7928924560546875,-0.4377288818359375
261926,0.4710540771484375,0.8146820068359375,-0.4889678955078125
261927,0.47637939453125,0.8331451416015625,-0.5113677978515625
261928,0.48822021484375,0.84197998046875,-0.5072021484375
261929,0.5027313232421875,0.83782958984375,-0.4918060302734375
261930,0.515289306640625,0.8339080810546875,-0.4732513427734375
261931,0.532470703125,0.8328857421875,-0.4454345703125
261932,0.5477752685546875,0.8339080810546875,-0.39776611328125
261933,0.545806884765625,0.8434600830078125,-0.32965087890625
261934,0.5281829833984375,0.85064697265625,-0.2626495361328125
261935,0.504302978515625,0.841217041015625,-0.21246337890625
261936,0.485015869140625,0.8097381591796875,-0.1746826171875
