time_idx,accelerometerAccelerationX(G),accelerometerAccelerationY(G),accelerometerAccelerationZ(G)
40000,0.20556640625,1.075027465820312,-0.2307891845703125
40001,0.149627685546875,1.130889892578125,-0.2431640625
40002,0.10791015625,1.164398193359375,-0.2785797119140625
40003,0.0993194580078125,1.146224975585938,-0.329681396484375
40004,0.14678955078125,1.067428588867188,-0.3427581787109375
40005,0.21832275390625,1.00054931640625,-0.29388427734375
40006,0.28851318359375,0.9503021240234376,-0.214019775390625
40007,0.358184814453125,0.88623046875,-0.134521484375
40008,0.4271697998046875,0.815032958984375,-0.0803070068359375
40009,0.500946044921875,0.7407379150390625,-0.0615386962890625
40010,0.5902557373046875,0.6710662841796875,-0.08148193359375
40011,0.707794189453125,0.6170196533203125,-0.1206512451171875
40012,0.864898681640625,0.5771636962890625,-0.1669464111328125
40013,1.0296630859375,0.5461273193359375,-0.1903228759765625
40014,1.157791137695312,0.522735595703125,-0.188995361328125
40015,1.22442626953125,0.5017547607421875,-0.1903076171875
40016,1.2208251953125,0.4712982177734375,-0.2205047607421875
40017,1.163894653320312,0.4354095458984375,-0.2706756591796875
40018,1.089874267578125,0.4073486328125,-0.3050537109375
40019,1.030105590820312,0.3890533447265625,-0.2988739013671875
40020,0.9925384521484376,0.37335205078125,-0.2644500732421875
40021,0.9863128662109376,0.3643341064453125,-0.2210540771484375
40022,1.003860473632812,0.371551513671875,-0.1780548095703125
40023,1.024078369140625,0.4107208251953125,-0.145599365234375
40024,1.033920288085938,0.477020263671875,-0.1321868896484375
40025,1.032150268554688,0.5429229736328125,-0.1396026611328125
40026,1.013717651367188,0.60009765625,-0.1564788818359375
40027,0.9787139892578124,0.6546173095703125,-0.177459716796875
40028,0.930633544921875,0.711669921875,-0.19378662109375
40029,0.8710479736328125,0.7736053466796875,-0.2056121826171875
40030,0.79595947265625,0.8375244140625,-0.212005615234375
40031,0.702606201171875,0.886260986328125,-0.218048095703125
40032,0.60589599609375,0.9129791259765624,-0.22796630859375
40033,0.5292510986328125,0.9070281982421876,-0.246978759765625
40034,0.48748779296875,0.8717193603515625,-0.268646240234375
40035,0.4721221923828125,0.831298828125,-0.2920989990234375
40036,0.4677734375,0.801361083984375,-0.306976318359375
40037,0.4721832275390625,0.775848388671875,-0.3125457763671875
40038,0.477752685546875,0.752777099609375,-0.3091888427734375
40039,0.4865264892578125,0.726287841796875,-0.3124847412109375
40040,0.50311279296875,0.691070556640625,-0.3225555419921875
40041,0.5240478515625,0.6487274169921875,-0.3237457275390625
40042,0.55206298828125,0.603790283203125,-0.3207855224609375
40043,0.576629638671875,0.5694580078125,-0.313812255859375
40044,0.5992431640625,0.552398681640625,-0.2894439697265625
40045,0.6191253662109375,0.5592498779296875,-0.249969482421875
40046,0.6251983642578125,0.598236083984375,-0.19305419921875
40047,0.6104278564453125,0.66595458984375,-0.130950927734375
40048,0.5877532958984375,0.7350921630859375,-0.0835418701171875
40049,0.5705108642578125,0.7816314697265625,-0.05035400390625
40050,0.5616607666015625,0.79925537109375,-0.035247802734375
40051,0.5517578125,0.7845611572265625,-0.02960205078125
40052,0.533905029296875,0.741790771484375,-0.0400238037109375
40053,0.5174560546875,0.69647216796875,-0.069671630859375
40054,0.5055389404296875,0.655181884765625,-0.1047821044921875
40055,0.49951171875,0.6179962158203125,-0.1417083740234375
40056,0.5036773681640625,0.5920867919921875,-0.174652099609375
40057,0.5128173828125,0.584686279296875,-0.19927978515625
40058,0.5264434814453125,0.5980377197265625,-0.2199554443359375
40059,0.5455474853515625,0.63067626953125,-0.2398529052734375
40060,0.564910888671875,0.6760406494140625,-0.2624969482421875
40061,0.5876312255859375,0.7306671142578125,-0.2891998291015625
40062,0.6103973388671875,0.7859344482421875,-0.294769287109375
40063,0.631011962890625,0.831451416015625,-0.2764739990234375
40064,0.644317626953125,0.8631744384765625,-0.26654052734375
40065,0.645172119140625,0.88482666015625,-0.288726806640625
40066,0.6296234130859375,0.9087677001953124,-0.326995849609375
40067,0.5952606201171875,0.9344024658203124,-0.3570098876953125
40068,0.5436859130859375,0.9545440673828124,-0.365142822265625
40069,0.4846649169921875,0.9584197998046876,-0.348907470703125
40070,0.4419403076171875,0.927154541015625,-0.3199310302734375
40071,0.4418487548828125,0.8641357421875,-0.2891693115234375
40072,0.4709014892578125,0.8118743896484375,-0.271240234375
40073,0.5011444091796875,0.7638092041015625,-0.2587127685546875
40074,0.535186767578125,0.709747314453125,-0.2459869384765625
40075,0.5786895751953125,0.65496826171875,-0.223724365234375
40076,0.628326416015625,0.6060791015625,-0.20111083984375
40077,0.6786651611328125,0.56011962890625,-0.1761322021484375
40078,0.727783203125,0.503265380859375,-0.1476898193359375
40079,0.7764892578125,0.4331817626953125,-0.1319580078125
40080,0.8242645263671875,0.3595733642578125,-0.1364288330078125
40081,0.8729400634765625,0.3024749755859375,-0.15667724609375
40082,0.9350738525390624,0.2638092041015625,-0.171478271484375
40083,1.005279541015625,0.233489990234375,-0.1545257568359375
40084,1.074188232421875,0.2076263427734375,-0.1256561279296875
40085,1.129714965820312,0.1912994384765625,-0.09619140625
40086,1.1591796875,0.1852264404296875,-0.0594635009765625
40087,1.16314697265625,0.198760986328125,-0.0399932861328125
40088,1.128875732421875,0.2398834228515625,-0.0310211181640625
40089,1.073776245117188,0.303558349609375,-0.0411224365234375
40090,1.032119750976562,0.3643951416015625,-0.05859375
40091,1.003036499023438,0.4245452880859375,-0.0741119384765625
40092,0.9665985107421876,0.4900665283203125,-0.0916595458984375
40093,0.9190521240234376,0.5560150146484375,-0.1200714111328125
40094,0.876678466796875,0.62567138671875,-0.1652984619140625
40095,0.8417510986328125,0.707733154296875,-0.2010955810546875
40096,0.815277099609375,0.8058319091796875,-0.2321929931640625
40097,0.7963714599609375,0.9054412841796876,-0.2616119384765625
40098,0.772064208984375,0.989715576171875,-0.2855377197265625
40099,0.71844482421875,1.043533325195312,-0.295654296875
40100,0.6415557861328125,1.056915283203125,-0.30218505859375
40101,0.56890869140625,1.024429321289062,-0.2975006103515625
40102,0.511749267578125,0.953857421875,-0.299713134765625
40103,0.4698638916015625,0.8746490478515625,-0.319183349609375
40104,0.4495849609375,0.8113555908203125,-0.32952880859375
40105,0.465087890625,0.7626190185546875,-0.313385009765625
40106,0.5088653564453125,0.7360382080078125,-0.2792816162109375
40107,0.566375732421875,0.7266845703125,-0.2506561279296875
40108,0.633087158203125,0.7315826416015625,-0.2344512939453125
40109,0.70721435546875,0.7293243408203125,-0.2393951416015625
40110,0.787353515625,0.71026611328125,-0.244903564453125
40111,0.865142822265625,0.679412841796875,-0.2480010986328125
40112,0.9227752685546876,0.6360321044921875,-0.2659759521484375
40113,0.949127197265625,0.5900726318359375,-0.30645751953125
40114,0.9310455322265624,0.5659942626953125,-0.3567352294921875
40115,0.86871337890625,0.5561981201171875,-0.387237548828125
40116,0.782470703125,0.5351715087890625,-0.3857269287109375
40117,0.6915435791015625,0.5078277587890625,-0.3678741455078125
40118,0.5988616943359375,0.4818572998046875,-0.343414306640625
40119,0.510009765625,0.467681884765625,-0.3226165771484375
40120,0.4381103515625,0.4801025390625,-0.3137359619140625
40121,0.3920745849609375,0.5377960205078125,-0.32366943359375
40122,0.3653717041015625,0.637664794921875,-0.348846435546875
40123,0.3575439453125,0.7528533935546875,-0.376190185546875
40124,0.365142822265625,0.8811492919921875,-0.387725830078125
40125,0.3834686279296875,1.0079345703125,-0.387176513671875
40126,0.3990478515625,1.107406616210938,-0.3831024169921875
40127,0.407257080078125,1.162551879882812,-0.3824615478515625
40128,0.41259765625,1.176483154296875,-0.3841552734375
40129,0.4155120849609375,1.15960693359375,-0.3595733642578125
40130,0.4297943115234375,1.116287231445312,-0.301666259765625
40131,0.4626007080078125,1.056991577148438,-0.241790771484375
40132,0.48638916015625,0.9857025146484376,-0.1891021728515625
40133,0.5024261474609375,0.9192047119140624,-0.1486968994140625
40134,0.538299560546875,0.8716583251953125,-0.1388092041015625
40135,0.5948944091796875,0.8348388671875,-0.1634979248046875
40136,0.670989990234375,0.799468994140625,-0.2116241455078125
40137,0.75732421875,0.7718048095703125,-0.256500244140625
40138,0.8347625732421875,0.7529449462890625,-0.27618408203125
40139,0.8899688720703125,0.7279052734375,-0.2657318115234375
40140,0.920501708984375,0.6750946044921875,-0.22552490234375
40141,0.924774169921875,0.5921173095703125,-0.1753082275390625
40142,0.9076690673828124,0.4867095947265625,-0.14300537109375
40143,0.8837127685546875,0.3759307861328125,-0.139007568359375
40144,0.8739471435546875,0.27825927734375,-0.1551361083984375
40145,0.8847198486328125,0.2030487060546875,-0.16986083984375
40146,0.9141693115234376,0.146881103515625,-0.1820831298828125
40147,0.9633636474609376,0.1123046875,-0.1920013427734375
40148,1.0281982421875,0.1039886474609375,-0.200164794921875
40149,1.10174560546875,0.12841796875,-0.20587158203125
40150,1.156692504882812,0.191925048828125,-0.1798858642578125
40151,1.163421630859375,0.2855682373046875,-0.1337432861328125
40152,1.142532348632812,0.3650970458984375,-0.126312255859375
40153,1.110321044921875,0.4386749267578125,-0.1290435791015625
40154,1.059112548828125,0.512176513671875,-0.127471923828125
40155,0.9784088134765624,0.581939697265625,-0.1472625732421875
40156,0.876312255859375,0.640533447265625,-0.1820831298828125
40157,0.771728515625,0.68450927734375,-0.2133636474609375
40158,0.68487548828125,0.7173004150390625,-0.23443603515625
40159,0.6220703125,0.741851806640625,-0.2487945556640625
40160,0.5773162841796875,0.7635498046875,-0.256591796875
40161,0.54052734375,0.781829833984375,-0.265869140625
40162,0.51007080078125,0.8031005859375,-0.2869110107421875
40163,0.4911956787109375,0.824920654296875,-0.3232421875
40164,0.4864501953125,0.8378143310546875,-0.3746490478515625
40165,0.487335205078125,0.8443603515625,-0.421966552734375
40166,0.492156982421875,0.8469390869140625,-0.453857421875
40167,0.5013427734375,0.8400115966796875,-0.4673309326171875
40168,0.5205535888671875,0.82464599609375,-0.4685821533203125
40169,0.541778564453125,0.8231964111328125,-0.4632720947265625
40170,0.55816650390625,0.8450775146484375,-0.43756103515625
40171,0.5689697265625,0.877685546875,-0.390350341796875
40172,0.5676116943359375,0.9023284912109376,-0.3383941650390625
40173,0.5635986328125,0.9007568359375,-0.287689208984375
40174,0.5502777099609375,0.874114990234375,-0.223724365234375
40175,0.5287628173828125,0.8270263671875,-0.1668853759765625
40176,0.5087432861328125,0.7607421875,-0.128082275390625
40177,0.4864501953125,0.687774658203125,-0.111724853515625
40178,0.462158203125,0.620269775390625,-0.123443603515625
40179,0.4475555419921875,0.56976318359375,-0.1413421630859375
40180,0.4428253173828125,0.5435791015625,-0.15185546875
40181,0.45587158203125,0.5402374267578125,-0.169647216796875
40182,0.4888763427734375,0.557830810546875,-0.1954803466796875
40183,0.5354766845703125,0.586822509765625,-0.2243194580078125
40184,0.5889129638671875,0.62353515625,-0.246856689453125
40185,0.6518096923828125,0.665557861328125,-0.2712860107421875
40186,0.7181243896484375,0.7129058837890625,-0.281890869140625
40187,0.7705230712890625,0.7629241943359375,-0.283355712890625
40188,0.796051025390625,0.8097076416015625,-0.2869873046875
40189,0.78857421875,0.8429107666015625,-0.2970123291015625
40190,0.7549591064453125,0.85894775390625,-0.3173370361328125
40191,0.7081298828125,0.8645172119140625,-0.3394317626953125
40192,0.651153564453125,0.8727569580078125,-0.3515167236328125
40193,0.584869384765625,0.8849639892578125,-0.3510284423828125
40194,0.52056884765625,0.8844146728515625,-0.334808349609375
40195,0.4842529296875,0.854644775390625,-0.3098907470703125
40196,0.484954833984375,0.806732177734375,-0.2928466796875
40197,0.5023193359375,0.7726593017578125,-0.277923583984375
40198,0.5215606689453125,0.7444000244140625,-0.257415771484375
40199,0.541259765625,0.71697998046875,-0.229522705078125
40200,0.567962646484375,0.684814453125,-0.199981689453125
40201,0.5927581787109375,0.6505279541015625,-0.1663665771484375
40202,0.6026153564453125,0.6056365966796875,-0.1217803955078125
40203,0.5999908447265625,0.5454559326171875,-0.0762939453125
40204,0.60107421875,0.4739837646484375,-0.0504608154296875
40205,0.61224365234375,0.400238037109375,-0.0422515869140625
40206,0.6383819580078125,0.335662841796875,-0.050537109375
40207,0.6839141845703125,0.2923583984375,-0.0701751708984375
40208,0.74920654296875,0.2687835693359375,-0.097991943359375
40209,0.831207275390625,0.263580322265625,-0.1273193359375
40210,0.929107666015625,0.276824951171875,-0.146881103515625
40211,1.038375854492188,0.3058624267578125,-0.1608734130859375
40212,1.135940551757812,0.3574676513671875,-0.1652069091796875
40213,1.214431762695312,0.42230224609375,-0.157012939453125
40214,1.262191772460938,0.485015869140625,-0.13934326171875
40215,1.271820068359375,0.5454559326171875,-0.1285552978515625
40216,1.241744995117188,0.600372314453125,-0.1347198486328125
40217,1.173904418945312,0.648773193359375,-0.1552886962890625
40218,1.081893920898438,0.690765380859375,-0.1859283447265625
40219,0.9699859619140624,0.7297515869140625,-0.21337890625
40220,0.8453826904296875,0.76849365234375,-0.2274169921875
40221,0.727691650390625,0.8047332763671875,-0.228607177734375
40222,0.6284027099609375,0.835968017578125,-0.220672607421875
40223,0.548370361328125,0.8615570068359375,-0.21441650390625
40224,0.485595703125,0.8749542236328125,-0.209136962890625
40225,0.4371795654296875,0.8775177001953125,-0.198486328125
40226,0.407928466796875,0.8719635009765625,-0.1957855224609375
40227,0.4031219482421875,0.856689453125,-0.1981658935546875
40228,0.4311370849609375,0.83953857421875,-0.2071075439453125
40229,0.487457275390625,0.82330322265625,-0.2117462158203125
40230,0.5573577880859375,0.8066864013671875,-0.20306396484375
40231,0.6380767822265625,0.794921875,-0.1926727294921875
40232,0.721893310546875,0.7911834716796875,-0.188323974609375
40233,0.8029632568359375,0.78948974609375,-0.19244384765625
40234,0.8793182373046875,0.7826995849609375,-0.1966705322265625
40235,0.9404296875,0.765899658203125,-0.2096099853515625
40236,0.97003173828125,0.7445220947265625,-0.237091064453125
40237,0.940948486328125,0.718017578125,-0.2624359130859375
40238,0.8849334716796875,0.681365966796875,-0.2849273681640625
40239,0.832977294921875,0.6484375,-0.3023834228515625
40240,0.7747650146484375,0.620574951171875,-0.30523681640625
40241,0.71337890625,0.599273681640625,-0.283843994140625
40242,0.6499481201171875,0.5734710693359375,-0.249267578125
40243,0.587646484375,0.542999267578125,-0.217529296875
40244,0.5234832763671875,0.5178680419921875,-0.2003936767578125
40245,0.466461181640625,0.5026397705078125,-0.1988983154296875
40246,0.4323577880859375,0.5008697509765625,-0.207977294921875
40247,0.4300537109375,0.5182952880859375,-0.2282562255859375
40248,0.443634033203125,0.5668487548828125,-0.2627410888671875
40249,0.4620208740234375,0.642578125,-0.3023834228515625
40250,0.49627685546875,0.7266387939453125,-0.3330841064453125
40251,0.5450286865234375,0.815643310546875,-0.3482513427734375
40252,0.5927886962890625,0.8991241455078125,-0.340301513671875
40253,0.6104583740234375,0.9599609375,-0.3193817138671875
40254,0.586029052734375,0.990936279296875,-0.3003082275390625
40255,0.5283203125,0.983306884765625,-0.28509521484375
40256,0.4607391357421875,0.9491119384765624,-0.2534027099609375
40257,0.4193572998046875,0.9099273681640624,-0.2184600830078125
40258,0.4200286865234375,0.875274658203125,-0.189605712890625
40259,0.4497833251953125,0.8477020263671875,-0.1671295166015625
40260,0.4916839599609375,0.8291778564453125,-0.1487884521484375
40261,0.5496063232421875,0.808135986328125,-0.1428680419921875
40262,0.6204071044921875,0.7762603759765625,-0.1428070068359375
40263,0.6859130859375,0.7280426025390625,-0.134368896484375
40264,0.7467803955078125,0.66265869140625,-0.119049072265625
40265,0.80743408203125,0.58758544921875,-0.10076904296875
40266,0.8745269775390625,0.5061492919921875,-0.102813720703125
40267,0.9391937255859376,0.4300994873046875,-0.1226806640625
40268,0.9997406005859376,0.36553955078125,-0.15289306640625
40269,1.056427001953125,0.3191680908203125,-0.171112060546875
40270,1.103530883789062,0.2910308837890625,-0.1461944580078125
40271,1.121810913085938,0.2742919921875,-0.0917510986328125
40272,1.110183715820312,0.2717437744140625,-0.0390625
40273,1.106460571289062,0.297271728515625,-0.02386474609375
40274,1.136734008789062,0.3522491455078125,-0.038299560546875
40275,1.177734375,0.4171600341796875,-0.0716400146484375
40276,1.211517333984375,0.4780731201171875,-0.1261138916015625
40277,1.24530029296875,0.5286102294921875,-0.1937713623046875
40278,1.276565551757812,0.5659332275390625,-0.278411865234375
40279,1.2972412109375,0.5816192626953125,-0.3239593505859375
40280,1.339309692382812,0.5414886474609375,-0.2750701904296875
40281,1.277008056640625,0.491455078125,-0.1065216064453125
40282,1.00164794921875,0.46429443359375,0.1396484375
40283,0.651763916015625,0.3903656005859375,0.2421417236328125
40284,0.33294677734375,0.282958984375,0.2159271240234375
40285,0.0993194580078125,0.2255859375,0.1894989013671875
40286,-0.0106658935546875,0.2097015380859375,0.2556610107421875
40287,-0.08074951171875,0.2476043701171875,0.4695587158203125
40288,-0.2188568115234375,0.2835235595703125,0.7674560546875
40289,-0.4365692138671875,0.323822021484375,1.094192504882812
40290,-0.731292724609375,0.366668701171875,1.64044189453125
40291,-1.039581298828125,0.1915740966796875,2.378524780273438
40292,-1.154388427734375,-0.1976318359375,2.843002319335938
40293,-0.925384521484375,-0.2795257568359375,2.611343383789062
40294,-0.3544921875,-0.291046142578125,1.805007934570312
40295,0.1292877197265625,-0.2131195068359375,1.529083251953125
40296,0.843536376953125,0.14752197265625,-0.0523223876953125
40297,2.292724609375,0.7909393310546875,-4.957809448242188
40298,6.844146728515625,3.38922119140625,-6.60467529296875
40299,6.489883422851562,7.395767211914062,6.097000122070312
40300,2.428054809570312,7.595703125,1.087799072265625
40301,-1.991973876953125,4.4591064453125,-2.146682739257812
40302,-2.55963134765625,1.734115600585938,0.771026611328125
40303,-1.787612915039062,-0.19769287109375,1.26507568359375
40304,-1.188018798828125,-0.87799072265625,0.357421875
40305,-0.423126220703125,-0.4309539794921875,-0.5529632568359375
40306,0.5435638427734375,0.823883056640625,-1.131484985351562
40307,0.99224853515625,1.748397827148438,-1.130783081054688
40308,1.223831176757812,1.715972900390625,-1.1661376953125
40309,1.449127197265625,1.674819946289062,-0.7631378173828125
40310,1.380447387695312,1.686431884765625,-0.3580780029296875
40311,1.018417358398438,1.49200439453125,-0.3068084716796875
40312,0.6865081787109375,1.15814208984375,-0.2101287841796875
40313,0.598968505859375,1.001266479492188,-0.21221923828125
40314,0.6528778076171875,0.98272705078125,-0.353607177734375
40315,0.6011962890625,0.875030517578125,-0.3577728271484375
40316,0.51531982421875,0.7711639404296875,-0.351654052734375
40317,0.4759674072265625,0.6654510498046875,-0.3607025146484375
40318,0.4720306396484375,0.54833984375,-0.3716888427734375
40319,0.4622650146484375,0.41998291015625,-0.309814453125
40320,0.46051025390625,0.2831573486328125,-0.1764068603515625
40321,0.5027313232421875,0.15802001953125,-0.099609375
40322,0.5458831787109375,0.063751220703125,-0.1751861572265625
40323,0.57073974609375,0.0235595703125,-0.3444061279296875
40324,0.5624542236328125,0.0425262451171875,-0.4913787841796875
40325,0.5149383544921875,0.104644775390625,-0.6170654296875
40326,0.4750518798828125,0.1600799560546875,-0.7332305908203125
40327,0.4674224853515625,0.2222900390625,-0.8156585693359375
40328,0.4822235107421875,0.306488037109375,-0.8328857421875
40329,0.51947021484375,0.396270751953125,-0.77081298828125
40330,0.57275390625,0.489349365234375,-0.5338592529296875
40331,0.6793975830078125,0.5666656494140625,-0.2943267822265625
40332,0.8251495361328125,0.6342010498046875,-0.1462554931640625
40333,0.9740447998046876,0.659271240234375,-0.152862548828125
40334,1.103500366210938,0.6484222412109375,-0.3491058349609375
40335,1.193618774414062,0.6491241455078125,-0.5523681640625
40336,1.226303100585938,0.663726806640625,-0.6314239501953125
40337,1.169418334960938,0.676177978515625,-0.6268157958984375
40338,1.03375244140625,0.71490478515625,-0.629180908203125
40339,0.916656494140625,0.801239013671875,-0.5347137451171875
40340,0.8385467529296875,0.8779754638671875,-0.3549041748046875
40341,0.7388763427734375,0.890869140625,-0.282745361328125
40342,0.5889739990234375,0.8684539794921875,-0.3536529541015625
40343,0.45623779296875,0.80859375,-0.4879302978515625
40344,0.45941162109375,0.733184814453125,-0.598114013671875
40345,0.5887298583984375,0.6674652099609375,-0.581390380859375
40346,0.7071685791015625,0.5999603271484375,-0.518798828125
40347,0.77777099609375,0.5409698486328125,-0.4552154541015625
40348,0.854583740234375,0.4698486328125,-0.4161529541015625
40349,0.9201507568359376,0.38372802734375,-0.4091796875
40350,0.9720001220703124,0.281524658203125,-0.4439239501953125
40351,1.00347900390625,0.18585205078125,-0.489166259765625
40352,1.017898559570312,0.1309051513671875,-0.53466796875
40353,1.033432006835938,0.1213531494140625,-0.5682830810546875
40354,1.044479370117188,0.1441802978515625,-0.5455780029296875
40355,1.016510009765625,0.184112548828125,-0.4641265869140625
40356,0.9394989013671876,0.214508056640625,-0.36224365234375
40357,0.839263916015625,0.2108917236328125,-0.288909912109375
40358,0.7521209716796875,0.1873321533203125,-0.2714996337890625
40359,0.6898193359375,0.1441650390625,-0.3063507080078125
40360,0.657257080078125,0.0936279296875,-0.363372802734375
40361,0.656982421875,0.05743408203125,-0.42340087890625
40362,0.664947509765625,0.0474700927734375,-0.4568634033203125
40363,0.658294677734375,0.08172607421875,-0.4375457763671875
40364,0.6433258056640625,0.1278228759765625,-0.3851470947265625
40365,0.629119873046875,0.16650390625,-0.3179168701171875
40366,0.6173095703125,0.211944580078125,-0.26605224609375
40367,0.6001434326171875,0.26312255859375,-0.251251220703125
40368,0.579559326171875,0.30584716796875,-0.289337158203125
40369,0.5622406005859375,0.350860595703125,-0.3761444091796875
40370,0.54876708984375,0.4172515869140625,-0.4914703369140625
40371,0.5355377197265625,0.51165771484375,-0.609466552734375
40372,0.514617919921875,0.616790771484375,-0.7086029052734375
40373,0.48504638671875,0.716949462890625,-0.772979736328125
40374,0.453948974609375,0.782318115234375,-0.8021392822265625
40375,0.4235382080078125,0.7950439453125,-0.7975921630859375
40376,0.3995208740234375,0.760955810546875,-0.7793121337890625
40377,0.3830108642578125,0.705047607421875,-0.761932373046875
40378,0.37420654296875,0.664886474609375,-0.727294921875
40379,0.370819091796875,0.6688385009765625,-0.6781005859375
40380,0.3853302001953125,0.6929931640625,-0.62249755859375
40381,0.417388916015625,0.7185821533203125,-0.5750732421875
40382,0.47418212890625,0.731201171875,-0.5241241455078125
40383,0.567352294921875,0.7202606201171875,-0.468475341796875
40384,0.6402740478515625,0.699432373046875,-0.412750244140625
40385,0.678741455078125,0.6717681884765625,-0.3973541259765625
40386,0.714019775390625,0.6377716064453125,-0.404510498046875
40387,0.752593994140625,0.5987701416015625,-0.4160919189453125
40388,0.7960052490234375,0.53515625,-0.4268951416015625
40389,0.8370513916015625,0.456787109375,-0.403594970703125
40390,0.88128662109375,0.3719024658203125,-0.372589111328125
40391,0.9076995849609376,0.2980804443359375,-0.3337554931640625
40392,0.891357421875,0.249847412109375,-0.274444580078125
40393,0.821441650390625,0.2224884033203125,-0.2044830322265625
40394,0.7015533447265625,0.207122802734375,-0.1546478271484375
40395,0.5629730224609375,0.2159271240234375,-0.1397552490234375
40396,0.450164794921875,0.2429962158203125,-0.1396942138671875
40397,0.382720947265625,0.27655029296875,-0.132232666015625
40398,0.352935791015625,0.3058624267578125,-0.0993194580078125
40399,0.3609771728515625,0.326904296875,-0.0482177734375
40400,0.4093170166015625,0.3441162109375,0.012908935546875
40401,0.48748779296875,0.35845947265625,0.0634918212890625
40402,0.5804901123046875,0.3806610107421875,0.061767578125
40403,0.6718902587890625,0.415496826171875,0.010162353515625
40404,0.7524871826171875,0.4609375,-0.0911865234375
40405,0.828857421875,0.519500732421875,-0.2625579833984375
40406,0.9073028564453124,0.5944671630859375,-0.5010223388671875
40407,1.0106201171875,0.6816558837890625,-0.779754638671875
40408,1.14349365234375,0.7802886962890625,-1.013320922851562
40409,1.259384155273438,0.8874359130859375,-1.10394287109375
40410,1.299423217773438,0.9864959716796876,-0.972900390625
40411,1.25531005859375,1.023849487304688,-0.69781494140625
40412,1.147109985351562,0.97119140625,-0.402099609375
40413,1.025253295898438,0.8445892333984375,-0.1681976318359375
40414,0.9293365478515624,0.7200927734375,-0.0485992431640625
40415,0.8511199951171875,0.664093017578125,-0.0100555419921875
40416,0.778228759765625,0.666656494140625,-0.0353851318359375
40417,0.7118682861328125,0.6840362548828125,-0.1196746826171875
40418,0.6466064453125,0.6905364990234375,-0.1921539306640625
40419,0.577972412109375,0.6792449951171875,-0.20733642578125
40420,0.50433349609375,0.6571807861328125,-0.1708984375
40421,0.436676025390625,0.6302032470703125,-0.105072021484375
40422,0.39208984375,0.603668212890625,-0.0370025634765625
40423,0.3768310546875,0.58099365234375,0.019622802734375
40424,0.404815673828125,0.5685577392578125,0.0408172607421875
40425,0.4636993408203125,0.575836181640625,0.0240020751953125
40426,0.515350341796875,0.58740234375,-0.01800537109375
40427,0.5701751708984375,0.5878753662109375,-0.0787353515625
40428,0.6488800048828125,0.581939697265625,-0.1478271484375
40429,0.738555908203125,0.5881805419921875,-0.226287841796875
40430,0.828521728515625,0.6114654541015625,-0.293365478515625
40431,0.9207611083984376,0.652099609375,-0.3227996826171875
40432,0.9907989501953124,0.708099365234375,-0.2940673828125
40433,1.0115966796875,0.7763519287109375,-0.226287841796875
40434,0.9815216064453124,0.83795166015625,-0.1490020751953125
40435,0.9203338623046876,0.872314453125,-0.1147003173828125
40436,0.843170166015625,0.8790740966796875,-0.120941162109375
40437,0.75177001953125,0.878143310546875,-0.131988525390625
40438,0.6675872802734375,0.8697509765625,-0.1328887939453125
40439,0.614227294921875,0.852508544921875,-0.1331634521484375
40440,0.6024017333984375,0.83258056640625,-0.1365509033203125
40441,0.622467041015625,0.8060760498046875,-0.144775390625
40442,0.6537017822265625,0.7738494873046875,-0.154205322265625
40443,0.6830291748046875,0.7447662353515625,-0.1667022705078125
40444,0.715087890625,0.7196197509765625,-0.1936492919921875
40445,0.754302978515625,0.6923065185546875,-0.22900390625
40446,0.789520263671875,0.6739654541015625,-0.2615203857421875
40447,0.8127899169921875,0.668792724609375,-0.27069091796875
40448,0.83721923828125,0.6663055419921875,-0.2570953369140625
40449,0.87200927734375,0.66607666015625,-0.2400360107421875
40450,0.9046478271484376,0.6768035888671875,-0.21856689453125
40451,0.9313812255859376,0.68548583984375,-0.1859588623046875
40452,0.9470062255859376,0.6798248291015625,-0.159759521484375
40453,0.9354705810546876,0.6699981689453125,-0.1830596923828125
40454,0.899993896484375,0.6648712158203125,-0.2462005615234375
40455,0.8462371826171875,0.6695556640625,-0.310882568359375
40456,0.76910400390625,0.65753173828125,-0.34515380859375
40457,0.6803131103515625,0.6154327392578125,-0.3338165283203125
40458,0.6035308837890625,0.5705413818359375,-0.2951812744140625
40459,0.54119873046875,0.54296875,-0.2625732421875
40460,0.4928436279296875,0.53375244140625,-0.251556396484375
40461,0.462005615234375,0.5379638671875,-0.2594757080078125
40462,0.44268798828125,0.558990478515625,-0.280914306640625
40463,0.4317626953125,0.60028076171875,-0.3049163818359375
40464,0.4258880615234375,0.662445068359375,-0.325469970703125
40465,0.4356231689453125,0.7350921630859375,-0.3369140625
40466,0.4531707763671875,0.8031158447265625,-0.3369903564453125
40467,0.464874267578125,0.87921142578125,-0.30499267578125
40468,0.4635162353515625,0.9468536376953124,-0.252777099609375
40469,0.446258544921875,0.9914093017578124,-0.2116851806640625
40470,0.4376373291015625,1.000228881835938,-0.182647705078125
40471,0.4674072265625,0.9689178466796876,-0.1502227783203125
40472,0.5319366455078125,0.9407501220703124,-0.0980377197265625
40473,0.6090240478515625,0.9356536865234376,-0.0577239990234375
40474,0.668426513671875,0.9374237060546876,-0.06451416015625
40475,0.6983489990234375,0.9017486572265624,-0.1271514892578125
40476,0.6979827880859375,0.8131103515625,-0.192962646484375
40477,0.692840576171875,0.6943206787109375,-0.2227783203125
40478,0.6856689453125,0.5830535888671875,-0.226593017578125
40479,0.666259765625,0.4924468994140625,-0.2303314208984375
40480,0.64697265625,0.434967041015625,-0.23492431640625
40481,0.6457366943359375,0.415496826171875,-0.227752685546875
40482,0.660797119140625,0.4384613037109375,-0.1901092529296875
40483,0.6893157958984375,0.49658203125,-0.1280975341796875
40484,0.7257843017578125,0.5561065673828125,-0.079010009765625
40485,0.7624053955078125,0.607452392578125,-0.0551910400390625
40486,0.8095550537109375,0.667449951171875,-0.048309326171875
40487,0.8779296875,0.734771728515625,-0.021270751953125
40488,0.9507904052734376,0.8021697998046875,0.0301971435546875
40489,1.003402709960938,0.8673095703125,0.075927734375
40490,1.03778076171875,0.9170989990234376,0.0846099853515625
40491,1.052398681640625,0.948944091796875,0.0452117919921875
40492,1.044052124023438,0.9693603515625,-0.00750732421875
40493,1.016387939453125,0.9735260009765624,-0.0483551025390625
40494,0.977081298828125,0.962677001953125,-0.0718231201171875
40495,0.9263763427734376,0.9459991455078124,-0.0784912109375
40496,0.8573150634765625,0.9014892578125,-0.0552215576171875
40497,0.7701263427734375,0.8305206298828125,-0.0249481201171875
40498,0.6746826171875,0.7642364501953125,-0.0065765380859375
40499,0.6110687255859375,0.7033538818359375,-0.0161590576171875
40500,0.592437744140625,0.655364990234375,-0.0410003662109375
40501,0.596923828125,0.6276702880859375,-0.0760345458984375
40502,0.605712890625,0.6228179931640625,-0.10906982421875
40503,0.62640380859375,0.6482086181640625,-0.128631591796875
40504,0.6601409912109375,0.706756591796875,-0.1322174072265625
40505,0.6911163330078125,0.806610107421875,-0.125885009765625
40506,0.706329345703125,0.8898773193359375,-0.1101531982421875
40507,0.7039642333984375,0.911041259765625,-0.091400146484375
40508,0.66162109375,0.8989105224609375,-0.0771636962890625
40509,0.58502197265625,0.84637451171875,-0.0683135986328125
40510,0.4979705810546875,0.7535400390625,-0.028564453125
40511,0.42388916015625,0.662628173828125,0.0328369140625
40512,0.3653564453125,0.6016387939453125,0.10528564453125
40513,0.3151092529296875,0.60296630859375,0.15350341796875
40514,0.2785491943359375,0.6498260498046875,0.1734161376953125
40515,0.263519287109375,0.7062530517578125,0.1714935302734375
40516,0.264892578125,0.763580322265625,0.1472930908203125
40517,0.2729034423828125,0.83477783203125,0.0955352783203125
40518,0.29205322265625,0.9104766845703124,0.01397705078125
40519,0.334808349609375,0.989166259765625,-0.09197998046875
40520,0.4083099365234375,1.078521728515625,-0.20050048828125
40521,0.474945068359375,1.174667358398438,-0.2664642333984375
40522,0.4956817626953125,1.27703857421875,-0.2984161376953125
40523,0.475189208984375,1.355636596679688,-0.3031768798828125
40524,0.4193115234375,1.383407592773438,-0.28057861328125
40525,0.3260040283203125,1.313949584960938,-0.2294921875
40526,0.2424163818359375,1.149246215820312,-0.1898345947265625
40527,0.2159576416015625,1.035232543945312,-0.169219970703125
40528,0.2264404296875,0.94903564453125,-0.142242431640625
40529,0.2555999755859375,0.8776092529296875,-0.13323974609375
40530,0.30078125,0.8194580078125,-0.1458740234375
40531,0.3685455322265625,0.7619171142578125,-0.1731414794921875
40532,0.457672119140625,0.714813232421875,-0.1861419677734375
40533,0.5638580322265625,0.6741485595703125,-0.18804931640625
40534,0.672821044921875,0.6370849609375,-0.1893157958984375
40535,0.766326904296875,0.6049346923828125,-0.173736572265625
40536,0.8333892822265625,0.5690155029296875,-0.1198577880859375
40537,0.868255615234375,0.5272979736328125,-0.0555267333984375
40538,0.8642120361328125,0.461578369140625,-0.0099029541015625
40539,0.8368377685546875,0.38189697265625,-0.0073089599609375
40540,0.812347412109375,0.3135223388671875,-0.027374267578125
40541,0.8041839599609375,0.2636871337890625,-0.0376739501953125
40542,0.8151397705078125,0.2249603271484375,-0.02227783203125
40543,0.841949462890625,0.1985321044921875,-0.000274658203125
40544,0.8765411376953125,0.1864471435546875,0.0054168701171875
40545,0.917236328125,0.19219970703125,-0.0003509521484375
40546,0.9577789306640624,0.2199249267578125,-0.0046539306640625
40547,1.00091552734375,0.2740325927734375,-0.015289306640625
40548,1.033859252929688,0.3772735595703125,-0.046722412109375
40549,1.047164916992188,0.49420166015625,-0.106781005859375
40550,1.046142578125,0.5882110595703125,-0.1798248291015625
40551,1.032073974609375,0.684814453125,-0.24432373046875
40552,0.999847412109375,0.79205322265625,-0.30718994140625
40553,0.9508514404296876,0.8889007568359375,-0.352935791015625
40554,0.891937255859375,0.9544525146484376,-0.360321044921875
40555,0.8271331787109375,0.9865264892578124,-0.348876953125
40556,0.7665863037109375,0.9799652099609376,-0.336883544921875
40557,0.7223052978515625,0.9394073486328124,-0.3191375732421875
40558,0.6973419189453125,0.8775787353515625,-0.3002777099609375
40559,0.6775054931640625,0.808380126953125,-0.28839111328125
40560,0.6560516357421875,0.75262451171875,-0.2905731201171875
40561,0.6424102783203125,0.715484619140625,-0.3020172119140625
40562,0.6504669189453125,0.6856536865234375,-0.3250274658203125
40563,0.660003662109375,0.6741180419921875,-0.34814453125
40564,0.6572418212890625,0.675323486328125,-0.3725433349609375
40565,0.657745361328125,0.678497314453125,-0.4007720947265625
40566,0.666046142578125,0.6743316650390625,-0.4289398193359375
40567,0.6708831787109375,0.663970947265625,-0.4521026611328125
40568,0.664581298828125,0.6519927978515625,-0.4535369873046875
40569,0.646728515625,0.631744384765625,-0.4243927001953125
40570,0.6280517578125,0.6087646484375,-0.3844146728515625
40571,0.6011199951171875,0.592864990234375,-0.3416595458984375
40572,0.563873291015625,0.592498779296875,-0.2940673828125
40573,0.51373291015625,0.604156494140625,-0.2489776611328125
40574,0.4678955078125,0.6235809326171875,-0.21826171875
40575,0.4410858154296875,0.646881103515625,-0.2105712890625
40576,0.437164306640625,0.689849853515625,-0.23187255859375
40577,0.4389190673828125,0.759613037109375,-0.2862091064453125
40578,0.448760986328125,0.8439178466796875,-0.3641510009765625
40579,0.471221923828125,0.9328765869140624,-0.4441986083984375
40580,0.4974822998046875,1.020355224609375,-0.4957275390625
40581,0.5082244873046875,1.088226318359375,-0.491973876953125
40582,0.475830078125,1.132736206054688,-0.4406280517578125
40583,0.3922119140625,1.145538330078125,-0.3898162841796875
40584,0.290191650390625,1.115432739257812,-0.3557281494140625
40585,0.2214202880859375,1.055770874023438,-0.33648681640625
40586,0.208587646484375,0.9860687255859376,-0.315185546875
40587,0.2334136962890625,0.91796875,-0.2834930419921875
40588,0.2558746337890625,0.8608245849609375,-0.2378997802734375
40589,0.2807769775390625,0.807373046875,-0.1827392578125
40590,0.3294677734375,0.752105712890625,-0.1373291015625
40591,0.41009521484375,0.7050933837890625,-0.1264495849609375
40592,0.5156707763671875,0.6704559326171875,-0.1460418701171875
40593,0.6318511962890625,0.6440277099609375,-0.1822662353515625
40594,0.7473907470703125,0.611328125,-0.2177581787109375
40595,0.85589599609375,0.54656982421875,-0.23931884765625
40596,0.949737548828125,0.437255859375,-0.2433319091796875
40597,1.01617431640625,0.3103179931640625,-0.2202911376953125
40598,1.052078247070312,0.2072296142578125,-0.1849517822265625
40599,1.060714721679688,0.1505279541015625,-0.1372222900390625
40600,1.052154541015625,0.132354736328125,-0.0926055908203125
40601,1.038986206054688,0.1292724609375,-0.056976318359375
40602,1.036376953125,0.141204833984375,-0.0233306884765625
40603,1.064208984375,0.1830902099609375,0.00921630859375
40604,1.130355834960938,0.2458648681640625,0.051055908203125
40605,1.224807739257812,0.3090362548828125,0.08648681640625
40606,1.316482543945312,0.36309814453125,0.0909576416015625
40607,1.393951416015625,0.40814208984375,0.056671142578125
40608,1.450607299804688,0.4408416748046875,-0.0032806396484375
40609,1.47088623046875,0.485076904296875,-0.08843994140625
40610,1.445587158203125,0.5593719482421875,-0.1965789794921875
40611,1.379730224609375,0.643585205078125,-0.2955474853515625
40612,1.279403686523438,0.71636962890625,-0.3511199951171875
40613,1.150161743164062,0.7689666748046875,-0.3726348876953125
40614,1.005386352539062,0.792388916015625,-0.373748779296875
40615,0.86578369140625,0.7809295654296875,-0.354705810546875
40616,0.7429962158203125,0.7480316162109375,-0.3092041015625
40617,0.6380462646484375,0.7114715576171875,-0.2572021484375
40618,0.5484161376953125,0.6812286376953125,-0.2241668701171875
40619,0.4675445556640625,0.6692962646484375,-0.2325592041015625
40620,0.3890380859375,0.6727447509765625,-0.287384033203125
40621,0.3250274658203125,0.6785430908203125,-0.3545989990234375
40622,0.2911834716796875,0.68133544921875,-0.420867919921875
40623,0.284149169921875,0.6961212158203125,-0.4653472900390625
40624,0.2898101806640625,0.72125244140625,-0.4682159423828125
40625,0.2983856201171875,0.756744384765625,-0.422760009765625
40626,0.303802490234375,0.790679931640625,-0.3390045166015625
40627,0.30902099609375,0.80450439453125,-0.236297607421875
40628,0.316680908203125,0.7994232177734375,-0.1289825439453125
40629,0.33416748046875,0.7957611083984375,-0.027984619140625
40630,0.3621063232421875,0.7994384765625,0.03692626953125
40631,0.386932373046875,0.7987060546875,0.0472564697265625
40632,0.4042510986328125,0.7868194580078125,0.0265655517578125
40633,0.43157958984375,0.7679595947265625,-0.00543212890625
40634,0.4725341796875,0.7628173828125,-0.0494384765625
40635,0.5121612548828125,0.7816009521484375,-0.0997314453125
40636,0.547027587890625,0.828643798828125,-0.161956787109375
40637,0.5785064697265625,0.8981475830078125,-0.2408599853515625
40638,0.6059417724609375,0.9611053466796876,-0.313232421875
40639,0.6295166015625,0.999114990234375,-0.3651123046875
40640,0.64752197265625,1.00067138671875,-0.3942108154296875
40641,0.656402587890625,0.971282958984375,-0.4027252197265625
40642,0.6430816650390625,0.9407958984375,-0.41522216796875
40643,0.5975189208984375,0.9298858642578124,-0.430633544921875
40644,0.5106048583984375,0.935791015625,-0.4274139404296875
40645,0.410888671875,0.9103240966796876,-0.3966064453125
40646,0.355712890625,0.829742431640625,-0.3462371826171875
40647,0.3410797119140625,0.752777099609375,-0.2993316650390625
40648,0.34564208984375,0.6980438232421875,-0.2666473388671875
40649,0.3736114501953125,0.6484832763671875,-0.25762939453125
40650,0.4223480224609375,0.59820556640625,-0.269195556640625
40651,0.4861907958984375,0.5533599853515625,-0.2873077392578125
40652,0.5564117431640625,0.5224609375,-0.2891998291015625
40653,0.615570068359375,0.509490966796875,-0.2609405517578125
40654,0.6661224365234375,0.4982757568359375,-0.191864013671875
40655,0.7109832763671875,0.472381591796875,-0.10205078125
40656,0.7462310791015625,0.42376708984375,-0.0449371337890625
40657,0.769073486328125,0.3672943115234375,-0.051239013671875
40658,0.7936553955078125,0.319183349609375,-0.0961151123046875
40659,0.8285369873046875,0.2905120849609375,-0.1475067138671875
40660,0.8809967041015625,0.275238037109375,-0.17523193359375
40661,0.93670654296875,0.274139404296875,-0.1748046875
40662,0.981719970703125,0.2826385498046875,-0.1445159912109375
40663,1.017837524414062,0.3020172119140625,-0.09271240234375
40664,1.047821044921875,0.3424835205078125,-0.0484466552734375
40665,1.059173583984375,0.403289794921875,-0.0140533447265625
40666,1.061843872070312,0.465301513671875,-0.016937255859375
40667,1.064666748046875,0.5264129638671875,-0.0642547607421875
40668,1.049957275390625,0.597381591796875,-0.1123504638671875
40669,1.026763916015625,0.6690826416015625,-0.16033935546875
40670,0.995391845703125,0.733306884765625,-0.1959991455078125
40671,0.9487152099609376,0.7874908447265625,-0.2152252197265625
40672,0.891693115234375,0.8283843994140625,-0.2180633544921875
40673,0.837310791015625,0.8576812744140625,-0.201416015625
40674,0.7938995361328125,0.8744659423828125,-0.1766357421875
40675,0.7692718505859375,0.8734283447265625,-0.1497955322265625
40676,0.76165771484375,0.8605194091796875,-0.1324920654296875
40677,0.762969970703125,0.848663330078125,-0.1358184814453125
40678,0.7573699951171875,0.836090087890625,-0.1581573486328125
40679,0.743499755859375,0.814178466796875,-0.183502197265625
40680,0.739654541015625,0.777862548828125,-0.2034759521484375
40681,0.765625,0.7242889404296875,-0.2226104736328125
40682,0.8169708251953125,0.6693572998046875,-0.235076904296875
40683,0.856048583984375,0.6417694091796875,-0.2371826171875
40684,0.87518310546875,0.6339263916015625,-0.235260009765625
40685,0.8850250244140625,0.6305999755859375,-0.2363128662109375
40686,0.885650634765625,0.627105712890625,-0.2422637939453125
40687,0.86895751953125,0.62542724609375,-0.245391845703125
40688,0.8299560546875,0.6192474365234375,-0.239959716796875
40689,0.7754974365234375,0.5998077392578125,-0.2389068603515625
40690,0.720550537109375,0.576629638671875,-0.25018310546875
40691,0.6652069091796875,0.568389892578125,-0.269287109375
40692,0.6071624755859375,0.570648193359375,-0.290008544921875
40693,0.54833984375,0.577911376953125,-0.295562744140625
40694,0.488250732421875,0.587738037109375,-0.2836761474609375
40695,0.43194580078125,0.6069793701171875,-0.2633056640625
40696,0.38909912109375,0.6359710693359375,-0.252105712890625
40697,0.37115478515625,0.68536376953125,-0.2517242431640625
40698,0.3743133544921875,0.7703857421875,-0.269195556640625
40699,0.37890625,0.8770751953125,-0.30950927734375
40700,0.3676910400390625,0.9783172607421876,-0.353118896484375
40701,0.3462677001953125,1.061172485351562,-0.37701416015625
40702,0.3241119384765625,1.119049072265625,-0.36651611328125
40703,0.298248291015625,1.144287109375,-0.3449859619140625
40704,0.2666168212890625,1.121246337890625,-0.334716796875
40705,0.2267913818359375,1.051925659179688,-0.303466796875
40706,0.1988983154296875,0.973907470703125,-0.24176025390625
40707,0.198455810546875,0.9052276611328124,-0.1847381591796875
40708,0.2157135009765625,0.8443145751953125,-0.1502227783203125
40709,0.244110107421875,0.7934112548828125,-0.1382904052734375
40710,0.2852630615234375,0.7486572265625,-0.13909912109375
40711,0.35015869140625,0.7067108154296875,-0.155029296875
40712,0.4475860595703125,0.67047119140625,-0.1784210205078125
40713,0.577392578125,0.640411376953125,-0.20477294921875
40714,0.713531494140625,0.6236724853515625,-0.213836669921875
40715,0.8224334716796875,0.61541748046875,-0.191680908203125
40716,0.9017181396484376,0.5727081298828125,-0.1400299072265625
40717,0.954498291015625,0.4735870361328125,-0.0878143310546875
40718,0.986114501953125,0.3561248779296875,-0.064361572265625
40719,1.015762329101562,0.26312255859375,-0.07958984375
40720,1.0560302734375,0.210357666015625,-0.0963134765625
40721,1.1097412109375,0.17864990234375,-0.07354736328125
40722,1.166046142578125,0.149383544921875,-0.0129547119140625
40723,1.228073120117188,0.12982177734375,0.0713043212890625
40724,1.298965454101562,0.1424102783203125,0.1853485107421875
40725,1.377395629882812,0.2046966552734375,0.301177978515625
40726,1.464157104492188,0.2928466796875,0.3218536376953125
40727,1.532211303710938,0.3694915771484375,0.2306671142578125
40728,1.570816040039062,0.434295654296875,0.0878753662109375
40729,1.59747314453125,0.5127105712890625,-0.075531005859375
40730,1.61761474609375,0.6016845703125,-0.209686279296875
40731,1.602828979492188,0.6699371337890625,-0.2451934814453125
40732,1.522186279296875,0.7061767578125,-0.1973876953125
40733,1.373580932617188,0.7157745361328125,-0.1240692138671875
40734,1.203704833984375,0.708465576171875,-0.0683746337890625
40735,1.035232543945312,0.6970062255859375,-0.0344390869140625
40736,0.8824462890625,0.674346923828125,-0.03839111328125
40737,0.75079345703125,0.6556396484375,-0.081146240234375
40738,0.6390228271484375,0.646942138671875,-0.1337127685546875
40739,0.54620361328125,0.644500732421875,-0.2009429931640625
40740,0.4703369140625,0.6487884521484375,-0.2648773193359375
40741,0.399444580078125,0.6633758544921875,-0.3194122314453125
40742,0.3212738037109375,0.6855010986328125,-0.3611602783203125
40743,0.25103759765625,0.701019287109375,-0.3708038330078125
40744,0.211761474609375,0.7063140869140625,-0.3403778076171875
40745,0.20458984375,0.7153472900390625,-0.275115966796875
40746,0.2130584716796875,0.7461090087890625,-0.189727783203125
40747,0.2152557373046875,0.8033447265625,-0.1058197021484375
40748,0.2095794677734375,0.8524932861328125,-0.03643798828125
40749,0.210540771484375,0.8662109375,0.011810302734375
40750,0.23992919921875,0.8577880859375,0.0472564697265625
40751,0.3005218505859375,0.8543853759765625,0.083831787109375
40752,0.3600311279296875,0.8477935791015625,0.0959930419921875
40753,0.389984130859375,0.8325347900390625,0.054229736328125
40754,0.395782470703125,0.8144683837890625,-0.014434814453125
40755,0.40545654296875,0.796142578125,-0.0843963623046875
40756,0.422332763671875,0.7945709228515625,-0.1547698974609375
40757,0.436309814453125,0.8328094482421875,-0.2395477294921875
40758,0.437957763671875,0.911041259765625,-0.3342742919921875
40759,0.433502197265625,1.00048828125,-0.4078521728515625
40760,0.4351654052734375,1.070770263671875,-0.4174652099609375
40761,0.44415283203125,1.114654541015625,-0.41595458984375
40762,0.4597015380859375,1.121505737304688,-0.4395294189453125
40763,0.478485107421875,1.089736938476562,-0.45892333984375
40764,0.4875030517578125,1.036346435546875,-0.4529571533203125
40765,0.4777374267578125,0.975677490234375,-0.414337158203125
40766,0.4555206298828125,0.9065704345703124,-0.3516998291015625
40767,0.450439453125,0.83038330078125,-0.2868499755859375
40768,0.4628753662109375,0.772125244140625,-0.2341156005859375
40769,0.483612060546875,0.7289276123046875,-0.2005157470703125
40770,0.524139404296875,0.6822357177734375,-0.1910858154296875
40771,0.578948974609375,0.6320037841796875,-0.1957550048828125
40772,0.65423583984375,0.5876312255859375,-0.21343994140625
40773,0.742889404296875,0.554656982421875,-0.226348876953125
40774,0.8368988037109375,0.5285491943359375,-0.2272186279296875
40775,0.9277801513671876,0.503814697265625,-0.1907958984375
40776,1.003494262695312,0.469879150390625,-0.1123504638671875
40777,1.043975830078125,0.412322998046875,-0.0380096435546875
40778,1.039382934570312,0.3394012451171875,-0.0181427001953125
40779,1.003036499023438,0.2730865478515625,-0.0525970458984375
40780,0.9665679931640624,0.220550537109375,-0.11297607421875
40781,0.9480133056640624,0.188690185546875,-0.16583251953125
40782,0.942901611328125,0.1735076904296875,-0.1820220947265625
40783,0.9479217529296876,0.1660308837890625,-0.1622314453125
40784,0.96075439453125,0.1680450439453125,-0.119232177734375
40785,0.9806365966796876,0.180633544921875,-0.072662353515625
40786,1.010696411132812,0.2089080810546875,-0.041595458984375
40787,1.03057861328125,0.2621002197265625,-0.023345947265625
40788,1.042160034179688,0.3438262939453125,-0.03985595703125
40789,1.054855346679688,0.4338226318359375,-0.084716796875
40790,1.054702758789062,0.5282135009765625,-0.12750244140625
40791,1.03607177734375,0.6192626953125,-0.170989990234375
40792,0.989349365234375,0.692901611328125,-0.20159912109375
40793,0.911468505859375,0.7530975341796875,-0.2233428955078125
40794,0.80950927734375,0.8079071044921875,-0.245513916015625
40795,0.7070159912109375,0.8634033203125,-0.2696075439453125
40796,0.62298583984375,0.9112701416015624,-0.2841949462890625
40797,0.55743408203125,0.93896484375,-0.290802001953125
40798,0.4990692138671875,0.9442901611328124,-0.29718017578125
40799,0.4414520263671875,0.9271240234375,-0.308197021484375
40800,0.396270751953125,0.896453857421875,-0.3113250732421875
40801,0.3782196044921875,0.856414794921875,-0.3085479736328125
40802,0.38665771484375,0.8104705810546875,-0.3062744140625
40803,0.4244232177734375,0.777099609375,-0.2998199462890625
40804,0.48883056640625,0.7628326416015625,-0.28778076171875
40805,0.5568084716796875,0.7607574462890625,-0.2834625244140625
40806,0.6165008544921875,0.7760009765625,-0.2922821044921875
40807,0.677947998046875,0.798736572265625,-0.31842041015625
40808,0.739410400390625,0.8079376220703125,-0.333160400390625
40809,0.77691650390625,0.7907257080078125,-0.327392578125
40810,0.7749786376953125,0.7493896484375,-0.32415771484375
40811,0.7382659912109375,0.70263671875,-0.33648681640625
40812,0.69049072265625,0.66912841796875,-0.3675994873046875
40813,0.64111328125,0.64471435546875,-0.3891754150390625
40814,0.584197998046875,0.623626708984375,-0.3814697265625
40815,0.52490234375,0.6070404052734375,-0.3679046630859375
40816,0.4719696044921875,0.5934600830078125,-0.3566436767578125
40817,0.42205810546875,0.583404541015625,-0.3426055908203125
40818,0.3825531005859375,0.5831756591796875,-0.3297119140625
40819,0.3601531982421875,0.6134185791015625,-0.3277587890625
40820,0.346435546875,0.6956024169921875,-0.34967041015625
40821,0.34814453125,0.8028411865234375,-0.4010162353515625
40822,0.3667449951171875,0.908935546875,-0.4515380859375
40823,0.3990020751953125,0.9985198974609376,-0.463653564453125
40824,0.4264373779296875,1.055038452148438,-0.4315185546875
40825,0.4404296875,1.08416748046875,-0.3949737548828125
40826,0.4422149658203125,1.07659912109375,-0.38311767578125
40827,0.4303436279296875,1.036102294921875,-0.3726959228515625
40828,0.4200592041015625,0.9843902587890624,-0.335693359375
40829,0.4272003173828125,0.93896484375,-0.288238525390625
40830,0.4539031982421875,0.893951416015625,-0.2410430908203125
40831,0.50030517578125,0.8475189208984375,-0.208770751953125
40832,0.5621795654296875,0.7943267822265625,-0.1966400146484375
40833,0.6416473388671875,0.737823486328125,-0.1951446533203125
40834,0.73846435546875,0.678558349609375,-0.196197509765625
40835,0.839019775390625,0.6308746337890625,-0.1920623779296875
40836,0.9272613525390624,0.5904388427734375,-0.1956329345703125
40837,0.994659423828125,0.5504150390625,-0.199310302734375
40838,1.030044555664062,0.5012969970703125,-0.1729278564453125
40839,1.030746459960938,0.43438720703125,-0.103424072265625
40840,0.9932403564453124,0.35272216796875,-0.0233612060546875
40841,0.93115234375,0.27838134765625,0.0246734619140625
40842,0.8743743896484375,0.2211761474609375,0.0429534912109375
40843,0.846588134765625,0.1904754638671875,0.0435943603515625
40844,0.8547515869140625,0.1934967041015625,0.0350341796875
40845,0.9046478271484376,0.2365570068359375,0.0216217041015625
40846,0.982696533203125,0.314453125,0.0121917724609375
40847,1.067733764648438,0.3955230712890625,-0.0011138916015625
40848,1.157333374023438,0.4818267822265625,-0.004913330078125
40849,1.267257690429688,0.5849609375,0.003814697265625
40850,1.372283935546875,0.6903839111328125,0.0176239013671875
40851,1.430221557617188,0.774383544921875,0.00836181640625
40852,1.417678833007812,0.808013916015625,-0.0457611083984375
40853,1.329071044921875,0.7974853515625,-0.107208251953125
40854,1.181991577148438,0.7758636474609375,-0.16448974609375
40855,1.021026611328125,0.7564544677734375,-0.2142181396484375
40856,0.88720703125,0.73370361328125,-0.23974609375
40857,0.788330078125,0.7055206298828125,-0.237060546875
40858,0.7021331787109375,0.6986846923828125,-0.228973388671875
40859,0.6148529052734375,0.715606689453125,-0.2386627197265625
40860,0.537506103515625,0.730010986328125,-0.267486572265625
40861,0.4775848388671875,0.7368927001953125,-0.3225860595703125
40862,0.438568115234375,0.7434234619140625,-0.3775787353515625
40863,0.4029998779296875,0.75054931640625,-0.4121246337890625
40864,0.3666534423828125,0.7601318359375,-0.430999755859375
40865,0.322784423828125,0.7689208984375,-0.4283447265625
40866,0.2805938720703125,0.7730560302734375,-0.405670166015625
40867,0.257110595703125,0.7661590576171875,-0.3647308349609375
40868,0.2573699951171875,0.7555084228515625,-0.3147735595703125
40869,0.2794342041015625,0.751861572265625,-0.25738525390625
40870,0.3104705810546875,0.757049560546875,-0.1939239501953125
40871,0.33758544921875,0.765533447265625,-0.1353912353515625
40872,0.365509033203125,0.772064208984375,-0.0951690673828125
40873,0.4033050537109375,0.7842864990234375,-0.0774383544921875
40874,0.448760986328125,0.8019256591796875,-0.068817138671875
40875,0.4883880615234375,0.82513427734375,-0.0765380859375
40876,0.52001953125,0.832489013671875,-0.109100341796875
40877,0.54302978515625,0.811370849609375,-0.1535797119140625
40878,0.563201904296875,0.7716217041015625,-0.186279296875
40879,0.58563232421875,0.747589111328125,-0.199859619140625
40880,0.60980224609375,0.7539520263671875,-0.2098846435546875
40881,0.621307373046875,0.791229248046875,-0.2295684814453125
40882,0.614410400390625,0.8475189208984375,-0.257843017578125
40883,0.5952911376953125,0.89312744140625,-0.278045654296875
40884,0.571197509765625,0.9134521484375,-0.2873077392578125
40885,0.553375244140625,0.9147796630859376,-0.304046630859375
40886,0.550323486328125,0.9086151123046876,-0.342376708984375
40887,0.5579376220703125,0.8968353271484375,-0.3898773193359375
40888,0.5627593994140625,0.88848876953125,-0.4353485107421875
40889,0.545745849609375,0.882965087890625,-0.465850830078125
40890,0.506072998046875,0.8748016357421875,-0.4850006103515625
40891,0.458892822265625,0.8592987060546875,-0.4954376220703125
40892,0.4247589111328125,0.818450927734375,-0.4913177490234375
40893,0.4097137451171875,0.7555694580078125,-0.46484375
40894,0.4024810791015625,0.69775390625,-0.4215545654296875
40895,0.4196929931640625,0.62762451171875,-0.3737335205078125
40896,0.4647216796875,0.550994873046875,-0.32476806640625
40897,0.528656005859375,0.47943115234375,-0.2852935791015625
40898,0.601043701171875,0.4257354736328125,-0.239288330078125
40899,0.677337646484375,0.390411376953125,-0.176727294921875
40900,0.750762939453125,0.359039306640625,-0.10748291015625
40901,0.8252410888671875,0.322418212890625,-0.059234619140625
40902,0.896636962890625,0.28662109375,-0.0516204833984375
40903,0.9524383544921876,0.25640869140625,-0.080291748046875
40904,0.9906158447265624,0.2408905029296875,-0.131866455078125
40905,1.014434814453125,0.2366943359375,-0.1838531494140625
40906,1.026229858398438,0.2399139404296875,-0.223541259765625
40907,1.026336669921875,0.2447967529296875,-0.2349395751953125
40908,1.019485473632812,0.249603271484375,-0.225738525390625
40909,0.9954681396484376,0.2576446533203125,-0.1932525634765625
40910,0.959869384765625,0.27862548828125,-0.1580047607421875
40911,0.928009033203125,0.321685791015625,-0.130645751953125
40912,0.90496826171875,0.38677978515625,-0.122467041015625
40913,0.891632080078125,0.4701995849609375,-0.13916015625
40914,0.8902740478515625,0.5669097900390625,-0.1635894775390625
40915,0.883087158203125,0.6726531982421875,-0.187713623046875
40916,0.8640289306640625,0.7809600830078125,-0.210205078125
40917,0.8350372314453125,0.8802337646484375,-0.2173309326171875
40918,0.7998199462890625,0.95355224609375,-0.2120819091796875
40919,0.761505126953125,0.9915008544921876,-0.2042236328125
40920,0.72784423828125,0.9958038330078124,-0.1894989013671875
40921,0.7038421630859375,0.981201171875,-0.1847991943359375
40922,0.698211669921875,0.9576263427734376,-0.1887359619140625
40923,0.7083740234375,0.9244537353515624,-0.197601318359375
40924,0.725982666015625,0.88604736328125,-0.211151123046875
40925,0.7493743896484375,0.85113525390625,-0.2266082763671875
40926,0.77679443359375,0.821746826171875,-0.239471435546875
40927,0.800811767578125,0.7924652099609375,-0.2559967041015625
40928,0.8092041015625,0.7667083740234375,-0.266998291015625
40929,0.795867919921875,0.745330810546875,-0.27496337890625
40930,0.7659149169921875,0.7349853515625,-0.2810821533203125
40931,0.726043701171875,0.7369842529296875,-0.2929840087890625
40932,0.6827545166015625,0.7353515625,-0.3149871826171875
40933,0.6317901611328125,0.7233428955078125,-0.3125762939453125
40934,0.5831756591796875,0.7045745849609375,-0.29071044921875
40935,0.5414581298828125,0.6925048828125,-0.2709808349609375
40936,0.5007476806640625,0.698455810546875,-0.2760009765625
40937,0.4631195068359375,0.7032318115234375,-0.3022613525390625
40938,0.428009033203125,0.6966400146484375,-0.325469970703125
40939,0.3941192626953125,0.6812744140625,-0.3316497802734375
40940,0.36444091796875,0.669036865234375,-0.3339385986328125
40941,0.337005615234375,0.66717529296875,-0.33697509765625
40942,0.3136749267578125,0.6751556396484375,-0.3443145751953125
40943,0.294708251953125,0.702362060546875,-0.365966796875
40944,0.2781219482421875,0.7564544677734375,-0.3931121826171875
40945,0.2613525390625,0.8348846435546875,-0.4110870361328125
40946,0.2355499267578125,0.9275360107421876,-0.397857666015625
40947,0.2112579345703125,1.018173217773438,-0.356597900390625
40948,0.2028045654296875,1.082107543945312,-0.31634521484375
40949,0.2057952880859375,1.10943603515625,-0.300323486328125
40950,0.216033935546875,1.094482421875,-0.303619384765625
40951,0.2351226806640625,1.052658081054688,-0.2884979248046875
40952,0.2550811767578125,1.00616455078125,-0.255401611328125
40953,0.2816162109375,0.95843505859375,-0.2315216064453125
40954,0.3182830810546875,0.912872314453125,-0.2328033447265625
40955,0.3709716796875,0.868408203125,-0.2548980712890625
40956,0.4429779052734375,0.8273468017578125,-0.286407470703125
40957,0.5372467041015625,0.78411865234375,-0.3141326904296875
40958,0.655242919921875,0.7311248779296875,-0.3132171630859375
40959,0.7907562255859375,0.673492431640625,-0.2689666748046875
40960,0.9310150146484376,0.6149444580078125,-0.18731689453125
40961,1.053146362304688,0.5576019287109375,-0.095916748046875
40962,1.138580322265625,0.4931640625,-0.006011962890625
40963,1.162857055664062,0.4096221923828125,0.0689239501953125
40964,1.128311157226562,0.32647705078125,0.08734130859375
40965,1.07012939453125,0.27825927734375,0.053375244140625
40966,1.023147583007812,0.2592010498046875,0.0137481689453125
40967,0.9926300048828124,0.2477569580078125,-0.0090179443359375
40968,0.9913330078125,0.244171142578125,-0.000579833984375
40969,1.029708862304688,0.259613037109375,0.0361480712890625
40970,1.094039916992188,0.3054962158203125,0.0898895263671875
40971,1.166748046875,0.3694610595703125,0.1389617919921875
40972,1.229080200195312,0.4290924072265625,0.1742706298828125
40973,1.278152465820312,0.5032196044921875,0.198028564453125
40974,1.316116333007812,0.5947418212890625,0.1941070556640625
40975,1.341903686523438,0.69293212890625,0.1585845947265625
40976,1.350051879882812,0.7831878662109375,0.107269287109375
40977,1.323745727539062,0.857269287109375,0.05145263671875
40978,1.242462158203125,0.905548095703125,0.0055084228515625
40979,1.10980224609375,0.91485595703125,-0.02008056640625
40980,0.9568023681640624,0.8795928955078125,-0.032257080078125
40981,0.8263397216796875,0.7938232421875,-0.0360260009765625
40982,0.72943115234375,0.6977081298828125,-0.0426025390625
40983,0.6513214111328125,0.6318511962890625,-0.054168701171875
40984,0.5777740478515625,0.5927276611328125,-0.0675506591796875
40985,0.5097198486328125,0.5633392333984375,-0.090362548828125
40986,0.4512939453125,0.5480499267578125,-0.1321563720703125
40987,0.412689208984375,0.5467529296875,-0.187835693359375
40988,0.3905792236328125,0.5580291748046875,-0.2401275634765625
40989,0.37225341796875,0.5745697021484375,-0.272857666015625
40990,0.36053466796875,0.5880889892578125,-0.29351806640625
40991,0.3504180908203125,0.62213134765625,-0.284576416015625
40992,0.360565185546875,0.68896484375,-0.2756195068359375
40993,0.397247314453125,0.7808837890625,-0.24078369140625
40994,0.4260406494140625,0.8707275390625,-0.217132568359375
40995,0.4264373779296875,0.9528961181640624,-0.2266693115234375
40996,0.41851806640625,1.028045654296875,-0.2191009521484375
40997,0.4307098388671875,1.078903198242188,-0.15948486328125
40998,0.4614105224609375,1.108688354492188,-0.0780487060546875
40999,0.4926910400390625,1.127639770507812,-0.0282135009765625
41000,0.497802734375,1.122726440429688,-0.0310821533203125
41001,0.4712677001953125,1.083953857421875,-0.088104248046875
41002,0.4347381591796875,1.028411865234375,-0.1418609619140625
41003,0.4021453857421875,0.973907470703125,-0.17364501953125
41004,0.36138916015625,0.92462158203125,-0.2012176513671875
41005,0.319549560546875,0.90740966796875,-0.2427215576171875
41006,0.2919158935546875,0.90838623046875,-0.3015899658203125
41007,0.2934722900390625,0.8969573974609375,-0.34783935546875
41008,0.3270263671875,0.876190185546875,-0.3404693603515625
41009,0.3772430419921875,0.876861572265625,-0.3077850341796875
41010,0.416107177734375,0.8947601318359375,-0.3041534423828125
41011,0.4478302001953125,0.9059600830078124,-0.3553009033203125
41012,0.48052978515625,0.91058349609375,-0.4617156982421875
41013,0.5153350830078125,0.9205169677734376,-0.55523681640625
41014,0.54608154296875,0.933441162109375,-0.564361572265625
41015,0.56243896484375,0.9149627685546876,-0.4873504638671875
41016,0.556243896484375,0.855072021484375,-0.391448974609375
41017,0.5410919189453125,0.785675048828125,-0.3079986572265625
41018,0.5319976806640625,0.710296630859375,-0.2508697509765625
41019,0.5369720458984375,0.631134033203125,-0.2187042236328125
41020,0.5637054443359375,0.56158447265625,-0.197967529296875
41021,0.609588623046875,0.5145263671875,-0.1698150634765625
41022,0.663787841796875,0.490020751953125,-0.12359619140625
41023,0.712890625,0.479461669921875,-0.06463623046875
41024,0.7520599365234375,0.4664306640625,-0.0033721923828125
41025,0.7874755859375,0.4428558349609375,0.04168701171875
41026,0.824188232421875,0.4091339111328125,0.0467376708984375
41027,0.860748291015625,0.371246337890625,0.0230255126953125
41028,0.904632568359375,0.33184814453125,-0.00775146484375
41029,0.9560699462890624,0.2940216064453125,-0.0212554931640625
41030,1.0118408203125,0.266082763671875,-0.021728515625
41031,1.067581176757812,0.251129150390625,-0.0196533203125
41032,1.112228393554688,0.256134033203125,-0.0192718505859375
41033,1.131423950195312,0.2870330810546875,-0.0113983154296875
41034,1.109207153320312,0.342681884765625,-0.0015869140625
41035,1.050338745117188,0.403411865234375,0.00567626953125
41036,0.992828369140625,0.458099365234375,-0.005340576171875
41037,0.9522705078125,0.5194244384765625,-0.0135345458984375
41038,0.92413330078125,0.5832672119140625,-0.029510498046875
41039,0.8917694091796875,0.6443634033203125,-0.034271240234375
41040,0.8480224609375,0.6977081298828125,-0.0410003662109375
41041,0.79412841796875,0.73443603515625,-0.051300048828125
41042,0.7354583740234375,0.7502899169921875,-0.070465087890625
41043,0.677093505859375,0.7546234130859375,-0.0886688232421875
41044,0.6253814697265625,0.762298583984375,-0.10430908203125
41045,0.592376708984375,0.780517578125,-0.1298980712890625
41046,0.5770263671875,0.8045196533203125,-0.153778076171875
41047,0.581207275390625,0.8286285400390625,-0.169830322265625
41048,0.6106719970703125,0.8468475341796875,-0.1710357666015625
41049,0.666595458984375,0.8633880615234375,-0.169830322265625
41050,0.7451324462890625,0.877716064453125,-0.17889404296875
41051,0.82366943359375,0.8816680908203125,-0.1981353759765625
41052,0.882843017578125,0.8824310302734375,-0.23907470703125
41053,0.899505615234375,0.8953094482421875,-0.2939300537109375
41054,0.859466552734375,0.9052734375,-0.339508056640625
41055,0.77667236328125,0.9005584716796875,-0.3718414306640625
41056,0.6811370849609375,0.887359619140625,-0.3882598876953125
41057,0.5833892822265625,0.8699798583984375,-0.413909912109375
41058,0.4939117431640625,0.83319091796875,-0.4557952880859375
41059,0.41595458984375,0.769317626953125,-0.4703216552734375
41060,0.3610687255859375,0.7017822265625,-0.4430084228515625
41061,0.344329833984375,0.6669464111328125,-0.4090423583984375
41062,0.3464508056640625,0.676971435546875,-0.4004669189453125
41063,0.3409576416015625,0.6904296875,-0.4160308837890625
41064,0.329071044921875,0.691558837890625,-0.438018798828125
41065,0.31793212890625,0.677947998046875,-0.4620819091796875
41066,0.3137359619140625,0.666656494140625,-0.4820709228515625
41067,0.314971923828125,0.6814422607421875,-0.4986114501953125
41068,0.3077850341796875,0.733673095703125,-0.504486083984375
41069,0.29034423828125,0.8202667236328125,-0.493865966796875
41070,0.2610321044921875,0.9061279296875,-0.45745849609375
41071,0.229461669921875,0.9794158935546876,-0.399444580078125
41072,0.2101593017578125,1.026641845703125,-0.3685302734375
41073,0.2047271728515625,1.041229248046875,-0.37884521484375
41074,0.2224578857421875,1.0308837890625,-0.402130126953125
41075,0.2734222412109375,1.003753662109375,-0.404052734375
41076,0.34906005859375,0.969818115234375,-0.379364013671875
41077,0.4350128173828125,0.94189453125,-0.3205718994140625
41078,0.523040771484375,0.910400390625,-0.25469970703125
41079,0.6035919189453125,0.8723907470703125,-0.2003936767578125
41080,0.6770477294921875,0.81976318359375,-0.174041748046875
41081,0.743438720703125,0.7585296630859375,-0.17340087890625
41082,0.8154144287109375,0.6999969482421875,-0.195159912109375
41083,0.8892974853515625,0.65948486328125,-0.221923828125
41084,0.9534759521484376,0.638519287109375,-0.2313232421875
41085,0.9918365478515624,0.620025634765625,-0.19854736328125
41086,0.9889678955078124,0.5951995849609375,-0.133392333984375
41087,0.946868896484375,0.55706787109375,-0.0734405517578125
41088,0.879150390625,0.4941864013671875,-0.0301513671875
41089,0.8104095458984375,0.4179534912109375,-0.01495361328125
41090,0.774078369140625,0.34417724609375,-0.0185394287109375
41091,0.7829437255859375,0.2912445068359375,-0.0286712646484375
41092,0.8341827392578125,0.2663421630859375,-0.04229736328125
41093,0.909454345703125,0.2698516845703125,-0.056549072265625
41094,0.99761962890625,0.30438232421875,-0.0575714111328125
41095,1.0806884765625,0.375,-0.034423828125
41096,1.135772705078125,0.4623260498046875,0.002838134765625
41097,1.155715942382812,0.5325469970703125,0.0140380859375
41098,1.161666870117188,0.59918212890625,-0.0078582763671875
41099,1.164749145507812,0.6833953857421875,-0.0494537353515625
41100,1.151092529296875,0.7679595947265625,-0.101318359375
41101,1.117034912109375,0.8274993896484375,-0.14794921875
41102,1.053115844726562,0.8582611083984375,-0.1699981689453125
41103,0.9635162353515624,0.8669891357421875,-0.18023681640625
41104,0.8650054931640625,0.8734588623046875,-0.1851806640625
41105,0.752899169921875,0.877044677734375,-0.1890716552734375
41106,0.63165283203125,0.8824005126953125,-0.2231292724609375
41107,0.5013275146484375,0.8827362060546875,-0.2841644287109375
41108,0.381134033203125,0.864593505859375,-0.3400726318359375
41109,0.295806884765625,0.8281097412109375,-0.4106292724609375
41110,0.2445526123046875,0.790679931640625,-0.481201171875
41111,0.2122039794921875,0.764312744140625,-0.52294921875
41112,0.1981201171875,0.7440643310546875,-0.5233154296875
41113,0.2106170654296875,0.7342071533203125,-0.4799346923828125
41114,0.25469970703125,0.73394775390625,-0.4204559326171875
41115,0.32501220703125,0.7414703369140625,-0.360931396484375
41116,0.411712646484375,0.7744598388671875,-0.3152313232421875
41117,0.47747802734375,0.8333740234375,-0.281890869140625
41118,0.5118865966796875,0.88824462890625,-0.265106201171875
41119,0.52227783203125,0.9154052734375,-0.27874755859375
41120,0.5084686279296875,0.913482666015625,-0.2830657958984375
41121,0.47320556640625,0.8860931396484375,-0.282562255859375
41122,0.4186859130859375,0.8494873046875,-0.28460693359375
41123,0.3555450439453125,0.81011962890625,-0.279632568359375
41124,0.308349609375,0.775299072265625,-0.258148193359375
41125,0.28436279296875,0.7553558349609375,-0.2380828857421875
41126,0.2678070068359375,0.7667388916015625,-0.2195281982421875
41127,0.251129150390625,0.8194427490234375,-0.229339599609375
41128,0.23028564453125,0.9161834716796876,-0.2865142822265625
41129,0.212554931640625,1.0328369140625,-0.39129638671875
41130,0.208953857421875,1.130401611328125,-0.5045318603515625
41131,0.2128753662109375,1.181625366210938,-0.5949249267578125
41132,0.2186431884765625,1.18377685546875,-0.6686859130859375
41133,0.215118408203125,1.149810791015625,-0.68682861328125
41134,0.1839447021484375,1.091888427734375,-0.6400909423828125
41135,0.1344146728515625,1.023666381835938,-0.5490875244140625
41136,0.0868072509765625,0.956634521484375,-0.4657135009765625
41137,0.061370849609375,0.9041595458984376,-0.418548583984375
41138,0.072479248046875,0.8613739013671875,-0.3885040283203125
41139,0.1118011474609375,0.818817138671875,-0.3563079833984375
41140,0.1703643798828125,0.7813873291015625,-0.3439178466796875
41141,0.241729736328125,0.744842529296875,-0.352752685546875
41142,0.3228759765625,0.7093658447265625,-0.370147705078125
41143,0.4191436767578125,0.6816558837890625,-0.38397216796875
41144,0.5211029052734375,0.665557861328125,-0.37042236328125
41145,0.617218017578125,0.6513214111328125,-0.3321075439453125
41146,0.691802978515625,0.634674072265625,-0.26800537109375
41147,0.739776611328125,0.606689453125,-0.1884307861328125
41148,0.7588958740234375,0.566131591796875,-0.1208953857421875
41149,0.7552032470703125,0.5192108154296875,-0.0736846923828125
41150,0.74493408203125,0.46826171875,-0.061248779296875
41151,0.742034912109375,0.41815185546875,-0.0821533203125
41152,0.76043701171875,0.3811492919921875,-0.1260223388671875
41153,0.8026885986328125,0.3604583740234375,-0.1748809814453125
41154,0.8596343994140625,0.3536224365234375,-0.2022857666015625
41155,0.91717529296875,0.35650634765625,-0.1932373046875
41156,0.9687957763671876,0.37451171875,-0.1577606201171875
41157,1.006881713867188,0.4080657958984375,-0.1186676025390625
41158,1.012008666992188,0.44927978515625,-0.072052001953125
41159,0.9864044189453124,0.4907379150390625,-0.052093505859375
41160,0.949005126953125,0.5336456298828125,-0.08245849609375
41161,0.90673828125,0.5714874267578125,-0.1360321044921875
41162,0.8626708984375,0.616973876953125,-0.154144287109375
41163,0.8177947998046875,0.682464599609375,-0.165557861328125
41164,0.771240234375,0.7539215087890625,-0.1880645751953125
41165,0.7235870361328125,0.8150482177734375,-0.196868896484375
41166,0.6795806884765625,0.862518310546875,-0.1974334716796875
41167,0.6456756591796875,0.9004669189453125,-0.199798583984375
41168,0.6205596923828125,0.9280242919921876,-0.2008056640625
41169,0.6033935546875,0.9402008056640624,-0.1996917724609375
41170,0.5904541015625,0.9450225830078124,-0.1969451904296875
41171,0.5889892578125,0.9546661376953124,-0.2121429443359375
41172,0.598846435546875,0.9705657958984376,-0.249969482421875
41173,0.616241455078125,0.9975433349609376,-0.2902679443359375
41174,0.61968994140625,1.033065795898438,-0.324676513671875
41175,0.6107025146484375,1.0560302734375,-0.3590240478515625
41176,0.5908660888671875,1.04986572265625,-0.3759918212890625
41177,0.57232666015625,1.004806518554688,-0.3673858642578125
41178,0.563323974609375,0.9342803955078124,-0.36199951171875
41179,0.5706634521484375,0.85760498046875,-0.354034423828125
41180,0.584320068359375,0.805908203125,-0.347808837890625
41181,0.5927276611328125,0.7651214599609375,-0.3445281982421875
41182,0.599884033203125,0.7251739501953125,-0.3335723876953125
41183,0.5994415283203125,0.7027435302734375,-0.328643798828125
41184,0.581695556640625,0.6935577392578125,-0.3390045166015625
41185,0.54290771484375,0.6866607666015625,-0.379852294921875
41186,0.4856719970703125,0.6685333251953125,-0.42938232421875
41187,0.4166717529296875,0.634429931640625,-0.466705322265625
41188,0.344146728515625,0.5952911376953125,-0.4673919677734375
41189,0.2730255126953125,0.5662841796875,-0.4653472900390625
41190,0.2127838134765625,0.563446044921875,-0.46649169921875
41191,0.166351318359375,0.5858001708984375,-0.475555419921875
41192,0.148590087890625,0.64324951171875,-0.4895782470703125
41193,0.14483642578125,0.75531005859375,-0.5190277099609375
41194,0.1414337158203125,0.901947021484375,-0.5674591064453125
41195,0.1449432373046875,1.043533325195312,-0.6107940673828125
41196,0.1598968505859375,1.146820068359375,-0.6381683349609375
41197,0.180999755859375,1.198074340820312,-0.63134765625
41198,0.203887939453125,1.205734252929688,-0.5905609130859375
41199,0.224395751953125,1.187637329101562,-0.5081634521484375
41200,0.2506866455078125,1.153884887695312,-0.4076690673828125
41201,0.27276611328125,1.105072021484375,-0.3301239013671875
41202,0.293182373046875,1.037612915039062,-0.2845916748046875
41203,0.3302001953125,0.9566802978515624,-0.257568359375
41204,0.3900604248046875,0.8756561279296875,-0.2532958984375
41205,0.4765777587890625,0.80224609375,-0.2947998046875
41206,0.5957794189453125,0.7460479736328125,-0.3614349365234375
41207,0.730072021484375,0.717041015625,-0.418060302734375
41208,0.8427581787109375,0.705963134765625,-0.4261627197265625
41209,0.90625,0.692840576171875,-0.3823699951171875
41210,0.907745361328125,0.6560516357421875,-0.3056793212890625
41211,0.8527069091796875,0.5873260498046875,-0.2150421142578125
41212,0.7681732177734375,0.5142059326171875,-0.1326141357421875
41213,0.694091796875,0.465545654296875,-0.098175048828125
41214,0.6462249755859375,0.4360504150390625,-0.106231689453125
41215,0.631072998046875,0.4192047119140625,-0.124267578125
41216,0.64605712890625,0.4174652099609375,-0.1331939697265625
41217,0.6925048828125,0.4317626953125,-0.1318511962890625
41218,0.767913818359375,0.4714813232421875,-0.1046600341796875
41219,0.8563690185546875,0.559906005859375,-0.058929443359375
41220,0.9337158203125,0.6743621826171875,-0.0244293212890625
41221,0.9924163818359376,0.77410888671875,-0.009765625
41222,1.0400390625,0.862701416015625,-0.0381622314453125
41223,1.0791015625,0.94256591796875,-0.11419677734375
41224,1.10601806640625,0.9949493408203124,-0.18682861328125
41225,1.108840942382812,0.999786376953125,-0.2476348876953125
41226,1.087554931640625,0.962860107421875,-0.25732421875
41227,1.039581298828125,0.89434814453125,-0.235076904296875
41228,0.96209716796875,0.817108154296875,-0.2272186279296875
41229,0.871185302734375,0.7526702880859375,-0.2360687255859375
41230,0.77239990234375,0.705108642578125,-0.258056640625
41231,0.6789703369140625,0.6808624267578125,-0.28656005859375
41232,0.5882720947265625,0.6646270751953125,-0.3404998779296875
41233,0.505828857421875,0.6618194580078125,-0.391510009765625
41234,0.4396514892578125,0.6634063720703125,-0.42254638671875
41235,0.3750762939453125,0.663909912109375,-0.4355926513671875
41236,0.3184356689453125,0.6667938232421875,-0.4487152099609375
41237,0.27996826171875,0.68023681640625,-0.4696197509765625
41238,0.2623748779296875,0.7145233154296875,-0.4798431396484375
41239,0.2777557373046875,0.7535400390625,-0.46221923828125
41240,0.31884765625,0.7881011962890625,-0.405914306640625
41241,0.3588409423828125,0.835968017578125,-0.3234710693359375
41242,0.382904052734375,0.8866729736328125,-0.24322509765625
41243,0.39404296875,0.907440185546875,-0.2019500732421875
41244,0.4049835205078125,0.896331787109375,-0.1989593505859375
41245,0.413177490234375,0.8785400390625,-0.18841552734375
41246,0.4139251708984375,0.867401123046875,-0.197052001953125
41247,0.4036102294921875,0.8594818115234375,-0.222198486328125
41248,0.3934478759765625,0.845184326171875,-0.2459564208984375
41249,0.39105224609375,0.822052001953125,-0.2485198974609375
41250,0.38690185546875,0.805145263671875,-0.20867919921875
41251,0.367919921875,0.80340576171875,-0.174835205078125
41252,0.3337249755859375,0.8082427978515625,-0.1812591552734375
41253,0.2990570068359375,0.8118896484375,-0.2211761474609375
41254,0.2800750732421875,0.8108062744140625,-0.2845001220703125
41255,0.284698486328125,0.81170654296875,-0.3516387939453125
41256,0.30963134765625,0.83612060546875,-0.4098968505859375
41257,0.340606689453125,0.8781890869140625,-0.4725494384765625
41258,0.3565826416015625,0.9255828857421876,-0.51690673828125
41259,0.35308837890625,0.97381591796875,-0.5345916748046875
41260,0.3280792236328125,1.016708374023438,-0.525634765625
41261,0.28240966796875,1.034088134765625,-0.503509521484375
41262,0.234375,1.0157470703125,-0.4835052490234375
41263,0.20611572265625,0.9554901123046876,-0.4715423583984375
41264,0.22552490234375,0.881072998046875,-0.462066650390625
41265,0.2849273681640625,0.8427276611328125,-0.428070068359375
41266,0.3456573486328125,0.823089599609375,-0.3793487548828125
41267,0.40655517578125,0.7956695556640625,-0.341094970703125
41268,0.46685791015625,0.762451171875,-0.310577392578125
41269,0.519317626953125,0.7248382568359375,-0.2863311767578125
41270,0.5575408935546875,0.674835205078125,-0.2664337158203125
41271,0.5810394287109375,0.616241455078125,-0.2588653564453125
41272,0.6000823974609375,0.5575714111328125,-0.2512054443359375
41273,0.624420166015625,0.513763427734375,-0.2483673095703125
41274,0.6519775390625,0.492431640625,-0.226470947265625
41275,0.683135986328125,0.4923248291015625,-0.1963043212890625
41276,0.7130126953125,0.508941650390625,-0.167694091796875
41277,0.74853515625,0.538055419921875,-0.14385986328125
41278,0.7886505126953125,0.577728271484375,-0.134765625
41279,0.8363494873046875,0.625518798828125,-0.13720703125
41280,0.884490966796875,0.68316650390625,-0.1403350830078125
41281,0.9166717529296876,0.74298095703125,-0.1376800537109375
41282,0.9246978759765624,0.784698486328125,-0.1476898193359375
41283,0.9085235595703124,0.7927093505859375,-0.1789703369140625
41284,0.8902435302734375,0.7811431884765625,-0.2179107666015625
41285,0.8771514892578125,0.76885986328125,-0.250335693359375
41286,0.846160888671875,0.7617034912109375,-0.269927978515625
41287,0.7963714599609375,0.7494354248046875,-0.2603607177734375
41288,0.7383270263671875,0.7303924560546875,-0.2555694580078125
41289,0.6808624267578125,0.7151947021484375,-0.2563934326171875
41290,0.6306304931640625,0.715087890625,-0.2701873779296875
41291,0.584075927734375,0.7313995361328125,-0.2867279052734375
41292,0.5464935302734375,0.755462646484375,-0.3038482666015625
41293,0.5211334228515625,0.77850341796875,-0.322509765625
41294,0.503875732421875,0.800140380859375,-0.3398284912109375
41295,0.4936676025390625,0.815704345703125,-0.34619140625
41296,0.4910888671875,0.822967529296875,-0.321685791015625
41297,0.5019989013671875,0.8190765380859375,-0.2832489013671875
41298,0.5210113525390625,0.807952880859375,-0.2501220703125
41299,0.5427703857421875,0.79705810546875,-0.2335205078125
41300,0.56988525390625,0.790191650390625,-0.231536865234375
41301,0.597503662109375,0.7942657470703125,-0.24432373046875
41302,0.6246490478515625,0.8110809326171875,-0.27447509765625
41303,0.6511077880859375,0.8301849365234375,-0.3086090087890625
41304,0.6732177734375,0.843231201171875,-0.3445281982421875
41305,0.6712646484375,0.836669921875,-0.3818359375
41306,0.633026123046875,0.8091888427734375,-0.4238433837890625
41307,0.57379150390625,0.7708740234375,-0.462158203125
41308,0.50274658203125,0.73687744140625,-0.4947967529296875
41309,0.4278717041015625,0.7113037109375,-0.505645751953125
41310,0.3596954345703125,0.69140625,-0.51104736328125
41311,0.3100433349609375,0.6800384521484375,-0.521148681640625
41312,0.2856292724609375,0.6813812255859375,-0.5341796875
41313,0.279266357421875,0.68328857421875,-0.5487518310546875
41314,0.2892303466796875,0.678070068359375,-0.563873291015625
41315,0.3188629150390625,0.6661529541015625,-0.5684814453125
41316,0.3576507568359375,0.651214599609375,-0.5544891357421875
41317,0.39373779296875,0.643218994140625,-0.53057861328125
41318,0.4211883544921875,0.64251708984375,-0.5127716064453125
41319,0.43109130859375,0.653350830078125,-0.501312255859375
41320,0.42138671875,0.6783599853515625,-0.481201171875
41321,0.3907012939453125,0.7115631103515625,-0.467742919921875
41322,0.3538360595703125,0.7652740478515625,-0.451873779296875
41323,0.3337860107421875,0.843109130859375,-0.4288482666015625
41324,0.3467559814453125,0.9271240234375,-0.4228057861328125
41325,0.3948211669921875,1.004928588867188,-0.4281768798828125
41326,0.4524688720703125,1.053726196289062,-0.4339599609375
41327,0.492919921875,1.055511474609375,-0.426422119140625
41328,0.5076446533203125,1.01678466796875,-0.409271240234375
41329,0.500457763671875,0.965087890625,-0.3695831298828125
41330,0.493621826171875,0.9232330322265624,-0.33056640625
41331,0.4990997314453125,0.8951416015625,-0.3112335205078125
41332,0.51593017578125,0.8664398193359375,-0.3234100341796875
41333,0.539794921875,0.8276519775390625,-0.3519439697265625
41334,0.5679473876953125,0.784881591796875,-0.3685302734375
41335,0.585906982421875,0.730072021484375,-0.3676300048828125
41336,0.5855865478515625,0.675079345703125,-0.34844970703125
41337,0.5788421630859375,0.62567138671875,-0.3217620849609375
41338,0.574859619140625,0.5721588134765625,-0.2814483642578125
41339,0.573974609375,0.525634765625,-0.244903564453125
41340,0.585357666015625,0.4873809814453125,-0.217437744140625
41341,0.615814208984375,0.4568634033203125,-0.21356201171875
41342,0.6670989990234375,0.4413604736328125,-0.2132110595703125
41343,0.741851806640625,0.4522247314453125,-0.2064666748046875
41344,0.834014892578125,0.4865264892578125,-0.18524169921875
41345,0.9352264404296876,0.5402984619140625,-0.168304443359375
41346,1.01312255859375,0.619140625,-0.1436614990234375
41347,1.056915283203125,0.7063751220703125,-0.123260498046875
41348,1.0655517578125,0.758270263671875,-0.1385040283203125
41349,1.048385620117188,0.781494140625,-0.177276611328125
41350,1.018386840820312,0.7883148193359375,-0.23431396484375
41351,0.9798126220703124,0.7743072509765625,-0.275909423828125
41352,0.9416351318359376,0.7401123046875,-0.279998779296875
41353,0.9029388427734376,0.698150634765625,-0.274017333984375
41354,0.8671722412109375,0.659454345703125,-0.27777099609375
41355,0.8392791748046875,0.630279541015625,-0.286163330078125
41356,0.8128662109375,0.617645263671875,-0.3007965087890625
41357,0.7763824462890625,0.6108245849609375,-0.3325042724609375
41358,0.74273681640625,0.6084747314453125,-0.366302490234375
41359,0.7129974365234375,0.6071624755859375,-0.39031982421875
41360,0.687896728515625,0.60302734375,-0.403106689453125
41361,0.667449951171875,0.603668212890625,-0.3926849365234375
41362,0.6448974609375,0.6049346923828125,-0.395904541015625
41363,0.6171722412109375,0.608154296875,-0.3908843994140625
41364,0.583892822265625,0.618988037109375,-0.368255615234375
41365,0.5490264892578125,0.63958740234375,-0.3462371826171875
41366,0.5230560302734375,0.6649627685546875,-0.3349456787109375
41367,0.512054443359375,0.6943359375,-0.348419189453125
41368,0.4947357177734375,0.7343597412109375,-0.3763427734375
41369,0.4681549072265625,0.780731201171875,-0.41021728515625
41370,0.445098876953125,0.830474853515625,-0.434112548828125
41371,0.4181976318359375,0.8704833984375,-0.43621826171875
41372,0.3866729736328125,0.8895721435546875,-0.423858642578125
41373,0.3556671142578125,0.8841094970703125,-0.4011077880859375
41374,0.330963134765625,0.8694915771484375,-0.370880126953125
41375,0.3194427490234375,0.8592376708984375,-0.3450164794921875
41376,0.3206634521484375,0.8651275634765625,-0.30926513671875
41377,0.3296356201171875,0.8782196044921875,-0.28118896484375
41378,0.3357086181640625,0.8856048583984375,-0.2523345947265625
41379,0.3330841064453125,0.87445068359375,-0.212799072265625
41380,0.3198699951171875,0.84246826171875,-0.198211669921875
41381,0.2914276123046875,0.8134002685546875,-0.1995849609375
41382,0.2649993896484375,0.8126678466796875,-0.204437255859375
41383,0.252044677734375,0.8347015380859375,-0.234405517578125
41384,0.26715087890625,0.8684844970703125,-0.2746429443359375
41385,0.322357177734375,0.90960693359375,-0.2989349365234375
41386,0.4149322509765625,0.9548797607421876,-0.3080902099609375
41387,0.5211944580078125,0.9978790283203124,-0.33160400390625
41388,0.6197357177734375,1.02178955078125,-0.371002197265625
41389,0.6992340087890625,1.020477294921875,-0.42437744140625
41390,0.744964599609375,0.9969024658203124,-0.498504638671875
41391,0.737884521484375,0.965118408203125,-0.5698394775390625
41392,0.690216064453125,0.9420166015625,-0.5684814453125
41393,0.6427001953125,0.9244537353515624,-0.5084991455078125
41394,0.605255126953125,0.9112548828125,-0.421905517578125
41395,0.55426025390625,0.873565673828125,-0.340728759765625
41396,0.4918365478515625,0.7888641357421875,-0.2891845703125
41397,0.4368133544921875,0.6819000244140625,-0.2710113525390625
41398,0.4007720947265625,0.585235595703125,-0.2760162353515625
41399,0.38226318359375,0.5145263671875,-0.2841339111328125
41400,0.387054443359375,0.4645843505859375,-0.27484130859375
41401,0.4194488525390625,0.440887451171875,-0.2418212890625
41402,0.4758453369140625,0.4375152587890625,-0.18402099609375
41403,0.551025390625,0.4476318359375,-0.1358795166015625
41404,0.635589599609375,0.4629364013671875,-0.1100006103515625
41405,0.7173614501953125,0.4759674072265625,-0.0965423583984375
41406,0.8018951416015625,0.4858856201171875,-0.1089324951171875
41407,0.894378662109375,0.4919281005859375,-0.134429931640625
41408,1.003799438476562,0.506866455078125,-0.153717041015625
41409,1.118057250976562,0.5395050048828125,-0.160797119140625
41410,1.210098266601562,0.5794219970703125,-0.13787841796875
41411,1.271224975585938,0.609588623046875,-0.0904388427734375
41412,1.28277587890625,0.6177978515625,-0.053009033203125
41413,1.23309326171875,0.5904998779296875,-0.062042236328125
41414,1.142562866210938,0.5463714599609375,-0.1073455810546875
41415,1.041458129882812,0.5095977783203125,-0.1462554931640625
41416,0.9404754638671876,0.493011474609375,-0.1843414306640625
41417,0.8533172607421875,0.4822540283203125,-0.2127227783203125
41418,0.7776641845703125,0.487152099609375,-0.2240447998046875
41419,0.7108154296875,0.506866455078125,-0.21942138671875
41420,0.6561737060546875,0.5336151123046875,-0.2118377685546875
41421,0.61285400390625,0.56060791015625,-0.1912689208984375
41422,0.57940673828125,0.5877532958984375,-0.16448974609375
41423,0.55322265625,0.607421875,-0.1292572021484375
41424,0.5388336181640625,0.61859130859375,-0.10546875
41425,0.5330963134765625,0.626800537109375,-0.10113525390625
41426,0.543609619140625,0.6347198486328125,-0.0940704345703125
41427,0.5734710693359375,0.647491455078125,-0.1134490966796875
41428,0.6186065673828125,0.665130615234375,-0.1464996337890625
41429,0.67767333984375,0.68890380859375,-0.18853759765625
41430,0.7420501708984375,0.7155914306640625,-0.235809326171875
41431,0.8033294677734375,0.7468109130859375,-0.3193206787109375
41432,0.85516357421875,0.7797698974609375,-0.4068450927734375
41433,0.8740386962890625,0.8050079345703125,-0.4578704833984375
41434,0.8499603271484375,0.8255615234375,-0.4968414306640625
41435,0.784698486328125,0.8427886962890625,-0.5149993896484375
41436,0.68450927734375,0.8367462158203125,-0.5101470947265625
41437,0.5728607177734375,0.8323974609375,-0.4997711181640625
41438,0.45172119140625,0.8518218994140625,-0.520416259765625
41439,0.346588134765625,0.883697509765625,-0.5366058349609375
41440,0.28643798828125,0.8980255126953125,-0.5711822509765625
41441,0.2879486083984375,0.85198974609375,-0.634979248046875
41442,0.3084869384765625,0.781402587890625,-0.6119537353515625
41443,0.30914306640625,0.718902587890625,-0.522491455078125
41444,0.304443359375,0.6764984130859375,-0.4397125244140625
41445,0.3118743896484375,0.642364501953125,-0.38885498046875
41446,0.331787109375,0.613983154296875,-0.3580474853515625
41447,0.3574676513671875,0.591522216796875,-0.338714599609375
41448,0.4010162353515625,0.573486328125,-0.3321380615234375
41449,0.4609222412109375,0.57373046875,-0.32623291015625
41450,0.5294952392578125,0.59197998046875,-0.324737548828125
41451,0.6094512939453125,0.6404571533203125,-0.3230133056640625
41452,0.6927337646484375,0.7262115478515625,-0.3225860595703125
41453,0.7720794677734375,0.81280517578125,-0.307891845703125
41454,0.8361358642578125,0.8624420166015625,-0.2853240966796875
41455,0.8756256103515625,0.8745574951171875,-0.245574951171875
41456,0.8864593505859375,0.8667144775390625,-0.2037353515625
41457,0.868804931640625,0.8582611083984375,-0.17510986328125
41458,0.8301544189453125,0.84527587890625,-0.152435302734375
41459,0.7839813232421875,0.8216705322265625,-0.1354217529296875
41460,0.7494964599609375,0.789306640625,-0.126068115234375
41461,0.7347869873046875,0.7505340576171875,-0.109832763671875
41462,0.737884521484375,0.7061614990234375,-0.08648681640625
41463,0.758636474609375,0.6647796630859375,-0.0640106201171875
41464,0.793609619140625,0.6251678466796875,-0.054473876953125
41465,0.848419189453125,0.58074951171875,-0.043212890625
41466,0.91168212890625,0.53094482421875,-0.041351318359375
41467,0.9696502685546876,0.483917236328125,-0.050567626953125
41468,1.011947631835938,0.4351043701171875,-0.0497283935546875
41469,1.041946411132812,0.3852081298828125,-0.05230712890625
41470,1.049301147460938,0.3354949951171875,-0.0627288818359375
41471,1.032958984375,0.2901458740234375,-0.085205078125
41472,1.016403198242188,0.2585296630859375,-0.107208251953125
41473,0.99993896484375,0.240570068359375,-0.11126708984375
41474,0.98968505859375,0.2303924560546875,-0.12261962890625
41475,0.987945556640625,0.233367919921875,-0.11956787109375
41476,0.9812469482421876,0.2557220458984375,-0.1142425537109375
41477,0.9813232421875,0.285003662109375,-0.097320556640625
41478,0.985076904296875,0.3205413818359375,-0.0906219482421875
41479,0.993560791015625,0.3805694580078125,-0.0943145751953125
41480,1.010650634765625,0.450103759765625,-0.12481689453125
41481,1.026824951171875,0.52740478515625,-0.153594970703125
41482,1.028793334960938,0.602783203125,-0.1840057373046875
41483,1.003509521484375,0.66937255859375,-0.2158355712890625
41484,0.964111328125,0.72332763671875,-0.2312469482421875
41485,0.9294281005859376,0.767791748046875,-0.2315673828125
41486,0.88311767578125,0.7880706787109375,-0.232818603515625
41487,0.8114166259765625,0.7811279296875,-0.24102783203125
41488,0.73095703125,0.7517242431640625,-0.252777099609375
41489,0.6514434814453125,0.718780517578125,-0.245208740234375
41490,0.5800933837890625,0.7050628662109375,-0.2479095458984375
41491,0.5241241455078125,0.6956024169921875,-0.28009033203125
41492,0.4867401123046875,0.6786956787109375,-0.324310302734375
41493,0.4741973876953125,0.6687774658203125,-0.3540496826171875
41494,0.493743896484375,0.678375244140625,-0.3688201904296875
41495,0.54815673828125,0.7218017578125,-0.396270751953125
41496,0.6046905517578125,0.783233642578125,-0.40191650390625
41497,0.64117431640625,0.8240966796875,-0.3792724609375
41498,0.6582489013671875,0.8383026123046875,-0.343658447265625
41499,0.655609130859375,0.83349609375,-0.278717041015625
41500,0.6453704833984375,0.813995361328125,-0.2002410888671875
41501,0.6259002685546875,0.78375244140625,-0.1476287841796875
41502,0.6025848388671875,0.7469024658203125,-0.154541015625
41503,0.5714874267578125,0.7074432373046875,-0.17724609375
41504,0.5434722900390625,0.682373046875,-0.2176361083984375
41505,0.5214385986328125,0.69525146484375,-0.2462310791015625
41506,0.5086517333984375,0.75006103515625,-0.2821502685546875
41507,0.509552001953125,0.8346099853515625,-0.338623046875
41508,0.516510009765625,0.9324188232421876,-0.3943939208984375
41509,0.533355712890625,1.019699096679688,-0.406219482421875
41510,0.555389404296875,1.08087158203125,-0.4026947021484375
41511,0.56964111328125,1.125137329101562,-0.444793701171875
41512,0.5603179931640625,1.154754638671875,-0.5290069580078125
41513,0.52490234375,1.163497924804688,-0.6049041748046875
41514,0.4680328369140625,1.148300170898438,-0.626129150390625
41515,0.3905792236328125,1.113861083984375,-0.5862579345703125
41516,0.33062744140625,1.04638671875,-0.508056640625
41517,0.297607421875,0.95245361328125,-0.431488037109375
41518,0.2557525634765625,0.87384033203125,-0.374786376953125
41519,0.21453857421875,0.8009796142578125,-0.3248443603515625
41520,0.200927734375,0.72589111328125,-0.2848052978515625
41521,0.2181243896484375,0.6633758544921875,-0.2644195556640625
41522,0.2629241943359375,0.6163787841796875,-0.2767486572265625
41523,0.3356170654296875,0.5850067138671875,-0.3075408935546875
41524,0.4321441650390625,0.561248779296875,-0.3309326171875
41525,0.5372467041015625,0.5387725830078125,-0.3433685302734375
41526,0.629486083984375,0.5056915283203125,-0.3307342529296875
41527,0.6973419189453125,0.4464874267578125,-0.2948455810546875
41528,0.7433624267578125,0.3624267578125,-0.2448883056640625
41529,0.7668914794921875,0.2649078369140625,-0.209808349609375
41530,0.765594482421875,0.178741455078125,-0.2050628662109375
41531,0.7563323974609375,0.1271820068359375,-0.217681884765625
41532,0.756591796875,0.1120147705078125,-0.2232818603515625
41533,0.77197265625,0.1234130859375,-0.2149658203125
41534,0.7998046875,0.156219482421875,-0.1884918212890625
41535,0.85101318359375,0.2082061767578125,-0.147918701171875
41536,0.93267822265625,0.268829345703125,-0.1109466552734375
41537,1.039688110351562,0.3242645263671875,-0.0861968994140625
41538,1.144561767578125,0.365203857421875,-0.0616912841796875
41539,1.215545654296875,0.3876953125,-0.0359039306640625
41540,1.217025756835938,0.3906402587890625,-0.026397705078125
41541,1.141448974609375,0.3915863037109375,-0.059906005859375
41542,1.043548583984375,0.413238525390625,-0.1175384521484375
41543,0.956817626953125,0.4516448974609375,-0.159271240234375
41544,0.876953125,0.5004119873046875,-0.1914520263671875
41545,0.8069610595703125,0.5569000244140625,-0.2047271728515625
41546,0.7519378662109375,0.61865234375,-0.19451904296875
41547,0.708221435546875,0.689697265625,-0.1671600341796875
41548,0.6747894287109375,0.7607574462890625,-0.146728515625
41549,0.65118408203125,0.8231353759765625,-0.126953125
41550,0.638671875,0.8721466064453125,-0.1052398681640625
41551,0.6356658935546875,0.9077301025390624,-0.1185302734375
41552,0.639434814453125,0.9306793212890624,-0.1781158447265625
41553,0.6513519287109375,0.938201904296875,-0.2497711181640625
41554,0.6716766357421875,0.938873291015625,-0.317291259765625
41555,0.6980133056640625,0.9339141845703124,-0.3930511474609375
41556,0.725860595703125,0.922027587890625,-0.462432861328125
41557,0.7485504150390625,0.9070892333984376,-0.501800537109375
41558,0.7606353759765625,0.8947601318359375,-0.505126953125
41559,0.7427520751953125,0.883026123046875,-0.4799652099609375
41560,0.6889190673828125,0.8655242919921875,-0.4474334716796875
41561,0.627593994140625,0.8314361572265625,-0.4207763671875
41562,0.57354736328125,0.7994232177734375,-0.403564453125
41563,0.524871826171875,0.7775421142578125,-0.401458740234375
41564,0.4854278564453125,0.76025390625,-0.4131317138671875
41565,0.4550933837890625,0.73858642578125,-0.42529296875
41566,0.4271087646484375,0.717742919921875,-0.4393310546875
41567,0.4025421142578125,0.71142578125,-0.4562835693359375
41568,0.38616943359375,0.7314300537109375,-0.4698486328125
41569,0.3746337890625,0.779815673828125,-0.47821044921875
41570,0.3587188720703125,0.85211181640625,-0.4851837158203125
41571,0.3391265869140625,0.9228973388671876,-0.490081787109375
41572,0.3239593505859375,0.9806060791015624,-0.4909820556640625
41573,0.3224945068359375,1.021377563476562,-0.48248291015625
41574,0.33074951171875,1.044830322265625,-0.452667236328125
41575,0.3466644287109375,1.041961669921875,-0.40826416015625
41576,0.3671722412109375,1.018814086914062,-0.3669891357421875
41577,0.382171630859375,0.9830780029296876,-0.3250885009765625
41578,0.39971923828125,0.9416351318359376,-0.2930450439453125
41579,0.4266357421875,0.900390625,-0.2612457275390625
41580,0.460723876953125,0.8567047119140625,-0.23187255859375
41581,0.503326416015625,0.811737060546875,-0.216094970703125
41582,0.5583038330078125,0.766693115234375,-0.2098236083984375
41583,0.62982177734375,0.719268798828125,-0.210662841796875
41584,0.71234130859375,0.67425537109375,-0.2106475830078125
41585,0.7944183349609375,0.6340484619140625,-0.2020721435546875
41586,0.8614959716796875,0.5842742919921875,-0.1790313720703125
41587,0.9007568359375,0.517852783203125,-0.155181884765625
41588,0.9093170166015624,0.4334564208984375,-0.1286468505859375
41589,0.8988800048828125,0.3442840576171875,-0.095703125
41590,0.8808746337890625,0.263092041015625,-0.073272705078125
41591,0.8661956787109375,0.204193115234375,-0.063385009765625
41592,0.8646087646484375,0.16436767578125,-0.058135986328125
41593,0.8818206787109375,0.138763427734375,-0.05963134765625
41594,0.93438720703125,0.1225128173828125,-0.06378173828125
41595,1.022674560546875,0.1209869384765625,-0.0690765380859375
41596,1.124343872070312,0.136871337890625,-0.0583953857421875
41597,1.224838256835938,0.1689300537109375,-0.02447509765625
41598,1.312088012695312,0.215087890625,0.010040283203125
41599,1.389846801757812,0.25634765625,0.015167236328125
41600,1.450820922851562,0.299346923828125,-0.0178680419921875
41601,1.484329223632812,0.36651611328125,-0.07025146484375
41602,1.503173828125,0.4521331787109375,-0.134033203125
41603,1.509674072265625,0.5341339111328125,-0.19158935546875
41604,1.483169555664062,0.61175537109375,-0.2345733642578125
41605,1.408309936523438,0.6824798583984375,-0.251373291015625
41606,1.283660888671875,0.7406158447265625,-0.243408203125
41607,1.125350952148438,0.7797393798828125,-0.23077392578125
41608,0.9576568603515624,0.7967376708984375,-0.215301513671875
41609,0.80072021484375,0.801727294921875,-0.215087890625
41610,0.6598358154296875,0.80010986328125,-0.2492218017578125
41611,0.522308349609375,0.7980194091796875,-0.291107177734375
41612,0.38592529296875,0.788787841796875,-0.337310791015625
41613,0.2547607421875,0.7779541015625,-0.3849945068359375
41614,0.130645751953125,0.76727294921875,-0.4257965087890625
41615,0.01275634765625,0.7556610107421875,-0.451019287109375
41616,-0.0861968994140625,0.7383880615234375,-0.4479522705078125
41617,-0.1463775634765625,0.720489501953125,-0.410919189453125
41618,-0.15655517578125,0.7225799560546875,-0.369049072265625
41619,-0.1106719970703125,0.757415771484375,-0.3233642578125
41620,-0.0490570068359375,0.7868194580078125,-0.2719268798828125
41621,0.0044708251953125,0.7984466552734375,-0.24346923828125
41622,0.0868682861328125,0.7991485595703125,-0.20947265625
41623,0.19464111328125,0.7848358154296875,-0.139404296875
41624,0.3099212646484375,0.7658843994140625,-0.0652618408203125
41625,0.4164581298828125,0.75518798828125,-0.0274200439453125
41626,0.500640869140625,0.7523956298828125,-0.042266845703125
41627,0.5584869384765625,0.745819091796875,-0.08935546875
41628,0.6098480224609375,0.7411651611328125,-0.147491455078125
41629,0.6754302978515625,0.75689697265625,-0.2108001708984375
41630,0.74725341796875,0.8036041259765625,-0.2789154052734375
41631,0.811248779296875,0.87506103515625,-0.3680419921875
41632,0.85357666015625,0.9446868896484376,-0.4384002685546875
41633,0.858612060546875,0.98431396484375,-0.4139404296875
41634,0.8211822509765625,0.973358154296875,-0.3326263427734375
41635,0.745147705078125,0.9293975830078124,-0.2800750732421875
41636,0.6387786865234375,0.897491455078125,-0.2902374267578125
41637,0.5238800048828125,0.9055938720703124,-0.3454437255859375
41638,0.4272308349609375,0.938690185546875,-0.3935699462890625
41639,0.365814208984375,0.9682769775390624,-0.41259765625
41640,0.3319854736328125,0.965728759765625,-0.3955841064453125
41641,0.321624755859375,0.89642333984375,-0.3725128173828125
41642,0.33209228515625,0.8087615966796875,-0.351531982421875
41643,0.357330322265625,0.7395172119140625,-0.325958251953125
41644,0.41107177734375,0.6771697998046875,-0.2982330322265625
41645,0.4982147216796875,0.6262054443359375,-0.273956298828125
41646,0.6005096435546875,0.597259521484375,-0.245849609375
41647,0.7013397216796875,0.58465576171875,-0.196380615234375
41648,0.7891082763671875,0.5650787353515625,-0.121337890625
41649,0.8614044189453125,0.5207672119140625,-0.0405426025390625
41650,0.921356201171875,0.4445343017578125,0.005706787109375
41651,0.966400146484375,0.3549652099609375,-0.016693115234375
41652,1.004425048828125,0.2840576171875,-0.0634765625
41653,1.050537109375,0.2363433837890625,-0.1013031005859375
41654,1.10638427734375,0.198028564453125,-0.11700439453125
41655,1.161178588867188,0.163604736328125,-0.116668701171875
41656,1.198959350585938,0.1408843994140625,-0.1023101806640625
41657,1.21075439453125,0.1362762451171875,-0.0708465576171875
41658,1.18572998046875,0.1519622802734375,-0.0344085693359375
41659,1.120040893554688,0.1952056884765625,-0.0077972412109375
41660,1.029815673828125,0.259033203125,-0.0096588134765625
41661,0.9599761962890624,0.324127197265625,-0.0253448486328125
41662,0.910858154296875,0.4001312255859375,-0.044403076171875
41663,0.8687896728515625,0.489044189453125,-0.0660552978515625
41664,0.8304901123046875,0.5904388427734375,-0.0877532958984375
41665,0.789031982421875,0.698699951171875,-0.109954833984375
41666,0.7420806884765625,0.79559326171875,-0.1358489990234375
41667,0.703643798828125,0.8908843994140625,-0.163238525390625
41668,0.676513671875,0.976104736328125,-0.17718505859375
41669,0.6516265869140625,1.028213500976562,-0.1703643798828125
41670,0.630767822265625,1.031890869140625,-0.1699676513671875
41671,0.62091064453125,0.9993743896484376,-0.1681976318359375
41672,0.618804931640625,0.952728271484375,-0.16412353515625
41673,0.613677978515625,0.90802001953125,-0.16094970703125
41674,0.6123809814453125,0.8614501953125,-0.1834564208984375
41675,0.632080078125,0.80938720703125,-0.209075927734375
41676,0.675140380859375,0.7588653564453125,-0.1834259033203125
41677,0.7372283935546875,0.7154083251953125,-0.1406097412109375
41678,0.7938995361328125,0.6931915283203125,-0.110382080078125
41679,0.831756591796875,0.6782073974609375,-0.1096343994140625
41680,0.8590087890625,0.65582275390625,-0.143402099609375
41681,0.8777618408203125,0.64019775390625,-0.1938629150390625
41682,0.8771209716796875,0.627716064453125,-0.2357940673828125
41683,0.84771728515625,0.617706298828125,-0.26287841796875
41684,0.804290771484375,0.6025238037109375,-0.2855987548828125
41685,0.7570953369140625,0.5933074951171875,-0.30963134765625
41686,0.7043609619140625,0.5932159423828125,-0.322784423828125
41687,0.6511383056640625,0.5908660888671875,-0.32208251953125
41688,0.6029205322265625,0.5947418212890625,-0.3083953857421875
41689,0.5589447021484375,0.6087799072265625,-0.2914886474609375
41690,0.51220703125,0.632843017578125,-0.2894439697265625
41691,0.4595489501953125,0.669830322265625,-0.301300048828125
41692,0.4101104736328125,0.724884033203125,-0.326507568359375
41693,0.36126708984375,0.8008575439453125,-0.360198974609375
41694,0.3090362548828125,0.894622802734375,-0.391143798828125
41695,0.26495361328125,0.99407958984375,-0.410186767578125
41696,0.2327423095703125,1.084320068359375,-0.3997802734375
41697,0.2121734619140625,1.1546630859375,-0.373809814453125
41698,0.1870269775390625,1.195449829101562,-0.3530426025390625
41699,0.1653594970703125,1.203460693359375,-0.3384552001953125
41700,0.160980224609375,1.16278076171875,-0.3020477294921875
41701,0.1815948486328125,1.089309692382812,-0.2512969970703125
41702,0.2220306396484375,1.019332885742188,-0.208892822265625
41703,0.2745361328125,0.9570465087890624,-0.18243408203125
41704,0.34503173828125,0.898345947265625,-0.17132568359375
41705,0.444671630859375,0.8446197509765625,-0.18133544921875
41706,0.572509765625,0.8040618896484375,-0.2088470458984375
41707,0.7121124267578125,0.7694244384765625,-0.242889404296875
41708,0.849609375,0.728179931640625,-0.2518310546875
41709,0.9788818359375,0.664947509765625,-0.2191925048828125
41710,1.094955444335938,0.5693359375,-0.1516876220703125
41711,1.188705444335938,0.4472808837890625,-0.0602264404296875
41712,1.233917236328125,0.3210601806640625,0.0136871337890625
41713,1.21246337890625,0.2169036865234375,0.028472900390625
41714,1.1468505859375,0.1388702392578125,0.0094757080078125
41715,1.077117919921875,0.0902099609375,-0.006134033203125
41716,1.039947509765625,0.065460205078125,-0.006622314453125
41717,1.045318603515625,0.06402587890625,0.0067291259765625
41718,1.079498291015625,0.0839996337890625,0.04248046875
41719,1.120864868164062,0.1339263916015625,0.10040283203125
41720,1.164962768554688,0.20660400390625,0.1474456787109375
41721,1.21826171875,0.274505615234375,0.16131591796875
41722,1.278366088867188,0.3657379150390625,0.1416473388671875
41723,1.340621948242188,0.4859771728515625,0.0735931396484375
41724,1.388900756835938,0.6062469482421875,-0.025634765625
41725,1.408523559570312,0.705780029296875,-0.1246490478515625
41726,1.387847900390625,0.7701263427734375,-0.1761627197265625
41727,1.311737060546875,0.7982940673828125,-0.1664886474609375
41728,1.178970336914062,0.7978668212890625,-0.129425048828125
41729,1.030776977539062,0.7686614990234375,-0.09375
41730,0.89642333984375,0.7394866943359375,-0.06890869140625
41731,0.78045654296875,0.7255859375,-0.0633392333984375
41732,0.6753387451171875,0.7220001220703125,-0.084503173828125
41733,0.5715484619140625,0.7270355224609375,-0.1331634521484375
41734,0.4678802490234375,0.7401275634765625,-0.202117919921875
41735,0.373382568359375,0.7555389404296875,-0.2646484375
41736,0.2879791259765625,0.7748260498046875,-0.3212738037109375
41737,0.2219696044921875,0.7929534912109375,-0.384613037109375
41738,0.1751556396484375,0.81280517578125,-0.42315673828125
41739,0.1337738037109375,0.8325347900390625,-0.4167327880859375
41740,0.0948333740234375,0.85491943359375,-0.363311767578125
41741,0.06982421875,0.8823089599609375,-0.2950897216796875
41742,0.057769775390625,0.8956756591796875,-0.2212677001953125
41743,0.0649261474609375,0.879119873046875,-0.1332550048828125
41744,0.084869384765625,0.8458709716796875,-0.0575408935546875
41745,0.107208251953125,0.820709228515625,-0.013946533203125
41746,0.1446380615234375,0.7870635986328125,0.0037689208984375
41747,0.1928253173828125,0.744384765625,0.0042266845703125
41748,0.23712158203125,0.7273101806640625,-0.015472412109375
41749,0.2938385009765625,0.75634765625,-0.05242919921875
41750,0.3587646484375,0.817718505859375,-0.111328125
41751,0.4129180908203125,0.905120849609375,-0.2138519287109375
41752,0.4561920166015625,1.006179809570312,-0.3461761474609375
41753,0.5136566162109375,1.092483520507812,-0.4321746826171875
41754,0.58026123046875,1.152145385742188,-0.4589996337890625
41755,0.624908447265625,1.174606323242188,-0.4697265625
41756,0.62506103515625,1.144363403320312,-0.4815673828125
41757,0.5747222900390625,1.081344604492188,-0.4841766357421875
41758,0.5152740478515625,1.023330688476562,-0.462646484375
41759,0.489471435546875,0.9723052978515624,-0.414398193359375
41760,0.4617156982421875,0.925262451171875,-0.347564697265625
41761,0.4272003173828125,0.863372802734375,-0.27972412109375
41762,0.407806396484375,0.7790985107421875,-0.2399749755859375
41763,0.410919189453125,0.6838531494140625,-0.233917236328125
41764,0.4400177001953125,0.599029541015625,-0.2481689453125
41765,0.5005340576171875,0.537628173828125,-0.2724609375
41766,0.6000823974609375,0.5006866455078125,-0.293426513671875
41767,0.7280731201171875,0.4849700927734375,-0.293212890625
41768,0.8737640380859375,0.4763336181640625,-0.2492218017578125
41769,1.012542724609375,0.4597015380859375,-0.1513519287109375
41770,1.1170654296875,0.4243011474609375,-0.033538818359375
41771,1.1688232421875,0.34967041015625,0.0482177734375
41772,1.163467407226562,0.2300872802734375,0.071868896484375
41773,1.126861572265625,0.0993499755859375,0.03912353515625
41774,1.091232299804688,-0.0026092529296875,-0.0141143798828125
41775,1.069610595703125,-0.0664520263671875,-0.0636749267578125
41776,1.062896728515625,-0.0929412841796875,-0.0999755859375
41777,1.05718994140625,-0.07965087890625,-0.111541748046875
41778,1.03619384765625,-0.029754638671875,-0.11029052734375
41779,0.9795379638671876,0.0452423095703125,-0.082855224609375
41780,0.9113006591796876,0.126129150390625,-0.0581207275390625
41781,0.884490966796875,0.21881103515625,-0.0570220947265625
41782,0.88458251953125,0.320465087890625,-0.0611572265625
41783,0.90045166015625,0.4315643310546875,-0.067718505859375
41784,0.9277801513671876,0.552520751953125,-0.0855865478515625
41785,0.9415130615234376,0.675750732421875,-0.1154937744140625
41786,0.9257049560546876,0.7872161865234375,-0.154327392578125
41787,0.8843841552734375,0.8889617919921875,-0.1975860595703125
41788,0.82537841796875,1.000869750976562,-0.24102783203125
41789,0.7509765625,1.108078002929688,-0.2676849365234375
41790,0.6626739501953125,1.173248291015625,-0.276275634765625
41791,0.5724945068359375,1.177154541015625,-0.268890380859375
41792,0.4992218017578125,1.131759643554688,-0.26177978515625
41793,0.4505615234375,1.069229125976562,-0.2460784912109375
41794,0.4067535400390625,1.01177978515625,-0.24951171875
41795,0.379974365234375,0.9537811279296876,-0.294891357421875
41796,0.3791656494140625,0.8948822021484375,-0.297210693359375
41797,0.42266845703125,0.8347930908203125,-0.2384796142578125
41798,0.5101776123046875,0.7818756103515625,-0.1660919189453125
41799,0.6026763916015625,0.739501953125,-0.1119842529296875
41800,0.685211181640625,0.712615966796875,-0.0850067138671875
41801,0.762725830078125,0.682769775390625,-0.1063232421875
41802,0.838104248046875,0.6469879150390625,-0.1823577880859375
41803,0.9116668701171876,0.62286376953125,-0.2815093994140625
41804,0.978546142578125,0.610382080078125,-0.3684539794921875
41805,1.015243530273438,0.603424072265625,-0.42608642578125
41806,0.988250732421875,0.606658935546875,-0.4600982666015625
41807,0.9061431884765624,0.6254730224609375,-0.457550048828125
41808,0.79510498046875,0.6294097900390625,-0.418670654296875
41809,0.683837890625,0.616241455078125,-0.363616943359375
41810,0.594482421875,0.60601806640625,-0.3043060302734375
41811,0.5378570556640625,0.617156982421875,-0.246185302734375
41812,0.508819580078125,0.6620635986328125,-0.212799072265625
41813,0.4724578857421875,0.74298095703125,-0.2132720947265625
41814,0.418701171875,0.8367462158203125,-0.239959716796875
41815,0.366729736328125,0.933746337890625,-0.2743377685546875
41816,0.32928466796875,1.035507202148438,-0.2956390380859375
41817,0.303558349609375,1.132797241210938,-0.3035430908203125
41818,0.2827606201171875,1.2071533203125,-0.321136474609375
41819,0.2614898681640625,1.244842529296875,-0.3456573486328125
41820,0.2389373779296875,1.23223876953125,-0.35296630859375
41821,0.2316436767578125,1.168838500976562,-0.31951904296875
41822,0.25421142578125,1.095169067382812,-0.259857177734375
41823,0.2907257080078125,1.031829833984375,-0.2023773193359375
41824,0.322418212890625,0.9651947021484376,-0.155853271484375
41825,0.353790283203125,0.8978424072265625,-0.1219329833984375
41826,0.3912353515625,0.8377838134765625,-0.1064605712890625
41827,0.4452972412109375,0.7873077392578125,-0.1171417236328125
41828,0.5299072265625,0.7412261962890625,-0.1545867919921875
41829,0.6410980224609375,0.69891357421875,-0.1999359130859375
41830,0.7687835693359375,0.65826416015625,-0.2455902099609375
41831,0.88330078125,0.61151123046875,-0.2559814453125
41832,0.9608917236328124,0.54571533203125,-0.2099151611328125
41833,1.004867553710938,0.4516143798828125,-0.1154632568359375
41834,1.026611328125,0.3387603759765625,-0.00933837890625
41835,1.032318115234375,0.218780517578125,0.0462188720703125
41836,1.031326293945312,0.1113739013671875,0.0549468994140625
41837,1.030502319335938,0.0340728759765625,0.06268310546875
41838,1.043838500976562,-0.0185699462890625,0.0662841796875
41839,1.073776245117188,-0.047210693359375,0.0635223388671875
41840,1.11053466796875,-0.03778076171875,0.0587005615234375
41841,1.14898681640625,0.0186004638671875,0.06573486328125
41842,1.179916381835938,0.1255645751953125,0.0928955078125
41843,1.220611572265625,0.2163543701171875,0.0910797119140625
41844,1.284652709960938,0.291351318359375,0.07366943359375
41845,1.365234375,0.392425537109375,0.0535888671875
41846,1.429534912109375,0.50286865234375,-0.000274658203125
41847,1.442947387695312,0.588714599609375,-0.0776824951171875
41848,1.397109985351562,0.640045166015625,-0.150360107421875
41849,1.302963256835938,0.6735687255859375,-0.192169189453125
41850,1.191879272460938,0.698150634765625,-0.19482421875
41851,1.079376220703125,0.7176513671875,-0.158111572265625
41852,0.9743499755859376,0.739776611328125,-0.11474609375
41853,0.8740234375,0.76739501953125,-0.0938720703125
41854,0.7680511474609375,0.79864501953125,-0.1066436767578125
41855,0.6566162109375,0.817657470703125,-0.1588897705078125
41856,0.55181884765625,0.8198089599609375,-0.23126220703125
41857,0.4659881591796875,0.8163909912109375,-0.3032379150390625
41858,0.380645751953125,0.821990966796875,-0.379302978515625
41859,0.296661376953125,0.8266448974609375,-0.4539642333984375
41860,0.23223876953125,0.817230224609375,-0.4954071044921875
41861,0.18743896484375,0.8025665283203125,-0.4776153564453125
41862,0.1571502685546875,0.81024169921875,-0.4143524169921875
41863,0.1269073486328125,0.845489501953125,-0.316070556640625
41864,0.0990142822265625,0.887237548828125,-0.2160491943359375
41865,0.0843505859375,0.902984619140625,-0.1273040771484375
41866,0.08953857421875,0.8914337158203125,-0.0402374267578125
41867,0.112823486328125,0.871307373046875,0.03741455078125
41868,0.149078369140625,0.85693359375,0.07525634765625
41869,0.1895599365234375,0.8487396240234375,0.043701171875
41870,0.230377197265625,0.8282623291015625,-0.0310211181640625
41871,0.277191162109375,0.8089599609375,-0.1004180908203125
41872,0.337982177734375,0.8111419677734375,-0.15167236328125
41873,0.4126739501953125,0.8479461669921875,-0.21484375
41874,0.49285888671875,0.9119720458984376,-0.303955078125
41875,0.5711212158203125,0.98516845703125,-0.39697265625
41876,0.6488189697265625,1.04669189453125,-0.4423675537109375
41877,0.7141265869140625,1.0853271484375,-0.442779541015625
41878,0.749053955078125,1.104019165039062,-0.443145751953125
41879,0.7379302978515625,1.096649169921875,-0.4589996337890625
41880,0.66741943359375,1.067398071289062,-0.47442626953125
41881,0.56365966796875,1.020965576171875,-0.4737548828125
41882,0.4817352294921875,0.953216552734375,-0.440582275390625
41883,0.4171142578125,0.892822265625,-0.38323974609375
41884,0.363983154296875,0.83831787109375,-0.3263397216796875
41885,0.3311920166015625,0.7718353271484375,-0.2874603271484375
41886,0.3184051513671875,0.693878173828125,-0.26763916015625
41887,0.3295135498046875,0.6093292236328125,-0.25628662109375
41888,0.3706207275390625,0.5245361328125,-0.2584228515625
41889,0.4481201171875,0.4505767822265625,-0.2782135009765625
41890,0.5579071044921875,0.4030303955078125,-0.3032684326171875
41891,0.6914825439453125,0.37591552734375,-0.314910888671875
41892,0.839569091796875,0.3596343994140625,-0.2849884033203125
41893,0.9857025146484376,0.332122802734375,-0.2050323486328125
41894,1.098861694335938,0.2855224609375,-0.125213623046875
41895,1.146560668945312,0.2160797119140625,-0.098388671875
41896,1.129196166992188,0.1338348388671875,-0.1325531005859375
41897,1.094223022460938,0.07086181640625,-0.1792449951171875
41898,1.07489013671875,0.0402984619140625,-0.1976776123046875
41899,1.065277099609375,0.0362701416015625,-0.1833953857421875
41900,1.045669555664062,0.0524139404296875,-0.15631103515625
41901,1.005096435546875,0.0784759521484375,-0.124481201171875
41902,0.9588623046875,0.11993408203125,-0.0981903076171875
41903,0.931976318359375,0.1766510009765625,-0.0867156982421875
41904,0.9259185791015624,0.252593994140625,-0.089691162109375
41905,0.9239349365234376,0.3461151123046875,-0.0947418212890625
41906,0.922149658203125,0.4531707763671875,-0.1076812744140625
41907,0.9075775146484376,0.571807861328125,-0.130889892578125
41908,0.872222900390625,0.691741943359375,-0.1600341796875
41909,0.8115997314453125,0.805694580078125,-0.19525146484375
41910,0.7325592041015625,0.9100494384765624,-0.2277984619140625
41911,0.6533355712890625,0.998565673828125,-0.2600860595703125
41912,0.59210205078125,1.06866455078125,-0.2886810302734375
41913,0.5578155517578125,1.109649658203125,-0.306488037109375
41914,0.5575103759765625,1.11175537109375,-0.306427001953125
41915,0.5804901123046875,1.07952880859375,-0.2862091064453125
41916,0.603546142578125,1.031600952148438,-0.2581634521484375
41917,0.6160736083984375,0.9854583740234376,-0.233551025390625
41918,0.6158447265625,0.9495849609375,-0.216217041015625
41919,0.615234375,0.9046783447265624,-0.2304229736328125
41920,0.63092041015625,0.8207550048828125,-0.246185302734375
41921,0.6636199951171875,0.726806640625,-0.2342681884765625
41922,0.6999969482421875,0.6684417724609375,-0.214569091796875
41923,0.7202911376953125,0.639617919921875,-0.204132080078125
41924,0.7278900146484375,0.6146392822265625,-0.2331085205078125
41925,0.740020751953125,0.5905609130859375,-0.2863311767578125
41926,0.756011962890625,0.584564208984375,-0.3252105712890625
41927,0.77197265625,0.59393310546875,-0.34442138671875
41928,0.7736663818359375,0.6100006103515625,-0.355072021484375
41929,0.7492523193359375,0.62591552734375,-0.370513916015625
41930,0.70086669921875,0.63055419921875,-0.3858489990234375
41931,0.64166259765625,0.6218414306640625,-0.3896331787109375
41932,0.582183837890625,0.61126708984375,-0.3888092041015625
41933,0.5330352783203125,0.6130218505859375,-0.3727264404296875
41934,0.4951171875,0.6405181884765625,-0.3445281982421875
41935,0.4612884521484375,0.7115020751953125,-0.3152618408203125
41936,0.4189300537109375,0.8173980712890625,-0.2931976318359375
41937,0.360260009765625,0.936065673828125,-0.2861175537109375
41938,0.2945709228515625,1.053863525390625,-0.275848388671875
41939,0.2408599853515625,1.166244506835938,-0.266815185546875
41940,0.1957244873046875,1.252838134765625,-0.2655029296875
41941,0.158233642578125,1.298202514648438,-0.3050384521484375
41942,0.1192474365234375,1.287322998046875,-0.353363037109375
41943,0.09503173828125,1.209457397460938,-0.3626251220703125
41944,0.1062774658203125,1.10943603515625,-0.3336334228515625
41945,0.1490325927734375,1.03240966796875,-0.291168212890625
41946,0.2022705078125,0.9764251708984376,-0.248931884765625
41947,0.2613525390625,0.932769775390625,-0.2113800048828125
41948,0.3343658447265625,0.892974853515625,-0.183197021484375
41949,0.4312286376953125,0.84307861328125,-0.161376953125
41950,0.551788330078125,0.77606201171875,-0.13836669921875
41951,0.690155029296875,0.696807861328125,-0.117889404296875
41952,0.836212158203125,0.6233673095703125,-0.109710693359375
41953,0.9795989990234376,0.5482177734375,-0.1142425537109375
41954,1.107818603515625,0.4639434814453125,-0.11083984375
41955,1.205841064453125,0.362091064453125,-0.08544921875
41956,1.25408935546875,0.2571258544921875,-0.0408477783203125
41957,1.245803833007812,0.18084716796875,-0.0081329345703125
41958,1.201889038085938,0.1318359375,0.00396728515625
41959,1.14874267578125,0.090087890625,0.027862548828125
41960,1.118881225585938,0.0632781982421875,0.073699951171875
41961,1.124603271484375,0.0736236572265625,0.13323974609375
41962,1.154434204101562,0.127593994140625,0.208831787109375
41963,1.205093383789062,0.2160186767578125,0.248931884765625
41964,1.25665283203125,0.28497314453125,0.2295074462890625
41965,1.310272216796875,0.3616485595703125,0.151763916015625
41966,1.380859375,0.469268798828125,0.02398681640625
41967,1.465255737304688,0.5786285400390625,-0.103912353515625
